system_ts_ms, sensor_ts_ns, accX, accY, accZ
1680014145414,1194133767569786,1.4610001,7.54995,6.7219505
1680014145414,1194133770071940,1.557,7.4779506,6.6790504
1680014145417,1194133772574325,1.485,7.6170006,6.59805
1680014145421,1194133775076464,1.57605,7.5259504,6.5160003
1680014145424,1194133777578695,1.5109501,7.59495,6.5880003
1680014145425,1194133780080848,1.626,7.4950504,6.6169505
1680014145434,1194133782583310,1.5640501,7.5160503,6.4950004
1680014145434,1194133785085464,1.6360501,7.6069503,6.5140505
1680014145435,1194133787587877,1.62405,7.5840006,6.55695
1680014145435,1194133790090031,1.60695,7.5480003,6.5839505
1680014145437,1194133792592185,1.5979501,7.62195,6.64305
1680014145440,1194133795094416,1.6000501,7.5520506,6.6529503
1680014145442,1194133797596800,1.52295,7.2990003,6.6240005
1680014145445,1194133800098949,1.5979501,7.2390003,6.7630506
1680014145448,1194133802601180,1.7890501,7.1839504,6.80205
1680014145449,1194133805103565,1.9620001,7.071,6.6510005
1680014145452,1194133807605719,1.9399501,7.22205,6.564
1680014145454,1194133810107872,1.9780501,7.2289505,6.7369504
1680014145461,1194133812610334,1.9380001,7.34595,6.71295
1680014145462,1194133815112488,1.9570501,7.31295,6.73395
1680014145464,1194133817614671,2.11305,7.32495,6.7870502
1680014145465,1194133820116901,2.12205,7.2720003,6.7660503
1680014145467,1194133822619286,2.019,7.2430506,6.768
1680014145469,1194133825121440,2.0740502,7.1860504,6.7320004
1680014145472,1194133827623594,2.0740502,7.143,6.53595
1680014145474,1194133830126041,2.1679502,7.155,6.6169505
1680014145479,1194133832628195,2.1769502,6.9820504,6.55695
1680014145479,1194133835130426,2.3089502,6.91095,6.5929503
1680014145482,1194133837632580,2.457,6.8700004,6.6649504
1680014145484,1194133840134767,2.457,6.8269506,6.5620503
1680014145487,1194133842637151,2.529,6.8910003,6.7320004
1680014145489,1194133845139613,2.457,6.8869505,6.71295
1680014145494,1194133847641767,2.4550502,6.8050504,6.6889505
1680014145496,1194133850143942,2.4499502,6.8580003,6.60795
1680014145497,1194133852646172,2.46,6.8869505,6.576
1680014145500,1194133855148326,2.38995,6.8050504,6.5449505
1680014145503,1194133857650480,2.4,6.88395,6.5190005
1680014145504,1194133860152942,2.2729502,6.91095,6.4849505
1680014145507,1194133862655104,2.21805,6.84105,6.6480002
1680014145511,1194133865157489,2.18895,6.9420004,6.4350004
1680014145513,1194133867659643,2.08095,6.8599505,6.387
1680014145514,1194133870161874,1.84695,6.834,6.3490505
1680014145517,1194133872664018,1.9189501,6.8770504,6.3850503
1680014145521,1194133875166402,1.8559501,6.7840505,6.45195
1680014145523,1194133877668633,1.8349501,6.834,6.30105
1680014145528,1194133880170787,1.7170501,6.8890505,6.42105
1680014145528,1194133882673171,1.7029501,6.93195,6.40605
1680014145530,1194133885175325,1.65795,6.8869505,6.3130503
1680014145534,1194133887677556,1.6360501,6.8770504,6.3970504
1680014145536,1194133890179941,1.4680501,6.867,6.39195
1680014145537,1194133892682171,1.5330001,6.9199505,6.4180503
1680014145540,1194133895184325,1.6840501,6.9370503,6.4399505
1680014145545,1194133897686479,1.62405,6.91095,6.46605
1680014145545,1194133900188864,1.7410501,6.94605,6.3490505
1680014145547,1194133902691018,1.55505,6.9250503,6.52605
1680014145550,1194133905193239,1.62195,6.9610505,6.56895
1680014145552,1194133907695624,1.64295,6.918,6.6600003
1680014145554,1194133910197855,1.64295,6.9679503,6.7819505
1680014145557,1194133912700009,1.6650001,6.8770504,6.6840005
1680014145561,1194133915202162,1.6140001,6.8170505,6.59595
1680014145562,1194133917704561,1.605,6.62295,6.71505
1680014145564,1194133920206715,1.6810501,6.40005,6.885
1680014145568,1194133922708946,1.87995,6.4099503,6.8040004
1680014145571,1194133925211330,2.1049502,6.4339504,6.71505
1680014145574,1194133927713561,2.32305,6.5989504,6.7969503
1680014145578,1194133930215715,2.505,6.5869503,6.8899503
1680014145578,1194133932717869,2.56305,6.5149503,6.7060504
1680014145580,1194133935220253,2.59395,6.4480505,6.71295
1680014145583,1194133937722479,2.80005,6.42705,6.5280004
1680014145585,1194133940224864,2.79795,6.4459505,6.531
1680014145587,1194133942727018,2.90295,6.465,6.3850503
1680014145589,1194133945229172,2.9920502,6.66405,6.5929503
1680014145594,1194133947731430,3.1660502,6.8599505,6.7579503
1680014145595,1194133950233815,3.13995,6.9559503,7.14195
1680014145597,1194133952736046,3.1639502,7.2670503,7.11
1680014145599,1194133955238200,3.1420503,7.497,7.1389503
1680014145602,1194133957740584,2.9530501,7.5670505,6.9280505
1680014145604,1194133960242725,2.5890002,7.4809504,6.7489505
1680014145611,1194133962744879,2.5840502,7.464,6.7320004
1680014145611,1194133965247110,2.4409502,7.3699503,6.7660503
1680014145613,1194133967749507,2.28705,7.1929502,6.7320004
1680014145615,1194133970251738,2.39505,7.1790004,6.7320004
1680014145617,1194133972753892,2.01705,7.0729504,6.708
1680014145620,1194133975256277,2.04795,7.1860504,6.8089504
1680014145623,1194133977758430,1.71,7.01805,6.6649504
1680014145625,1194133980260613,1.7389501,7.0729504,6.6510005
1680014145629,1194133982762844,1.6860001,7.0470004,6.7870502
1680014145629,1194133985265229,1.69095,7.01595,6.7660503
1680014145632,1194133987767459,1.09695,6.69495,6.55695
1680014145635,1194133990269603,1.4760001,6.9660006,6.73395
1680014145637,1194133992771988,1.8679501,7.2310505,7.1059504
1680014145640,1194133995274142,1.9860001,7.38705,6.8760004
1680014145644,1194133997776372,2.0670002,7.4280005,6.7510505
1680014145646,1194134000278757,2.0359502,7.6390505,6.8569503
1680014145648,1194134002780911,1.9429501,7.63605,6.8809505
1680014145650,1194134005283142,1.9350001,7.6270504,6.8040004
1680014145652,1194134007785526,1.9620001,7.5210004,6.912
1680014145654,1194134010287680,1.8280501,7.4490004,6.94995
1680014145657,1194134012789820,2.09805,7.35405,7.0909505
1680014145661,1194134015292282,2.16,7.4160004,6.90705
1680014145663,1194134017794435,2.2680001,7.4370003,7.0290003
1680014145665,1194134020296589,2.17995,7.41795,6.83505
1680014145668,1194134022798820,2.232,7.4830503,6.8040004
1680014145670,1194134025300974,2.1049502,7.3489504,6.8490005
1680014145672,1194134027803359,2.0740502,7.3660502,6.77295
1680014145675,1194134030305589,1.8970501,7.3630505,6.83295
1680014145679,1194134032807974,1.8520501,7.3560004,6.8250003
1680014145680,1194134035310142,1.8010501,7.2049503,6.76095
1680014145684,1194134037812296,1.7389501,7.2460504,6.8179502
1680014145686,1194134040314526,1.6500001,7.10895,6.84495
1680014145687,1194134042816680,1.57095,7.01805,6.86595
1680014145689,1194134045319075,1.46595,7.09005,6.8419504
1680014145694,1194134047821306,1.4800501,7.0279503,6.7990503
1680014145695,1194134050323460,1.49205,6.9559503,6.84705
1680014145697,1194134052825844,1.5310501,6.9559503,6.7270503
1680014145701,1194134055328070,1.55505,7.01805,6.71295
1680014145703,1194134057830224,1.7010001,7.1380506,6.74595
1680014145705,1194134060332378,1.54305,6.9420004,6.591
1680014145707,1194134062834839,1.6290001,6.9370503,6.6600003
1680014145713,1194134065336993,1.66005,6.8290505,6.6150002
1680014145714,1194134067839142,1.8730501,7.116,6.68205
1680014145714,1194134070341527,2.05005,7.04505,6.84
1680014145717,1194134072843757,2.06205,7.1020503,6.8419504
1680014145721,1194134075345911,1.914,6.93195,6.813
1680014145724,1194134077848306,1.8180001,6.8700004,6.7510505
1680014145729,1194134080350537,2.04795,6.9540005,6.84705
1680014145730,1194134082852690,2.022,6.8959503,6.9430504
1680014145730,1194134085354844,2.2080002,6.9940505,6.9310503
1680014145732,1194134087857229,2.09805,6.93195,6.93795
1680014145735,1194134090359378,2.15805,6.8869505,6.8419504
1680014145737,1194134092861839,2.05005,6.939,6.8280005
1680014145740,1194134095363993,2.08095,6.7720504,6.8370004
1680014145745,1194134097866224,3.7480502,7.49205,-0.47595003
1680014145746,1194134100368359,3.4950001,8.400001,-1.24695
1680014145747,1194134102870743,1.9189501,7.9069505,4.65105
1680014145750,1194134105372897,-0.36495003,6.5850005,9.40005
1680014145752,1194134107875051,-1.7590501,5.907,10.07295
1680014145754,1194134110377513,-2.20005,5.6460004,9.028951
1680014145761,1194134112879648,-1.6849501,5.919,8.7289505
1680014145761,1194134115381879,-1.3450501,6.07905,8.655001
1680014145763,1194134117884033,-0.83505005,6.4360504,8.42805
1680014145765,1194134120386403,-0.22395001,6.4290004,7.4149504
1680014145767,1194134122888557,0.42000002,6.7170005,6.74595
1680014145770,1194134125390787,1.0320001,7.2070503,6.0280504
1680014145772,1194134127893172,1.8709501,7.7509503,5.63805
1680014145774,1194134130395326,2.4049501,7.8490505,5.6970005
1680014145778,1194134132897499,2.97,7.9620004,5.91795
1680014145781,1194134135399729,3.5659502,8.161051,6.4609504
1680014145783,1194134137902114,3.933,8.359051,6.97905
1680014145785,1194134140404359,3.5140502,7.8949504,7.3000503
1680014145787,1194134142906513,3.9640503,7.6510506,7.1509504
1680014145789,1194134145408897,3.9900002,7.7800503,7.1269503
1680014145794,1194134147911051,4.2780004,7.9879503,7.3240504
1680014145796,1194134150413254,4.5700502,7.8799505,7.8700504
1680014145798,1194134152915408,4.2390003,7.6980004,6.6670504
1680014145800,1194134155417792,4.1410503,7.8919506,7.5370502
1680014145802,1194134157920023,4.39305,8.13405,8.272051
1680014145805,1194134160422177,4.2780004,8.39505,7.6849504
1680014145807,1194134162924557,3.8080502,7.794,7.9150505
1680014145810,1194134165426787,3.5350502,7.6650004,7.3669505
1680014145812,1194134167928941,3.11805,6.9300003,7.6920004
1680014145815,1194134170431326,3.0319502,6.90105,7.7089505
1680014145817,1194134172933503,2.8140001,6.4630504,7.4550004
1680014145820,1194134175435734,2.8240502,6.288,6.9310503
1680014145823,1194134177937887,3.1690502,6.07695,7.0069504
1680014145825,1194134180440349,3.0370502,6.0390005,7.6519504
1680014145827,1194134182942517,2.697,6.2730002,6.6049504
1680014145830,1194134185444671,2.5530002,6.5340004,6.603
1680014145834,1194134187947055,1.84905,6.465,6.8040004
1680014145836,1194134190449209,1.983,6.8239503,7.4359503
1680014145838,1194134192951426,1.6140001,7.39905,7.3999505
1680014145840,1194134195453580,1.2409501,8.20395,6.49305
1680014145842,1194134197955964,1.65795,8.22795,6.59595
1680014145845,1194134200458195,1.677,8.101951,7.7910004
1680014145847,1194134202960580,1.60695,7.79895,5.9659505
1680014145851,1194134205462724,1.43505,7.1329503,5.4820504
1680014145853,1194134207964877,1.164,6.9540005,5.6970005
1680014145855,1194134210467108,1.3729501,6.91095,6.6550503
1680014145857,1194134212969493,1.3579501,6.69495,7.0069504
1680014145860,1194134215471628,1.21905,6.6589503,6.9550505
1680014145863,1194134217973858,0.89505005,6.7050004,6.912
1680014145865,1194134220476243,1.7050501,7.04505,6.972
1680014145867,1194134222978397,1.9780501,7.4130006,6.87795
1680014145871,1194134225480570,1.81605,7.7080503,6.4300504
1680014145874,1194134227983031,2.01195,7.7629504,6.2959504
1680014145875,1194134230485185,1.8180001,7.7029505,6.1380005
1680014145877,1194134232987339,1.7719501,7.6170006,5.9370003
1680014145880,1194134235489556,2.4190502,7.4610004,5.9440503
1680014145883,1194134237991710,2.57505,7.6099505,6.0160503
1680014145885,1194134240494094,2.4840002,7.5690002,6.0589504
1680014145887,1194134242996325,2.08905,7.6270504,6.16695
1680014145890,1194134245498710,1.9260001,7.7029505,6.2530503
1680014145892,1194134248000864,2.01195,8.142,6.3820505
1680014145895,1194134250503094,2.493,7.9759502,6.56895
1680014145897,1194134253005248,2.7540002,7.7440505,6.30105
1680014145901,1194134255507411,2.97,7.6309505,6.6510005
1680014145903,1194134258009873,2.80995,7.5120006,6.5160003
1680014145905,1194134260512257,2.493,7.45695,6.3780003
1680014145909,1194134263014411,2.4430501,7.00605,6.057
1680014145911,1194134265516584,1.9279501,6.73995,6.0210004
1680014145913,1194134268018815,1.593,6.4840503,5.9989505
1680014145915,1194134270520969,1.52295,6.4219503,5.96295
1680014145918,1194134273023122,1.9660501,7.011,6.2530503
1680014145921,1194134275525584,2.7139502,7.2769504,6.36105
1680014145923,1194134278027743,2.7930002,7.1449504,6.3970504
1680014145925,1194134280530127,2.7930002,6.7189503,6.13605
1680014145927,1194134283032281,2.70405,6.5340004,6.32205
1680014145931,1194134285534512,2.3400002,6.49095,6.4879503
1680014145933,1194134288036652,2.6749501,6.58995,6.5670004
1680014145935,1194134290539037,2.36205,6.7549505,6.5520005
1680014145938,1194134293041267,2.5800002,6.7429504,6.7320004
1680014145942,1194134295543421,2.709,7.05705,6.7270503
1680014145943,1194134298045782,2.9149501,7.07805,6.7540503
1680014145948,1194134300547936,3.0319502,7.1860504,6.6510005
1680014145949,1194134303050166,3.2410502,7.2070503,6.73005
1680014145951,1194134305552551,3.4780502,7.32,6.6940503
1680014145953,1194134308054782,3.4660501,7.2700505,6.8280005
1680014145955,1194134310556916,3.38895,7.25505,6.7780504
1680014145957,1194134313059069,3.2599502,7.22205,6.7939506
1680014145960,1194134315561454,3.2650502,7.04505,6.8089504
1680014145963,1194134318063608,3.1660502,7.2289505,6.8950505
1680014145965,1194134320566079,3.2020502,7.2120004,6.8899503
1680014145968,1194134323068233,3.1260002,7.1929502,6.9040504
1680014145971,1194134325570464,3.1620002,7.31295,6.7990503
1680014145973,1194134328072618,3.0610502,7.2630005,6.6840005
1680014145975,1194134330574738,2.93895,7.2580504,6.7200003
1680014145977,1194134333077122,2.9530501,7.2649503,6.7320004
1680014145982,1194134335579353,2.8600502,7.2910504,6.636
1680014145985,1194134338081714,2.83605,7.3030505,6.6769505
1680014145987,1194134340583868,2.69895,7.3369503,6.6460505
1680014145989,1194134343086098,2.63505,7.3900504,6.6510005
1680014145992,1194134345588252,2.5440001,7.32,6.6460505
1680014145994,1194134348090406,2.4790502,7.35405,6.6580505
1680014145996,1194134350592777,2.457,7.3099504,6.6240005
1680014145997,1194134353095008,2.532,7.215,6.5790005
1680014146001,1194134355597392,2.46495,7.2700505,6.6460505
1680014146003,1194134358099546,2.4480002,7.26,6.6600003
1680014146005,1194134360601777,2.496,7.1070004,6.576
1680014146008,1194134363103961,2.6230502,7.0639505,6.77505
1680014146011,1194134365606345,2.60805,7.05705,6.6889505
1680014146013,1194134368108576,2.7589502,7.0609503,6.708
1680014146015,1194134370610730,2.697,7.08795,6.70305
1680014146017,1194134373113115,2.7810001,7.14795,6.6270003
1680014146023,1194134375615253,2.7570002,7.0540504,6.64305
1680014146026,1194134378116330,2.83095,7.0540504,6.7510505
1680014146026,1194134380617407,2.8549502,6.9799504,6.64305
1680014146028,1194134383122100,2.8980002,7.0350003,6.708
1680014146031,1194134385624248,2.7160501,6.939,6.76095
1680014146032,1194134388126402,2.67105,7.03695,6.70305
1680014146035,1194134390628787,2.7139502,7.0470004,6.71505
1680014146048,1194134393130941,2.73495,6.9900002,6.59595
1680014146048,1194134395633090,2.7259502,7.07805,6.6840005
1680014146048,1194134398135551,2.7540002,7.0950003,6.6910505
1680014146049,1194134400637782,2.7190502,7.0399504,6.6000004
1680014146049,1194134403139936,2.6850002,7.071,6.6240005
1680014146051,1194134405642100,2.5459502,7.0470004,6.53805
1680014146052,1194134408144484,2.5890002,7.0279503,6.55695
1680014146054,1194134410646638,2.52705,7.0470004,6.59805
1680014146059,1194134413148869,2.4409502,6.9750004,6.70095
1680014146062,1194134415651248,2.50095,7.03695,6.6390004
1680014146064,1194134418153402,2.4169502,6.9559503,6.6910505
1680014146066,1194134420655633,2.36595,6.9799504,6.6240005
1680014146068,1194134423158018,2.4070501,7.0690503,6.73395
1680014146070,1194134425660172,2.29905,7.0639505,6.6840005
1680014146072,1194134428162316,2.38995,7.0660505,6.7320004
1680014146075,1194134430664778,2.4100502,7.0249505,6.7270503
1680014146077,1194134433166932,2.328,7.0690503,6.7270503
1680014146080,1194134435669163,2.39805,7.0470004,6.696
1680014146082,1194134438171325,2.4139502,6.9870005,6.7630506
1680014146085,1194134440673710,2.49105,7.0279503,6.67005
1680014146087,1194134443175864,2.4430501,6.98505,6.7900505
1680014146091,1194134445678095,2.4499502,7.0729504,6.7560005
1680014146093,1194134448180474,2.4769502,7.0810504,6.7900505
1680014146097,1194134450682628,2.5099502,7.071,6.708
1680014146100,1194134453184782,2.5459502,7.0950003,6.708
1680014146102,1194134455687013,2.4480002,7.1520004,6.76095
1680014146104,1194134458189397,2.57505,7.188,6.852
1680014146107,1194134460691628,2.5870502,7.2670503,6.7320004
1680014146108,1194134463193782,2.6800501,7.2670503,6.84495
1680014146111,1194134465696167,2.69895,7.2840004,6.873
1680014146113,1194134468198321,2.57505,7.2360005,6.7939506
1680014146115,1194134470700556,2.673,7.287,6.7780504
1680014146119,1194134473202710,2.6779501,7.1640005,6.7990503
1680014146121,1194134475705095,2.5870502,7.1310005,6.7510505
1680014146123,1194134478207326,2.59395,7.10895,6.70305
1680014146125,1194134480709700,2.529,7.0210505,6.7579503
1680014146128,1194134483211854,2.5129502,6.939,6.7219505
1680014146131,1194134485714008,2.6539502,6.9490504,6.7180505
1680014146135,1194134488216239,2.5410001,7.0729504,6.6000004
1680014146136,1194134490718413,2.4499502,6.9660006,6.4950004
1680014146138,1194134493220797,2.568,7.0210505,6.6340504
1680014146142,1194134495723028,2.6509502,6.97305,6.5790005
1680014146143,1194134498225413,2.43405,6.94605,6.4489503
1680014146145,1194134500727595,2.3110502,6.94605,6.33405
1680014146147,1194134503229749,2.4430501,7.011,6.3420005
1680014146153,1194134505731980,2.3689501,7.0020003,6.2359505
1680014146153,1194134508234365,2.4790502,7.09005,6.2719502
1680014146155,1194134510736518,2.5099502,7.0350003,6.3679504
1680014146158,1194134513238763,2.4720001,7.0350003,6.18795
1680014146161,1194134515740917,2.43405,7.1400003,6.3300004
1680014146163,1194134518243302,2.30205,7.5330005,6.4489503
1680014146165,1194134520745456,2.94105,7.82805,6.282
1680014146168,1194134523247912,3.04695,7.66305,5.6779504
1680014146173,1194134525750066,2.35905,7.3510504,5.98995
1680014146175,1194134528252297,1.7920501,7.0999503,5.9419503
1680014146179,1194134530754441,1.5280501,6.9420004,5.9490004
1680014146179,1194134533256594,1.4470501,6.8959503,5.90595
1680014146182,1194134535758979,1.3920001,6.939,5.9680505
1680014146186,1194134538261441,1.5640501,6.9679503,5.9560504
1680014146187,1194134540763594,1.8010501,6.98505,5.9869504
1680014146188,1194134543265768,1.9039501,7.07805,6.15
1680014146191,1194134545767922,1.95,7.3699503,6.1050005
1680014146193,1194134548270384,2.06205,7.4449506,6.1260004
1680014146195,1194134550772538,2.11305,7.5280504,6.2050505
1680014146198,1194134553274691,2.259,7.6789503,5.89095
1680014146201,1194134555776941,2.21805,7.7800503,5.77605
1680014146203,1194134558279095,2.1100502,7.7059503,5.83395
1680014146205,1194134560781480,1.8610501,7.7869506,5.8510504
1680014146209,1194134563283719,1.8679501,7.7890506,5.7169504
1680014146212,1194134565786104,1.6720501,7.8250504,5.8360505
1680014146213,1194134568288258,1.6699501,7.85895,5.9269505
1680014146215,1194134570790412,1.6000501,7.7920504,6.0139503
1680014146218,1194134573292643,1.54305,7.9260006,6.02295
1680014146222,1194134575794801,1.66005,7.9399505,5.9940004
1680014146224,1194134578297186,1.7560501,7.96395,5.89095
1680014146225,1194134580799417,1.761,8.014951,5.8099504
1680014146228,1194134583301801,1.81305,8.13405,5.8050003
1680014146231,1194134585803955,1.866,8.175,5.8630505
1680014146233,1194134588306124,1.5670501,8.137051,5.77395
1680014146235,1194134590808355,1.3249501,7.9570503,5.649
1680014146238,1194134593310509,1.1710501,7.80105,5.6850004
1680014146241,1194134595812970,1.23405,7.7440505,5.60895
1680014146242,1194134598315124,1.42005,7.5210004,5.7379503
1680014146247,1194134600817489,1.57095,7.4830503,5.91795
1680014146248,1194134603319643,1.69605,7.3900504,6.117
1680014146252,1194134605821873,1.71,7.32,6.3559504
1680014146253,1194134608324008,1.7010001,7.2670503,6.3799505
1680014146255,1194134610826393,1.8900001,7.083,6.4690504
1680014146259,1194134613328624,2.14905,7.0609503,6.39405
1680014146262,1194134615830778,2.25405,6.9679503,6.4900503
1680014146264,1194134618332945,2.568,6.9559503,6.4690504
1680014146266,1194134620835330,2.70195,6.9750004,6.6480002
1680014146268,1194134623337561,2.7499502,7.0519505,6.6049504
1680014146271,1194134625839945,2.838,7.0969505,6.5280004
1680014146273,1194134628342099,2.84295,7.2840004,6.531
1680014146276,1194134630844350,2.778,7.3339505,6.5520005
1680014146279,1194134633346504,2.838,7.3780503,6.5599504
1680014146281,1194134635848658,2.7589502,7.5760503,6.6529503
1680014146286,1194134638351042,2.7499502,7.6980004,6.663
1680014146287,1194134640853263,2.70705,7.7800503,6.50895
1680014146288,1194134643355648,2.6130002,7.6270504,6.5839505
1680014146291,1194134645857802,2.6110501,7.7149506,6.564
1680014146293,1194134648360032,2.457,7.5600004,6.73005
1680014146295,1194134650862186,2.4739501,7.5520506,6.5119505
1680014146299,1194134653364566,2.259,7.45905,6.5599504
1680014146302,1194134655866720,2.2399502,7.45905,6.4180503
1680014146304,1194134658368950,2.2750502,7.4059505,6.3850503
1680014146306,1194134660871335,2.2399502,7.392,6.4110003
1680014146308,1194134663373566,2.08395,7.31295,6.3679504
1680014146311,1194134665875686,2.22795,7.3369503,6.3510003
1680014146312,1194134668377840,2.12895,7.3699503,6.3109503
1680014146315,1194134670880224,2.0770502,7.3339505,6.2530503
1680014146318,1194134673382455,2.06205,7.4230504,6.2700005
1680014146323,1194134675884605,2.1319501,7.4059505,6.2080503
1680014146324,1194134678386989,2.05005,7.39905,6.0490503
1680014146326,1194134680889220,2.0770502,7.4730005,6.1260004
1680014146328,1194134683391374,2.0740502,7.4809504,6.234
1680014146331,1194134685893513,1.9620001,7.5210004,6.2310004
1680014146333,1194134688395974,2.0329502,7.4830503,6.2749505
1680014146335,1194134690898128,2.0740502,7.5790505,6.234
1680014146338,1194134693400282,2.0400002,7.5330005,6.2629504
1680014146342,1194134695902672,2.1319501,7.5450006,6.31995
1680014146343,1194134698404826,2.0770502,7.5480003,6.3300004
1680014146345,1194134700907056,2.18205,7.6390505,6.354
1680014146347,1194134703409441,2.127,7.62195,6.3700504
1680014146351,1194134705911672,2.17995,7.5760503,6.4180503
1680014146353,1194134708413821,2.18895,7.5859504,6.3510003
1680014146355,1194134710916205,2.26305,7.5520506,6.2839503
1680014146360,1194134713418359,2.22,7.5790505,6.4090505
1680014146362,1194134715920513,2.259,7.54995,6.4110003
1680014146363,1194134718422715,2.3449502,7.5810003,6.2719502
1680014146366,1194134720925099,2.3430002,7.6429505,6.3780003
1680014146367,1194134723427330,2.436,7.62405,6.3130503
1680014146371,1194134725929484,2.46195,7.6860003,6.3580503
1680014146372,1194134728431869,2.5150502,7.5979505,6.3460503
1680014146376,1194134730934022,2.53695,7.5600004,6.4830003
1680014146378,1194134733436176,2.59605,7.6270504,6.49305
1680014146381,1194134735938638,2.63895,7.54995,6.40395
1680014146383,1194134738440792,2.742,7.5450006,6.5280004
1680014146385,1194134740942932,2.8170002,7.485,6.5280004
1680014146388,1194134743445162,2.901,7.5760503,6.5209503
1680014146391,1194134745947547,2.8930502,7.4689503,6.56895
1680014146393,1194134748449701,2.9320502,7.5379505,6.5329504
1680014146396,1194134750951927,2.94405,7.4610004,6.6270003
1680014146398,1194134753454311,2.9290502,7.4539504,6.6910505
1680014146401,1194134755956465,2.913,7.29405,6.68205
1680014146403,1194134758458696,2.8549502,7.4329505,6.6169505
1680014146405,1194134760960850,3.0349503,7.3939505,6.73395
1680014146408,1194134763463200,2.913,7.38495,6.6649504
1680014146411,1194134765965431,2.8620002,7.4950504,6.6670504
1680014146413,1194134768467816,2.9629502,7.4280005,6.636
1680014146415,1194134770969970,2.80695,7.4689503,6.70095
1680014146418,1194134773472147,2.86695,7.4040003,6.5929503
1680014146422,1194134775974378,2.77395,7.3750505,6.663
1680014146425,1194134778476532,2.7210002,7.4490004,6.6150002
1680014146426,1194134780978917,2.7900002,7.39905,6.6340504
1680014146428,1194134783481133,2.77605,7.39905,6.6169505
1680014146431,1194134785983518,2.604,7.2750006,6.5400004
1680014146434,1194134788485672,2.6250002,7.4470506,6.6169505
1680014146436,1194134790987826,2.50095,7.4089503,6.53805
1680014146438,1194134793490052,2.4810002,7.4470506,6.49695
1680014146441,1194134795992205,2.46705,7.42995,6.5160003
1680014146443,1194134798494590,2.4120002,7.3030505,6.4810505
1680014146445,1194134800996821,2.4070501,7.3699503,6.5400004
1680014146448,1194134803499205,2.364,7.3630505,6.4879503
1680014146453,1194134806001349,2.32605,7.3219504,6.4399505
1680014146454,1194134808503503,2.24895,7.3699503,6.339
1680014146456,1194134811005734,2.26605,7.3680005,6.4090505
1680014146458,1194134813508119,2.15295,7.3939505,6.4300504
1680014146462,1194134816010373,2.283,7.4329505,6.3850503
1680014146464,1194134818512527,2.3040001,7.38705,6.327
1680014146466,1194134821014681,2.26095,7.3900504,6.3300004
1680014146468,1194134823517066,2.23005,7.5019503,6.3370504
1680014146473,1194134826019306,2.21295,7.3780503,6.3630004
1680014146474,1194134828521691,2.19195,7.3420506,6.3109503
1680014146476,1194134831023845,2.3040001,7.4010005,6.2790003
1680014146478,1194134833526076,2.3110502,7.3699503,6.2910004
1680014146481,1194134836028263,2.295,7.3969502,6.37305
1680014146484,1194134838530417,2.28705,7.3699503,6.387
1680014146486,1194134841032802,2.2470002,7.4230504,6.327
1680014146488,1194134843535033,2.39805,7.3420506,6.3850503
1680014146491,1194134846037436,2.35395,7.3660502,6.3780003
1680014146493,1194134848539590,2.3710501,7.4329505,6.4090505
1680014146495,1194134851041821,2.4,7.3699503,6.42495
1680014146498,1194134853543975,2.3710501,7.3939505,6.459
1680014146502,1194134856046143,2.4049501,7.4059505,6.43305
1680014146503,1194134858548527,2.4049501,7.4370003,6.4900503
1680014146505,1194134861050758,2.4739501,7.287,6.5140505
1680014146510,1194134863553148,2.48895,7.32,6.6529503
1680014146512,1194134866055302,2.4859502,7.1929502,6.59805
1680014146513,1194134868557532,2.63205,7.3030505,6.5860505
1680014146515,1194134871059686,2.5459502,7.2460504,6.61005
1680014146518,1194134873562071,2.5819502,7.3060503,6.543
1680014146522,1194134876064291,2.55795,7.2390003,6.5479503
1680014146523,1194134878566444,2.62995,7.2990003,6.6270003
1680014146526,1194134881068829,2.6850002,7.1839504,6.6769505
1680014146529,1194134883570983,2.637,7.32495,6.68205
1680014146531,1194134886073239,2.742,7.3060503,6.6340504
1680014146534,1194134888575393,2.7210002,7.3489504,6.7219505
1680014146535,1194134891077854,2.66805,7.2910504,6.6510005
1680014146538,1194134893580008,2.7190502,7.2769504,6.6049504
1680014146542,1194134896082166,2.7640502,7.32705,6.53805
1680014146545,1194134898584550,2.766,7.3630505,6.6580505
1680014146549,1194134901086704,2.7589502,7.3750505,6.49305
1680014146551,1194134903588935,2.70405,7.3099504,6.4810505
1680014146553,1194134906091320,2.7469501,7.2670503,6.6150002
1680014146554,1194134908593550,2.7139502,7.24095,6.4950004
1680014146556,1194134911095704,2.778,7.3660502,6.6000004
1680014146558,1194134913597858,2.73795,7.3060503,6.33195
1680014146561,1194134916100243,2.73495,7.392,6.4450502
1680014146563,1194134918602416,2.7520502,7.248,6.5400004
1680014146565,1194134921104877,2.6950502,7.15005,6.4999504
1680014146568,1194134923607031,2.7210002,7.1910005,6.5160003
1680014146571,1194134926109185,2.69895,7.1839504,6.4999504
1680014146573,1194134928611436,2.70195,7.1310005,6.459
1680014146575,1194134931113820,2.7160501,7.1190004,6.5860505
1680014146578,1194134933616051,2.6539502,7.04895,6.45195
1680014146582,1194134936118205,2.601,7.0279503,6.3850503
1680014146586,1194134938620349,2.628,7.0519505,6.4609504
1680014146587,1194134941122733,2.604,7.0399504,6.39405
1680014146590,1194134943624887,2.5840502,7.011,6.45195
1680014146592,1194134946127041,2.60595,7.03695,6.4729505
1680014146594,1194134948629503,2.6590502,6.9679503,6.3490505
1680014146596,1194134951131757,2.6830502,7.011,6.5329504
1680014146598,1194134953633911,2.53395,7.04505,6.2910004
1680014146602,1194134956136065,2.57505,7.01595,6.2530503
1680014146603,1194134958638450,2.628,7.0230002,6.354
1680014146605,1194134961140604,2.59605,7.0470004,6.1789503
1680014146608,1194134963643065,2.5530002,6.9270005,6.2770505
1680014146611,1194134966145219,2.5510502,7.0249505,6.2359505
1680014146613,1194134968647373,2.457,6.98505,6.3559504
1680014146615,1194134971149604,2.5890002,7.00395,6.24795
1680014146618,1194134973651978,2.46705,7.0540504,6.354
1680014146624,1194134976154132,2.46195,6.9919505,6.399
1680014146626,1194134978655247,2.4450002,6.9540005,6.1930504
1680014146626,1194134981156364,2.493,7.1020503,6.354
1680014146628,1194134983660901,2.4480002,6.94395,6.24795
1680014146631,1194134986163007,2.4,6.9250503,6.4020004
1680014146633,1194134988665238,2.39805,6.94395,6.3109503
1680014146635,1194134991167623,2.319,6.9870005,6.33195
1680014146638,1194134993669858,2.42205,6.9559503,6.366
1680014146641,1194134996172012,2.352,6.9679503,6.2719502
1680014146643,1194134998674397,2.3860502,7.0519505,6.2029505
1680014146645,1194135001176551,2.4430501,6.9540005,6.30105
1680014146648,1194135003678705,2.4,6.9660006,6.2200503
1680014146651,1194135006180921,2.38995,6.9270005,6.2200503
1680014146653,1194135008683306,2.4139502,6.91305,6.234
1680014146656,1194135011185537,2.496,6.94395,6.2530503
1680014146660,1194135013687676,2.3400002,6.93195,6.22905
1680014146663,1194135016190060,2.529,6.9270005,6.2580004
1680014146669,1194135018692214,2.4379501,6.9580503,6.13605
1680014146669,1194135021194445,2.52195,7.0020003,6.3180003
1680014146669,1194135023696599,2.52195,6.9610505,6.3510003
1680014146671,1194135026198998,2.59605,7.0210505,6.354
1680014146673,1194135028701229,2.60595,6.9660006,6.354
1680014146675,1194135031203383,2.568,6.9580503,6.354
1680014146678,1194135033705537,2.565,7.01595,6.47805
1680014146681,1194135036207897,2.66595,6.9919505,6.366
1680014146683,1194135038710128,2.6230502,6.9820504,6.3780003
1680014146686,1194135041212513,2.70195,6.93195,6.40605
1680014146688,1194135043714667,2.7520502,6.98505,6.42495
1680014146691,1194135046216892,2.77095,6.9750004,6.47805
1680014146693,1194135048719046,2.70195,7.0090504,6.543
1680014146697,1194135051221200,2.742,6.97305,6.4350004
1680014146699,1194135053723585,2.8330503,7.0420504,6.543
1680014146702,1194135056226031,2.81205,7.00395,6.4729505
1680014146704,1194135058728185,2.80695,7.04505,6.5190005
1680014146706,1194135061230339,2.8909502,7.00605,6.4950004
1680014146708,1194135063732570,2.9650502,6.9799504,6.4489503
1680014146711,1194135066234724,2.8549502,7.1140504,6.4350004
1680014146713,1194135068737099,2.946,6.9870005,6.5280004
1680014146716,1194135071239330,2.97705,7.0729504,6.5329504
1680014146718,1194135073741484,2.9200501,7.0330505,6.42495
1680014146722,1194135076243868,3.0300002,6.9919505,6.543
1680014146724,1194135078746098,2.90805,7.0279503,6.5140505
1680014146726,1194135081248252,2.8980002,7.04505,6.5670004
1680014146728,1194135083750406,3.07095,7.0729504,6.4999504
1680014146731,1194135086252791,2.9149501,7.1310005,6.3510003
1680014146735,1194135088755002,2.946,7.0609503,6.4420505
1680014146737,1194135091257156,2.90805,6.9919505,6.5070004
1680014146739,1194135093759541,2.8530002,7.0249505,6.4420505
1680014146742,1194135096261772,2.8960502,7.0020003,6.471
1680014146745,1194135098763940,2.802,7.0279503,6.4420505
1680014146746,1194135101266094,2.83095,7.1070004,6.4729505
1680014146748,1194135103768556,2.77095,7.05705,6.399
1680014146752,1194135106270710,2.7190502,6.9750004,6.5719504
1680014146753,1194135108772864,2.742,6.9220505,6.3750005
1680014146756,1194135111275248,2.73105,6.9490504,6.5550003
1680014146759,1194135113777402,2.73105,6.9420004,6.43305
1680014146762,1194135116279633,2.5840502,6.94605,6.4450502
1680014146764,1194135118782017,2.66595,6.9919505,6.3460503
1680014146768,1194135121284224,2.6850002,6.9420004,6.3630004
1680014146769,1194135123786378,2.55795,6.7980003,6.3180003
1680014146773,1194135126288763,2.5890002,6.91305,6.3820505
1680014146775,1194135128790917,2.601,6.9300003,6.3300004
1680014146776,1194135131293070,2.63895,6.8430004,6.28905
1680014146778,1194135133795522,2.6539502,6.8430004,6.339
1680014146783,1194135136297753,2.6110501,6.7639503,6.33405
1680014146785,1194135138799830,2.5890002,6.7380004,6.3700504
1680014146786,1194135141302060,2.57205,6.8430004,6.31995
1680014146788,1194135143804445,2.5770001,6.8149505,6.387
1680014146791,1194135146306599,2.4769502,6.7380004,6.339
1680014146793,1194135148808830,2.53905,6.7170005,6.29895
1680014146795,1194135151311214,2.565,6.84105,6.3130503
1680014146798,1194135153813368,2.529,6.7309504,6.4450502
1680014146801,1194135156315536,2.493,6.8149505,6.36105
1680014146803,1194135158817767,2.5480502,6.72795,6.3799505
1680014146805,1194135161320151,2.5770001,6.7570505,6.4159503
1680014146809,1194135163822310,2.59395,6.774,6.399
1680014146812,1194135166324541,2.57505,6.80805,6.4540505
1680014146814,1194135168826926,2.6749501,6.8190002,6.4470005
1680014146816,1194135171329079,2.5890002,6.9030004,6.52605
1680014146818,1194135173831310,2.6850002,6.9420004,6.4140005
1680014146822,1194135176333460,2.7109501,6.9679503,6.53805
1680014146823,1194135178835614,2.62995,7.00395,6.3109503
1680014146825,1194135181338075,2.6950502,6.9679503,6.5160003
1680014146828,1194135183840460,2.8140001,7.0300503,6.531
1680014146831,1194135186342618,2.76195,7.1070004,6.49695
1680014146834,1194135188844772,2.8140001,7.04895,6.42495
1680014146835,1194135191347003,2.7520502,7.14795,6.3370504
1680014146838,1194135193849156,2.802,7.0690503,6.4470005
1680014146841,1194135196351541,2.84295,7.2190504,6.40395
1680014146843,1194135198853753,2.80005,7.2670503,6.3679504
1680014146847,1194135201355907,2.8170002,7.3180504,6.3780003
1680014146849,1194135203858291,2.838,7.3180504,6.306
1680014146852,1194135206360479,2.8290002,7.3510504,6.255
1680014146853,1194135208862710,2.91,7.2990003,6.3300004
1680014146855,1194135211365095,2.7570002,7.32705,6.28905
1680014146858,1194135213867248,2.9509501,7.3630505,6.3580503
1680014146863,1194135216369474,2.83095,7.31505,6.4350004
1680014146864,1194135218871628,2.8650002,7.3180504,6.4999504
1680014146867,1194135221374013,2.80695,7.3440003,6.59595
1680014146869,1194135223876166,2.8330503,7.3300505,6.5670004
1680014146871,1194135226378628,2.87895,7.3560004,6.6270003
1680014146873,1194135228880801,2.87895,7.425,6.64095
1680014146876,1194135231383032,2.88105,7.38495,6.7369504
1680014146879,1194135233885186,2.8930502,7.3900504,6.7390504
1680014146882,1194135236387339,2.9599502,7.4419503,6.7249503
1680014146886,1194135238889733,2.91,7.4280005,6.7900505
1680014146888,1194135241391887,2.9200501,7.4419503,6.7870502
1680014146889,1194135243894118,2.88105,7.4329505,6.852
1680014146892,1194135246396502,2.94105,7.5120006,6.7990503
1680014146894,1194135248898733,2.9269502,7.5930004,6.696
1680014146896,1194135251400892,2.9560502,7.6000504,6.6150002
1680014146898,1194135253903046,2.9479501,7.557,6.63105
1680014146902,1194135256405430,2.9650502,7.59495,6.6529503
1680014146904,1194135258907661,2.9320502,7.5070505,6.5809503
1680014146906,1194135261409806,2.8620002,7.3510504,6.46605
1680014146908,1194135263912191,2.9479501,7.4710503,6.4810505
1680014146911,1194135266414421,3.08505,7.5040503,6.4849505
1680014146913,1194135268916575,3.1260002,7.5330005,6.5719504
1680014146918,1194135271418714,3.2020502,7.5160503,6.4609504
1680014146920,1194135273921176,3.2620502,7.5670505,6.4350004
1680014146924,1194135276423329,3.2290502,7.392,6.4450502
1680014146925,1194135278925714,3.17595,7.4659505,6.2910004
1680014146928,1194135281427868,3.0589502,7.4710503,6.3490505
1680014146929,1194135283930022,3.01305,7.2430506,6.339
1680014146932,1194135286432253,3.01095,7.3300505,6.33405
1680014146934,1194135288934637,3.04905,7.3060503,6.4450502
1680014146936,1194135291436868,2.9629502,7.2390003,6.5020504
1680014146939,1194135293939046,2.9479501,7.2649503,6.4690504
1680014146943,1194135296441430,3.0300002,7.188,6.42495
1680014146944,1194135298943584,2.97195,7.1980505,6.3460503
1680014146947,1194135301445738,2.7859502,7.1790004,6.3580503
1680014146949,1194135303947969,2.8909502,7.1190004,6.2650504
1680014146952,1194135306450354,2.8909502,7.24095,6.2239504
1680014146954,1194135308952584,2.8549502,7.05705,6.2119503
1680014146956,1194135311454738,2.93595,7.0690503,6.2719502
1680014146960,1194135313957142,2.7190502,7.0090504,6.2119503
1680014146963,1194135316459296,2.9599502,7.0950003,6.117
1680014146964,1194135318961526,2.8600502,7.1790004,6.2359505
1680014146966,1194135321463680,2.805,7.1380506,6.15
1680014146968,1194135323966065,2.8260002,7.1959505,6.234
1680014146972,1194135326468239,2.8219502,7.1239505,6.2080503
1680014146973,1194135328970470,2.8330503,7.1620502,6.057
1680014146976,1194135331472854,2.8140001,7.227,6.11205
1680014146978,1194135333975085,2.7930002,7.2169504,6.09495
1680014146982,1194135336477243,2.80005,7.1929502,5.9869504
1680014146984,1194135338979397,2.778,7.2340503,6.0060005
1680014146986,1194135341481781,2.6830502,7.2510004,6.03
1680014146988,1194135343983935,2.6560502,7.2910504,5.9869504
1680014146991,1194135346486397,2.6779501,7.3510504,5.9749503
1680014146993,1194135348988550,2.8530002,7.3440003,6.0930004
1680014146997,1194135351490781,2.6869502,7.3660502,6.0040503
1680014146999,1194135353992935,2.6779501,7.5330005,6.0040503
1680014147002,1194135356495320,2.6800501,7.41795,5.9110503
1680014147003,1194135358997460,2.5890002,7.4689503,5.9539504
1680014147006,1194135361499690,2.4550502,7.38,5.88705
1680014147008,1194135364002075,2.4859502,7.4329505,5.90805
1680014147011,1194135366504229,2.62995,7.557,5.9680505
1680014147013,1194135369006383,2.4499502,7.5670505,5.9539504
1680014147017,1194135371508618,2.52195,7.5670505,5.87505
1680014147019,1194135374011003,2.4499502,7.5880504,5.9610004
1680014147023,1194135376513234,2.4739501,7.62405,5.75505
1680014147024,1194135379015373,2.48895,7.6270504,5.7330003
1680014147027,1194135381517757,2.5510502,7.7149506,5.8320003
1680014147028,1194135384019911,2.5459502,7.7149506,5.8390503
1680014147031,1194135386522065,2.4379501,7.806,5.84805
1680014147035,1194135389024296,2.50305,7.6720505,5.78595
1680014147037,1194135391526450,2.5510502,7.80105,5.9370003
1680014147039,1194135394028911,2.493,7.9140005,5.9029503
1680014147042,1194135396531065,2.5150502,7.8420005,5.9029503
1680014147044,1194135399033450,2.493,7.9279504,5.8549504
1680014147046,1194135401535585,2.532,7.9500003,5.946
1680014147049,1194135404037815,2.55795,7.9669504,5.769
1680014147052,1194135406539969,2.50095,7.9450502,5.7259502
1680014147053,1194135409042354,2.7190502,7.9279504,5.781
1680014147056,1194135411544585,2.8890002,7.8690004,5.649
1680014147060,1194135414046733,2.9629502,7.8919506,5.6329503
1680014147062,1194135416548887,3.078,7.8690004,5.721
1680014147064,1194135419051272,3.0900002,7.7629504,5.7049503
1680014147066,1194135421553503,3.15405,7.69395,5.8630505
1680014147068,1194135424055887,3.0949502,7.6270504,5.97795
1680014147073,1194135426558041,3.0870001,7.6189504,5.97795
1680014147075,1194135429060272,3.147,7.5280504,6.11205
1680014147076,1194135431562426,3.15,7.4950504,6.2770505
1680014147078,1194135434064599,3.0900002,7.4089503,6.2530503
1680014147081,1194135436566983,3.0630002,7.4779506,6.2650504
1680014147084,1194135439069214,3.006,7.3630505,6.2239504
1680014147086,1194135441571599,3.0010502,7.5160503,6.1309505
1680014147089,1194135444073748,2.9629502,7.5040503,6.1639504
1680014147092,1194135446575979,3.0010502,7.4490004,6.1309505
1680014147094,1194135449078133,3.04395,7.5480003,6.1380005
1680014147096,1194135451580518,3.0870001,7.5739503,6.0810003
1680014147099,1194135454082734,3.14505,7.5670505,6.1480503
1680014147102,1194135456584887,3.21195,7.6650004,6.1930504
1680014147104,1194135459087272,3.1039503,7.65495,6.0259504
1680014147106,1194135461589503,3.2290502,7.6579504,6.1140003
1680014147111,1194135464091657,3.219,7.7149506,6.1050005
1680014147113,1194135466593810,3.1590002,7.7179503,6.117
1680014147118,1194135469096195,3.21,7.65495,6.0420003
1680014147118,1194135471598426,3.2050502,7.689,6.0420003
1680014147120,1194135474100580,3.15405,7.6860003,5.99205
1680014147122,1194135476602979,3.0660002,7.6189504,6.0090003
1680014147124,1194135479105133,3.114,7.5600004,5.9149504
1680014147126,1194135481607287,3.111,7.6270504,5.9940004
1680014147129,1194135484109518,3.051,7.54995,5.9440503
1680014147132,1194135486611901,3.01605,7.5400505,5.9370003
1680014147133,1194135489114132,3.01605,7.4490004,5.9749503
1680014147136,1194135491616286,2.9320502,7.5210004,5.91795
1680014147139,1194135494118671,2.91,7.59105,5.925
1680014147142,1194135496620825,2.90805,7.4950504,5.8390503
1680014147144,1194135499123055,2.8530002,7.5430503,5.8290005
1680014147148,1194135501625440,2.81205,7.6000504,5.8170004
1680014147149,1194135504127594,2.7859502,7.5520506,5.8219504
1680014147152,1194135506629825,2.7520502,7.557,5.7979503
1680014147154,1194135509132209,2.7210002,7.4779506,5.8120503
1680014147156,1194135511634363,2.733,7.6909504,5.6970005
1680014147160,1194135514136517,2.6560502,7.5790505,5.74095
1680014147162,1194135516638978,2.6749501,7.497,5.7640505
1680014147164,1194135519141118,2.5800002,7.6600504,5.85795
1680014147167,1194135521643272,2.604,7.5840006,5.5939503
1680014147169,1194135524145503,2.52495,7.6150503,5.74305
1680014147172,1194135526647657,2.568,7.6750503,5.92995
1680014147174,1194135529150050,2.45295,7.69395,5.7379503
1680014147176,1194135531652281,2.496,7.5670505,5.7979503
1680014147180,1194135534154666,2.5440001,7.6390505,5.8240504
1680014147183,1194135536656820,2.5890002,7.66695,5.77395
1680014147186,1194135539158988,2.57205,7.7700005,5.8720503
1680014147188,1194135541661219,2.601,7.7419505,5.736
1680014147190,1194135544163373,2.5800002,7.7320504,5.88705
1680014147193,1194135546665758,2.6179502,7.7149506,5.84595
1680014147195,1194135549167989,2.6590502,7.8160505,5.90805
1680014147196,1194135551670151,2.742,7.8229504,5.92995
1680014147199,1194135554172536,2.66295,7.8229504,5.8890004
1680014147201,1194135556674767,2.74005,7.9090505,5.91795
1680014147203,1194135559176921,2.8549502,7.9360504,5.9269505
1680014147206,1194135561679074,2.90505,7.9279504,5.90805
1680014147209,1194135564181557,2.9340003,7.9740005,5.946
1680014147212,1194135566683711,2.94105,7.9669504,6.1050005
1680014147213,1194135569185865,2.9580002,7.9950004,6.0160503
1680014147217,1194135571688239,3.006,8.047951,6.02295
1680014147220,1194135574190470,3.0630002,8.026951,6.0469503
1680014147224,1194135576692624,3.0349503,8.139,6.1309505
1680014147226,1194135579195009,3.1020002,8.022,6.129
1680014147227,1194135581697239,3.1980002,8.109,6.0330005
1680014147229,1194135584199393,3.10695,8.071051,6.1090503
1680014147233,1194135586701547,3.1380002,8.01,5.9680505
1680014147235,1194135589203932,3.1300502,8.118,6.16905
1680014147236,1194135591706086,3.1639502,8.137051,6.102
1680014147238,1194135594208532,3.1380002,8.161051,6.1330504
1680014147241,1194135596710686,3.15405,8.115001,6.11205
1680014147244,1194135599212917,3.183,8.11995,6.09705
1680014147246,1194135601715071,3.075,8.034,6.15495
1680014147249,1194135604217431,3.0540001,8.026951,6.0589504
1680014147252,1194135606719585,3.114,8.11995,6.078
1680014147254,1194135609221739,3.07995,8.088,6.0040503
1680014147256,1194135611724200,3.04395,8.095051,5.93205
1680014147261,1194135614226359,2.97705,8.10105,5.9869504
1680014147264,1194135616728590,2.98005,8.088,5.8050003
1680014147265,1194135619315282,2.9269502,8.034,5.808
1680014147267,1194135621733129,2.9560502,7.9830003,5.8390503
1680014147269,1194135624235282,2.90805,8.055,5.78595
1680014147272,1194135626737513,2.7640502,8.08605,5.6970005
1680014147274,1194135629239898,2.79795,8.089951,5.7000003
1680014147276,1194135631742052,2.70705,7.97205,5.7190504
1680014147279,1194135634244205,2.7139502,8.005051,5.7330003
1680014147281,1194135636746436,2.7190502,8.056951,5.7169504
1680014147284,1194135639248580,2.70705,8.034,5.65395
1680014147286,1194135641751042,2.6130002,8.0119505,5.58195
1680014147295,1194135644253195,2.66295,8.043,5.7240005
1680014147295,1194135646755580,2.6110501,7.9210505,5.7120004
1680014147296,1194135649257730,2.6230502,7.87095,5.4529505
1680014147298,1194135651759961,2.568,7.8829503,5.61105
1680014147300,1194135654262115,2.5510502,7.7869506,5.6350503
1680014147303,1194135656764479,2.5770001,7.9279504,5.6020503
1680014147304,1194135659266710,2.6250002,7.7779503,5.6059504
1680014147306,1194135661768864,2.5200002,7.7539506,5.6520004
1680014147309,1194135664271018,2.52195,7.7250004,5.6470504
1680014147311,1194135666773402,2.53395,7.7700005,5.55105
1680014147313,1194135669275633,2.63505,7.6720505,5.5609503
1680014147316,1194135671778018,2.59395,7.7250004,5.532
1680014147319,1194135674280172,2.5510502,7.6789503,5.7979503
1680014147322,1194135676782402,2.5510502,7.6150503,5.451
1680014147323,1194135679284571,2.568,7.629,5.5579505
1680014147326,1194135681786956,2.5800002,7.5859504,5.5540504
1680014147328,1194135684289110,2.66295,7.6579504,5.5609503
1680014147332,1194135686791340,2.63205,7.689,5.4360003
1680014147335,1194135689293754,2.637,7.6390505,5.5230002
1680014147337,1194135691795985,2.628,7.6909504,5.6449504
1680014147340,1194135694298139,2.57205,7.5790505,5.59905
1680014147342,1194135696800293,2.59605,7.66305,5.52495
1680014147344,1194135699302677,2.59905,7.5840006,5.5800004
1680014147346,1194135701804816,2.604,7.5670505,5.5750504
1680014147349,1194135704307047,2.6539502,7.629,5.6400003
1680014147351,1194135706809201,2.259,7.3339505,5.295
1680014147354,1194135709311585,2.4379501,7.49205,5.5300503
1680014147356,1194135711813783,2.532,7.5400505,5.5870504
1680014147359,1194135714316168,2.6110501,7.56195,5.6569505
1680014147362,1194135716818322,2.60595,7.6099505,5.6350503
1680014147364,1194135719320552,2.57505,7.5760503,5.5870504
1680014147368,1194135721822686,2.5770001,7.5040503,5.532
1680014147369,1194135724325071,2.39805,7.497,5.4150004
1680014147373,1194135726827225,2.5410001,7.5739503,5.5230002
1680014147375,1194135729329455,2.4190502,7.5210004,5.5030503
1680014147377,1194135731831840,2.496,7.5400505,5.4750004
1680014147380,1194135734334071,2.43105,7.5790505,5.46495
1680014147385,1194135736836225,2.4070501,7.4950504,5.379
1680014147387,1194135739338378,2.42595,7.6270504,5.3880005
1680014147387,1194135741840763,2.50095,7.5259504,5.22795
1680014147389,1194135744342999,2.4019501,7.59105,5.1439505
1680014147393,1194135746845153,2.4409502,7.6530004,5.24205
1680014147394,1194135749347537,2.424,7.5450006,5.1439505
1680014147396,1194135751849691,2.43405,7.5880504,5.1109505
1680014147400,1194135754351884,2.53695,7.6819506,5.0869503
1680014147402,1194135756854038,2.388,7.7419505,5.142
1680014147404,1194135759356499,2.5870502,7.6650004,5.0890503
1680014147406,1194135761858653,2.6250002,7.7509503,5.103
1680014147410,1194135764360821,2.6590502,7.72695,5.142
1680014147413,1194135766863206,2.52495,7.6720505,5.19
1680014147415,1194135769365360,2.70705,7.761,5.1010504
1680014147416,1194135771867590,2.6920502,7.6650004,5.18205
1680014147420,1194135774369744,2.7160501,7.8130503,5.2110004
1680014147422,1194135776872225,2.8189502,7.76805,5.2060504
1680014147424,1194135779374379,2.7829502,7.8690004,5.1940503
1680014147426,1194135781876763,2.7570002,7.9210505,5.2450504
1680014147429,1194135784378917,2.80005,7.8919506,5.34105
1680014147431,1194135786881071,2.7930002,7.9120502,5.3380504
1680014147434,1194135789383302,2.86905,7.96395,5.2710004
1680014147436,1194135791885686,2.8549502,7.9210505,5.1940503
1680014147439,1194135794387840,2.8930502,8.017051,5.3359504
1680014147442,1194135796890085,2.86905,8.04105,5.3050504
1680014147443,1194135799392239,2.874,7.9069505,5.3050504
1680014147448,1194135801894623,2.9920502,7.8760505,5.3640003
1680014147449,1194135804396777,2.93895,7.9020004,5.3640003
1680014147452,1194135806899239,2.9920502,7.9210505,5.28105
1680014147455,1194135809401393,2.8930502,7.9279504,5.32905
1680014147456,1194135811903547,2.9320502,7.8970504,5.34105
1680014147460,1194135814405777,3.04695,7.85895,5.32095
1680014147463,1194135816907941,2.9629502,7.8570004,5.3430004
1680014147464,1194135819410326,3.0630002,7.8850503,5.27295
1680014147466,1194135821912557,2.9479501,7.8160505,5.3190002
1680014147469,1194135824414941,2.84505,7.8780003,5.2710004
1680014147472,1194135826917095,2.86695,7.7970004,5.32905
1680014147474,1194135829419355,2.7880502,7.8250504,5.35995
1680014147476,1194135831921509,2.8930502,7.7920504,5.2590003
1680014147479,1194135834423662,2.8930502,7.8160505,5.44605
1680014147481,1194135836926047,2.94105,7.7850003,5.2930503
1680014147485,1194135839428278,2.9340003,7.7800503,5.4100504
1680014147487,1194135841930663,2.9530501,7.8040504,5.41695
1680014147489,1194135844432816,2.80995,7.6980004,5.32905
1680014147492,1194135846935047,2.83095,7.8180003,5.28105
1680014147494,1194135849437201,2.8890002,7.7779503,5.3260503
1680014147496,1194135851939335,2.7450001,7.761,5.32905
1680014147499,1194135854441796,2.7540002,7.7080503,5.451
1680014147502,1194135856943950,2.66295,7.7850003,5.2450504
1680014147504,1194135859446104,2.7469501,7.7490005,5.4100504
1680014147506,1194135861948489,2.673,7.6750503,5.295
1680014147509,1194135864450629,2.70195,7.7800503,5.3430004
1680014147512,1194135866952859,2.69895,7.7100005,5.262
1680014147514,1194135869455244,2.661,7.7890506,5.2660503
1680014147517,1194135871957475,2.6179502,7.7800503,5.27295
1680014147520,1194135874459658,2.6899502,7.8540006,5.2849503
1680014147524,1194135876962042,2.6509502,7.8540006,5.1730504
1680014147526,1194135879463151,2.59605,7.8799505,5.25705
1680014147526,1194135881964230,2.48895,7.9020004,5.2380004
1680014147529,1194135884468844,2.5800002,7.8780003,5.3050504
1680014147531,1194135886970998,2.5170002,7.9669504,5.247
1680014147534,1194135889473152,2.5150502,7.833,5.214
1680014147536,1194135891975383,2.53695,7.97205,5.3880005
1680014147539,1194135894477783,2.493,7.9159503,5.38395
1680014147542,1194135896979936,2.436,7.9600506,5.3430004
1680014147544,1194135899482167,2.505,8.014951,5.3050504
1680014147546,1194135901984552,2.5819502,8.014951,5.4409504
1680014147549,1194135904486706,2.49795,8.019,5.3500504
1680014147552,1194135906988860,2.59395,8.094001,5.439
1680014147554,1194135909491090,2.5170002,8.101951,5.19705
1680014147556,1194135911993244,2.56005,8.137051,5.235
1680014147560,1194135914495657,2.529,8.151,5.38605
1680014147563,1194135916997888,2.56005,8.235001,5.2380004
1680014147564,1194135919500272,2.4070501,8.121,5.2260003
1680014147569,1194135922002430,2.35905,8.188951,5.1469502
1680014147569,1194135924504661,2.4070501,8.17695,5.19
1680014147572,1194135927006815,2.46,8.23695,5.3569503
1680014147574,1194135929508968,2.352,8.191951,5.1870003
1680014147577,1194135932011430,2.46705,8.23695,5.24205
1680014147580,1194135934513825,2.4430501,8.24205,5.1439505
1680014147582,1194135937015979,2.4739501,8.29695,5.2180505
1680014147584,1194135939518132,2.56005,8.3880005,5.103
1680014147586,1194135942020363,2.59905,8.311951,5.1660004
1680014147589,1194135944522517,2.568,8.36205,5.1270003
1680014147591,1194135947024902,2.6590502,8.44095,5.2660503
1680014147594,1194135949527132,2.6110501,8.464951,5.2639503
1680014147598,1194135952029286,2.73105,8.44305,5.247
1680014147600,1194135954531440,2.7949502,8.448,5.07705
1680014147603,1194135957033825,2.90805,8.57505,5.28795
1680014147604,1194135959535979,2.9479501,8.568001,5.13495
1680014147606,1194135962038440,3.0610502,8.58705,5.3190002
1680014147610,1194135964540594,3.04695,8.49405,5.06295
1680014147612,1194135967042825,3.0319502,8.45505,5.142
1680014147614,1194135969544979,3.0229502,8.434051,5.1469502
1680014147616,1194135972047363,2.946,8.356951,5.202
1680014147620,1194135974549517,3.0540001,8.352,4.9570503
1680014147622,1194135977051753,3.1020002,8.34795,5.1150002
1680014147624,1194135979554137,3.0589502,8.20905,5.103
1680014147626,1194135982056368,3.1999502,8.21805,4.99095
1680014147629,1194135984558522,3.08295,8.088,5.0599504
1680014147632,1194135987060671,3.15405,8.13,5.0290504
1680014147636,1194135989563056,3.1740003,8.21805,4.998
1680014147637,1194135992065209,3.0660002,8.16495,5.0680504
1680014147639,1194135994567440,3.0679502,8.101951,5.1990004
1680014147642,1194135997069811,3.1999502,8.11995,5.12505
1680014147644,1194135999571965,3.1710002,8.095051,5.1150002
1680014147646,1194136002074195,3.186,8.050051,5.07705
1680014147649,1194136004576349,3.2260501,8.01,5.08395
1680014147651,1194136007078517,3.18105,8.11995,4.9570503
1680014147654,1194136009580979,3.186,8.031,5.06295
1680014147656,1194136012083363,3.1930501,7.93305,5.0340004
1680014147659,1194136014585517,3.32205,8.082001,5.03595
1680014147663,1194136017087676,3.31695,7.96395,4.97205
1680014147664,1194136019589907,3.5160003,7.9159503,5.00295
1680014147666,1194136022092061,3.3940501,7.9950004,5.03595
1680014147669,1194136024594445,3.4110003,8.002951,4.986
1680014147674,1194136027096676,3.4039502,8.07405,4.83795
1680014147675,1194136029599061,3.37995,8.125051,5.046
1680014147676,1194136032101215,3.31695,8.076,5.0340004
1680014147679,1194136034603368,3.4060502,8.13405,5.0290504
1680014147682,1194136037105599,3.5140502,8.139,5.235
1680014147684,1194136039607965,3.315,8.161051,5.235
1680014147686,1194136042110119,3.3439503,8.25195,5.30205
1680014147689,1194136044612349,3.4060502,8.187,5.3479505
1680014147692,1194136047114503,3.35595,8.212951,5.34105
1680014147695,1194136049616888,3.315,8.23995,5.4360003
1680014147696,1194136052119014,3.28905,8.24505,5.451
1680014147702,1194136054621244,3.2929502,8.26095,5.3689504
1680014147703,1194136057123629,3.3120003,8.319,5.44395
1680014147704,1194136059625860,3.3079503,8.323951,5.39295
1680014147708,1194136062127994,3.2430003,8.283,5.4750004
1680014147711,1194136064630148,3.186,8.43105,5.499
1680014147713,1194136067132532,3.3630002,8.3880005,5.4199505
1680014147716,1194136069634686,3.3700502,8.39805,5.4100504
1680014147718,1194136072136897,3.3049502,8.43105,5.25705
1680014147720,1194136074639281,3.2719502,8.503051,5.22795
1680014147722,1194136077141512,3.3289502,8.496,5.2849503
1680014147724,1194136079643666,3.3439503,8.661,5.1990004
1680014147727,1194136082145820,3.2719502,8.589001,5.2759504
1680014147729,1194136084648176,3.3649502,8.724,5.295
1680014147732,1194136087150406,3.2929502,8.613001,5.2060504
1680014147734,1194136089652560,3.35805,8.64,5.07705
1680014147736,1194136092154714,3.2770503,8.71395,5.2210503
1680014147740,1194136094657138,3.3270001,8.71905,5.1199503
1680014147743,1194136097159368,3.219,8.797951,5.15595
1680014147744,1194136099661753,3.2260501,8.7949505,5.0820003
1680014147748,1194136102163907,3.15405,8.733001,5.03205
1680014147750,1194136104666133,3.14505,8.785951,5.0820003
1680014147753,1194136107168287,3.0919502,8.86005,4.99305
1680014147754,1194136109670440,2.9940002,8.773951,4.9240503
1680014147756,1194136112172902,3.0630002,8.82705,4.96005
1680014147759,1194136114675056,3.006,8.941051,4.93305
1680014147762,1194136117177445,2.8909502,8.865001,4.8900003
1680014147764,1194136119679599,2.94105,8.898001,4.7899504
1680014147768,1194136122181830,2.8600502,8.89605,4.84005
1680014147769,1194136124683984,2.913,8.89095,4.809
1680014147773,1194136127186459,2.802,8.889001,4.794
1680014147775,1194136129688613,2.80995,8.82405,4.75395
1680014147776,1194136132190767,2.70705,8.80305,4.66305
1680014147780,1194136134693152,2.6490002,8.776051,4.7629504
1680014147783,1194136137195287,2.6560502,8.809951,4.7080503
1680014147787,1194136139697440,2.6419501,8.745001,4.7470503
1680014147788,1194136142199671,2.6200502,8.69505,4.6320004
1680014147792,1194136144702056,2.6110501,8.724,4.6990504
1680014147793,1194136147204287,2.63205,8.75895,4.737
1680014147795,1194136149706440,2.63505,8.74005,4.701
1680014147796,1194136152208825,2.6200502,8.673,4.67205
1680014147799,1194136154710979,2.6509502,8.65905,4.63395
1680014147801,1194136157213133,2.63505,8.629951,4.5859504
1680014147804,1194136159715599,2.6779501,8.58705,4.7470503
1680014147807,1194136162217753,2.7139502,8.611051,4.56195
1680014147809,1194136164719984,2.661,8.500951,4.63905
1680014147812,1194136167222138,2.59905,8.451,4.53795
1680014147814,1194136169724522,2.7280502,8.500951,4.68195
1680014147817,1194136172226676,2.6830502,8.49405,4.584
1680014147820,1194136174729138,2.6950502,8.436001,4.584
1680014147824,1194136177231292,2.709,8.40495,4.6410003
1680014147825,1194136179733426,2.7499502,8.451,4.809
1680014147828,1194136182235656,2.742,8.484,4.7250004
1680014147830,1194136184737810,2.73105,8.476951,4.656
1680014147832,1194136187239964,2.7280502,8.41905,4.737
1680014147834,1194136189742426,2.7450001,8.40495,4.6480503
1680014147837,1194136192244801,2.8650002,8.356951,4.76805
1680014147839,1194136194746955,2.9250002,8.34795,4.6600504
1680014147843,1194136197249109,2.90505,8.268001,4.74405
1680014147844,1194136199751340,2.9479501,8.3209505,4.78305
1680014147847,1194136202253513,3.01605,8.283,4.7509503
1680014147849,1194136204755897,2.97705,8.247001,4.78305
1680014147852,1194136207258128,3.006,8.18505,4.689
1680014147854,1194136209760282,3.01605,8.224951,4.7590504
1680014147856,1194136212262666,2.9560502,8.137051,4.82595
1680014147862,1194136214764829,2.9580002,8.170051,4.79895
1680014147864,1194136217267060,2.9269502,8.142,4.7710505
1680014147866,1194136219879060,2.9560502,8.14605,4.76805
1680014147868,1194136222271699,2.946,8.079,4.7590504
1680014147869,1194136224773853,2.9509501,8.125051,4.6909504
1680014147872,1194136227276007,2.9940002,8.125051,4.809
1680014147874,1194136229778392,3.0319502,8.16495,4.6750503
1680014147876,1194136232280546,3.01305,8.14605,4.7179503
1680014147879,1194136234782805,3.04905,8.062051,4.76805
1680014147882,1194136237285190,3.08505,8.115001,4.7389503
1680014147884,1194136239787421,3.1660502,8.109,4.78695
1680014147887,1194136242289575,3.0919502,8.10795,4.6909504
1680014147889,1194136244791747,3.147,8.115001,4.677
1680014147892,1194136247294132,3.1020002,8.059951,4.8180003
1680014147894,1194136249796286,3.1300502,8.05305,4.7389503
1680014147898,1194136252298517,3.0559502,8.079,4.6600504
1680014147901,1194136254800916,3.07995,8.08605,4.7509503
1680014147904,1194136257303070,3.0900002,8.095051,4.7200503
1680014147905,1194136259805301,3.1639502,8.064,4.8450003
1680014147907,1194136262307455,3.0660002,8.034,4.7130003
1680014147909,1194136264809839,3.15,8.071051,4.6990504
1680014147912,1194136267312065,3.0970502,8.035951,4.7200503
1680014147919,1194136269814450,3.1210501,7.9909506,4.6480503
1680014147919,1194136272316604,3.1020002,8.019,4.605
1680014147919,1194136274818758,3.0589502,8.014951,4.689
1680014147922,1194136277320983,3.13995,8.097,4.76805
1680014147924,1194136279823137,3.078,8.059951,4.9570503
1680014147926,1194136282325291,3.0229502,8.0449505,4.9570503
1680014147929,1194136284827753,3.1980002,8.082001,5.03595
1680014147932,1194136287330137,3.3700502,8.10795,5.1439505
1680014147936,1194136289832281,3.4510503,8.19705,5.1199503
1680014147937,1194136292334435,3.55695,8.14605,4.90005
1680014147940,1194136294836666,3.4969501,8.154,5.06295
1680014147944,1194136297338820,3.6169503,8.191951,4.9960504
1680014147946,1194136299841204,3.6210003,8.27595,4.8619504
1680014147947,1194136302343435,3.8130002,8.30895,4.8829503
1680014147949,1194136304845589,3.90405,8.3550005,4.8850503
1680014147952,1194136307347973,3.8610003,8.247001,4.8970504
1680014147955,1194136309850127,3.9090002,8.323951,4.938
1680014147956,1194136312352363,3.82995,8.25405,4.84695
1680014147960,1194136314854748,3.8200502,8.2900505,4.8949504
1680014147962,1194136317356978,3.79395,8.247001,4.8900003
1680014147964,1194136319859132,3.76305,8.271001,5.0290504
1680014147968,1194136322361272,3.5710502,8.21805,4.88805
1680014147969,1194136324863657,3.48495,8.167951,4.94805
1680014147974,1194136327365811,3.4420502,8.155951,4.9740005
1680014147975,1194136329868041,3.4630501,8.064,4.8619504
1680014147977,1194136332370426,3.25305,8.109,4.82805
1680014147981,1194136334872653,3.28395,8.026951,4.81395
1680014147983,1194136337374807,3.1999502,8.11305,4.75395
1680014147984,1194136339876960,3.1230001,8.11305,4.67205
1680014147987,1194136342379345,3.0730503,8.05305,4.5930004
1680014147989,1194136344881571,2.9869502,8.125051,4.524
1680014147992,1194136347383725,2.9149501,8.076,4.47405
1680014147995,1194136349886109,2.9149501,8.179951,4.4160004
1680014147997,1194136352388263,2.838,8.155951,4.4419503
1680014147999,1194136354890499,2.7520502,8.191951,4.3660502
1680014148002,1194136357392653,2.742,8.188951,4.2990003
1680014148005,1194136359895037,2.697,8.082001,4.392
1680014148007,1194136362397268,2.6950502,8.007,4.48605
1680014148012,1194136364899653,2.6539502,8.064,4.3780503
1680014148014,1194136367401807,2.568,8.026951,4.43295
1680014148016,1194136369903961,2.53695,8.019,4.368
1680014148018,1194136372406191,2.5459502,7.9450502,4.4380503
1680014148020,1194136374908345,2.59605,8.002951,4.5019503
1680014148023,1194136377410701,2.67105,8.035951,4.40595
1680014148024,1194136379912932,2.592,8.106,4.47795
1680014148027,1194136382415316,2.6490002,8.0449505,4.512
1680014148029,1194136384917470,2.6749501,8.04105,4.40595
1680014148031,1194136387419624,2.53695,7.9279504,4.5139503
1680014148035,1194136389921850,2.55795,7.87095,4.4950504
1680014148036,1194136392424234,2.69895,8.005051,4.48605
1680014148039,1194136394926465,2.7190502,8.034,4.533
1680014148043,1194136397428619,2.77395,8.11995,4.533
1680014148044,1194136399930773,2.7499502,8.083051,4.50495
1680014148048,1194136402433152,2.6850002,8.115001,4.56495
1680014148051,1194136404935306,2.70705,8.142,4.572
1680014148052,1194136407437768,2.6470501,8.068951,4.66305
1680014148055,1194136409939922,2.673,8.167951,4.7730002
1680014148058,1194136412442152,2.7160501,8.082001,4.6579504
1680014148062,1194136414944306,2.769,8.142,4.644
1680014148065,1194136417446460,2.73105,8.121,4.72695
1680014148065,1194136419948845,2.6950502,8.191951,4.66305
1680014148068,1194136422451076,2.83095,8.25195,4.63905
1680014148069,1194136424953460,2.84805,8.24895,4.701
1680014148072,1194136427455624,2.91,8.415,4.67205
1680014148075,1194136429957855,2.9959502,8.37405,4.68405
1680014148077,1194136432460009,3.075,8.53905,4.59795
1680014148080,1194136434962162,2.9580002,8.57505,4.59105
1680014148083,1194136437464561,3.13995,8.52495,4.584
1680014148086,1194136439966792,3.0540001,8.6640005,4.5810003
1680014148088,1194136442469176,3.0040503,8.67105,4.5529504
1680014148090,1194136444971330,3.0870001,8.70405,4.6080003
1680014148092,1194136447473484,3.00795,8.58195,4.5
1680014148094,1194136449975730,3.1639502,8.60595,4.56495
1680014148097,1194136452477884,3.2260501,8.680051,4.6990504
1680014148100,1194136454980345,3.183,8.56305,4.62195
1680014148103,1194136457482499,3.13995,8.589001,4.7299504
1680014148104,1194136459984893,3.1999502,8.74005,4.72695
1680014148107,1194136462487047,3.15405,8.68305,4.6600504
1680014148109,1194136464989201,3.3319502,8.712001,4.8499503
1680014148112,1194136467491431,3.3600001,8.77095,4.7250004
1680014148116,1194136469993792,3.38895,8.75895,4.81395
1680014148117,1194136472495946,3.3289502,8.743051,4.84005
1680014148119,1194136474998177,3.48705,8.74995,4.8229504
1680014148123,1194136477500561,3.4969501,8.776051,4.87095
1680014148125,1194136480002788,3.456,8.74005,4.87395
1680014148127,1194136482504942,3.5659502,8.853001,4.809
1680014148129,1194136485007326,3.4729502,8.68995,4.938
1680014148132,1194136487509480,3.5760002,8.70195,4.90005
1680014148135,1194136490011634,3.4609501,8.652,4.82595
1680014148137,1194136492513889,3.4129503,8.484,4.8570004
1680014148140,1194136495016274,3.4510503,8.568001,4.9410005
1680014148142,1194136497518427,3.5640001,8.51295,4.9240503
1680014148144,1194136500020658,3.4710002,8.55105,4.833
1680014148146,1194136502523062,3.35805,8.497951,4.8640504
1680014148149,1194136505025216,3.3079503,8.467051,4.842
1680014148151,1194136507527369,3.3079503,8.371051,4.72305
1680014148154,1194136510029831,3.25005,8.343,4.6990504
1680014148156,1194136512531980,3.147,8.259001,4.66995
1680014148160,1194136515034134,3.0919502,8.22795,4.71105
1680014148163,1194136517536365,3.0250502,8.16495,4.62405
1680014148166,1194136520038518,2.9290502,8.149051,4.5550504
1680014148168,1194136522540908,2.8909502,8.125051,4.6270504
1680014148170,1194136525043062,2.88105,8.19705,4.47405
1680014148172,1194136527545523,2.9320502,8.194051,4.6320004
1680014148176,1194136530047677,2.90295,8.200951,4.4710503
1680014148177,1194136532549908,2.838,8.109,4.4689503
1680014148181,1194136535052057,2.766,8.23995,4.524
1680014148184,1194136537554211,2.7139502,8.20905,4.2840004
1680014148186,1194136540056595,2.6950502,8.2900505,4.4950504
1680014148187,1194136542558826,2.6230502,8.223001,4.39905
1680014148189,1194136545061211,2.6250002,8.154,4.3710003
1680014148192,1194136547563360,2.69895,8.211,4.26
1680014148196,1194136550065590,2.6560502,8.434051,4.3830004
1680014148199,1194136552567744,2.6539502,8.319,4.347
1680014148201,1194136555069898,2.62995,8.376,4.347
1680014148203,1194136557572355,2.70405,8.38605,4.4500504
1680014148205,1194136560074508,2.7280502,8.364,4.3489504
1680014148207,1194136562576662,2.70705,8.424001,4.4710503
1680014148210,1194136565079047,2.7859502,8.476951,4.3780503
1680014148213,1194136567581201,2.8570502,8.37405,4.4419503
1680014148216,1194136570083418,2.81205,8.364,4.44495
1680014148218,1194136572585802,2.86695,8.470051,4.4419503
1680014148220,1194136575088033,2.9530501,8.2900505,4.54995
1680014148223,1194136577590187,2.7520502,8.439,4.44
1680014148224,1194136580092552,2.90505,8.319,4.497
1680014148227,1194136582594706,2.86695,8.25405,4.4689503
1680014148229,1194136585096860,2.93595,8.41905,4.5550504
1680014148232,1194136587599091,3.01305,8.40705,4.464
1680014148236,1194136590101461,3.0270002,8.391001,4.3390503
1680014148238,1194136592603614,3.1420503,8.556001,4.497
1680014148240,1194136595105845,3.21405,8.467051,4.50495
1680014148242,1194136597608230,3.2569501,8.56095,4.6000504
1680014148244,1194136600110384,3.3289502,8.53005,4.42995
1680014148247,1194136602612532,3.4129503,8.641951,4.59105
1680014148249,1194136605114994,3.4009502,8.75895,4.56195
1680014148252,1194136607617148,3.5329502,8.842951,4.545
1680014148254,1194136610119302,3.6450002,8.874001,4.50495
1680014148257,1194136612621518,3.7099502,8.91495,4.6800003
1680014148260,1194136615123672,3.8869503,8.99895,4.69605
1680014148263,1194136617626057,3.8920503,8.997001,4.6600504
1680014148264,1194136620128288,3.9570003,9.0709505,4.68405
1680014148267,1194136622630652,3.9760501,8.962951,4.7590504
1680014148269,1194136625132806,4.0140004,8.85,4.8229504
1680014148273,1194136627635037,3.9109502,8.88195,4.90005
1680014148275,1194136630137191,3.9619503,8.920051,4.842
1680014148277,1194136632639317,3.9259503,8.84595,4.87605
1680014148279,1194136635141778,3.9520502,8.793,4.8640504
1680014148282,1194136637643932,3.9090002,8.767051,4.821
1680014148285,1194136640146086,3.8509502,8.77095,4.8499503
1680014148287,1194136642648471,3.8130002,8.68995,4.78305
1680014148289,1194136645150652,3.68895,8.776051,4.7320504
1680014148292,1194136647652883,3.7750502,8.6640005,4.65105
1680014148294,1194136650155268,3.6979501,8.70705,4.6150503
1680014148297,1194136652657499,3.7170002,8.661,4.60995
1680014148300,1194136655159643,3.6649501,8.623051,4.656
1680014148303,1194136657661797,3.6090002,8.565001,4.5210004
1680014148304,1194136660164182,3.5640001,8.556001,4.42605
1680014148307,1194136662666336,3.49005,8.56305,4.4620504
1680014148311,1194136665168552,3.4510503,8.533951,4.3060503
1680014148313,1194136667670936,3.3649502,8.50605,4.4380503
1680014148316,1194136670173090,3.2380502,8.55795,4.40205
1680014148318,1194136672675321,3.21,8.51295,4.2720003
1680014148321,1194136675177705,3.2359502,8.54895,4.27005
1680014148323,1194136677679859,3.11595,8.476951,4.28895
1680014148325,1194136680182013,3.0970502,8.376,4.25595
1680014148327,1194136682684475,2.97705,8.577001,4.1140504
1680014148329,1194136685186629,2.93895,8.54595,4.17705
1680014148332,1194136687688792,2.9650502,8.503051,4.2720003
1680014148336,1194136690191023,2.778,8.53695,4.18905
1680014148337,1194136692693177,2.733,8.49405,4.2510004
1680014148341,1194136695195562,2.7229502,8.479051,4.29405
1680014148344,1194136697697797,2.7229502,8.503051,4.19595
1680014148345,1194136700200182,2.73495,8.532001,4.3180504
1680014148348,1194136702702336,2.7949502,8.51805,4.395
1680014148352,1194136705204567,2.80995,8.57505,4.308
1680014148353,1194136707706720,2.90805,8.509951,4.335
1680014148355,1194136710208869,2.86695,8.434051,4.37505
1680014148357,1194136712711331,2.9560502,8.415,4.40205
1680014148359,1194136715213485,3.006,8.44305,4.4830503
1680014148362,1194136717715639,3.051,8.391001,4.4110503
1680014148364,1194136720218023,3.0970502,8.439,4.4089503
1680014148368,1194136722720254,3.147,8.364,4.5
1680014148369,1194136725222408,3.1690502,8.38095,4.38705
1680014148372,1194136727724562,3.1620002,8.352,4.4830503
1680014148374,1194136730227047,3.2430003,8.41695,4.4380503
1680014148377,1194136732729201,3.2620502,8.311951,4.42605
1680014148380,1194136735231355,3.25305,8.299951,4.42995
1680014148383,1194136737733740,3.11805,8.356951,4.51695
1680014148386,1194136740235893,3.24795,8.448,4.50495
1680014148388,1194136742738124,3.3439503,8.299951,4.347
1680014148392,1194136745240509,3.3010502,8.335951,4.4380503
1680014148393,1194136747742740,3.315,8.39295,4.4040003
1680014148395,1194136750244893,3.3240001,8.3880005,4.395
1680014148397,1194136752747292,3.2650502,8.326051,4.45905
1680014148400,1194136755249446,3.2650502,8.41905,4.3390503
1680014148402,1194136757751600,3.2740502,8.368951,4.4110503
1680014148404,1194136760254061,3.2689502,8.30895,4.4710503
1680014148407,1194136762756215,3.2599502,8.304001,4.452
1680014148410,1194136765258369,3.24795,8.39505,4.38495
1680014148412,1194136767760600,3.351,8.359051,4.43295
1680014148414,1194136770262754,3.28605,8.356951,4.33005
1680014148417,1194136772765138,3.3010502,8.2900505,4.4809504
1680014148421,1194136775267359,3.279,8.311951,4.464
1680014148424,1194136777769744,3.384,8.3209505,4.40595
1680014148428,1194136780271898,3.4060502,8.38095,4.4539504
1680014148429,1194136782774041,3.45405,8.39505,4.3369503
1680014148431,1194136785276272,3.4510503,8.352,4.3660502
1680014148433,1194136787778426,3.5380502,8.451,4.4040003
1680014148435,1194136790280888,3.55695,8.458051,4.392
1680014148437,1194136792783041,3.5400002,8.446051,4.359
1680014148439,1194136795285200,3.6070502,8.415,4.40205
1680014148443,1194136797787585,3.624,8.48595,4.4110503
1680014148445,1194136800289816,3.5779502,8.57505,4.392
1680014148447,1194136802791969,3.5710502,8.500951,4.347
1680014148450,1194136805294142,3.6409502,8.533951,4.48995
1680014148452,1194136807796604,3.52305,8.556001,4.56195
1680014148455,1194136810298758,3.56205,8.616,4.5739503
1680014148457,1194136812800912,3.5350502,8.625,4.46595
1680014148462,1194136815303291,3.38895,8.70405,4.4830503
1680014148465,1194136817804367,3.5059502,8.71905,4.4539504
1680014148465,1194136820305446,3.48495,8.653951,4.512
1680014148467,1194136822810060,3.3960001,8.661,4.5409503
1680014148470,1194136825312291,3.3120003,8.724,4.5430503
1680014148472,1194136827814450,3.3750002,8.611051,4.5739503
1680014148475,1194136830316604,3.3360002,8.661,4.5090003
1680014148477,1194136832818989,3.2329502,8.61795,4.4040003
1680014148481,1194136835321142,3.2050502,8.59395,4.359
1680014148482,1194136837823623,3.2329502,8.61795,4.2649503
1680014148486,1194136840325777,3.0870001,8.56305,4.28205
1680014148487,1194136842827931,3.078,8.55105,4.1740503
1680014148491,1194136845330161,3.075,8.54895,4.191
1680014148493,1194136847832546,3.006,8.58195,4.24095
1680014148496,1194136850334700,2.982,8.54205,4.1929502
1680014148502,1194136852836931,2.9959502,8.464951,4.2439504
1680014148503,1194136855339315,2.8930502,8.439,4.0300503
1680014148505,1194136857841469,2.913,8.4529505,4.05705
1680014148506,1194136860343623,2.84805,8.434051,4.08705
1680014148510,1194136862845854,2.7930002,8.344951,4.21005
1680014148511,1194136865348238,2.76195,8.29695,4.1599503
1680014148513,1194136867850387,2.80695,8.44095,4.0609503
1680014148515,1194136870352618,2.7570002,8.470051,4.07805
1680014148518,1194136872854772,2.661,8.44305,4.1070004
1680014148520,1194136875357157,2.7210002,8.415,3.9970503
1680014148522,1194136877859387,2.7280502,8.316,4.071
1680014148525,1194136880361551,2.69895,8.331,4.1290503
1680014148527,1194136882863936,2.73795,8.403001,4.0800004
1680014148530,1194136885366090,2.73495,8.38095,3.9829502
1680014148533,1194136887868243,2.77395,8.48205,4.203
1680014148536,1194136890370488,2.7640502,8.295,4.1070004
1680014148538,1194136892872873,2.7499502,8.500951,4.2049503
1680014148545,1194136895375104,2.7160501,8.41695,4.236
1680014148545,1194136897877257,2.77395,8.46,4.3110003
1680014148546,1194136900379642,2.8909502,8.48595,4.24095
1680014148547,1194136902881796,2.87205,8.496,4.2649503
1680014148549,1194136905384027,2.874,8.57505,4.3320003
1680014148552,1194136907886181,2.90295,8.53905,4.31505
1680014148554,1194136910388565,2.9560502,8.608951,4.36305
1680014148557,1194136912890796,2.94105,8.55795,4.359
1680014148560,1194136915392984,3.006,8.544001,4.31295
1680014148562,1194136917895368,2.8890002,8.721001,4.37505
1680014148564,1194136920397522,3.0229502,8.635051,4.3830004
1680014148568,1194136922899724,3.0919502,8.625,4.4230504
1680014148570,1194136925402109,3.0870001,8.647051,4.40205
1680014148575,1194136927904263,3.15405,8.70405,4.4089503
1680014148578,1194136930406478,3.1330502,8.81505,4.40205
1680014148578,1194136932908632,3.2650502,8.769,4.5739503
1680014148580,1194136935411017,3.1740003,8.623051,4.4380503
1680014148584,1194136937913171,3.1570501,8.70705,4.4230504
1680014148585,1194136940415401,3.25305,8.677951,4.51905
1680014148587,1194136942917786,3.3010502,8.74695,4.50705
1680014148590,1194136945419931,3.2599502,8.611051,4.41405
1680014148592,1194136947922162,3.2650502,8.58495,4.5019503
1680014148595,1194136950424316,3.3289502,8.628,4.42605
1680014148598,1194136952926700,3.2310002,8.70195,4.392
1680014148603,1194136955428926,3.31995,8.685,4.4539504
1680014148603,1194136957931080,3.2290502,8.653951,4.51905
1680014148605,1194136960433464,3.2980502,8.608951,4.5
1680014148607,1194136962935618,3.3079503,8.608951,4.44495
1680014148611,1194136965437767,3.3100502,8.604,4.5139503
1680014148614,1194136967939998,3.2929502,8.652,4.45905
1680014148618,1194136970442383,3.3010502,8.625,4.56495
1680014148621,1194136972944613,3.3049502,8.635051,4.42605
1680014148621,1194136975446767,3.3649502,8.58195,4.3830004
1680014148623,1194136977949152,3.315,8.61795,4.464
1680014148625,1194136980451306,3.255,8.553,4.5600004
1680014148627,1194136982953536,3.31695,8.53695,4.5600004
1680014148632,1194136985455690,3.28905,8.56995,4.45905
1680014148633,1194136987958065,3.279,8.45505,4.524
1680014148636,1194136990460296,3.255,8.40495,4.62195
1680014148637,1194136992962449,3.21405,8.488951,4.428
1680014148640,1194136995464834,3.2020502,8.48595,4.47405
1680014148642,1194136997966988,3.2359502,8.509951,4.4760003
1680014148645,1194137000469200,3.219,8.424001,4.50495
1680014148648,1194137002971584,3.1690502,8.446051,4.4110503
1680014148651,1194137005473738,3.13995,8.42205,4.4230504
1680014148653,1194137007975955,3.2050502,8.491051,4.3780503
1680014148655,1194137010478109,3.15,8.41005,4.4209504
1680014148657,1194137012980263,3.1330502,8.427,4.395
1680014148660,1194137015482647,3.1230001,8.467051,4.557
1680014148663,1194137017984878,3.1330502,8.41695,4.50495
1680014148665,1194137020487263,3.078,8.376,4.44
1680014148667,1194137022989417,3.1620002,8.299951,4.6800003
1680014148670,1194137025491647,3.1330502,8.247001,4.5550504
1680014148673,1194137027993801,3.04695,8.319,4.5409503
1680014148675,1194137030496200,3.075,8.27595,4.51695
1680014148677,1194137032998354,3.08295,8.304001,4.5480003
1680014148680,1194137035500584,3.15405,8.352,4.584
1680014148683,1194137038002969,3.1020002,8.319,4.51905
1680014148687,1194137040505133,3.07995,8.18505,4.5430503
1680014148688,1194137043007364,3.1210501,8.27295,4.4620504
1680014148691,1194137045509518,3.10905,8.319,4.51905
1680014148693,1194137048011902,3.0589502,8.344951,4.53795
1680014148694,1194137050514133,3.078,8.26605,4.545
1680014148697,1194137053016301,3.14505,8.20395,4.44
1680014148701,1194137055518685,3.0559502,8.292001,4.5139503
1680014148703,1194137058020839,3.1380002,8.247001,4.557
1680014148705,1194137060522993,3.0970502,8.26605,4.52895
1680014148707,1194137063025224,3.1570501,8.30895,4.512
1680014148710,1194137065527609,3.21195,8.247001,4.464
1680014148712,1194137068029839,3.1879501,8.247001,4.57695
1680014148714,1194137070531993,3.13995,8.20395,4.5430503
1680014148718,1194137073034373,3.1980002,8.212951,4.4950504
1680014148721,1194137075536527,3.2620502,8.29695,4.53105
1680014148725,1194137078038757,3.2770503,8.2900505,4.45695
1680014148726,1194137080541142,3.2310002,8.25405,4.4040003
1680014148728,1194137083043282,3.2290502,8.149051,4.5
1680014148732,1194137085545513,3.28605,8.26395,4.335
1680014148733,1194137088047666,3.2430003,8.27595,4.335
1680014148735,1194137090549820,3.2209501,8.247001,4.41405
1680014148737,1194137093052205,3.2719502,8.26605,4.35405
1680014148741,1194137095554455,3.2569501,8.24895,4.2720003
1680014148743,1194137098056839,3.2359502,8.292001,4.28895
1680014148745,1194137100558993,3.2329502,8.200951,4.4110503
1680014148747,1194137103061224,3.2359502,8.280001,4.308
1680014148751,1194137105563378,3.1900501,8.451,4.3660502
1680014148753,1194137108065546,3.2209501,8.368951,4.3780503
1680014148755,1194137110567930,3.1900501,8.356951,4.20795
1680014148758,1194137113070161,3.1950002,8.368951,4.2510004
1680014148762,1194137115572546,3.1620002,8.4529505,4.1929502
1680014148764,1194137118074716,3.10905,8.458051,4.2720003
1680014148766,1194137120576946,3.1740003,8.436001,4.3110003
1680014148768,1194137123079100,3.1230001,8.43105,4.29195
1680014148770,1194137125581485,3.042,8.479051,4.3060503
1680014148773,1194137128083716,3.10695,8.52495,4.26795
1680014148775,1194137130585869,3.1039503,8.51505,4.30305
1680014148777,1194137133088254,3.0610502,8.509951,4.30095
1680014148782,1194137135590408,3.0970502,8.51295,4.4160004
1680014148783,1194137138092567,3.13995,8.52705,4.497
1680014148785,1194137140594798,3.2260501,8.53005,4.44495
1680014148788,1194137143097182,3.183,8.508,4.45695
1680014148792,1194137145599413,3.15,8.613001,4.4380503
1680014148793,1194137148101567,3.2410502,8.54895,4.3710003
1680014148796,1194137150603955,3.1300502,8.56095,4.3900504
1680014148800,1194137153106109,3.2929502,8.56995,4.37295
1680014148801,1194137155608263,3.2430003,8.596951,4.4809504
1680014148804,1194137158110725,3.351,8.48595,4.37295
1680014148805,1194137160612897,3.1930501,8.500951,4.47795
1680014148808,1194137163115128,3.2070003,8.532001,4.34205
1680014148812,1194137165617282,3.2380502,8.496,4.35405
1680014148817,1194137168119695,3.2620502,8.491051,4.36095
1680014148818,1194137170621849,3.1980002,8.400001,4.4500504
1680014148818,1194137173124079,3.2620502,8.367001,4.34205
1680014148823,1194137175626464,3.2209501,8.458051,4.3110003
1680014148824,1194137178128609,3.18105,8.37405,4.32
1680014148826,1194137180630840,3.1420503,8.292001,4.37505
1680014148828,1194137183132993,3.1660502,8.344951,4.33005
1680014148833,1194137185635147,3.0990002,8.314051,4.29405
1680014148833,1194137188137532,2.9560502,8.139,4.275
1680014148837,1194137190639739,2.9680502,8.22795,4.17705
1680014148838,1194137193142123,3.078,8.280001,4.44495
1680014148841,1194137195644277,3.0229502,8.259001,4.2169504
1680014148843,1194137198146508,2.9839501,8.182051,4.296
1680014148845,1194137200648662,3.0199502,8.182051,4.1740503
1680014148847,1194137203150807,2.9869502,8.200951,4.12095
1680014148851,1194137205653268,3.08505,8.211,4.16505
1680014148853,1194137208155422,3.039,8.191951,4.359
1680014148855,1194137210657807,3.111,8.167951,4.215
1680014148857,1194137213159942,3.14505,8.191951,4.155
1680014148861,1194137215662095,3.1570501,8.376,4.17705
1680014148863,1194137218164326,3.1420503,8.167951,4.248
1680014148865,1194137220666711,3.0300002,8.11995,4.1860504
1680014148868,1194137223168927,3.0319502,8.14605,4.18095
1680014148871,1194137225671080,3.0270002,8.224951,4.2120004
1680014148874,1194137228173465,3.0610502,8.17305,4.263
1680014148876,1194137230675619,3.04695,8.059951,4.19595
1680014148878,1194137233177773,3.0610502,8.095051,4.1719503
1680014148880,1194137235680239,3.0610502,8.191951,4.2049503
1680014148882,1194137238182393,3.0949502,8.14605,4.3710003
1680014148885,1194137240684624,3.0730503,8.101951,4.3369503
1680014148887,1194137243186778,3.10695,8.18505,4.296
1680014148890,1194137245688937,3.0250502,8.259001,4.3180504
1680014148893,1194137248191321,3.00795,8.155951,4.41405
1680014148895,1194137250693552,3.1230001,8.223001,4.452
1680014148898,1194137253195937,3.0319502,8.23995,4.27995
1680014148901,1194137255698080,3.039,8.21595,4.27005
1680014148903,1194137258200234,3.0900002,8.24895,4.3440003
1680014148905,1194137260702465,3.1380002,8.268001,4.2460504
1680014148908,1194137263204850,3.114,8.2570505,4.3390503
1680014148913,1194137265707014,3.0540001,8.42895,4.227
1680014148914,1194137268209244,3.1620002,8.451,4.28205
1680014148917,1194137270711398,3.11805,8.47395,4.32495
1680014148919,1194137273213783,3.1230001,8.46195,4.29195
1680014148921,1194137275715937,3.1980002,8.52705,4.452
1680014148923,1194137278218398,3.1879501,8.49405,4.46595
1680014148925,1194137280720552,3.2569501,8.45505,4.4230504
1680014148928,1194137283222783,3.1690502,8.323951,4.347
1680014148931,1194137285724937,3.07095,8.4529505,4.46595
1680014148933,1194137288227091,3.10695,8.52705,4.5739503
1680014148935,1194137290729469,3.2329502,8.601001,4.464
1680014148938,1194137293231700,3.3010502,8.668051,4.63395
1680014148942,1194137295733854,3.3720002,8.785951,4.6600504
1680014148946,1194137298236252,3.3820503,8.776051,4.596
1680014148946,1194137300738483,3.37995,8.7949505,4.57905
1680014148951,1194137303240637,3.3960001,8.812051,4.5090003
1680014148952,1194137305742791,3.49005,8.937,4.6480503
1680014148954,1194137308245252,3.5500503,8.89095,4.6650004
1680014148956,1194137310747387,3.5740502,8.958,4.5930004
1680014148958,1194137313249541,3.42705,8.994,4.57905
1680014148963,1194137315751926,3.4990501,8.946,4.6800003
1680014148963,1194137318254080,3.55905,8.977051,4.7200503
1680014148965,1194137320756300,3.5350502,8.91495,4.557
1680014148969,1194137323258685,3.52305,9.02805,4.63905
1680014148971,1194137325760839,3.5659502,9.00105,4.8300004
1680014148973,1194137328263070,3.4990501,8.929951,4.6530004
1680014148975,1194137330765459,3.5710502,9.02805,4.5480003
1680014148977,1194137333267613,3.5830503,9.04905,4.6410003
1680014148984,1194137335769767,3.5299501,8.938951,4.69605
1680014148984,1194137338271998,3.4750502,8.973001,4.63395
1680014148987,1194137340774372,3.5740502,8.886001,4.59105
1680014148989,1194137343276526,3.4990501,8.929951,4.67205
1680014148992,1194137345778757,3.5470502,8.917951,4.59105
1680014148994,1194137348280911,3.4039502,8.842951,4.5430503
1680014148995,1194137350783295,3.5350502,8.74695,4.5690002
1680014148998,1194137353285473,3.4630501,8.83605,4.47405
1680014149001,1194137355787935,3.348,8.74695,4.44705
1680014149003,1194137358290089,3.3679502,8.785951,4.3830004
1680014149005,1194137360792243,3.42705,8.72805,4.4830503
1680014149007,1194137363294483,3.3750002,8.656051,4.545
1680014149012,1194137365796637,3.3270001,8.647051,4.4209504
1680014149013,1194137368299022,3.2650502,8.508,4.47405
1680014149016,1194137370801253,3.315,8.592,4.39905
1680014149018,1194137373303411,3.3360002,8.53005,4.50705
1680014149022,1194137375805796,3.25305,8.52495,4.3560004
1680014149026,1194137378307950,3.2650502,8.4529505,4.42605
1680014149029,1194137380810080,3.3079503,8.4529505,4.22895
1680014149030,1194137383312311,3.2209501,8.37405,4.37505
1680014149032,1194137385814772,3.3079503,8.3880005,4.36305
1680014149033,1194137388316926,3.3289502,8.415,4.35405
1680014149035,1194137390819080,3.2650502,8.41695,4.2010503
1680014149038,1194137393321464,3.3720002,8.271001,4.27995
1680014149041,1194137395823613,3.3720002,8.40705,4.3780503
1680014149043,1194137398325844,3.423,8.311951,4.37295
1680014149046,1194137400828229,3.3460503,8.304001,4.275
1680014149048,1194137403330459,3.28605,8.371051,4.395
1680014149052,1194137405832622,3.32205,8.30895,4.4040003
1680014149053,1194137408335007,3.35295,8.28495,4.34205
1680014149056,1194137410837161,3.28905,8.26395,4.38495
1680014149058,1194137413339315,3.3960001,8.307,4.512
1680014149064,1194137415841550,3.3360002,8.27595,4.47405
1680014149065,1194137420843935,3.3010502,8.335951,4.6150503
1680014149067,1194137421003627,3.41805,8.30895,4.52895
1680014149068,1194137423348320,3.4060502,8.22105,4.5550504
1680014149072,1194137425850474,3.3289502,8.21595,4.4950504
1680014149073,1194137428352627,3.4300501,8.16495,4.44495
1680014149075,1194137430855027,3.4009502,8.26095,4.452
1680014149077,1194137433357489,3.4510503,8.22105,4.41405
1680014149081,1194137435859642,3.4510503,8.3209505,4.5090003
1680014149083,1194137438361796,3.3820503,8.247001,4.39905
1680014149086,1194137440864008,3.4009502,8.26395,4.3660502
1680014149088,1194137443366162,3.4680002,8.24205,4.287
1680014149092,1194137445868546,3.3079503,8.26605,4.2840004
1680014149093,1194137448370777,3.3120003,8.224951,4.37295
1680014149095,1194137450872931,3.31995,8.188951,4.3060503
1680014149102,1194137453375306,3.2719502,8.283,4.37295
1680014149103,1194137455877460,3.2329502,8.302051,4.25295
1680014149104,1194137458379613,3.2569501,8.212951,4.16505
1680014149106,1194137460881834,3.2740502,8.23695,4.1790004
1680014149108,1194137463384296,3.3289502,8.268001,4.227
1680014149111,1194137465886450,3.0900002,8.224951,4.308
1680014149113,1194137468388603,3.1879501,8.2879505,4.2840004
1680014149115,1194137470890988,3.04905,8.323951,4.1410503
1680014149118,1194137473393137,3.0970502,8.36205,4.0680003
1680014149121,1194137475895291,3.0319502,8.43105,4.1410503
1680014149123,1194137478397522,3.08295,8.427,4.191
1680014149125,1194137480899906,3.111,8.45505,4.15005
1680014149127,1194137483402137,3.0919502,8.448,4.0609503
1680014149131,1194137485904311,3.11805,8.424001,4.13595
1680014149133,1194137488406695,3.0730503,8.51505,4.14795
1680014149137,1194137490908849,3.0229502,8.451,4.2840004
1680014149138,1194137493411084,2.77095,8.30895,3.96795
1680014149142,1194137495913469,2.91,8.434051,4.06605
1680014149144,1194137498415623,2.9290502,8.448,4.1790004
1680014149146,1194137500917853,2.9530501,8.589001,4.08705
1680014149148,1194137503420007,3.15405,8.652,4.11
1680014149152,1194137505922142,3.25005,8.616,4.19805
1680014149153,1194137508424527,3.21405,8.71905,4.0219502
1680014149156,1194137510926757,3.3120003,8.628,4.1290503
1680014149158,1194137513429142,3.1950002,8.656051,4.06605
1680014149161,1194137515931296,3.186,8.629951,4.1020503
1680014149163,1194137518433522,3.3390002,8.544001,4.1929502
1680014149171,1194137520935676,3.4609501,8.56995,4.0740004
1680014149171,1194137523437829,3.456,8.56995,4.09305
1680014149171,1194137525940291,3.45405,8.5990505,4.17705
1680014149174,1194137528442417,3.55695,8.676001,4.18905
1680014149175,1194137530944801,3.51795,8.656051,4.275
1680014149178,1194137533446955,3.6169503,8.601001,4.1620502
1680014149182,1194137535949186,3.55395,8.56995,4.37505
1680014149183,1194137538451340,3.5059502,8.616,4.347
1680014149186,1194137540953825,3.5520003,8.647051,4.3440003
1680014149188,1194137543455979,3.5470502,8.589001,4.36095
1680014149192,1194137545958133,3.4990501,8.521951,4.4110503
1680014149192,1194137548460518,3.5640001,8.58705,4.347
1680014149196,1194137550962643,3.55695,8.58195,4.37505
1680014149201,1194137553464796,3.44895,8.496,4.359
1680014149202,1194137555967027,3.5040002,8.464951,4.34205
1680014149203,1194137558469412,3.5020502,8.54205,4.4830503
1680014149205,1194137560971643,3.456,8.51505,4.36095
1680014149208,1194137563473829,3.4039502,8.53005,4.3660502
1680014149213,1194137565976214,3.35805,8.623051,4.3710003
1680014149216,1194137568478368,3.3600001,8.57295,4.2649503
1680014149217,1194137570980599,3.3460503,8.5990505,4.368
1680014149218,1194137573482974,3.3460503,8.496,4.3510504
1680014149223,1194137575985128,3.3340502,8.49405,4.3060503
1680014149224,1194137578487359,3.3600001,8.51805,4.347
1680014149225,1194137580989513,3.3340502,8.42895,4.3830004
1680014149228,1194137583491667,3.3010502,8.51505,4.35405
1680014149232,1194137585994017,3.2650502,8.479051,4.3830004
1680014149233,1194137588496248,3.2929502,8.484,4.4809504
1680014149235,1194137590998633,3.3079503,8.488951,4.32495
1680014149238,1194137593500787,3.1380002,8.403001,4.31505
1680014149241,1194137596003007,3.17595,8.356951,4.38
1680014149243,1194137598505161,3.28395,8.51505,4.35405
1680014149245,1194137601007315,3.3600001,8.470051,4.3369503
1680014149249,1194137603509777,3.4060502,8.500951,4.3230004
1680014149252,1194137606011925,3.4080002,8.49405,4.38495
1680014149254,1194137608514310,3.4039502,8.47395,4.4539504
1680014149256,1194137611016464,3.387,8.458051,4.43505
1680014149258,1194137613518618,3.48495,8.364,4.36305
1680014149262,1194137616020864,3.4129503,8.43105,4.3830004
1680014149263,1194137618523248,3.48495,8.38605,4.36305
1680014149267,1194137621025479,3.52305,8.41905,4.32
1680014149269,1194137623527633,3.5380502,8.484,4.35405
1680014149271,1194137626030017,3.52095,8.46,4.44705
1680014149273,1194137628532185,3.62895,8.434051,4.3900504
1680014149276,1194137631034339,3.6649501,8.391001,4.4419503
1680014149278,1194137633536570,3.6690001,8.427,4.3900504
1680014149281,1194137636038954,3.59505,8.46,4.5360003
1680014149283,1194137638541124,3.6690001,8.44305,4.3830004
1680014149287,1194137641043278,3.59805,8.379001,4.584
1680014149288,1194137643545509,3.7080002,8.464951,4.3560004
1680014149291,1194137646047971,3.7440002,8.500951,4.38705
1680014149294,1194137648550114,3.7240503,8.52,4.4209504
1680014149297,1194137651052268,3.7050002,8.470051,4.5
1680014149298,1194137653554653,3.7099502,8.544001,4.50705
1680014149302,1194137656056807,3.76305,8.48595,4.3830004
1680014149304,1194137658558961,3.6910503,8.488951,4.60995
1680014149306,1194137661061422,3.696,8.42895,4.4950504
1680014149308,1194137663563576,3.6810002,8.451,4.4539504
1680014149311,1194137666065807,3.7150502,8.448,4.4689503
1680014149313,1194137668567961,3.7530003,8.47395,4.3969502
1680014149316,1194137671070345,3.6840003,8.36205,4.45695
1680014149318,1194137673572499,3.6859503,8.40705,4.392
1680014149321,1194137676074961,3.7339501,8.451,4.347
1680014149325,1194137678577114,3.6190503,8.40705,4.38705
1680014149326,1194137681079282,3.729,8.37405,4.44705
1680014149328,1194137683581513,3.657,8.391001,4.3230004
1680014149331,1194137686083667,3.765,8.391001,4.44
1680014149333,1194137688585821,3.6649501,8.316,4.34205
1680014149336,1194137691088282,3.6139503,8.343,4.3780503
1680014149338,1194137693590441,3.4990501,8.391001,4.32705
1680014149342,1194137696092595,3.5659502,8.39295,4.3830004
1680014149343,1194137698594980,3.5640001,8.304001,4.30305
1680014149345,1194137701097210,3.55395,8.368951,4.29405
1680014149348,1194137703599374,3.5059502,8.3209505,4.287
1680014149352,1194137706101528,3.528,8.41695,4.2720003
1680014149353,1194137708603990,3.4729502,8.331,4.27005
1680014149356,1194137711106144,3.4830003,8.311951,4.2840004
1680014149358,1194137713608518,3.4080002,8.400001,4.3369503
1680014149364,1194137716110672,3.3940501,8.26395,4.263
1680014149365,1194137718612826,3.3990002,8.22795,4.392
1680014149366,1194137721115057,3.35295,8.37405,4.27995
1680014149368,1194137723617446,3.351,8.307,4.34205
1680014149372,1194137726119677,3.4249501,8.439,4.236
1680014149373,1194137728621831,3.387,8.3550005,4.27005
1680014149375,1194137731124215,3.41805,8.302051,4.26
1680014149379,1194137733626359,3.35805,8.328,4.21995
1680014149384,1194137736128513,3.4039502,8.343,4.3489504
1680014149385,1194137738630975,3.4320002,8.24895,4.32705
1680014149386,1194137741133129,3.4630501,8.34795,4.4160004
1680014149389,1194137743635311,3.4320002,8.3209505,4.3489504
1680014149392,1194137746137542,3.4440002,8.331,4.3110003
1680014149393,1194137748639696,3.49005,8.280001,4.31505
1680014149396,1194137751142081,3.3820503,8.352,4.3180504
1680014149400,1194137753644330,3.4710002,8.30895,4.2649503
1680014149402,1194137756146484,3.45405,8.26095,4.296
1680014149404,1194137758648869,3.528,8.212951,4.27995
1680014149406,1194137761151100,3.4110003,8.34795,4.248
1680014149408,1194137763653254,3.42705,8.367001,4.1719503
1680014149411,1194137766155402,3.4680002,8.3209505,4.287
1680014149413,1194137768657864,3.3960001,8.38095,4.2840004
1680014149415,1194137771160018,3.3649502,8.268001,4.3560004
1680014149418,1194137773662172,3.4729502,8.368951,4.2460504
1680014149422,1194137776164556,3.3750002,8.283,4.3440003
1680014149423,1194137778666710,3.3960001,8.37405,4.2510004
1680014149425,1194137781168941,3.37995,8.352,4.296
1680014149428,1194137783671095,3.3960001,8.39505,4.32
1680014149431,1194137786173556,3.28395,8.283,4.203
1680014149433,1194137788675701,3.38895,8.326051,4.2649503
1680014149437,1194137791178086,3.3360002,8.39295,4.1839504
1680014149438,1194137793680240,3.3600001,8.26605,4.27995
1680014149441,1194137796182393,3.3720002,8.367001,4.3180504
1680014149443,1194137798684619,3.37995,8.39805,4.2990003
1680014149445,1194137801187004,3.3439503,8.40495,4.21005
1680014149448,1194137803689158,3.3649502,8.491051,4.248
1680014149451,1194137806191388,3.3769503,8.316,4.131
1680014149453,1194137808693542,3.3439503,8.46,4.25295
1680014149455,1194137811195921,3.4080002,8.40705,4.1929502
1680014149459,1194137813698075,3.3270001,8.42895,4.248
1680014149462,1194137816200536,3.384,8.472,4.25295
1680014149465,1194137818702700,3.4110003,8.497951,4.1929502
1680014149466,1194137821204854,3.38895,8.484,4.27995
1680014149469,1194137823707085,3.4110003,8.391001,4.3320003
1680014149471,1194137826209239,3.42705,8.4529505,4.2319503
1680014149475,1194137828711623,3.3960001,8.45505,4.12095
1680014149476,1194137831213863,3.4060502,8.533951,4.08705
1680014149478,1194137833716017,3.4680002,8.451,4.1070004
1680014149482,1194137836218402,3.4420502,8.44095,4.3369503
1680014149483,1194137838720632,3.48495,8.467051,4.2010503
1680014149486,1194137841222777,3.3720002,8.451,4.13595
1680014149488,1194137843724931,3.52605,8.39505,4.26795
1680014149492,1194137846227393,3.528,8.46,4.248
1680014149493,1194137848729546,3.5040002,8.439,4.1790004
1680014149496,1194137851231700,3.4609501,8.35005,4.2319503
1680014149498,1194137853734080,3.4660501,8.39505,4.25595
1680014149502,1194137856236234,3.4710002,8.37405,4.24095
1680014149504,1194137858738388,3.3750002,8.379001,4.2340503
1680014149506,1194137861240618,3.423,8.41005,4.29195
1680014149508,1194137863743003,3.4630501,8.436001,4.37295
1680014149513,1194137866245234,3.4350002,8.43105,4.18905
1680014149514,1194137868747388,3.3990002,8.44095,4.28895
1680014149517,1194137871249762,3.4729502,8.491051,4.263
1680014149519,1194137873751916,3.4510503,8.283,4.33005
1680014149526,1194137876254147,3.4320002,8.359051,4.32495
1680014149526,1194137878756532,3.55695,8.38605,4.29405
1680014149527,1194137881258685,3.5380502,8.39505,4.30305
1680014149529,1194137883760916,3.492,8.379001,4.308
1680014149532,1194137886263070,3.5400002,8.46,4.22895
1680014149534,1194137888765224,3.52305,8.46,4.22895
1680014149536,1194137891267608,3.5470502,8.42205,4.1790004
1680014149539,1194137893769839,3.5500503,8.3880005,4.1860504
1680014149543,1194137896272229,3.49005,8.491051,4.25295
1680014149547,1194137898774383,3.5500503,8.46195,4.3110003
1680014149550,1194137901276623,3.528,8.565001,4.32495
1680014149552,1194137903778777,3.6169503,8.553,4.22205
1680014149553,1194137906280931,3.6379502,8.48595,4.1620502
1680014149554,1194137908783393,3.5760002,8.533951,4.3560004
1680014149556,1194137911285547,3.59805,8.58705,4.34205
1680014149558,1194137913787931,3.6670501,8.479051,4.3180504
1680014149561,1194137916290051,3.68895,8.53005,4.45905
1680014149563,1194137918792205,3.7410002,8.470051,4.41405
1680014149566,1194137921294436,3.6430502,8.568001,4.4230504
1680014149568,1194137923796820,3.56205,8.52,4.32705
1680014149571,1194137926299051,3.5740502,8.41695,4.4809504
1680014149573,1194137928801200,3.693,8.4529505,4.36095
1680014149577,1194137931303585,3.6360002,8.44095,4.41795
1680014149580,1194137933805738,3.6210003,8.403001,4.308
1680014149583,1194137936307892,3.59505,8.43105,4.3969502
1680014149588,1194137938810123,3.624,8.55795,4.40595
1680014149589,1194137941312508,3.6499503,8.503051,4.4380503
1680014149591,1194137943814738,3.48705,8.448,4.37295
1680014149593,1194137946315825,3.5500503,8.45505,4.37505
1680014149594,1194137948816902,3.55905,8.400001,4.347
1680014149596,1194137951321441,3.5470502,8.451,4.36305
1680014149599,1194137953823672,3.6049502,8.52705,4.4539504
1680014149601,1194137956326056,3.4800003,8.48595,4.44
1680014149603,1194137958828210,3.4780502,8.434051,4.263
1680014149606,1194137961330441,3.48495,8.458051,4.40205
1680014149609,1194137963832595,3.4969501,8.508,4.368
1680014149611,1194137966334748,3.4249501,8.458051,4.2990003
1680014149613,1194137968837133,3.4009502,8.521951,4.4110503
1680014149616,1194137971339378,3.4390502,8.53005,4.368
1680014149618,1194137973841532,3.4150503,8.556001,4.31505
1680014149622,1194137976343916,3.4440002,8.56095,4.224
1680014149625,1194137978846147,3.3700502,8.49405,4.3060503
1680014149627,1194137981348311,3.3390002,8.497951,4.32
1680014149629,1194137983850465,3.4110003,8.60595,4.1929502
1680014149632,1194137986352926,3.37995,8.57295,4.2390003
1680014149634,1194137988855080,3.3600001,8.448,4.2319503
1680014149636,1194137991357465,3.3820503,8.496,4.26
1680014149638,1194137993859639,3.35295,8.51295,4.08705
1680014149641,1194137996361793,3.3700502,8.54595,4.22895
1680014149643,1194137998864023,3.3940501,8.46,4.2840004
1680014149646,1194138001366177,3.4060502,8.448,4.1119504
1680014149648,1194138003868547,3.3940501,8.42205,4.2010503
1680014149652,1194138006370778,3.45405,8.391001,4.12095
1680014149653,1194138008873162,3.4080002,8.53695,4.16505
1680014149655,1194138011375316,3.4990501,8.368951,4.22205
1680014149658,1194138013877465,3.4150503,8.415,4.16505
1680014149664,1194138016379696,3.49005,8.446051,4.07805
1680014149666,1194138021382080,3.42,8.476951,4.143
1680014149668,1194138021496850,3.5089502,8.46,4.1719503
1680014149670,1194138023886465,3.4150503,8.41695,4.0800004
1680014149673,1194138026388619,3.4750502,8.3209505,4.20795
1680014149676,1194138028891003,3.4420502,8.448,4.13595
1680014149676,1194138031393234,3.4249501,8.400001,4.21005
1680014149678,1194138033895624,3.3960001,8.42895,4.287
1680014149681,1194138036397778,3.3649502,8.44095,4.25595
1680014149685,1194138038899932,3.45405,8.40705,4.227
1680014149686,1194138041402162,3.3679502,8.359051,4.3110003
1680014149689,1194138043904561,3.45405,8.41695,4.248
1680014149692,1194138046406715,3.4420502,8.467051,4.27995
1680014149693,1194138048908946,3.4710002,8.46,4.1719503
1680014149696,1194138051411099,3.48705,8.52,4.1839504
1680014149700,1194138053913484,3.4750502,8.472,4.155
1680014149704,1194138056415638,3.63105,8.484,4.143
1680014149705,1194138058917869,3.5089502,8.472,4.3369503
1680014149707,1194138061420253,3.59505,8.439,4.191
1680014149709,1194138063922407,3.5110502,8.448,4.224
1680014149713,1194138066424571,3.5760002,8.479051,4.17705
1680014149714,1194138068926802,3.5299501,8.51805,4.2390003
1680014149717,1194138071429186,3.5830503,8.476951,4.1449504
1680014149718,1194138073931417,3.59505,8.439,4.1670003
1680014149723,1194138076433576,3.5059502,8.47395,4.2649503
1680014149724,1194138078935961,3.5400002,8.451,4.1929502
1680014149726,1194138081438114,3.5040002,8.479051,4.15005
1680014149729,1194138083940268,3.459,8.42205,4.1070004
1680014149732,1194138086442518,3.4039502,8.368951,4.10505
1680014149733,1194138088944672,3.5500503,8.302051,4.2169504
1680014149738,1194138091447133,3.4060502,8.40705,4.30305
1680014149739,1194138093949287,3.4470003,8.42895,4.227
1680014149742,1194138096451691,3.4950001,8.553,4.2840004
1680014149744,1194138098953845,3.3289502,8.52,4.25805
1680014149746,1194138101456076,3.4080002,8.565001,4.0939503
1680014149748,1194138103958229,3.4249501,8.49405,4.22205
1680014149751,1194138106460614,3.4009502,8.51805,4.19805
1680014149753,1194138108962850,3.4350002,8.52495,4.2169504
1680014149756,1194138111465004,3.4750502,8.484,4.37295
1680014149758,1194138113967158,3.38895,8.41005,4.32495
1680014149761,1194138116469542,3.387,8.58495,4.1790004
1680014149764,1194138118971696,3.3360002,8.44095,4.25295
1680014149766,1194138121474144,3.2770503,8.446051,4.12395
1680014149768,1194138123976297,3.28095,8.415,4.1410503
1680014149772,1194138126478528,3.24795,8.446051,4.28895
1680014149775,1194138128980682,3.4110003,8.40705,4.24095
1680014149777,1194138131482836,3.55695,8.476951,4.17705
1680014149778,1194138133985221,3.5500503,8.500951,4.26
1680014149782,1194138136487451,3.6499503,8.496,4.36095
1680014149784,1194138138989836,3.68895,8.41695,4.191
1680014149786,1194138141491966,3.8059502,8.43105,4.1620502
1680014149789,1194138143994197,3.7600503,8.43105,4.143
1680014149799,1194138146496350,3.6739502,8.403001,4.275
1680014149799,1194138148998735,3.6859503,8.49405,4.24095
1680014149799,1194138151500889,3.68895,8.53905,4.24095
1680014149799,1194138154003129,3.68895,8.40495,4.2990003
1680014149801,1194138156505513,3.6480002,8.464951,4.20795
1680014149803,1194138159007667,3.66195,8.44095,4.27005
1680014149806,1194138161509821,3.6409502,8.46195,4.275
1680014149808,1194138164012038,3.5830503,8.41695,4.12395
1680014149813,1194138166514192,3.5350502,8.51295,4.1929502
1680014149814,1194138169016653,3.6360002,8.42895,4.18905
1680014149816,1194138171518807,3.5160003,8.376,4.215
1680014149818,1194138174020961,3.4249501,8.47395,4.1839504
1680014149822,1194138176523335,3.5059502,8.412001,4.191
1680014149823,1194138179025489,3.4320002,8.448,4.2649503
1680014149826,1194138181527720,3.42705,8.52,4.2340503
1680014149828,1194138184030105,3.3679502,8.40705,4.1290503
1680014149831,1194138186532340,3.384,8.458051,4.155
1680014149833,1194138189034494,3.4350002,8.45505,4.1329503
1680014149836,1194138191536648,3.32205,8.39505,4.13805
1680014149838,1194138194039033,3.4080002,8.508,4.248
1680014149841,1194138196541187,3.3360002,8.415,4.01805
1680014149843,1194138199043417,3.351,8.509951,4.3320003
1680014149845,1194138201545802,3.3630002,8.42895,4.2460504
1680014149849,1194138204048018,3.45405,8.49405,4.25805
1680014149852,1194138206550172,3.35295,8.503051,4.19805
1680014149854,1194138209052326,3.423,8.434051,4.25805
1680014149856,1194138211554710,3.35295,8.4529505,4.2460504
1680014149859,1194138214056941,3.387,8.46,4.2460504
1680014149862,1194138216559326,3.4780502,8.48595,4.31295
1680014149863,1194138219061479,3.4080002,8.53905,4.32705
1680014149866,1194138221563633,3.4470003,8.500951,4.25805
1680014149869,1194138224065864,3.48495,8.497951,4.24095
1680014149872,1194138226568004,3.4300501,8.57505,4.2769504
1680014149873,1194138229070158,3.4950001,8.54205,4.28895
1680014149876,1194138231572619,3.4990501,8.577001,4.2649503
1680014149879,1194138234075004,3.528,8.592,4.3180504
1680014149881,1194138236577158,3.4680002,8.52705,4.1449504
1680014149884,1194138239079312,3.5299501,8.613001,4.2720003
1680014149888,1194138241581542,3.6070502,8.509951,4.131
1680014149890,1194138244083696,3.5449502,8.56305,4.3180504
1680014149892,1194138246586081,3.6430502,8.58495,4.2319503
1680014149894,1194138249088312,3.6450002,8.601001,4.34205
1680014149896,1194138251590465,3.6090002,8.61795,4.25595
1680014149899,1194138254092850,3.5640001,8.608951,4.32705
1680014149902,1194138256595004,3.5779502,8.60595,4.2720003
1680014149904,1194138259097249,3.5449502,8.625,4.296
1680014149906,1194138261599633,3.55695,8.632951,4.2460504
1680014149909,1194138264101864,3.4369502,8.601001,4.25595
1680014149911,1194138266604018,3.4369502,8.736,4.248
1680014149915,1194138269106158,3.5059502,8.601001,4.19595
1680014149916,1194138271608542,3.456,8.616,4.2990003
1680014149919,1194138274110696,3.5470502,8.644951,4.2649503
1680014149922,1194138276612927,3.5500503,8.629951,4.18095
1680014149925,1194138279115297,3.492,8.653951,4.236
1680014149927,1194138281617451,3.5689502,8.611051,4.0680003
1680014149928,1194138284119681,3.5059502,8.532001,4.12395
1680014149931,1194138286621835,3.5020502,8.6640005,4.2720003
1680014149933,1194138289123989,3.62895,8.628,4.09005
1680014149936,1194138291626456,3.5449502,8.644951,4.12395
1680014149939,1194138294128609,3.6019502,8.652,4.1740503
1680014149942,1194138296630994,3.6019502,8.629951,4.13595
1680014149943,1194138299133148,3.6070502,8.60595,4.086
1680014149946,1194138301635360,3.6360002,8.616,4.05705
1680014149948,1194138304137514,3.5470502,8.568001,4.2010503
1680014149951,1194138306639667,3.5400002,8.661,4.18095
1680014149953,1194138309142129,3.4830003,8.5990505,4.16895
1680014149956,1194138311644288,3.5779502,8.51505,4.248
1680014149958,1194138314146442,3.5110502,8.58705,4.236
1680014149963,1194138316648826,3.52605,8.592,4.2649503
1680014149964,1194138319151057,3.5140502,8.533951,4.25805
1680014149967,1194138321653181,3.59295,8.50605,4.22895
1680014149969,1194138324155566,3.55905,8.38095,4.3180504
1680014149971,1194138326657796,3.4950001,8.509951,4.2649503
1680014149974,1194138329159950,3.5089502,8.44095,4.25295
1680014149976,1194138331662335,3.5140502,8.44305,4.13805
1680014149979,1194138334164484,3.4630501,8.479051,3.9870002
1680014149982,1194138336666637,3.5350502,8.470051,4.1449504
1680014149985,1194138339169099,3.52305,8.496,4.0939503
1680014149986,1194138341671253,3.4470003,8.46,4.21005
1680014149988,1194138344173402,3.4609501,8.39295,4.05405
1680014149992,1194138346675632,3.55695,8.53905,4.05405
1680014149993,1194138349178017,3.4950001,8.52,4.15005
1680014149996,1194138351680171,3.59505,8.476951,4.19805
1680014150000,1194138354182402,3.5160003,8.464951,4.086
1680014150003,1194138356684786,3.588,8.46,4.083
1680014150005,1194138359186940,3.51795,8.47395,4.1530504
1680014150006,1194138361689094,3.4750502,8.403001,4.1740503
1680014150009,1194138364191325,3.5470502,8.43105,4.1620502
1680014150012,1194138366693493,3.55395,8.470051,4.2169504
1680014150013,1194138369195877,3.5710502,8.3880005,4.22205
1680014150016,1194138371698108,3.5779502,8.448,4.2319503
1680014150020,1194138374200262,3.4990501,8.49405,4.191
1680014150022,1194138376702657,3.5500503,8.532001,4.2010503
1680014150024,1194138379204887,3.59295,8.42205,4.05195
1680014150027,1194138381707041,3.59295,8.53905,4.09305
1680014150028,1194138384209195,3.624,8.46195,4.1140504
1680014150032,1194138386711642,3.5659502,8.49405,4.16505
1680014150033,1194138389213795,3.6169503,8.488951,4.0939503
1680014150038,1194138391715949,3.528,8.52495,4.0279503
1680014150040,1194138394218334,3.48495,8.56305,4.0999503
1680014150043,1194138396720488,3.5740502,8.451,4.059
1680014150046,1194138399222719,3.528,8.46,3.9919503
1680014150047,1194138401724872,3.4830003,8.58705,4.131
1680014150049,1194138404227257,3.49005,8.51295,4.011
1680014150052,1194138406729488,3.4300501,8.56095,4.0740004
1680014150054,1194138409231642,3.3289502,8.60595,4.011
1680014150057,1194138411734026,3.3700502,8.503051,3.9630003
1680014150060,1194138414236257,3.3390002,8.53005,3.9900002
1680014150064,1194138416738392,3.3100502,8.608951,3.93705
1680014150064,1194138419240546,3.4039502,8.58495,4.086
1680014150068,1194138421742930,3.4150503,8.52,3.9799502
1680014150068,1194138424245084,3.4630501,8.56995,4.1790004
1680014150073,1194138426747546,3.42,8.56995,4.071
1680014150077,1194138429249686,3.45405,8.589001,3.999
1680014150078,1194138431751916,3.5329502,8.577001,3.9870002
1680014150079,1194138434254070,3.49005,8.565001,3.9799502
1680014150082,1194138436756455,3.4680002,8.608951,4.1929502
1680014150084,1194138439258609,3.4609501,8.503051,3.999
1680014150086,1194138441760844,3.44895,8.553,4.1620502
1680014150090,1194138444263229,3.3960001,8.49405,4.1329503
1680014150092,1194138446765383,3.4060502,8.47395,4.0279503
1680014150094,1194138449267537,3.4369502,8.476951,4.0680003
1680014150097,1194138451769748,3.387,8.49405,4.06605
1680014150102,1194138454271901,3.3030002,8.484,4.08705
1680014150102,1194138456774055,3.4060502,8.40495,4.01805
1680014150104,1194138459276517,3.4680002,8.451,3.9829502
1680014150106,1194138461778671,3.3460503,8.427,4.0470004
1680014150108,1194138464281041,3.5140502,8.424001,3.9709501
1680014150113,1194138466783195,3.5110502,8.46,4.0740004
1680014150115,1194138469285426,3.5140502,8.54595,4.05705
1680014150117,1194138471787580,3.52305,8.484,4.08705
1680014150119,1194138474290089,3.51795,8.48595,4.0150504
1680014150123,1194138476792243,3.6450002,8.44305,4.1530504
1680014150127,1194138479294397,3.5520003,8.49405,4.1620502
1680014150129,1194138481796787,3.55695,8.497951,4.2460504
1680014150131,1194138484298941,3.55905,8.49405,4.2120004
1680014150132,1194138486801094,3.4630501,8.500951,4.3110003
1680014150135,1194138489303556,3.4750502,8.556001,4.347
1680014150136,1194138491805787,3.5419502,8.596951,4.36305
1680014150140,1194138494307945,3.588,8.601001,4.3440003
1680014150143,1194138496810098,3.5449502,8.53905,4.227
1680014150144,1194138499312483,3.4320002,8.56995,4.2769504
1680014150146,1194138501814637,3.55905,8.565001,4.2390003
1680014150150,1194138504317103,3.4660501,8.620951,4.1530504
1680014150153,1194138506819257,3.4420502,8.649,4.215
1680014150154,1194138509321411,3.4630501,8.611051,4.22205
1680014150156,1194138511823642,3.4470003,8.620951,4.11705
1680014150159,1194138514325796,3.45405,8.625,4.1290503
1680014150161,1194138516827960,3.4420502,8.57295,4.191
1680014150163,1194138519330421,3.456,8.57505,4.1070004
1680014150166,1194138521832806,3.3820503,8.580001,4.12395
1680014150168,1194138524334960,3.3769503,8.58705,4.1070004
1680014150171,1194138526837113,3.3700502,8.620951,4.15005
1680014150173,1194138529339354,3.3319502,8.56095,4.0999503
1680014150176,1194138531841508,3.3720002,8.625,4.1119504
1680014150180,1194138534343662,3.384,8.653951,4.0609503
1680014150183,1194138536846108,3.3769503,8.592,4.07805
1680014150184,1194138539348262,3.4830003,8.6970005,4.10505
1680014150188,1194138541850647,3.4510503,8.625,4.0609503
1680014150190,1194138544352801,3.3700502,8.625,4.0680003
1680014150193,1194138546854950,3.456,8.661,4.098
1680014150195,1194138549357180,3.4320002,8.767051,4.05
1680014150197,1194138551859642,3.44895,8.596951,4.1929502
1680014150199,1194138554361796,3.4800003,8.6640005,4.1020503
1680014150202,1194138556863950,3.5689502,8.620951,4.1719503
1680014150204,1194138559366344,3.5350502,8.680051,4.1620502
1680014150206,1194138561868498,3.528,8.733001,4.21995
1680014150209,1194138564370652,3.492,8.709001,4.25295
1680014150211,1194138566873114,3.55695,8.676001,4.1329503
1680014150213,1194138569375272,3.5500503,8.653951,4.27005
1680014150216,1194138571877426,3.528,8.652,4.2460504
1680014150220,1194138574379657,3.55695,8.733001,4.26795
1680014150222,1194138576882042,3.5470502,8.635051,4.1140504
1680014150225,1194138579384190,3.5809503,8.629951,4.27005
1680014150227,1194138581886421,3.5419502,8.55795,4.1599503
1680014150229,1194138584388806,3.5140502,8.685,4.30095
1680014150232,1194138586890960,3.62595,8.64,4.2769504
1680014150234,1194138589393191,3.6070502,8.592,4.22895
1680014150236,1194138591895358,3.63105,8.680051,4.24095
1680014150239,1194138594397512,3.58995,8.589001,4.275
1680014150242,1194138596899974,3.6910503,8.616,4.3440003
1680014150244,1194138599402128,3.6769502,8.56995,4.17705
1680014150246,1194138601904286,3.624,8.568001,4.2769504
1680014150249,1194138604406671,3.6480002,8.616,4.3180504
1680014150252,1194138606908825,3.624,8.56305,4.1290503
1680014150254,1194138609410979,3.6090002,8.53905,4.248
1680014150257,1194138611913210,3.6690001,8.53005,4.32495
1680014150260,1194138614415661,3.66,8.51295,4.1740503
1680014150264,1194138616917815,3.5689502,8.58195,4.3369503
1680014150266,1194138619419969,3.6139503,8.497951,4.32705
1680014150270,1194138621922387,3.55395,8.484,4.3110003
1680014150271,1194138624424541,3.5380502,8.508,4.2840004
1680014150273,1194138626926772,3.5400002,8.41005,4.26795
1680014150274,1194138629429157,3.59505,8.448,4.30305
1680014150276,1194138631931311,3.5470502,8.43105,4.3560004
1680014150279,1194138634433541,3.55395,8.467051,4.32705
1680014150282,1194138636935705,3.5110502,8.45505,4.275
1680014150286,1194138639438090,3.55695,8.479051,4.26795
1680014150287,1194138641940244,3.6379502,8.479051,4.26795
1680014150289,1194138644442705,3.5779502,8.379001,4.38495
1680014150292,1194138646944830,3.5710502,8.44305,4.2010503
1680014150295,1194138649446984,3.5860503,8.332951,4.3369503
1680014150297,1194138651949215,3.5640001,8.37405,4.3180504
1680014150302,1194138654451349,3.5020502,8.328,4.2049503
1680014150304,1194138656953733,3.4729502,8.451,4.31505
1680014150306,1194138659673425,3.4969501,8.371051,4.26795
1680014150307,1194138661958118,3.5520003,8.29695,4.368
1680014150309,1194138664460502,3.4609501,8.38095,4.3390503
1680014150312,1194138666962738,3.5329502,8.338051,4.28895
1680014150314,1194138669464892,3.4780502,8.359051,4.25295
1680014150317,1194138671967046,3.5689502,8.302051,4.248
1680014150319,1194138674469430,3.3960001,8.34795,4.26795
1680014150322,1194138676971643,3.4129503,8.299951,4.2720003
1680014150324,1194138679473797,3.459,8.34,4.1740503
1680014150326,1194138681976182,3.4009502,8.314051,4.236
1680014150329,1194138684478336,3.279,8.44305,4.2390003
1680014150332,1194138686980489,3.3240001,8.30895,4.191
1680014150334,1194138689482733,3.2359502,8.23995,4.25805
1680014150338,1194138691985118,3.186,8.280001,4.16505
1680014150341,1194138694487349,3.28095,8.367001,4.3060503
1680014150344,1194138696989502,3.348,8.400001,4.155
1680014150345,1194138699491850,3.3600001,8.403001,4.1839504
1680014150347,1194138701994004,3.4390502,8.467051,4.21005
1680014150349,1194138704496235,3.3679502,8.434051,4.31505
1680014150352,1194138706998619,3.384,8.403001,4.203
1680014150355,1194138709500773,3.28605,8.424001,4.27995
1680014150357,1194138712003018,3.4420502,8.52495,4.1670003
1680014150359,1194138714505172,3.44895,8.458051,4.368
1680014150362,1194138717007326,3.3100502,8.415,4.35405
1680014150364,1194138719509710,3.3240001,8.467051,4.3180504
1680014150367,1194138722011946,3.387,8.44095,4.36305
1680014150369,1194138724514331,3.3270001,8.476951,4.2460504
1680014150372,1194138727016485,3.3630002,8.37405,4.2769504
1680014150377,1194138729518715,3.3820503,8.436001,4.287
1680014150378,1194138732020864,3.3919501,8.344951,4.224
1680014150382,1194138734523018,3.48495,8.434051,4.27005
1680014150384,1194138737025480,3.5160003,8.47395,4.32495
1680014150385,1194138739527633,3.3679502,8.415,4.215
1680014150388,1194138742030008,3.3289502,8.41905,4.2439504
1680014150390,1194138744532162,3.2929502,8.39805,4.263
1680014150392,1194138747034316,3.4780502,8.509951,4.25595
1680014150395,1194138749536547,3.423,8.51295,4.2319503
1680014150397,1194138752038700,3.384,8.503051,4.2340503
1680014150399,1194138754541104,3.3940501,8.446051,4.3060503
1680014150402,1194138757043335,3.3750002,8.44095,4.2439504
1680014150404,1194138759545719,3.2689502,8.46,4.15695
1680014150407,1194138762047873,3.3120003,8.44095,4.12395
1680014150409,1194138764550028,3.35805,8.39505,4.29405
1680014150414,1194138767052259,3.4320002,8.40495,4.1530504
1680014150415,1194138769554643,3.3820503,8.332951,4.1530504
1680014150426,1194138772056797,3.35805,8.48205,4.2319503
1680014150426,1194138774559023,3.3700502,8.39505,4.2460504
1680014150426,1194138777061177,3.3289502,8.352,4.191
1680014150427,1194138779563562,3.24795,8.283,4.18905
1680014150427,1194138782065792,3.4009502,8.424001,4.28895
1680014150429,1194138784567946,3.4440002,8.316,4.14795
1680014150432,1194138787070085,3.4350002,8.299951,4.1860504
1680014150434,1194138789572470,3.4110003,8.359051,4.16505
1680014150436,1194138792074700,3.45405,8.316,4.18905
1680014150439,1194138794577085,3.4750502,8.391001,4.3390503
1680014150442,1194138797079249,3.4039502,8.38305,4.3390503
1680014150444,1194138799581480,3.3940501,8.332951,4.26795
1680014150446,1194138802083634,3.4750502,8.343,4.4689503
1680014150452,1194138804586018,3.4039502,8.3550005,4.275
1680014150453,1194138807088177,3.4660501,8.26605,4.22895
1680014150455,1194138809590408,3.52605,8.37405,4.40595
1680014150457,1194138812092792,3.4750502,8.23995,4.4160004
1680014150460,1194138814594946,3.5809503,8.292001,4.4110503
1680014150463,1194138817097172,3.5140502,8.21595,4.335
1680014150464,1194138819599326,3.4800003,8.3209505,4.4419503
1680014150466,1194138822101711,3.49005,8.247001,4.497
1680014150469,1194138824603941,3.4039502,8.292001,4.48605
1680014150472,1194138827106100,3.4780502,8.391001,4.53795
1680014150476,1194138829608485,3.4510503,8.307,4.43295
1680014150477,1194138832110639,3.4680002,8.412001,4.47795
1680014150479,1194138834612792,3.4390502,8.328,4.6150503
1680014150482,1194138837115042,3.4729502,8.40495,4.4110503
1680014150485,1194138839617196,3.5110502,8.3550005,4.368
1680014150488,1194138842119658,3.3630002,8.364,4.3510504
1680014150490,1194138844621812,3.5059502,8.45505,4.392
1680014150493,1194138847124225,3.4300501,8.39295,4.36305
1680014150495,1194138849626379,3.49005,8.26605,4.3060503
1680014150497,1194138852128610,3.4470003,8.376,4.4110503
1680014150500,1194138854630764,3.423,8.39505,4.308
1680014150503,1194138857133148,3.3630002,8.344951,4.30095
1680014150505,1194138859635374,3.3940501,8.283,4.2840004
1680014150507,1194138862137528,3.2929502,8.359051,4.4380503
1680014150509,1194138864639682,3.3990002,8.332951,4.2649503
1680014150514,1194138867142066,3.315,8.371051,4.2510004
1680014150515,1194138869644258,3.3360002,8.38605,4.191
1680014150517,1194138872146720,3.2959502,8.39805,4.36305
1680014150519,1194138874648874,3.2410502,8.367001,4.3180504
1680014150522,1194138877151027,3.3289502,8.376,4.27995
1680014150526,1194138879653225,3.3030002,8.40495,4.28205
1680014150528,1194138882155379,3.3240001,8.38095,4.3180504
1680014150529,1194138884657764,3.3240001,8.44095,4.3390503
1680014150532,1194138887159994,3.3240001,8.44095,4.2319503
1680014150534,1194138889662379,3.348,8.39505,4.29195
1680014150536,1194138892164537,3.3750002,8.38305,4.35405
1680014150540,1194138894666691,3.35805,8.47395,4.3369503
1680014150543,1194138897168922,3.3750002,8.379001,4.3110003
1680014150544,1194138899671075,3.4249501,8.48595,4.392
1680014150547,1194138902173220,3.4249501,8.451,4.2720003
1680014150549,1194138904675682,3.3990002,8.415,4.38
1680014150552,1194138907178066,3.3820503,8.41005,4.2840004
1680014150554,1194138909680220,3.3960001,8.415,4.2120004
1680014150557,1194138912182374,3.5040002,8.3550005,4.32495
1680014150559,1194138914684610,3.4060502,8.39505,4.40595
1680014150565,1194138917186764,3.45405,8.27295,4.36305
1680014150566,1194138919689225,3.4750502,8.328,4.35405
1680014150568,1194138922191364,3.42705,8.307,4.3560004
1680014150569,1194138924693518,3.4390502,8.36205,4.39905
1680014150572,1194138927195903,3.4729502,8.371051,4.3369503
1680014150575,1194138929698056,3.4950001,8.364,4.32705
1680014150577,1194138932200210,3.5350502,8.328,4.32705
1680014150582,1194138934702667,3.4969501,8.427,4.42605
1680014150584,1194138937204821,3.4780502,8.304001,4.35405
1680014150585,1194138939707052,3.48495,8.335951,4.3110003
1680014150587,1194138942209205,3.4990501,8.328,4.43505
1680014150589,1194138944711605,3.5689502,8.311951,4.37295
1680014150592,1194138947213759,3.5470502,8.212951,4.36095
1680014150594,1194138949715990,3.5350502,8.20395,4.3660502
1680014150597,1194138952218374,3.6090002,8.27805,4.3510504
1680014150601,1194138954720513,3.5470502,8.2879505,4.35405
1680014150603,1194138957222744,3.5710502,8.30895,4.452
1680014150605,1194138959724898,3.6529503,8.27295,4.4160004
1680014150607,1194138962227052,3.6000001,8.391001,4.4689503
1680014150610,1194138964729513,3.5710502,8.2570505,4.44705
1680014150612,1194138967231658,3.5860503,8.39505,4.428
1680014150614,1194138969733812,3.5380502,8.2879505,4.4830503
1680014150617,1194138972236196,3.56205,8.26395,4.47405
1680014150620,1194138974738427,3.4249501,8.352,4.3510504
1680014150623,1194138977240566,3.5520003,8.304001,4.5139503
1680014150625,1194138979742720,3.55905,8.352,4.48995
1680014150627,1194138982245181,3.4609501,8.359051,4.512
1680014150629,1194138984747335,3.492,8.27595,4.464
1680014150632,1194138987249725,3.48705,8.26395,4.5810003
1680014150637,1194138989751879,3.4680002,8.24205,4.37295
1680014150639,1194138992254033,3.3769503,8.316,4.36305
1680014150641,1194138994756263,3.38895,8.311951,4.36305
1680014150643,1194138997258624,3.35295,8.23995,4.5
1680014150645,1194138999760778,3.3750002,8.40705,4.44705
1680014150647,1194139002263009,3.3100502,8.464951,4.34205
1680014150649,1194139004765393,3.3010502,8.367001,4.38495
1680014150652,1194139007267547,3.3319502,8.4529505,4.37295
1680014150654,1194139009769676,3.3030002,8.391001,4.4830503
