system_ts_ms, sensor_ts_ns, gyrX, gyrY, gyrZ
1680014145414,1194133767569786,0.03795,-0.0499125,-0.1489125
1680014145414,1194133770071940,0.0389125,-0.067925,-0.1538625
1680014145417,1194133772574325,0.0389125,-0.089925,-0.155925
1680014145422,1194133775076464,0.029975,-0.1109625,-0.1639
1680014145424,1194133777578695,0.0229625,-0.1269125,-0.166925
1680014145425,1194133780080848,0.012925,-0.1519375,-0.16885
1680014145434,1194133782583310,0.0039875,-0.1788875,-0.171875
1680014145434,1194133785085464,-0.00605,-0.2039125,-0.1728375
1680014145435,1194133787587877,-0.0180125,-0.2319625,-0.177925
1680014145435,1194133790090031,-0.029975,-0.25795,-0.18287499
1680014145437,1194133792592185,-0.0460625,-0.27995,-0.1868625
1680014145440,1194133795094416,-0.0589875,-0.2949375,-0.19085
1680014145442,1194133797596795,-0.0730125,-0.3069,-0.19195
1680014145446,1194133800098949,-0.086075,-0.3218875,-0.188925
1680014145448,1194133802601180,-0.0950125,-0.336875,-0.1769625
1680014145449,1194133805103565,-0.10505,-0.34595,-0.1709125
1680014145452,1194133807605719,-0.1139875,-0.358875,-0.171875
1680014145454,1194133810107872,-0.1230625,-0.3729,-0.1728375
1680014145461,1194133812610334,-0.1280125,-0.37895,-0.16995
1680014145462,1194133815112488,-0.1359875,-0.3768875,-0.1639
1680014145464,1194133817614671,-0.13805,-0.380875,-0.15895
1680014145466,1194133820116901,-0.1390125,-0.3829375,-0.1538625
1680014145468,1194133822619286,-0.1370875,-0.3729,-0.1439625
1680014145470,1194133825121440,-0.130075,-0.36795,-0.133925
1680014145472,1194133827623594,-0.1260875,-0.3738625,-0.12595
1680014145474,1194133830126041,-0.119075,-0.36987498,-0.1208625
1680014145479,1194133832628195,-0.1150875,-0.359975,-0.111925
1680014145479,1194133835130426,-0.1120625,-0.3438875,-0.1098625
1680014145482,1194133837632580,-0.1040875,-0.3069,-0.1079375
1680014145485,1194133840134767,-0.09405,-0.2638625,-0.108899996
1680014145487,1194133842637151,-0.0900625,-0.237875,-0.1079375
1680014145489,1194133845139613,-0.0809875,-0.2088625,-0.1049125
1680014145494,1194133847641767,-0.069025,-0.16995,-0.1079375
1680014145496,1194133850143942,-0.061049998,-0.139975,-0.1109625
1680014145498,1194133852646172,-0.0479875,-0.108899996,-0.111925
1680014145500,1194133855148326,-0.0369875,-0.08085,-0.1098625
1680014145503,1194133857650480,-0.0270875,-0.04895,-0.11495
1680014145504,1194133860152942,-0.0180125,-0.0279125,-0.11495
1680014145507,1194133862655104,-0.00605,-0.0119624995,-0.111925
1680014145511,1194133865157489,0.003025,0.003025,-0.111925
1680014145513,1194133867659643,0.0119624995,0.0050875,-0.108899996
1680014145515,1194133870161874,0.0199375,0.0111375,-0.1098625
1680014145519,1194133872664018,0.02695,0.0121,-0.1049125
1680014145522,1194133875166402,0.033,0.0100375,-0.0979
1680014145523,1194133877668633,0.0400125,0.00605,-0.0908875
1680014145528,1194133880170787,0.0449625,-0.0028875,-0.086899996
1680014145528,1194133882673171,0.044,-0.007975,-0.0848375
1680014145530,1194133885175325,0.047025,-0.0169125,-0.0779625
1680014145535,1194133887677556,0.0510125,-0.028875,-0.072875
1680014145536,1194133890179941,0.0529375,-0.0358875,-0.067925
1680014145537,1194133892682171,0.0510125,-0.045925,-0.05995
1680014145540,1194133895184325,0.0529375,-0.061875,-0.0548625
1680014145545,1194133897686479,0.051975,-0.0759,-0.050875
1680014145545,1194133900188864,0.047025,-0.084975,-0.0438625
1680014145547,1194133902691018,0.0449625,-0.0969375,-0.039875
1680014145551,1194133905193239,0.0419375,-0.111925,-0.0389125
1680014145552,1194133907695624,0.0429,-0.1208625,-0.0328625
1680014145555,1194133910197855,0.0419375,-0.133925,-0.0248875
1680014145557,1194133912700009,0.040975,-0.1428625,-0.0199375
1680014145561,1194133915202176,0.0419375,-0.14685,-0.01485
1680014145562,1194133917704561,0.034925,-0.1519375,-0.006875
1680014145565,1194133920206715,0.0279125,-0.14795,0.0100375
1680014145568,1194133922708946,0.0369875,-0.1599125,0.0251625
1680014145572,1194133925211330,0.058025,-0.16885,0.042075
1680014145574,1194133927713561,0.0749375,-0.1758625,0.0540375
1680014145578,1194133930215715,0.0859375,-0.1859,0.0661375
1680014145578,1194133932717869,0.09295,-0.194975,0.07205
1680014145580,1194133935220253,0.0969375,-0.193875,0.0790625
1680014145585,1194133937722479,0.10395,-0.1879625,0.092125
1680014145585,1194133940224864,0.111925,-0.1788875,0.10615
1680014145587,1194133942727018,0.1159125,-0.16293749,0.114125
1680014145590,1194133945229172,0.106975,-0.1428625,0.1241625
1680014145594,1194133947731430,0.0919875,-0.1189375,0.1310375
1680014145595,1194133950233815,0.0889625,-0.095975,0.130075
1680014145597,1194133952736046,0.0950125,-0.0759,0.12705
1680014145600,1194133955238200,0.117975,-0.0499125,0.1131625
1680014145602,1194133957740584,0.139975,-0.0209,0.0911625
1680014145605,1194133960242725,0.1529,0.0100375,0.07205
1680014145611,1194133962744879,0.1500125,0.039049998,0.0631125
1680014145611,1194133965247110,0.14093749,0.0650375,0.059125
1680014145613,1194133967749507,0.1419,0.0881375,0.0551375
1680014145615,1194133970251738,0.1379125,0.1071125,0.0490875
1680014145618,1194133972753892,0.135025,0.1150875,0.0380875
1680014145620,1194133975256277,0.1359875,0.1181125,0.02915
1680014145623,1194133977758430,0.13695,0.114125,0.02805
1680014145629,1194133980260613,0.1390125,0.114125,0.0270875
1680014145629,1194133982762844,0.133925,0.1101375,0.0320375
1680014145630,1194133985265229,0.128975,0.10615,0.039049998
1680014145632,1194133987767459,0.1269125,0.1111,0.0451
1680014145636,1194133990269603,0.122925,0.1211375,0.0581625
1680014145637,1194133992771988,0.11495,0.130075,0.0741125
1680014145640,1194133995274142,0.117975,0.135025,0.0790625
1680014145644,1194133997776372,0.1238875,0.141075,0.0771375
1680014145646,1194134000278757,0.1249875,0.1401125,0.078099996
1680014145648,1194134002780911,0.1299375,0.141075,0.081125
1680014145650,1194134005283142,0.1379125,0.152075,0.0820875
1680014145652,1194134007785526,0.1379125,0.16115,0.0851125
1680014145655,1194134010287680,0.1390125,0.168025,0.09405
1680014145657,1194134012789820,0.146025,0.185075,0.103125
1680014145661,1194134015292282,0.1549625,0.201025,0.108075
1680014145663,1194134017794435,0.161975,0.21505,0.1120625
1680014145665,1194134020296589,0.1689875,0.229075,0.1111
1680014145668,1194134022798820,0.1720125,0.24007499,0.1071125
1680014145670,1194134025300974,0.172975,0.2440625,0.0991375
1680014145672,1194134027803359,0.16995,0.24915,0.092125
1680014145675,1194134030305589,0.16499999,0.24915,0.0891
1680014145679,1194134032807974,0.1579875,0.24915,0.08305
1680014145680,1194134035310142,0.14795,0.24805,0.081125
1680014145684,1194134037812296,0.1390125,0.2440625,0.0790625
1680014145686,1194134040314526,0.1329625,0.24213749,0.0801625
1680014145688,1194134042816680,0.12595,0.2330625,0.08305
1680014145689,1194134045319075,0.1170125,0.2281125,0.092125
1680014145694,1194134047821306,0.1159125,0.21505,0.1021625
1680014145695,1194134050323460,0.1109625,0.202125,0.109037496
1680014145697,1194134052825844,0.1079375,0.19415,0.120037496
1680014145702,1194134055328070,0.1060125,0.18205,0.12705
1680014145703,1194134057830224,0.100925,0.1731125,0.1351625
1680014145705,1194134060332378,0.0939125,0.1670625,0.141075
1680014145707,1194134062834839,0.0859375,0.1640375,0.14905
1680014145713,1194134065336993,0.08195,0.1551,0.1571625
1680014145714,1194134067839142,0.07095,0.15015,0.163075
1680014145715,1194134070341527,0.067925,0.1401125,0.1661
1680014145718,1194134072843757,0.0669625,0.13213749,0.16115
1680014145722,1194134075345911,0.066,0.1211375,0.1571625
1680014145724,1194134077848306,0.0539,0.119075,0.1551
1680014145729,1194134080350537,0.0389125,0.1230625,0.1590875
1680014145730,1194134082852690,0.0290125,0.11605,0.1651375
1680014145730,1194134085354844,0.023924999,0.108075,0.163075
1680014145732,1194134087857229,0.0169125,0.1071125,0.1640375
1680014145735,1194134090359378,0.0099,0.1101375,0.1621125
1680014145737,1194134092861839,0.0039875,0.10505,0.158125
1680014145740,1194134095363993,-0.0070125,0.108075,0.1560625
1680014145746,1194134097866224,-0.022,0.09515,0.14905
1680014145747,1194134100368359,-0.150975,-0.1859,0.06215
1680014145747,1194134102870743,-0.436975,-0.7599625,-0.1189375
1680014145750,1194134105372897,-0.6171,-1.1309375,-0.287925
1680014145752,1194134107875051,-0.55,-1.12695,-0.3749625
1680014145755,1194134110377513,-0.40205,-0.9788625,-0.364925
1680014145761,1194134112879648,-0.3180375,-0.8938875,-0.303875
1680014145762,1194134115381879,-0.2820125,-0.865975,-0.22687499
1680014145763,1194134117884033,-0.25905,-0.8149625,-0.133925
1680014145765,1194134120386403,-0.22605,-0.721875,-0.028875
1680014145767,1194134122888557,-0.187,-0.63195,0.07205
1680014145770,1194134125390787,-0.16499999,-0.5748875,0.16005
1680014145772,1194134127893172,-0.168025,-0.5449125,0.2321
1680014145774,1194134130395326,-0.185075,-0.5619625,0.290125
1680014145778,1194134132897499,-0.20405,-0.5999125,0.3320625
1680014145781,1194134135399729,-0.227975,-0.645975,0.36905
1680014145783,1194134137902114,-0.2459875,-0.67595,0.3900875
1680014145785,1194134140404359,-0.2239875,-0.699875,0.40315
1680014145788,1194134142906513,-0.1920875,-0.69795,0.4200625
1680014145790,1194134145408897,-0.1661,-0.67485,0.4450875
1680014145795,1194134147911051,-0.1610125,-0.6488625,0.4610375
1680014145796,1194134150413254,-0.139975,-0.6139375,0.460075
1680014145798,1194134152915408,-0.09405,-0.5729625,0.4401375
1680014145800,1194134155417792,-0.091025,-0.5149375,0.422125
1680014145803,1194134157920023,-0.09405,-0.44494998,0.40507498
1680014145805,1194134160422177,-0.025024999,-0.391875,0.3730375
1680014145807,1194134162924557,0.0429,-0.3419625,0.3311
1680014145810,1194134165426787,0.095975,-0.2759625,0.30305
1680014145812,1194134167928941,0.122925,-0.1978625,0.2891625
1680014145815,1194134170431326,0.1299375,-0.10285,0.2850375
1680014145817,1194134172933503,0.1299375,-0.0138875,0.2891625
1680014145820,1194134175435734,0.132,0.0671,0.29205
1680014145823,1194134177937887,0.10395,0.1340625,0.3051125
1680014145825,1194134180440349,0.0719125,0.1841125,0.3081375
1680014145827,1194134182942517,0.0730125,0.201025,0.3020875
1680014145830,1194134185444671,0.0620125,0.2061125,0.30305
1680014145834,1194134187947055,0.0389125,0.190025,0.301125
1680014145836,1194134190449209,0.034925,0.17105,0.3091
1680014145838,1194134192951426,0.0609125,0.13915,0.3210625
1680014145841,1194134195453580,0.106975,0.120037496,0.3320625
1680014145842,1194134197955964,0.1329625,0.114125,0.3430625
1680014145845,1194134200458195,0.1390125,0.0891,0.33605
1680014145848,1194134202960570,0.1929125,0.0551375,0.3201
1680014145852,1194134205462724,0.1749,0.080025,0.3130875
1680014145853,1194134207964877,0.088,0.13805,0.31913748
1680014145855,1194134210467108,0.01595,0.1480875,0.3290375
1680014145857,1194134212969493,-0.018975,0.152075,0.3510375
1680014145860,1194134215471628,-0.031075,0.17105,0.3760625
1680014145863,1194134217973858,-0.0490875,0.17613749,0.4060375
1680014145865,1194134220476243,-0.062975,0.168025,0.43614998
1680014145867,1194134222978397,-0.0699875,0.14905,0.44605
1680014145872,1194134225480570,-0.07205,0.13805,0.43614998
1680014145874,1194134227983031,-0.0710875,0.1331,0.427075
1680014145876,1194134230485185,-0.0680625,0.114125,0.41305
1680014145878,1194134232987339,-0.0730125,0.0991375,0.400125
1680014145880,1194134235489556,-0.0820875,0.08415,0.3931125
1680014145883,1194134237991710,-0.086075,0.061049998,0.38005
1680014145885,1194134240494094,-0.0891,0.031075,0.36107498
1680014145888,1194134242996325,-0.0900625,0.0011,0.34814999
1680014145890,1194134245498710,-0.084975,-0.02585,0.3421
1680014145893,1194134248000864,-0.086075,-0.0438625,0.339075
1680014145895,1194134250503094,-0.0820875,-0.062975,0.3311
1680014145897,1194134253005248,-0.0620125,-0.09295,0.3091
1680014145901,1194134255507411,-0.047025,-0.1208625,0.27307498
1680014145903,1194134258009873,-0.0290125,-0.1538625,0.235125
1680014145905,1194134260512257,-0.0100375,-0.172975,0.20515
1680014145909,1194134263014411,0.001925,-0.1929125,0.1871375
1680014145912,1194134265516584,0.012925,-0.2079,0.17105
1680014145913,1194134268018815,0.0089375,-0.193875,0.17215
1680014145915,1194134270520969,-0.0039875,-0.1678875,0.19607499
1680014145918,1194134273023122,-0.0240625,-0.127875,0.2231625
1680014145921,1194134275525589,-0.031075,-0.1238875,0.2451625
1680014145923,1194134278027743,-0.0270875,-0.14093749,0.24007499
1680014145925,1194134280530127,-0.031075,-0.139975,0.2250875
1680014145928,1194134283032281,-0.0350625,-0.13585,0.2190375
1680014145932,1194134285534512,-0.0400125,-0.12595,0.2190375
1680014145933,1194134288036652,-0.044,-0.11385,0.2231625
1680014145935,1194134290539037,-0.0460625,-0.094875,0.235125
1680014145938,1194134293041267,-0.044,-0.07095,0.2360875
1680014145942,1194134295543421,-0.036025,-0.058849998,0.23815
1680014145944,1194134298045782,-0.02805,-0.0468875,0.2300375
1680014145949,1194134300547936,-0.0210375,-0.034925,0.21505
1680014145949,1194134303050166,-0.0121,-0.0279125,0.19607499
1680014145952,1194134305552551,-0.0070125,-0.0218625,0.1780625
1680014145953,1194134308054782,9.625E-4,-0.0169125,0.1571625
1680014145955,1194134310556916,0.0070125,-0.0138875,0.1370875
1680014145957,1194134313059069,0.0089375,-0.007975,0.1131625
1680014145960,1194134315561454,0.011,-9.625E-4,0.097075
1680014145963,1194134318063608,0.0138875,0.01815,0.08305
1680014145965,1194134320566079,0.0138875,0.031075,0.07205
1680014145968,1194134323068233,0.0169125,0.0430375,0.059125
1680014145971,1194134325570464,0.0180125,0.0551375,0.0451
1680014145973,1194134328072618,0.012925,0.069025,0.0331375
1680014145976,1194134330574738,0.0138875,0.0790625,0.0251625
1680014145978,1194134333077122,0.0099,0.087037496,0.015125
1680014145982,1194134335579353,0.00495,0.0900625,0.00715
1680014145985,1194134338081714,0.001925,0.09405,-9.625E-4
1680014145987,1194134340583868,-0.0039875,0.091025,-0.0059125
1680014145989,1194134343086098,-0.0100375,0.09405,-0.006875
1680014145992,1194134345588252,-0.007975,0.09515,-0.006875
1680014145995,1194134348090406,-0.013062499,0.0891,-0.006875
1680014145996,1194134350592777,-0.0210375,0.08415,-0.0028875
1680014145998,1194134353095008,-0.0240625,0.0851125,1.375E-4
1680014146002,1194134355597392,-0.0290125,0.08305,0.0081124995
1680014146003,1194134358099546,-0.0350625,0.08305,0.020075
1680014146005,1194134360601777,-0.0369875,0.081125,0.02915
1680014146008,1194134363103961,-0.039049998,0.0891,0.0380875
1680014146011,1194134365606345,-0.042075,0.086075,0.0471625
1680014146013,1194134368108576,-0.0490875,0.0900625,0.0540375
1680014146015,1194134370610730,-0.051975,0.1010625,0.061049998
1680014146018,1194134373113100,-0.050049998,0.108075,0.0650375
1680014146024,1194134375615253,-0.053075,0.11605,0.0691625
1680014146027,1194134378116330,-0.0540375,0.122099996,0.075075
1680014146027,1194134380617407,-0.0570625,0.13213749,0.075075
1680014146028,1194134383122100,-0.0570625,0.1401125,0.0790625
1680014146031,1194134385624248,-0.058025,0.152075,0.078099996
1680014146033,1194134388126402,-0.058025,0.163075,0.0790625
1680014146040,1194134390628787,-0.061049998,0.168025,0.08305
1680014146048,1194134393130941,-0.0589875,0.1771,0.0891
1680014146048,1194134395633090,-0.0540375,0.1841125,0.100099996
1680014146048,1194134398135551,-0.055,0.1871375,0.098037496
1680014146049,1194134400637782,-0.055,0.19305,0.09515
1680014146049,1194134403139936,-0.053075,0.19415,0.09515
1680014146051,1194134405642100,-0.051975,0.1920875,0.092125
1680014146052,1194134408144484,-0.058025,0.1860375,0.0900625
1680014146055,1194134410646638,-0.0589875,0.1780625,0.0881375
1680014146059,1194134413148869,-0.061049998,0.1700875,0.0820875
1680014146062,1194134415651248,-0.0620125,0.157025,0.078099996
1680014146064,1194134418153402,-0.0680625,0.147125,0.075075
1680014146066,1194134420655633,-0.07205,0.135025,0.070125
1680014146068,1194134423158018,-0.0760375,0.12705,0.0650375
1680014146070,1194134425660172,-0.084975,0.1111,0.0671
1680014146072,1194134428162316,-0.0891,0.0991375,0.064075
1680014146075,1194134430664778,-0.09405,0.086075,0.064075
1680014146078,1194134433166932,-0.099,0.069025,0.061049998
1680014146080,1194134435669163,-0.1040875,0.058025,0.0551375
1680014146083,1194134438171325,-0.108075,0.053075,0.053075
1680014146085,1194134440673710,-0.1111,0.04015,0.048125
1680014146087,1194134443175864,-0.113025,0.0341,0.0441375
1680014146091,1194134445678095,-0.1139875,0.0301125,0.0411125
1680014146093,1194134448180474,-0.11605,0.0221375,0.0380875
1680014146097,1194134450682628,-0.117975,0.0191125,0.031075
1680014146101,1194134453184782,-0.1150875,0.0111375,0.026124999
1680014146102,1194134455687013,-0.1139875,0.0050875,0.0191125
1680014146104,1194134458189397,-0.109037496,0.00715,0.0111375
1680014146108,1194134460691628,-0.1040875,0.004125,0.0031625
1680014146108,1194134463193782,-0.0919875,0.0050875,-0.0028875
1680014146111,1194134465696167,-0.0809875,0.0081124995,-0.0108624995
1680014146113,1194134468198321,-0.069025,0.013062499,-0.0229625
1680014146115,1194134470700556,-0.055,0.014025,-0.0319
1680014146119,1194134473202710,-0.040975,0.013062499,-0.0419375
1680014146122,1194134475705095,-0.0290125,0.0160875,-0.050875
1680014146123,1194134478207326,-0.011,0.0210375,-0.0548625
1680014146125,1194134480709700,0.0039875,0.02805,-0.0628375
1680014146128,1194134483211854,0.0180125,0.0320375,-0.07095
1680014146131,1194134485714008,0.0369875,0.0380875,-0.078925
1680014146135,1194134488216239,0.0499125,0.048125,-0.086899996
1680014146136,1194134490718413,0.0719125,0.058025,-0.095837496
1680014146139,1194134493220797,0.084975,0.0600875,-0.100925
1680014146142,1194134495723028,0.0950125,0.0650375,-0.106837496
1680014146143,1194134498225413,0.117975,0.0741125,-0.122925
1680014146145,1194134500727595,0.128975,0.0790625,-0.1309
1680014146148,1194134503229749,0.13695,0.0790625,-0.1318625
1680014146153,1194134505731980,0.144925,0.0760375,-0.1329625
1680014146153,1194134508234365,0.154,0.0771375,-0.1288375
1680014146155,1194134510736518,0.16293749,0.07315,-0.133925
1680014146158,1194134513238763,0.1769625,0.069025,-0.1379125
1680014146161,1194134515740917,0.190025,0.06215,-0.149875
1680014146163,1194134518243302,0.20295,0.0561,-0.15785
1680014146166,1194134520745451,0.2228875,0.047025,-0.1678875
1680014146168,1194134523247912,0.2699125,-0.001925,-0.2008875
1680014146173,1194134525750066,0.3119875,-0.058849998,-0.25795
1680014146177,1194134528252287,0.3199625,-0.0468875,-0.30085
1680014146179,1194134530754441,0.3199625,-0.0209,-0.31295
1680014146179,1194134533256594,0.3169375,-0.001925,-0.30085
1680014146182,1194134535758979,0.311025,0.0050875,-0.2739
1680014146186,1194134538261441,0.304975,0.0100375,-0.2429625
1680014146187,1194134540763594,0.300025,0.014025,-0.2209625
1680014146188,1194134543265768,0.30195,0.00605,-0.20693749
1680014146191,1194134545767922,0.3069,0.004125,-0.2039125
1680014146193,1194134548270384,0.309925,0.0050875,-0.199925
1680014146195,1194134550772538,0.319,-0.00495,-0.1948375
1680014146199,1194134553274710,0.3249125,-0.023924999,-0.20185
1680014146201,1194134555776941,0.32793748,-0.03795,-0.215875
1680014146204,1194134558279095,0.3249125,-0.0529375,-0.232925
1680014146205,1194134560781480,0.32395,-0.06985,-0.24887499
1680014146210,1194134563283719,0.3229875,-0.0859375,-0.2619375
1680014146212,1194134565786104,0.3139125,-0.0939125,-0.2718375
1680014146213,1194134568288258,0.304975,-0.1238875,-0.2759625
1680014146215,1194134570790412,0.298925,-0.14685,-0.276925
1680014146218,1194134573292643,0.2899875,-0.1639,-0.27995
1680014146222,1194134575794801,0.282975,-0.177925,-0.2809125
1680014146224,1194134578297186,0.27101249,-0.2088625,-0.2869625
1680014146225,1194134580799417,0.2668875,-0.2448875,-0.2979625
1680014146228,1194134583301801,0.264,-0.27995,-0.3139125
1680014146231,1194134585803955,0.2519,-0.3218875,-0.336875
1680014146234,1194134588306124,0.242,-0.3628625,-0.364925
1680014146235,1194134590808355,0.2369125,-0.391875,-0.3818375
1680014146238,1194134593310509,0.2179375,-0.4098875,-0.38995
1680014146241,1194134595812970,0.194975,-0.43285,-0.3818375
1680014146243,1194134598315104,0.172975,-0.4569125,-0.3689125
1680014146247,1194134600817489,0.146025,-0.4648875,-0.35694999
1680014146249,1194134603319643,0.1189375,-0.4609,-0.3469125
1680014146252,1194134605821873,0.0999625,-0.4499,-0.33495
1680014146253,1194134608324008,0.0829125,-0.44494998,-0.3218875
1680014146255,1194134610826393,0.0719125,-0.4288625,-0.2968625
1680014146260,1194134613328624,0.062975,-0.41593748,-0.2638625
1680014146262,1194134615830778,0.055,-0.3988875,-0.2369125
1680014146264,1194134618332945,0.045925,-0.3799125,-0.2118875
1680014146266,1194134620835330,0.0419375,-0.3579125,-0.19195
1680014146268,1194134623337561,0.03795,-0.3309625,-0.1788875
1680014146272,1194134625839945,0.0369875,-0.309925,-0.1749
1680014146273,1194134628342099,0.036025,-0.2888875,-0.1728375
1680014146276,1194134630844350,0.040975,-0.259875,-0.1739375
1680014146279,1194134633346504,0.0419375,-0.2338875,-0.177925
1680014146281,1194134635848658,0.0419375,-0.2079,-0.1838375
1680014146287,1194134638351032,0.044,-0.17985,-0.1929125
1680014146287,1194134640853263,0.045925,-0.150975,-0.20295
1680014146288,1194134643355648,0.0510125,-0.1189375,-0.2168375
1680014146291,1194134645857802,0.0529375,-0.09185,-0.22893749
1680014146293,1194134648360032,0.0589875,-0.064899996,-0.2388375
1680014146295,1194134650862186,0.066,-0.045925,-0.2519
1680014146301,1194134653364566,0.067925,-0.028875,-0.2608375
1680014146302,1194134655866720,0.0749375,-0.01595,-0.26785
1680014146304,1194134658368950,0.0779625,-0.0059125,-0.26895
1680014146306,1194134660871335,0.0829125,1.375E-4,-0.2729375
1680014146308,1194134663373566,0.084975,-0.00385,-0.2759625
1680014146311,1194134665875686,0.086899996,-0.0089375,-0.270875
1680014146312,1194134668377840,0.0939125,-0.0199375,-0.265925
1680014146315,1194134670880224,0.099,-0.0319,-0.2638625
1680014146318,1194134673382455,0.095975,-0.0438625,-0.254925
1680014146323,1194134675884605,0.09295,-0.058849998,-0.2448875
1680014146325,1194134678386989,0.095975,-0.06985,-0.2369125
1680014146326,1194134680889220,0.0950125,-0.0669625,-0.22495
1680014146328,1194134683391374,0.0889625,-0.0939125,-0.215875
1680014146331,1194134685893513,0.08195,-0.1219625,-0.2039125
1680014146334,1194134688395974,0.078925,-0.133925,-0.19085
1680014146336,1194134690898128,0.07095,-0.144925,-0.1838375
1680014146338,1194134693400282,0.066,-0.1599125,-0.1769625
1680014146342,1194134695902672,0.064899996,-0.177925,-0.1678875
1680014146344,1194134698404826,0.05995,-0.19195,-0.15785
1680014146345,1194134700907056,0.0539,-0.21285,-0.1529
1680014146347,1194134703409441,0.04895,-0.2308625,-0.149875
1680014146351,1194134705911672,0.0449625,-0.249975,-0.1428625
1680014146353,1194134708413821,0.0400125,-0.2699125,-0.1379125
1680014146355,1194134710916205,0.034925,-0.29095,-0.1329625
1680014146360,1194134713418359,0.0290125,-0.31185,-0.12595
1680014146362,1194134715920513,0.022,-0.3309625,-0.1208625
1680014146364,1194134718422715,0.0138875,-0.347875,-0.1159125
1680014146366,1194134720925099,0.0070125,-0.36685,-0.1109625
1680014146368,1194134723427330,9.625E-4,-0.3799125,-0.10395
1680014146371,1194134725929484,-0.00605,-0.397925,-0.0988625
1680014146373,1194134728431869,-0.0121,-0.4098875,-0.0939125
1680014146376,1194134730934022,-0.0240625,-0.41593748,-0.086899996
1680014146378,1194134733436176,-0.033,-0.425975,-0.08085
1680014146382,1194134735938638,-0.036025,-0.4288625,-0.072875
1680014146384,1194134738440792,-0.0479875,-0.4269375,-0.0719125
1680014146386,1194134740942932,-0.055,-0.425975,-0.0669625
1680014146388,1194134743445162,-0.0561,-0.419925,-0.058849998
1680014146392,1194134745947547,-0.0620125,-0.4129125,-0.0529375
1680014146393,1194134748449701,-0.062975,-0.40094998,-0.04895
1680014146397,1194134750951927,-0.066,-0.3939375,-0.0438625
1680014146398,1194134753454311,-0.07205,-0.37785,-0.0408375
1680014146402,1194134755956465,-0.0710875,-0.3628625,-0.03795
1680014146403,1194134758458696,-0.073975,-0.347875,-0.034925
1680014146405,1194134760960850,-0.0760375,-0.32587498,-0.0279125
1680014146408,1194134763463200,-0.078099996,-0.3089625,-0.023924999
1680014146411,1194134765965431,-0.087037496,-0.2888875,-0.0229625
1680014146413,1194134768467816,-0.087037496,-0.26785,-0.0188375
1680014146415,1194134770969970,-0.091025,-0.24887499,-0.01485
1680014146418,1194134773472147,-0.095975,-0.227975,-0.012925
1680014146422,1194134775974378,-0.099,-0.2088625,-0.0119624995
1680014146425,1194134778476532,-0.1029875,-0.1898875,-0.0108624995
1680014146426,1194134780978917,-0.109037496,-0.1709125,-0.0078375
1680014146428,1194134783481133,-0.1139875,-0.1568875,-0.0099
1680014146432,1194134785983518,-0.11605,-0.1419,-0.0089375
1680014146434,1194134788485672,-0.122099996,-0.127875,-0.0099
1680014146437,1194134790987826,-0.1260875,-0.117975,-0.0078375
1680014146438,1194134793490052,-0.1280125,-0.108899996,-0.0028875
1680014146441,1194134795992205,-0.128975,-0.095975,-0.00385
1680014146443,1194134798494590,-0.1310375,-0.089925,-0.00385
1680014146445,1194134800996821,-0.1331,-0.083875,1.375E-4
1680014146448,1194134803499205,-0.1359875,-0.078925,-0.001925
1680014146453,1194134806001349,-0.13805,-0.073975,1.375E-4
1680014146454,1194134808503503,-0.139975,-0.0719125,0.004125
1680014146456,1194134811005734,-0.1420375,-0.07095,0.0050875
1680014146458,1194134813508143,-0.141075,-0.067925,0.004125
1680014146462,1194134816010373,-0.143,-0.06985,0.0081124995
1680014146464,1194134818512527,-0.1441,-0.0719125,0.0111375
1680014146466,1194134821014681,-0.1480875,-0.073975,0.013062499
1680014146468,1194134823517076,-0.1480875,-0.08195,0.014162499
1680014146473,1194134826019306,-0.150975,-0.086899996,0.015125
1680014146474,1194134828521691,-0.154,-0.0939125,0.0160875
1680014146476,1194134831023845,-0.1551,-0.0988625,0.0191125
1680014146478,1194134833526110,-0.1590875,-0.0999625,0.01705
1680014146481,1194134836028263,-0.163075,-0.1098625,0.0160875
1680014146484,1194134838530417,-0.1610125,-0.116875,0.0191125
1680014146486,1194134841032802,-0.163075,-0.1208625,0.0191125
1680014146488,1194134843535033,-0.163075,-0.1299375,0.01705
1680014146491,1194134846037436,-0.161975,-0.13695,0.020075
1680014146493,1194134848539590,-0.16499999,-0.1439625,0.020075
1680014146495,1194134851041821,-0.163075,-0.1458875,0.0210375
1680014146498,1194134853543975,-0.163075,-0.1529,0.0240625
1680014146502,1194134856046143,-0.1700875,-0.1599125,0.0251625
1680014146503,1194134858548527,-0.16499999,-0.15785,0.0270875
1680014146505,1194134861050758,-0.1640375,-0.160875,0.0301125
1680014146510,1194134863553148,-0.16499999,-0.16293749,0.0320375
1680014146512,1194134866055302,-0.16499999,-0.166925,0.0331375
1680014146514,1194134868557532,-0.161975,-0.16885,0.0331375
1680014146516,1194134871059686,-0.1590875,-0.1678875,0.0380875
1680014146519,1194134873562071,-0.1579875,-0.16885,0.037125
1680014146522,1194134876064291,-0.1579875,-0.16995,0.042075
1680014146523,1194134878566444,-0.1530375,-0.1739375,0.042075
1680014146526,1194134881068829,-0.1551,-0.172975,0.04015
1680014146529,1194134883570983,-0.1530375,-0.16995,0.037125
1680014146531,1194134886073239,-0.14905,-0.166925,0.0341
1680014146534,1194134888575393,-0.1480875,-0.166925,0.0361625
1680014146536,1194134891077854,-0.1450625,-0.166925,0.0341
1680014146539,1194134893580008,-0.1469875,-0.1639,0.0361625
1680014146542,1194134896082166,-0.1469875,-0.161975,0.0361625
1680014146548,1194134898584550,-0.1469875,-0.1538625,0.0320375
1680014146550,1194134901086704,-0.1480875,-0.14685,0.031075
1680014146552,1194134903588935,-0.14905,-0.139975,0.02805
1680014146553,1194134906091320,-0.150975,-0.128975,0.02805
1680014146554,1194134908593550,-0.1530375,-0.1199,0.02805
1680014146556,1194134911095704,-0.1551,-0.111925,0.0240625
1680014146558,1194134913597858,-0.1579875,-0.10285,0.0231
1680014146562,1194134916100243,-0.16005,-0.095975,0.0251625
1680014146564,1194134918602416,-0.16005,-0.083875,0.0240625
1680014146565,1194134921104877,-0.163075,-0.073975,0.0240625
1680014146568,1194134923607031,-0.1640375,-0.0688875,0.0240625
1680014146571,1194134926109185,-0.1661,-0.064899996,0.0231
1680014146573,1194134928611436,-0.1689875,-0.0548625,0.0210375
1680014146576,1194134931113820,-0.1661,-0.0499125,0.020075
1680014146578,1194134933616051,-0.1640375,-0.04895,0.0191125
1680014146583,1194134936118205,-0.1640375,-0.0438625,0.01705
1680014146586,1194134938620349,-0.161975,-0.0419375,0.01705
1680014146588,1194134941122733,-0.1610125,-0.0358875,0.01705
1680014146590,1194134943624887,-0.1560625,-0.0358875,0.0191125
1680014146593,1194134946127041,-0.1530375,-0.034925,0.0210375
1680014146595,1194134948629503,-0.152075,-0.034925,0.0210375
1680014146596,1194134951131757,-0.146025,-0.0309375,0.0221375
1680014146598,1194134953633911,-0.139975,-0.0279125,0.0231
1680014146602,1194134956136065,-0.13805,-0.0319,0.0210375
1680014146604,1194134958638450,-0.132,-0.0328625,0.0221375
1680014146605,1194134961140604,-0.12705,-0.0309375,0.0231
1680014146608,1194134963643065,-0.121,-0.0319,0.0231
1680014146612,1194134966145219,-0.11605,-0.0339625,0.0231
1680014146613,1194134968647373,-0.1139875,-0.0339625,0.0221375
1680014146616,1194134971149604,-0.1111,-0.034925,0.020075
1680014146618,1194134973651978,-0.108075,-0.0389125,0.020075
1680014146624,1194134976154132,-0.095975,-0.0389125,0.0231
1680014146626,1194134978655247,-0.095975,-0.0429,0.0221375
1680014146626,1194134981156364,-0.0919875,-0.0468875,0.020075
1680014146628,1194134983660853,-0.0891,-0.0529375,0.0191125
1680014146631,1194134986163007,-0.0809875,-0.061875,0.020075
1680014146633,1194134988665238,-0.0730125,-0.0639375,0.0221375
1680014146636,1194134991167623,-0.0710875,-0.064899996,0.020075
1680014146638,1194134993669858,-0.066,-0.067925,0.0191125
1680014146642,1194134996172012,-0.0620125,-0.0719125,0.0191125
1680014146643,1194134998674397,-0.0570625,-0.0779625,0.0210375
1680014146646,1194135001176551,-0.053075,-0.078925,0.01705
1680014146649,1194135003678691,-0.0451,-0.0779625,0.020075
1680014146652,1194135006180921,-0.0400125,-0.0768625,0.0221375
1680014146654,1194135008683306,-0.0350625,-0.089925,0.0251625
1680014146656,1194135011185537,-0.033,-0.0988625,0.0240625
1680014146660,1194135013687676,-0.0290125,-0.10285,0.0270875
1680014146666,1194135016190060,-0.0240625,-0.1049125,0.0301125
1680014146669,1194135018692214,-0.0180125,-0.1079375,0.031075
1680014146669,1194135021194445,-0.0149875,-0.11385,0.0320375
1680014146669,1194135023696599,-0.013062499,-0.1189375,0.0301125
1680014146672,1194135026198998,-0.0070125,-0.1219625,0.0331375
1680014146673,1194135028701229,-0.011,-0.1299375,0.0331375
1680014146676,1194135031203383,-0.0100375,-0.13695,0.037125
1680014146678,1194135033705537,-0.00605,-0.1428625,0.0380875
1680014146682,1194135036207897,-0.003025,-0.1428625,0.039049998
1680014146683,1194135038710128,-0.0011,-0.1428625,0.04015
1680014146686,1194135041212513,0.003025,-0.14795,0.042075
1680014146688,1194135043714667,0.0059125,-0.1458875,0.0411125
1680014146691,1194135046216892,0.007975,-0.1458875,0.0460625
1680014146694,1194135048719046,0.0099,-0.1458875,0.0490875
1680014146697,1194135051221200,0.011,-0.1458875,0.048125
1680014146699,1194135053723585,0.0138875,-0.1458875,0.048125
1680014146702,1194135056226031,0.0180125,-0.14093749,0.050049998
1680014146704,1194135058728185,0.0199375,-0.1329625,0.0521125
1680014146706,1194135061230339,0.0229625,-0.1269125,0.0540375
1680014146708,1194135063732570,0.0248875,-0.1189375,0.0551375
1680014146712,1194135066234724,0.02695,-0.1128875,0.0540375
1680014146713,1194135068737099,0.0290125,-0.10285,0.0581625
1680014146716,1194135071239330,0.0290125,-0.0969375,0.0551375
1680014146718,1194135073741484,0.033,-0.084975,0.0551375
1680014146723,1194135076243868,0.03795,-0.0768625,0.0561
1680014146724,1194135078746098,0.0389125,-0.067925,0.0600875
1680014146726,1194135081248252,0.040975,-0.0578875,0.0600875
1680014146728,1194135083750406,0.0429,-0.0468875,0.0581625
1680014146732,1194135086252791,0.0449625,-0.0429,0.0600875
1680014146735,1194135088755002,0.051975,-0.0339625,0.061049998
1680014146737,1194135091257156,0.0539,-0.0218625,0.061049998
1680014146741,1194135093759541,0.0529375,-0.0169125,0.06215
1680014146743,1194135096261772,0.058025,-0.006875,0.061049998
1680014146745,1194135098763940,0.0609125,-0.00385,0.061049998
1680014146747,1194135101266094,0.0669625,0.0011,0.06215
1680014146748,1194135103768556,0.0699875,0.0050875,0.06215
1680014146752,1194135106270710,0.0730125,0.014162499,0.061049998
1680014146753,1194135108772864,0.078925,0.01815,0.0600875
1680014146756,1194135111275248,0.0840125,0.0160875,0.0600875
1680014146760,1194135113777402,0.087037496,0.013062499,0.0581625
1680014146762,1194135116279633,0.0919875,0.0191125,0.061049998
1680014146764,1194135118782017,0.095975,0.01705,0.0600875
1680014146768,1194135121284224,0.0999625,0.0160875,0.059125
1680014146769,1194135123786378,0.1060125,0.014162499,0.0570625
1680014146773,1194135126288763,0.1079375,0.0121,0.0561
1680014146775,1194135128790917,0.11,0.00605,0.0551375
1680014146777,1194135131293070,0.106975,0.004125,0.053075
1680014146778,1194135133795522,0.109037496,-0.001925,0.0540375
1680014146784,1194135136297753,0.11495,-0.006875,0.0540375
1680014146785,1194135138799830,0.111925,-0.0138875,0.0540375
1680014146786,1194135141302060,0.113025,-0.0209,0.053075
1680014146788,1194135143804445,0.11495,-0.0279125,0.0490875
1680014146792,1194135146306599,0.113025,-0.0328625,0.0471625
1680014146793,1194135148808830,0.11605,-0.0429,0.0471625
1680014146795,1194135151311214,0.11605,-0.04895,0.048125
1680014146798,1194135153813382,0.1170125,-0.056925,0.0460625
1680014146801,1194135156315536,0.1189375,-0.067925,0.0490875
1680014146803,1194135158817767,0.120037496,-0.0719125,0.0471625
1680014146806,1194135161320151,0.122925,-0.0768625,0.0430375
1680014146810,1194135163822310,0.122925,-0.0848375,0.0441375
1680014146812,1194135166324541,0.1280125,-0.0908875,0.0460625
1680014146814,1194135168826926,0.1329625,-0.0988625,0.0471625
1680014146816,1194135171329079,0.1359875,-0.1049125,0.0471625
1680014146818,1194135173831310,0.13695,-0.111925,0.0451
1680014146822,1194135176333460,0.139975,-0.11495,0.0430375
1680014146823,1194135178835614,0.143,-0.1098625,0.0411125
1680014146826,1194135181338075,0.1439625,-0.108899996,0.04015
1680014146828,1194135183840460,0.14905,-0.1219625,0.039049998
1680014146831,1194135186342618,0.150975,-0.12595,0.039049998
1680014146834,1194135188844772,0.1519375,-0.1269125,0.0361625
1680014146836,1194135191347003,0.1530375,-0.1238875,0.0341
1680014146838,1194135193849156,0.150975,-0.1189375,0.02915
1680014146841,1194135196351541,0.1530375,-0.1189375,0.02805
1680014146843,1194135198853753,0.154,-0.11495,0.0270875
1680014146848,1194135201355907,0.154,-0.1128875,0.0221375
1680014146849,1194135203858291,0.154,-0.11495,0.0191125
1680014146852,1194135206360479,0.155925,-0.1098625,0.01705
1680014146854,1194135208862710,0.155925,-0.1079375,0.013062499
1680014146855,1194135211365095,0.1579875,-0.10395,0.0100375
1680014146858,1194135213867248,0.1610125,-0.0999625,0.0100375
1680014146864,1194135216369474,0.16293749,-0.095837496,0.009075
1680014146864,1194135218871628,0.168025,-0.094875,0.00715
1680014146868,1194135221374013,0.1739375,-0.0908875,0.004125
1680014146869,1194135223876166,0.179025,-0.0908875,1.375E-4
1680014146871,1194135226378628,0.188925,-0.089925,0.0031625
1680014146873,1194135228880801,0.1959375,-0.0878625,0.0011
1680014146876,1194135231383032,0.20693749,-0.0878625,-0.00495
1680014146879,1194135233885186,0.21505,-0.086899996,-0.00495
1680014146882,1194135236387339,0.22,-0.0859375,-0.0078375
1680014146887,1194135238889733,0.22605,-0.094875,-0.0119624995
1680014146888,1194135241391887,0.22893749,-0.0999625,-0.0169125
1680014146889,1194135243894118,0.2349875,-0.100925,-0.0218625
1680014146892,1194135246396502,0.2399375,-0.100925,-0.02585
1680014146894,1194135248898733,0.2410375,-0.1049125,-0.0298375
1680014146896,1194135251400892,0.242,-0.1079375,-0.0339625
1680014146899,1194135253903046,0.2380125,-0.1049125,-0.039875
1680014146903,1194135256405430,0.2349875,-0.100925,-0.0419375
1680014146904,1194135258907661,0.232925,-0.10395,-0.0449625
1680014146906,1194135261409806,0.2239875,-0.1109625,-0.04895
1680014146908,1194135263912191,0.2190375,-0.1098625,-0.04895
1680014146912,1194135266414421,0.2099625,-0.106837496,-0.050875
1680014146913,1194135268916575,0.205975,-0.106837496,-0.0548625
1680014146919,1194135271418714,0.2019875,-0.1109625,-0.061875
1680014146920,1194135273921176,0.19305,-0.1128875,-0.0688875
1680014146925,1194135276423329,0.1860375,-0.1128875,-0.0719125
1680014146925,1194135278925714,0.179025,-0.10285,-0.0768625
1680014146929,1194135281427868,0.176,-0.094875,-0.0759
1680014146929,1194135283930022,0.1750375,-0.09185,-0.0749375
1680014146932,1194135286432253,0.16995,-0.08195,-0.0749375
1680014146934,1194135288934637,0.166925,-0.067925,-0.072875
1680014146936,1194135291436868,0.16995,-0.0609125,-0.0749375
1680014146940,1194135293939046,0.17105,-0.0518375,-0.06985
1680014146944,1194135296441430,0.1689875,-0.0358875,-0.067925
1680014146944,1194135298943584,0.17105,-0.02695,-0.067925
1680014146948,1194135301445738,0.176,-0.0209,-0.064899996
1680014146949,1194135303947969,0.177925,-0.0108624995,-0.0609125
1680014146952,1194135306450354,0.1769625,0.0011,-0.0609125
1680014146954,1194135308952584,0.179025,0.00715,-0.0609125
1680014146956,1194135311454738,0.183975,0.014162499,-0.0609125
1680014146960,1194135313957142,0.190025,0.015125,-0.0578875
1680014146963,1194135316459296,0.194975,0.0221375,-0.056925
1680014146964,1194135318961526,0.199925,0.0361625,-0.056925
1680014146966,1194135321463680,0.20295,0.0320375,-0.0559625
1680014146969,1194135323966065,0.20899999,0.0240625,-0.0559625
1680014146972,1194135326468239,0.216975,0.0251625,-0.0548625
1680014146973,1194135328970470,0.2179375,0.0231,-0.0518375
1680014146976,1194135331472854,0.2190375,0.0270875,-0.0529375
1680014146978,1194135333975085,0.22605,0.0251625,-0.0499125
1680014146982,1194135336477243,0.22605,0.0221375,-0.04895
1680014146984,1194135338979397,0.2270125,0.0191125,-0.050875
1680014146986,1194135341481781,0.2319625,0.01705,-0.045925
1680014146989,1194135343983935,0.2349875,0.014162499,-0.0419375
1680014146992,1194135346486397,0.234025,0.00715,-0.039875
1680014146993,1194135348988550,0.2349875,0.0031625,-0.039875
1680014146997,1194135351490781,0.2410375,-0.0059125,-0.039875
1680014146999,1194135353992935,0.238975,-0.017875,-0.0419375
1680014147002,1194135356495320,0.2429625,-0.0298375,-0.047849998
1680014147004,1194135358997460,0.243925,-0.045925,-0.0408375
1680014147007,1194135361499690,0.2459875,-0.0578875,-0.03795
1680014147008,1194135364002075,0.253,-0.0688875,-0.0389125
1680014147011,1194135366504229,0.2539625,-0.089925,-0.036849998
1680014147013,1194135369006383,0.256025,-0.111925,-0.03795
1680014147017,1194135371508618,0.2619375,-0.1219625,-0.0389125
1680014147019,1194135374011003,0.2649625,-0.144925,-0.036849998
1680014147024,1194135376513219,0.26895,-0.15785,-0.0389125
1680014147025,1194135379015373,0.27005,-0.16293749,-0.0408375
1680014147027,1194135381517757,0.2759625,-0.19195,-0.0419375
1680014147029,1194135384019911,0.2820125,-0.2168375,-0.0429
1680014147032,1194135386522065,0.2869625,-0.23485,-0.0429
1680014147035,1194135389024296,0.2930125,-0.2498375,-0.047849998
1680014147037,1194135391526450,0.3059375,-0.2638625,-0.0499125
1680014147039,1194135394028911,0.315975,-0.27995,-0.047849998
1680014147042,1194135396531065,0.3229875,-0.292875,-0.047849998
1680014147044,1194135399033450,0.3339875,-0.2998875,-0.04895
1680014147046,1194135401535585,0.3370125,-0.3059375,-0.047849998
1680014147049,1194135404037815,0.337975,-0.2959,-0.0429
1680014147052,1194135406539969,0.3400375,-0.28985,-0.0419375
1680014147053,1194135409042354,0.3389375,-0.3029125,-0.0438625
1680014147056,1194135411544580,0.33495,-0.303875,-0.0449625
1680014147061,1194135414046733,0.326975,-0.30085,-0.0539
1680014147062,1194135416548887,0.3180375,-0.30085,-0.0578875
1680014147064,1194135419051272,0.308,-0.2979625,-0.064899996
1680014147066,1194135421553503,0.293975,-0.2949375,-0.0749375
1680014147068,1194135424055887,0.2850375,-0.2938375,-0.0859375
1680014147073,1194135426558041,0.2740375,-0.2919125,-0.09295
1680014147075,1194135429060272,0.27005,-0.2849,-0.100925
1680014147076,1194135431562426,0.2600125,-0.27885,-0.105875
1680014147078,1194135434064599,0.254925,-0.265925,-0.1098625
1680014147081,1194135436566983,0.2509375,-0.2589125,-0.1109625
1680014147084,1194135439069214,0.2459875,-0.24585,-0.111925
1680014147087,1194135441571599,0.242,-0.2308625,-0.1109625
1680014147090,1194135444073748,0.23595,-0.215875,-0.1109625
1680014147092,1194135446575979,0.227975,-0.1978625,-0.105875
1680014147094,1194135449078133,0.22,-0.18287499,-0.100925
1680014147096,1194135451580518,0.2129875,-0.1659625,-0.095837496
1680014147099,1194135454082734,0.20693749,-0.14795,-0.09185
1680014147103,1194135456584887,0.20295,-0.1348875,-0.09295
1680014147104,1194135459087272,0.1940125,-0.11495,-0.0878625
1680014147107,1194135461589503,0.1879625,-0.09185,-0.0889625
1680014147111,1194135464091657,0.18095,-0.0719125,-0.09185
1680014147113,1194135466593810,0.1739375,-0.0529375,-0.09295
1680014147118,1194135469096195,0.17105,-0.034925,-0.0939125
1680014147118,1194135471598426,0.166925,-0.0138875,-0.094875
1680014147120,1194135474100580,0.1610125,0.0011,-0.095837496
1680014147123,1194135476602979,0.1610125,0.020075,-0.095837496
1680014147124,1194135479105133,0.1610125,0.0350625,-0.0999625
1680014147126,1194135481607287,0.161975,0.0471625,-0.1018875
1680014147129,1194135484109518,0.1659625,0.0631125,-0.1018875
1680014147132,1194135486611901,0.17105,0.0691625,-0.1049125
1680014147134,1194135489114132,0.17105,0.0801625,-0.1049125
1680014147137,1194135491616286,0.1750375,0.087037496,-0.105875
1680014147140,1194135494118671,0.179025,0.0961125,-0.108899996
1680014147142,1194135496620825,0.1860375,0.1021625,-0.105875
1680014147144,1194135499123055,0.188925,0.10505,-0.105875
1680014147148,1194135501625440,0.19305,0.1120625,-0.10395
1680014147149,1194135504127594,0.198,0.1181125,-0.1049125
1680014147152,1194135506629825,0.20295,0.1131625,-0.10285
1680014147154,1194135509132209,0.2050125,0.1150875,-0.10395
1680014147156,1194135511634363,0.20693749,0.11715,-0.10395
1680014147160,1194135514136517,0.20899999,0.1111,-0.10285
1680014147162,1194135516638978,0.2129875,0.1101375,-0.0999625
1680014147164,1194135519141118,0.21505,0.1021625,-0.0979
1680014147168,1194135521643272,0.2160125,0.0961125,-0.095837496
1680014147169,1194135524145503,0.2129875,0.08415,-0.095837496
1680014147174,1194135526647657,0.21505,0.0760375,-0.0908875
1680014147174,1194135529150050,0.212025,0.06215,-0.0859375
1680014147176,1194135531652281,0.2050125,0.0451,-0.0829125
1680014147180,1194135534154666,0.199925,0.02915,-0.08085
1680014147186,1194135536656835,0.1989625,0.015125,-0.0759
1680014147187,1194135539158988,0.198,0.0011,-0.0749375
1680014147188,1194135541661219,0.1909875,-0.017875,-0.0719125
1680014147190,1194135544163373,0.183975,-0.0339625,-0.064899996
1680014147194,1194135546665758,0.177925,-0.0539,-0.058849998
1680014147195,1194135549167989,0.168025,-0.067925,-0.0539
1680014147197,1194135551670151,0.1610125,-0.0829125,-0.050875
1680014147199,1194135554172536,0.1530375,-0.100925,-0.0499125
1680014147202,1194135556674767,0.13695,-0.1098625,-0.0438625
1680014147203,1194135559176921,0.1280125,-0.1238875,-0.0389125
1680014147206,1194135561679074,0.1189375,-0.1309,-0.0358875
1680014147209,1194135564181557,0.1079375,-0.1398375,-0.0328625
1680014147212,1194135566683711,0.0919875,-0.1458875,-0.02585
1680014147214,1194135569185865,0.0779625,-0.149875,-0.0248875
1680014147218,1194135571688239,0.0669625,-0.1519375,-0.0188375
1680014147220,1194135574190470,0.0559625,-0.1508375,-0.0119624995
1680014147224,1194135576692624,0.044,-0.149875,-0.0108624995
1680014147226,1194135579195009,0.0339625,-0.1428625,-0.00495
1680014147227,1194135581697239,0.025024999,-0.13585,-9.625E-4
1680014147229,1194135584199393,0.014025,-0.1269125,0.0050875
1680014147234,1194135586701547,0.003025,-0.1159125,0.00605
1680014147235,1194135589203932,-0.0039875,-0.10285,0.00715
1680014147236,1194135591706086,-0.009075,-0.094875,0.013062499
1680014147239,1194135594208532,-0.0149875,-0.086899996,0.0191125
1680014147242,1194135596710686,-0.018975,-0.0749375,0.0231
1680014147244,1194135599212917,-0.022,-0.0578875,0.0221375
1680014147247,1194135601715071,-0.0290125,-0.045925,0.01705
1680014147249,1194135604217431,-0.0350625,-0.0309375,0.0191125
1680014147252,1194135606719585,-0.036025,-0.0209,0.0221375
1680014147254,1194135609221739,-0.0369875,-0.0138875,0.0210375
1680014147256,1194135611724200,-0.0380875,-9.625E-4,0.020075
1680014147261,1194135614226359,-0.0411125,0.003025,0.0231
1680014147264,1194135616728590,-0.044,0.0121,0.0210375
1680014147265,1194135619315282,-0.0451,0.020075,0.020075
1680014147268,1194135621733129,-0.0460625,0.0231,0.0210375
1680014147269,1194135624235282,-0.047025,0.0301125,0.020075
1680014147272,1194135626737513,-0.0479875,0.02805,0.0231
1680014147274,1194135629239898,-0.047025,0.0301125,0.0251625
1680014147277,1194135631742052,-0.047025,0.0320375,0.020075
1680014147280,1194135634244205,-0.047025,0.0331375,0.0231
1680014147281,1194135636746436,-0.047025,0.036025,0.0221375
1680014147284,1194135639248580,-0.047025,0.031075,0.0210375
1680014147291,1194135641751042,-0.0451,0.02915,0.0231
1680014147295,1194135644253195,-0.047025,0.02805,0.0231
1680014147295,1194135646755576,-0.0430375,0.02915,0.0231
1680014147296,1194135649257730,-0.0411125,0.0221375,0.0251625
1680014147298,1194135651759961,-0.0400125,0.020075,0.02805
1680014147300,1194135654262115,-0.039049998,0.0191125,0.0270875
1680014147303,1194135656764479,-0.0350625,0.01705,0.0251625
1680014147304,1194135659266710,-0.036025,0.0191125,0.0221375
1680014147306,1194135661768864,-0.0369875,0.014025,0.020075
1680014147309,1194135664271018,-0.031075,0.013062499,0.01705
1680014147312,1194135666773402,-0.025024999,0.0100375,0.013062499
1680014147313,1194135669275633,-0.025024999,0.0160875,0.0111375
1680014147316,1194135671778018,-0.0210375,0.0270875,0.0081124995
1680014147319,1194135674280172,-0.0210375,0.0121,0.0050875
1680014147322,1194135676782402,-0.0180125,-0.001925,0.0031625
1680014147323,1194135679284571,-0.0121,-0.001925,0.0011
1680014147326,1194135681786956,-0.009075,-0.001925,-0.0028875
1680014147329,1194135684289110,-0.003025,-0.0028875,-0.0078375
1680014147332,1194135686791340,0.0039875,-0.00495,-0.0099
1680014147335,1194135689293754,0.0070125,-0.00495,-0.01485
1680014147337,1194135691795985,0.01595,-9.625E-4,-0.0188375
1680014147340,1194135694298139,0.0248875,-9.625E-4,-0.023924999
1680014147342,1194135696800293,0.0319,0.0011,-0.0279125
1680014147344,1194135699302677,0.0358875,1.375E-4,-0.036849998
1680014147346,1194135701804816,0.045925,0.0050875,-0.0449625
1680014147349,1194135704307047,0.056925,0.00605,-0.047849998
1680014147352,1194135706809201,0.0669625,0.00715,-0.0518375
1680014147354,1194135709311585,0.067925,0.014025,-0.0529375
1680014147357,1194135711813783,0.0759,0.020075,-0.0578875
1680014147359,1194135714316168,0.084975,0.0160875,-0.0609125
1680014147362,1194135716818322,0.0969375,0.0100375,-0.0688875
1680014147364,1194135719320552,0.1109625,0.00605,-0.0768625
1680014147368,1194135721822686,0.1219625,-0.0028875,-0.083875
1680014147369,1194135724325071,0.133925,-0.0089375,-0.0859375
1680014147373,1194135726827225,0.1419,-0.0169125,-0.095837496
1680014147375,1194135729329455,0.1500125,-0.028875,-0.0988625
1680014147377,1194135731831840,0.16499999,-0.034925,-0.0999625
1680014147380,1194135734334071,0.172975,-0.0449625,-0.100925
1680014147385,1194135736836225,0.1819125,-0.0449625,-0.0999625
1680014147387,1194135739338378,0.188925,-0.062975,-0.0988625
1680014147387,1194135741840768,0.1989625,-0.0878625,-0.0979
1680014147389,1194135744342999,0.20693749,-0.0988625,-0.095837496
1680014147393,1194135746845153,0.2129875,-0.108899996,-0.0939125
1680014147394,1194135749347537,0.2209625,-0.1208625,-0.089925
1680014147397,1194135751849691,0.2239875,-0.1318625,-0.094875
1680014147401,1194135754351884,0.2228875,-0.13585,-0.0889625
1680014147402,1194135756854038,0.22495,-0.144925,-0.086899996
1680014147404,1194135759356499,0.231,-0.15785,-0.08195
1680014147407,1194135761858653,0.2319625,-0.160875,-0.08195
1680014147410,1194135764360821,0.22893749,-0.16293749,-0.08195
1680014147413,1194135766863206,0.2259125,-0.1678875,-0.0779625
1680014147415,1194135769365360,0.2270125,-0.1709125,-0.0738375
1680014147417,1194135771867590,0.2259125,-0.177925,-0.072875
1680014147420,1194135774369744,0.2239875,-0.18095,-0.0688875
1680014147423,1194135776872225,0.22,-0.18095,-0.064899996
1680014147424,1194135779374379,0.2239875,-0.18493749,-0.0628375
1680014147427,1194135781876763,0.2228875,-0.18493749,-0.0628375
1680014147429,1194135784378917,0.2209625,-0.183975,-0.0578875
1680014147432,1194135786881071,0.2189,-0.18287499,-0.0529375
1680014147434,1194135789383302,0.2179375,-0.1788875,-0.0539
1680014147437,1194135791885686,0.216975,-0.18095,-0.050875
1680014147440,1194135794387840,0.2160125,-0.172975,-0.0438625
1680014147442,1194135796890085,0.2129875,-0.166925,-0.039875
1680014147444,1194135799392239,0.2179375,-0.1678875,-0.0358875
1680014147448,1194135801894623,0.2160125,-0.160875,-0.0328625
1680014147449,1194135804396777,0.2149125,-0.1568875,-0.0319
1680014147452,1194135806899239,0.2149125,-0.1549625,-0.0298375
1680014147456,1194135809401393,0.2099625,-0.1489125,-0.02695
1680014147456,1194135811903547,0.2079,-0.1379125,-0.0248875
1680014147460,1194135814405777,0.210925,-0.1309,-0.0229625
1680014147463,1194135816907941,0.205975,-0.128975,-0.0218625
1680014147464,1194135819410326,0.20693749,-0.1208625,-0.0209
1680014147466,1194135821912557,0.2079,-0.1098625,-0.0199375
1680014147469,1194135824414941,0.20693749,-0.106975,-0.0229625
1680014147472,1194135826917095,0.2099625,-0.0979,-0.0229625
1680014147474,1194135829419355,0.2079,-0.0859375,-0.0209
1680014147476,1194135831921509,0.2099625,-0.0779625,-0.017875
1680014147480,1194135834423662,0.2149125,-0.0688875,-0.01485
1680014147482,1194135836926047,0.2179375,-0.0609125,-0.01485
1680014147486,1194135839428278,0.2228875,-0.0529375,-0.01595
1680014147487,1194135841930663,0.227975,-0.0438625,-0.0169125
1680014147490,1194135844432816,0.232925,-0.0419375,-0.0199375
1680014147492,1194135846935047,0.2380125,-0.0328625,-0.0209
1680014147494,1194135849437201,0.2479125,-0.02585,-0.0209
1680014147497,1194135851939335,0.254925,-0.023924999,-0.0209
1680014147499,1194135854441796,0.2600125,-0.018975,-0.0199375
1680014147502,1194135856943950,0.2649625,-0.0138875,-0.0218625
1680014147504,1194135859446104,0.27101249,-0.0108624995,-0.0199375
1680014147506,1194135861948489,0.2729375,-0.0099,-0.0199375
1680014147509,1194135864450629,0.276925,-0.006875,-0.0218625
1680014147512,1194135866952859,0.2849,-0.007975,-0.0248875
1680014147514,1194135869455244,0.2899875,-0.007975,-0.02585
1680014147517,1194135871957504,0.2949375,-0.007975,-0.02695
1680014147520,1194135874459658,0.298925,-0.0108624995,-0.028875
1680014147526,1194135876962042,0.3029125,-0.007975,-0.028875
1680014147526,1194135879463151,0.304975,-0.012925,-0.028875
1680014147526,1194135881964230,0.3040125,-0.0138875,-0.02695
1680014147529,1194135884468844,0.308,-0.023924999,-0.0279125
1680014147531,1194135886970998,0.3108875,-0.028875,-0.0328625
1680014147534,1194135889473152,0.31501248,-0.029975,-0.0328625
1680014147536,1194135891975383,0.319,-0.03795,-0.0279125
1680014147540,1194135894477783,0.319,-0.0468875,-0.0298375
1680014147543,1194135896979936,0.3199625,-0.0548625,-0.028875
1680014147544,1194135899482167,0.3249125,-0.0669625,-0.023924999
1680014147547,1194135901984552,0.3260125,-0.0768625,-0.028875
1680014147549,1194135904486706,0.3289,-0.0829125,-0.0298375
1680014147552,1194135906988860,0.331925,-0.0979,-0.028875
1680014147554,1194135909491090,0.331925,-0.106975,-0.028875
1680014147557,1194135911993272,0.3289,-0.11495,-0.023924999
1680014147560,1194135914495657,0.331925,-0.1269125,-0.0229625
1680014147563,1194135916997888,0.331925,-0.139975,-0.0218625
1680014147564,1194135919500272,0.32793748,-0.1458875,-0.01595
1680014147569,1194135922002430,0.326975,-0.14093749,-0.0108624995
1680014147569,1194135924504661,0.3260125,-0.13695,-0.006875
1680014147572,1194135927006815,0.320925,-0.160875,-9.625E-4
1680014147574,1194135929508968,0.319,-0.18095,0.004125
1680014147577,1194135932011430,0.31501248,-0.183975,0.0111375
1680014147580,1194135934513825,0.3119875,-0.1868625,0.014162499
1680014147582,1194135937015979,0.3119875,-0.1959375,0.0210375
1680014147585,1194135939518132,0.3089625,-0.20693749,0.02915
1680014147587,1194135942020363,0.3089625,-0.215875,0.0341
1680014147589,1194135944522517,0.304975,-0.22495,0.042075
1680014147592,1194135947024902,0.3069,-0.2338875,0.0471625
1680014147594,1194135949527132,0.304975,-0.2369125,0.053075
1680014147599,1194135952029286,0.3069,-0.2479125,0.061049998
1680014147600,1194135954531440,0.309925,-0.249975,0.0650375
1680014147603,1194135957033825,0.3069,-0.2528625,0.070125
1680014147604,1194135959535979,0.304975,-0.2638625,0.07315
1680014147607,1194135962038440,0.3089625,-0.2649625,0.0741125
1680014147610,1194135964540594,0.3040125,-0.2668875,0.0741125
1680014147612,1194135967042825,0.298925,-0.270875,0.075075
1680014147614,1194135969544979,0.293975,-0.2629,0.0771375
1680014147616,1194135972047363,0.2919125,-0.2519,0.0790625
1680014147620,1194135974549517,0.29095,-0.24695,0.078099996
1680014147622,1194135977051753,0.2849,-0.24585,0.081125
1680014147624,1194135979554137,0.2809125,-0.2308625,0.08305
1680014147626,1194135982056368,0.2759625,-0.2228875,0.0790625
1680014147629,1194135984558522,0.275,-0.2149125,0.0801625
1680014147632,1194135987060671,0.2739,-0.2039125,0.081125
1680014147636,1194135989563056,0.2729375,-0.1969,0.0790625
1680014147637,1194135992065209,0.275,-0.1898875,0.078099996
1680014147639,1194135994567440,0.2789875,-0.1819125,0.0790625
1680014147642,1194135997069811,0.286,-0.17985,0.078099996
1680014147644,1194135999571965,0.2930125,-0.1749,0.081125
1680014147646,1194136002074195,0.3029125,-0.1788875,0.086075
1680014147649,1194136004576349,0.315975,-0.1769625,0.08305
1680014147652,1194136007078517,0.3218875,-0.1769625,0.08305
1680014147654,1194136009580979,0.326975,-0.177925,0.08305
1680014147657,1194136012083363,0.33495,-0.177925,0.08305
1680014147660,1194136014585517,0.3399,-0.16885,0.08305
1680014147663,1194136017087676,0.3449875,-0.15895,0.08305
1680014147664,1194136019589907,0.348975,-0.1659625,0.0801625
1680014147666,1194136022092061,0.3499375,-0.166925,0.078099996
1680014147669,1194136024594445,0.3480125,-0.16293749,0.0741125
1680014147674,1194136027096676,0.337975,-0.150975,0.0691625
1680014147675,1194136029599061,0.331925,-0.139975,0.0661375
1680014147677,1194136032101215,0.326975,-0.1329625,0.061049998
1680014147679,1194136034603368,0.31501248,-0.117975,0.0551375
1680014147682,1194136037105599,0.3040125,-0.10285,0.0540375
1680014147685,1194136039607965,0.2949375,-0.095975,0.0490875
1680014147686,1194136042110119,0.287925,-0.0798875,0.0430375
1680014147689,1194136044612349,0.2789875,-0.0609125,0.04015
1680014147692,1194136047114503,0.271975,-0.051975,0.0380875
1680014147695,1194136049616860,0.2619375,-0.0358875,0.0361625
1680014147696,1194136052119014,0.254925,-0.0199375,0.0380875
1680014147702,1194136054621244,0.2448875,-0.001925,0.037125
1680014147703,1194136057123629,0.2369125,0.0121,0.0320375
1680014147704,1194136059625860,0.22893749,0.0240625,0.031075
1680014147708,1194136062127994,0.221925,0.0430375,0.02805
1680014147711,1194136064630148,0.2079,0.0551375,0.0231
1680014147714,1194136067132532,0.2008875,0.0661375,0.0251625
1680014147716,1194136069634686,0.1940125,0.0790625,0.0231
1680014147718,1194136072136897,0.1879625,0.0881375,0.0191125
1680014147720,1194136074639281,0.177925,0.098037496,0.01705
1680014147723,1194136077141512,0.1749,0.1101375,0.015125
1680014147724,1194136079643666,0.16499999,0.119075,0.013062499
1680014147727,1194136082145820,0.155925,0.12705,0.0111375
1680014147730,1194136084648176,0.1500125,0.1340625,0.0100375
1680014147732,1194136087150406,0.1419,0.146025,0.009075
1680014147734,1194136089652560,0.1379125,0.152075,0.00715
1680014147736,1194136092154714,0.132,0.16005,0.0050875
1680014147740,1194136094657138,0.122925,0.1661,0.0020625
1680014147743,1194136097159368,0.117975,0.17613749,0.0020625
1680014147745,1194136099661753,0.11495,0.179025,0.0050875
1680014147749,1194136102163907,0.1079375,0.1841125,0.00605
1680014147750,1194136104666133,0.102025,0.1860375,0.00715
1680014147753,1194136107168287,0.0969375,0.1841125,0.00715
1680014147754,1194136109670440,0.0919875,0.18315,0.0100375
1680014147757,1194136112172902,0.0840125,0.1810875,0.0121
1680014147759,1194136114675056,0.08195,0.1791625,0.0121
1680014147762,1194136117177445,0.0760375,0.1731125,0.015125
1680014147764,1194136119679599,0.0680625,0.1670625,0.01705
1680014147768,1194136122181830,0.058025,0.16115,0.0221375
1680014147769,1194136124683984,0.0510125,0.1530375,0.026124999
1680014147773,1194136127186459,0.0449625,0.1431375,0.02915
1680014147775,1194136129688613,0.0400125,0.1351625,0.0331375
1680014147776,1194136132190767,0.033,0.12705,0.037125
1680014147780,1194136134693152,0.02695,0.1131625,0.04015
1680014147786,1194136137195287,0.022,0.103125,0.0430375
1680014147787,1194136139697440,0.01705,0.0900625,0.050049998
1680014147788,1194136142199671,0.0100375,0.0790625,0.0540375
1680014147793,1194136144702056,0.00495,0.0650375,0.0561
1680014147794,1194136147204287,-0.00605,0.053075,0.059125
1680014147795,1194136149706440,-0.0100375,0.0380875,0.059125
1680014147797,1194136152208825,-0.01705,0.0240625,0.0631125
1680014147799,1194136154710979,-0.025024999,0.0121,0.070125
1680014147802,1194136157213133,-0.029975,0.0011,0.0671
1680014147804,1194136159715599,-0.03795,-0.0099,0.0671
1680014147807,1194136162217753,-0.0460625,-0.0199375,0.07315
1680014147809,1194136164719984,-0.050049998,-0.0328625,0.0741125
1680014147812,1194136167222138,-0.0529375,-0.047849998,0.0741125
1680014147814,1194136169724522,-0.0589875,-0.0578875,0.0771375
1680014147817,1194136172226676,-0.0639375,-0.067925,0.0771375
1680014147820,1194136174729138,-0.0699875,-0.0759,0.078099996
1680014147824,1194136177231292,-0.0730125,-0.083875,0.0771375
1680014147826,1194136179733426,-0.077,-0.09185,0.0790625
1680014147829,1194136182235656,-0.0790625,-0.0979,0.0820875
1680014147830,1194136184737810,-0.08195,-0.10285,0.08305
1680014147832,1194136187239964,-0.080025,-0.106837496,0.08305
1680014147835,1194136189742426,-0.087037496,-0.108899996,0.0891
1680014147837,1194136192244801,-0.0919875,-0.111925,0.0930875
1680014147840,1194136194746955,-0.09295,-0.106837496,0.09405
1680014147843,1194136197249109,-0.09295,-0.1049125,0.09515
1680014147845,1194136199751340,-0.09295,-0.106837496,0.098037496
1680014147847,1194136202253513,-0.0900625,-0.106837496,0.0991375
1680014147849,1194136204755897,-0.09295,-0.108899996,0.097075
1680014147852,1194136207258128,-0.09405,-0.1098625,0.0991375
1680014147854,1194136209760282,-0.0950125,-0.1098625,0.1021625
1680014147856,1194136212262666,-0.0950125,-0.1098625,0.1040875
1680014147862,1194136214764829,-0.09405,-0.1079375,0.1021625
1680014147864,1194136217267060,-0.09405,-0.0999625,0.10615
1680014147866,1194136219879060,-0.0969375,-0.1018875,0.108075
1680014147868,1194136222271699,-0.095975,-0.100925,0.109037496
1680014147870,1194136224773853,-0.095975,-0.100925,0.1101375
1680014147872,1194136227276007,-0.0969375,-0.10285,0.1120625
1680014147874,1194136229778392,-0.09295,-0.1018875,0.1131625
1680014147877,1194136232280546,-0.0919875,-0.0988625,0.114125
1680014147879,1194136234782805,-0.095975,-0.0969375,0.120037496
1680014147882,1194136237285190,-0.0950125,-0.0979,0.119075
1680014147885,1194136239787421,-0.09405,-0.0969375,0.11605
1680014147887,1194136242289575,-0.09295,-0.0969375,0.1150875
1680014147889,1194136244791747,-0.09295,-0.0908875,0.11605
1680014147892,1194136247294132,-0.088,-0.0878625,0.11605
1680014147894,1194136249796286,-0.0900625,-0.0908875,0.11715
1680014147898,1194136252298517,-0.088,-0.0878625,0.1230625
1680014147901,1194136254800916,-0.0809875,-0.0878625,0.120037496
1680014147904,1194136257303070,-0.0779625,-0.089925,0.1241625
1680014147905,1194136259805301,-0.0760375,-0.089925,0.1260875
1680014147907,1194136262307455,-0.073975,-0.0878625,0.12705
1680014147910,1194136264809839,-0.0699875,-0.0908875,0.12815
1680014147914,1194136267312065,-0.0650375,-0.09185,0.130075
1680014147919,1194136269814450,-0.0570625,-0.0908875,0.12815
1680014147919,1194136272316604,-0.0529375,-0.0939125,0.130075
1680014147919,1194136274818758,-0.0460625,-0.094875,0.1310375
1680014147922,1194136277320983,-0.0400125,-0.0939125,0.1291125
1680014147924,1194136279823137,-0.0309375,-0.09295,0.12705
1680014147927,1194136282325291,-0.01705,-0.0969375,0.12815
1680014147929,1194136284827753,-0.00605,-0.0988625,0.1291125
1680014147932,1194136287330137,0.0070125,-0.10285,0.1260875
1680014147936,1194136289832281,0.0229625,-0.10395,0.122099996
1680014147937,1194136292334435,0.0369875,-0.1018875,0.1150875
1680014147940,1194136294836666,0.0419375,-0.1109625,0.10505
1680014147945,1194136297338820,0.04895,-0.117837496,0.098037496
1680014147946,1194136299841204,0.0529375,-0.1159125,0.09405
1680014147947,1194136302343435,0.0559625,-0.1098625,0.08305
1680014147949,1194136304845589,0.058025,-0.1018875,0.0741125
1680014147952,1194136307347973,0.055,-0.09185,0.064075
1680014147955,1194136309850127,0.051975,-0.0759,0.053075
1680014147956,1194136312352363,0.050049998,-0.058849998,0.042075
1680014147960,1194136314854748,0.044,-0.0408375,0.0361625
1680014147962,1194136317356978,0.0400125,-0.01595,0.02805
1680014147964,1194136319859132,0.0369875,0.0100375,0.0240625
1680014147969,1194136322361272,0.033,0.0331375,0.01705
1680014147969,1194136324863657,0.036025,0.06215,0.0121
1680014147974,1194136327365811,0.033,0.0851125,0.0111375
1680014147976,1194136329868041,0.02805,0.1010625,0.0121
1680014147977,1194136332370422,0.02805,0.1181125,0.00715
1680014147981,1194136334872653,0.0320375,0.1331,0.00605
1680014147983,1194136337374807,0.033,0.1370875,0.0050875
1680014147984,1194136339876960,0.0339625,0.1401125,1.375E-4
1680014147987,1194136342379345,0.0339625,0.136125,-9.625E-4
1680014147989,1194136344881571,0.036025,0.13213749,-9.625E-4
1680014147992,1194136347383725,0.03795,0.1260875,-9.625E-4
1680014147995,1194136349886109,0.0400125,0.120037496,1.375E-4
1680014147997,1194136352388263,0.0419375,0.1101375,-9.625E-4
1680014147999,1194136354890499,0.0430375,0.1010625,1.375E-4
1680014148002,1194136357392653,0.0430375,0.0930875,0.0031625
1680014148006,1194136359895037,0.0430375,0.08415,0.0050875
1680014148007,1194136362397268,0.050049998,0.0710875,0.0031625
1680014148012,1194136364899653,0.0510125,0.0631125,0.0050875
1680014148014,1194136367401807,0.0540375,0.0521125,0.00605
1680014148017,1194136369903961,0.0589875,0.0451,0.00715
1680014148018,1194136372406191,0.062975,0.0350625,0.0081124995
1680014148020,1194136374908345,0.0699875,0.0240625,0.00715
1680014148023,1194136377410701,0.0790625,0.015125,0.0031625
1680014148025,1194136379912932,0.08195,0.0050875,0.0011
1680014148028,1194136382415316,0.088,-9.625E-4,1.375E-4
1680014148029,1194136384917470,0.09405,-0.0108624995,-0.0028875
1680014148032,1194136387419624,0.102025,-0.01595,-0.00495
1680014148036,1194136389921850,0.109037496,-0.0209,-0.0099
1680014148036,1194136392424234,0.11605,-0.028875,-0.01595
1680014148039,1194136394926465,0.124025,-0.0389125,-0.0199375
1680014148043,1194136397428619,0.135025,-0.0499125,-0.02585
1680014148044,1194136399930773,0.1390125,-0.0548625,-0.0298375
1680014148049,1194136402433152,0.1439625,-0.058849998,-0.0358875
1680014148052,1194136404935306,0.1519375,-0.0719125,-0.0429
1680014148053,1194136407437768,0.1610125,-0.083875,-0.045925
1680014148055,1194136409939922,0.1670625,-0.09185,-0.047849998
1680014148059,1194136412442152,0.172975,-0.0988625,-0.0518375
1680014148062,1194136414944306,0.1879625,-0.10395,-0.050875
1680014148065,1194136417446460,0.1909875,-0.10285,-0.0518375
1680014148066,1194136419948845,0.198,-0.111925,-0.0539
1680014148068,1194136422451076,0.2050125,-0.1189375,-0.0518375
1680014148069,1194136424953460,0.20899999,-0.1269125,-0.0499125
1680014148072,1194136427455624,0.2110625,-0.1269125,-0.0499125
1680014148076,1194136429957855,0.212025,-0.1379125,-0.0499125
1680014148077,1194136432460009,0.21505,-0.144925,-0.0518375
1680014148081,1194136434962162,0.2160125,-0.1458875,-0.0529375
1680014148084,1194136437464561,0.212025,-0.15785,-0.0518375
1680014148086,1194136439966792,0.20693749,-0.1728375,-0.050875
1680014148088,1194136442469176,0.20295,-0.1788875,-0.050875
1680014148090,1194136444971330,0.2000625,-0.18287499,-0.0449625
1680014148093,1194136447473484,0.1890625,-0.1868625,-0.0419375
1680014148094,1194136449975730,0.18205,-0.1929125,-0.036849998
1680014148097,1194136452477884,0.176,-0.20295,-0.034925
1680014148100,1194136454980345,0.1720125,-0.2099625,-0.036849998
1680014148103,1194136457482508,0.16293749,-0.2118875,-0.0339625
1680014148105,1194136459984893,0.1549625,-0.2088625,-0.0328625
1680014148107,1194136462487047,0.1500125,-0.21285,-0.034925
1680014148109,1194136464989201,0.1439625,-0.2168375,-0.0298375
1680014148112,1194136467491431,0.14093749,-0.2179375,-0.0319
1680014148116,1194136469993792,0.1390125,-0.2189,-0.034925
1680014148117,1194136472495946,0.1390125,-0.2198625,-0.0328625
1680014148119,1194136474998177,0.1359875,-0.2198625,-0.0358875
1680014148124,1194136477500561,0.1359875,-0.210925,-0.036849998
1680014148125,1194136480002788,0.1329625,-0.20185,-0.036849998
1680014148127,1194136482504942,0.13695,-0.1989625,-0.0389125
1680014148129,1194136485007326,0.13695,-0.1898875,-0.045925
1680014148132,1194136487509480,0.13805,-0.1728375,-0.0518375
1680014148135,1194136490011634,0.1390125,-0.160875,-0.0548625
1680014148137,1194136492513889,0.14093749,-0.1519375,-0.0578875
1680014148140,1194136495016274,0.1439625,-0.1348875,-0.064899996
1680014148142,1194136497518427,0.1549625,-0.1269125,-0.07095
1680014148144,1194136500020658,0.1610125,-0.111925,-0.0749375
1680014148147,1194136502523062,0.168025,-0.0908875,-0.0829125
1680014148149,1194136505025216,0.16995,-0.0719125,-0.0889625
1680014148151,1194136507527369,0.1750375,-0.0578875,-0.09295
1680014148154,1194136510029831,0.18095,-0.0429,-0.0988625
1680014148157,1194136512531980,0.187,-0.0209,-0.100925
1680014148161,1194136515034134,0.194975,-0.006875,-0.108899996
1680014148164,1194136517536365,0.201025,0.00605,-0.1109625
1680014148166,1194136520038518,0.20405,0.01705,-0.1128875
1680014148169,1194136522540908,0.2050125,0.02805,-0.117837496
1680014148170,1194136525043062,0.2110625,0.0380875,-0.117837496
1680014148172,1194136527545523,0.2190375,0.0471625,-0.1159125
1680014148176,1194136530047677,0.2270125,0.061049998,-0.1189375
1680014148177,1194136532549908,0.2270125,0.0600875,-0.1219625
1680014148181,1194136535052057,0.2270125,0.0521125,-0.122925
1680014148185,1194136537554211,0.22893749,0.0411125,-0.1219625
1680014148186,1194136540056595,0.231,0.0361625,-0.1219625
1680014148187,1194136542558826,0.2319625,0.0251625,-0.122925
1680014148190,1194136545061211,0.22605,0.015125,-0.1199
1680014148192,1194136547563360,0.22495,0.00605,-0.11495
1680014148196,1194136550065590,0.223025,-0.0089375,-0.1159125
1680014148200,1194136552567744,0.216975,-0.0298375,-0.111925
1680014148202,1194136555069898,0.21505,-0.045925,-0.1079375
1680014148203,1194136557572355,0.2129875,-0.05995,-0.1049125
1680014148205,1194136560074508,0.20899999,-0.0859375,-0.10395
1680014148207,1194136562576662,0.20405,-0.1098625,-0.0999625
1680014148210,1194136565079047,0.201025,-0.1208625,-0.094875
1680014148213,1194136567581187,0.1989625,-0.13695,-0.089925
1680014148216,1194136570083418,0.194975,-0.15895,-0.0859375
1680014148218,1194136572585802,0.1940125,-0.1819125,-0.0779625
1680014148221,1194136575088033,0.1879625,-0.1978625,-0.0779625
1680014148223,1194136577590187,0.1860375,-0.21285,-0.0738375
1680014148224,1194136580092552,0.18205,-0.22495,-0.067925
1680014148227,1194136582594706,0.1769625,-0.2399375,-0.064899996
1680014148229,1194136585096860,0.172975,-0.24585,-0.056925
1680014148232,1194136587599091,0.1689875,-0.2509375,-0.0518375
1680014148237,1194136590101461,0.1670625,-0.2558875,-0.0438625
1680014148238,1194136592603614,0.1610125,-0.2629,-0.03795
1680014148240,1194136595105845,0.157025,-0.2668875,-0.0339625
1680014148242,1194136597608230,0.1519375,-0.265925,-0.0298375
1680014148244,1194136600110384,0.1439625,-0.2619375,-0.0248875
1680014148247,1194136602612532,0.135025,-0.25685,-0.0218625
1680014148250,1194136605114994,0.12595,-0.2479125,-0.0169125
1680014148253,1194136607617148,0.1159125,-0.2418625,-0.0099
1680014148255,1194136610119302,0.100925,-0.23485,-0.006875
1680014148257,1194136612621518,0.089925,-0.2259125,-0.0028875
1680014148260,1194136615123672,0.0760375,-0.216975,-0.001925
1680014148263,1194136617626057,0.069025,-0.2039125,-0.0028875
1680014148264,1194136620128288,0.0559625,-0.194975,-0.001925
1680014148267,1194136622630652,0.044,-0.183975,-0.001925
1680014148270,1194136625132806,0.0389125,-0.1709125,1.375E-4
1680014148274,1194136627635037,0.0339625,-0.150975,1.375E-4
1680014148275,1194136630137191,0.0279125,-0.1299375,0.0011
1680014148277,1194136632639317,0.0229625,-0.108899996,0.0031625
1680014148279,1194136635141778,0.0180125,-0.0908875,0.004125
1680014148282,1194136637643932,0.011,-0.0669625,0.0050875
1680014148285,1194136640146086,0.012925,-0.045925,0.00715
1680014148287,1194136642648471,0.0119624995,-0.0279125,0.00605
1680014148289,1194136645150652,0.0100375,-0.006875,0.00605
1680014148292,1194136647652883,0.0119624995,0.0121,0.00605
1680014148295,1194136650155268,0.011,0.02915,0.0111375
1680014148297,1194136652657499,0.01595,0.05115,0.009075
1680014148300,1194136655159643,0.011,0.069025,0.0111375
1680014148303,1194136657661797,0.0089375,0.0881375,0.014162499
1680014148305,1194136660164182,0.0089375,0.0991375,0.0121
1680014148307,1194136662666336,0.011,0.1101375,0.0121
1680014148311,1194136665168552,0.011,0.120037496,0.0121
1680014148314,1194136667670936,0.0119624995,0.1291125,0.013062499
1680014148316,1194136670173090,0.011,0.135025,0.0160875
1680014148318,1194136672675321,0.0119624995,0.13915,0.01705
1680014148321,1194136675177705,0.011,0.1590875,0.014162499
1680014148323,1194136677679859,0.011,0.1401125,0.015125
1680014148325,1194136680182013,0.007975,0.122099996,0.020075
1680014148327,1194136682684475,0.0059125,0.1150875,0.0221375
1680014148330,1194136685186629,9.625E-4,0.103125,0.0240625
1680014148332,1194136687688792,-0.0050875,0.086075,0.026124999
1680014148336,1194136690191023,-0.013062499,0.0710875,0.031075
1680014148337,1194136692693177,-0.018975,0.0561,0.0331375
1680014148341,1194136695195562,-0.0259875,0.0341,0.039049998
1680014148345,1194136697697797,-0.033,0.0210375,0.042075
1680014148345,1194136700200182,-0.042075,0.0050875,0.0471625
1680014148349,1194136702702336,-0.0490875,-0.007975,0.0521125
1680014148352,1194136705204567,-0.055,-0.0209,0.0581625
1680014148353,1194136707706720,-0.062975,-0.0339625,0.064075
1680014148355,1194136710208869,-0.066,-0.0449625,0.0650375
1680014148357,1194136712711331,-0.07205,-0.0529375,0.0661375
1680014148360,1194136715213485,-0.075075,-0.0578875,0.0710875
1680014148362,1194136717715639,-0.077,-0.0639375,0.07205
1680014148364,1194136720218023,-0.0809875,-0.067925,0.07205
1680014148369,1194136722720254,-0.084975,-0.06985,0.070125
1680014148370,1194136725222408,-0.0790625,-0.0719125,0.0661375
1680014148372,1194136727724562,-0.0790625,-0.0719125,0.0650375
1680014148374,1194136730227047,-0.077,-0.07095,0.0661375
1680014148377,1194136732729201,-0.07205,-0.067925,0.06215
1680014148380,1194136735231355,-0.07205,-0.062975,0.0600875
1680014148383,1194136737733740,-0.0699875,-0.05995,0.0570625
1680014148387,1194136740235893,-0.069025,-0.0548625,0.0561
1680014148388,1194136742738124,-0.0650375,-0.0449625,0.0540375
1680014148392,1194136745240509,-0.0620125,-0.0358875,0.053075
1680014148393,1194136747742740,-0.0570625,-0.02585,0.0490875
1680014148395,1194136750244893,-0.0559625,-0.018975,0.0521125
1680014148397,1194136752747292,-0.053075,-0.012925,0.050049998
1680014148400,1194136755249446,-0.047025,-0.007975,0.048125
1680014148402,1194136757751600,-0.0430375,-0.00495,0.0460625
1680014148404,1194136760254061,-0.0400125,1.375E-4,0.0471625
1680014148407,1194136762756215,-0.0350625,0.004125,0.0441375
1680014148411,1194136765258369,-0.031075,0.00715,0.0451
1680014148412,1194136767760600,-0.031075,0.0100375,0.0471625
1680014148414,1194136770262754,-0.0229625,0.014025,0.042075
1680014148418,1194136772765128,-0.0259875,0.0160875,0.042075
1680014148421,1194136775267359,-0.0259875,0.014025,0.0471625
1680014148425,1194136777769744,-0.0229625,0.020075,0.0451
1680014148428,1194136780271888,-0.022,0.0270875,0.0441375
1680014148429,1194136782774041,-0.022,0.0270875,0.048125
1680014148432,1194136785276272,-0.0180125,0.0270875,0.0430375
1680014148433,1194136787778426,-0.0149875,0.0331375,0.042075
1680014148435,1194136790280888,-0.013062499,0.037125,0.039049998
1680014148438,1194136792783041,-0.0119624995,0.04015,0.037125
1680014148440,1194136795285200,-0.014025,0.0490875,0.037125
1680014148443,1194136797787585,-0.0149875,0.05115,0.0320375
1680014148445,1194136800289816,-0.0149875,0.058025,0.026124999
1680014148447,1194136802791969,-0.0100375,0.0671,0.0240625
1680014148450,1194136805294142,-0.0100375,0.07205,0.0240625
1680014148452,1194136807796604,-0.007975,0.0760375,0.01705
1680014148456,1194136810298758,-0.00605,0.087037496,0.0160875
1680014148457,1194136812800912,-0.0050875,0.09405,0.013062499
1680014148463,1194136815303291,9.625E-4,0.102025,0.015125
1680014148466,1194136817804367,0.003025,0.114125,0.014162499
1680014148466,1194136820305446,0.0039875,0.1260875,0.014162499
1680014148468,1194136822810060,0.001925,0.13213749,0.015125
1680014148470,1194136825312291,0.003025,0.13805,0.0121
1680014148472,1194136827814450,0.0070125,0.1480875,0.014162499
1680014148475,1194136830316604,0.0059125,0.1530375,0.0121
1680014148477,1194136832818989,0.0039875,0.1590875,0.0081124995
1680014148481,1194136835321142,0.001925,0.163075,0.009075
1680014148482,1194136837823623,0.003025,0.1661,0.00605
1680014148486,1194136840325777,0.001925,0.1661,0.0020625
1680014148487,1194136842827931,-0.003025,0.17105,0.004125
1680014148491,1194136845330161,-0.00605,0.17407499,0.0011
1680014148493,1194136847832546,-0.0050875,0.17215,-9.625E-4
1680014148496,1194136850334700,-0.0119624995,0.163075,1.375E-4
1680014148503,1194136852836931,-0.013062499,0.1661,-0.001925
1680014148503,1194136855339315,-0.01705,0.1640375,-0.00385
1680014148505,1194136857841469,-0.020075,0.1560625,-0.00385
1680014148506,1194136860343623,-0.0210375,0.1511125,-0.001925
1680014148510,1194136862845854,-0.0229625,0.1450625,-0.001925
1680014148512,1194136865348238,-0.0229625,0.13213749,-0.0028875
1680014148513,1194136867850387,-0.029975,0.1211375,-9.625E-4
1680014148515,1194136870352618,-0.0350625,0.113025,0.0011
1680014148518,1194136872854772,-0.0369875,0.098037496,0.0031625
1680014148520,1194136875357157,-0.0400125,0.0881375,0.00715
1680014148522,1194136877859387,-0.042075,0.07205,0.009075
1680014148525,1194136880361551,-0.0460625,0.058025,0.009075
1680014148527,1194136882863936,-0.0490875,0.0430375,0.0100375
1680014148530,1194136885366090,-0.050049998,0.031075,0.0100375
1680014148533,1194136887868243,-0.0559625,0.01815,0.0121
1680014148537,1194136890370488,-0.0600875,0.004125,0.014162499
1680014148540,1194136892872873,-0.0600875,-0.006875,0.0160875
1680014148545,1194136895375104,-0.062975,-0.017875,0.0191125
1680014148545,1194136897877257,-0.0699875,-0.0309375,0.020075
1680014148546,1194136900379642,-0.0699875,-0.0389125,0.0191125
1680014148547,1194136902881796,-0.07205,-0.0499125,0.0191125
1680014148549,1194136905384027,-0.07205,-0.0548625,0.0210375
1680014148553,1194136907886181,-0.0760375,-0.061875,0.0221375
1680014148554,1194136910388565,-0.0779625,-0.067925,0.0231
1680014148558,1194136912890830,-0.084975,-0.0749375,0.0251625
1680014148560,1194136915392984,-0.087037496,-0.0768625,0.026124999
1680014148562,1194136917895368,-0.0919875,-0.0779625,0.0251625
1680014148565,1194136920397522,-0.097075,-0.08085,0.026124999
1680014148569,1194136922899724,-0.1010625,-0.0779625,0.02805
1680014148570,1194136925402109,-0.1029875,-0.083875,0.0270875
1680014148577,1194136927904263,-0.1060125,-0.083875,0.0270875
1680014148578,1194136930406478,-0.108075,-0.0779625,0.0270875
1680014148578,1194136932908632,-0.1139875,-0.0749375,0.0251625
1680014148580,1194136935411017,-0.11605,-0.0749375,0.026124999
1680014148584,1194136937913171,-0.1150875,-0.06985,0.0270875
1680014148585,1194136940415401,-0.117975,-0.0658625,0.026124999
1680014148587,1194136942917786,-0.117975,-0.062975,0.02915
1680014148590,1194136945419931,-0.119075,-0.064899996,0.0270875
1680014148592,1194136947922162,-0.117975,-0.0578875,0.0231
1680014148595,1194136950424316,-0.1219625,-0.0539,0.0270875
1680014148599,1194136952926700,-0.121,-0.0499125,0.0251625
1680014148603,1194136955428926,-0.121,-0.0429,0.026124999
1680014148603,1194136957931080,-0.1230625,-0.0389125,0.02805
1680014148605,1194136960433464,-0.1219625,-0.03795,0.0231
1680014148607,1194136962935618,-0.124025,-0.0358875,0.0240625
1680014148611,1194136965437767,-0.1230625,-0.0248875,0.02805
1680014148614,1194136967939998,-0.1249875,-0.018975,0.0231
1680014148618,1194136970442383,-0.1249875,-0.0138875,0.0231
1680014148621,1194136972944613,-0.1280125,-0.0108624995,0.026124999
1680014148621,1194136975446767,-0.1249875,-0.00495,0.026124999
1680014148624,1194136977949152,-0.1249875,-0.001925,0.0251625
1680014148626,1194136980451306,-0.1249875,0.003025,0.02915
1680014148627,1194136982953536,-0.124025,0.00715,0.026124999
1680014148632,1194136985455690,-0.121,0.0100375,0.02915
1680014148633,1194136987958065,-0.11605,0.0100375,0.0301125
1680014148637,1194136990460296,-0.113025,0.013062499,0.02915
1680014148638,1194136992962449,-0.1150875,0.013062499,0.026124999
1680014148640,1194136995464834,-0.1120625,0.014025,0.0270875
1680014148643,1194136997966969,-0.11,0.015125,0.026124999
1680014148646,1194137000469200,-0.108075,0.01815,0.026124999
1680014148649,1194137002971584,-0.10505,0.015125,0.020075
1680014148651,1194137005473738,-0.10505,0.014025,0.0210375
1680014148654,1194137007975955,-0.1040875,0.0121,0.020075
1680014148656,1194137010478109,-0.098037496,0.0100375,0.020075
1680014148657,1194137012980263,-0.0930875,0.00605,0.01705
1680014148661,1194137015482647,-0.0919875,0.0121,0.013062499
1680014148663,1194137017984878,-0.0889625,0.0100375,0.0121
1680014148665,1194137020487263,-0.0809875,0.003025,0.0100375
1680014148667,1194137022989417,-0.080025,0.003025,0.00715
1680014148670,1194137025491647,-0.0790625,-0.001925,0.00715
1680014148673,1194137027993801,-0.0730125,-9.625E-4,0.0050875
1680014148675,1194137030496200,-0.0699875,-0.001925,0.004125
1680014148677,1194137032998354,-0.0650375,-0.00385,0.0011
1680014148680,1194137035500584,-0.0600875,-0.0059125,-9.625E-4
1680014148683,1194137038002969,-0.0559625,-0.007975,-0.0028875
1680014148687,1194137040505133,-0.051975,-0.007975,-0.0059125
1680014148688,1194137043007364,-0.0479875,-0.0099,-0.0059125
1680014148692,1194137045509518,-0.044,-0.0138875,-0.0089375
1680014148693,1194137048011902,-0.044,-0.018975,-0.0099
1680014148695,1194137050514133,-0.039049998,-0.0209,-0.0089375
1680014148697,1194137053016301,-0.0350625,-0.0248875,-0.0119624995
1680014148702,1194137055518685,-0.031075,-0.02695,-0.0119624995
1680014148703,1194137058020839,-0.0270875,-0.0339625,-0.012925
1680014148705,1194137060522993,-0.0240625,-0.034925,-0.0119624995
1680014148707,1194137063025224,-0.0210375,-0.034925,-0.0169125
1680014148710,1194137065527609,-0.0160875,-0.0389125,-0.01485
1680014148712,1194137068029839,-0.011,-0.0389125,-0.0188375
1680014148715,1194137070531993,-0.007975,-0.0438625,-0.0209
1680014148718,1194137073034373,-0.0,-0.045925,-0.0229625
1680014148721,1194137075536527,0.003025,-0.04895,-0.0229625
1680014148725,1194137078038757,0.001925,-0.047849998,-0.0218625
1680014148727,1194137080541142,0.0039875,-0.0499125,-0.0218625
1680014148728,1194137083043282,0.0059125,-0.04895,-0.0229625
1680014148732,1194137085545513,0.0100375,-0.0449625,-0.028875
1680014148733,1194137088047666,0.0100375,-0.04895,-0.0279125
1680014148735,1194137090549820,0.0089375,-0.045925,-0.02585
1680014148737,1194137093052205,0.0119624995,-0.0468875,-0.02695
1680014148742,1194137095554455,0.012925,-0.0429,-0.02695
1680014148743,1194137098056839,0.014025,-0.03795,-0.02585
1680014148745,1194137100558993,0.01595,-0.0389125,-0.023924999
1680014148747,1194137103061224,0.0210375,-0.0358875,-0.0248875
1680014148751,1194137105563378,0.0199375,-0.0309375,-0.023924999
1680014148753,1194137108065546,0.0210375,-0.0328625,-0.0218625
1680014148755,1194137110567930,0.022,-0.0309375,-0.0209
1680014148758,1194137113070161,0.0199375,-0.028875,-0.0169125
1680014148763,1194137115572546,0.0180125,-0.0298375,-0.0119624995
1680014148764,1194137118074716,0.0180125,-0.028875,-0.0119624995
1680014148766,1194137120576946,0.01595,-0.0339625,-0.0099
1680014148768,1194137123079100,0.012925,-0.036849998,-0.0078375
1680014148771,1194137125581485,0.014025,-0.0339625,-0.0059125
1680014148773,1194137128083716,0.012925,-0.036849998,-0.00385
1680014148775,1194137130585869,0.0119624995,-0.0408375,-9.625E-4
1680014148777,1194137133088254,0.0070125,-0.0438625,0.0011
1680014148782,1194137135590408,0.0039875,-0.0449625,0.0031625
1680014148784,1194137138092567,0.0070125,-0.0408375,0.00605
1680014148785,1194137140594798,0.007975,-0.0438625,0.0081124995
1680014148788,1194137143097182,0.00605,-0.0468875,0.0111375
1680014148793,1194137145599413,0.0070125,-0.045925,0.0121
1680014148794,1194137148101567,0.0070125,-0.0389125,0.0100375
1680014148796,1194137150603955,0.011,-0.0408375,0.013062499
1680014148801,1194137153106109,0.0119624995,-0.0389125,0.013062499
1680014148801,1194137155608263,0.01595,-0.0339625,0.0111375
1680014148804,1194137158110744,0.018975,-0.028875,0.0111375
1680014148805,1194137160612897,0.0229625,-0.0218625,0.0100375
1680014148808,1194137163115128,0.02695,-0.0188375,0.00715
1680014148813,1194137165617282,0.029975,-0.0169125,0.0081124995
1680014148818,1194137168119695,0.0369875,-0.0108624995,0.00605
1680014148818,1194137170621849,0.0419375,-0.0099,0.0050875
1680014148818,1194137173124079,0.0449625,-0.0059125,0.004125
1680014148824,1194137175626464,0.0529375,-9.625E-4,0.0011
1680014148824,1194137178128609,0.0559625,0.0050875,1.375E-4
1680014148826,1194137180630840,0.0620125,0.0081124995,-9.625E-4
1680014148828,1194137183132993,0.067925,0.0111375,-0.00495
1680014148833,1194137185635147,0.073975,0.0081124995,-0.00495
1680014148834,1194137188137532,0.080025,0.0081124995,-0.0059125
1680014148837,1194137190639739,0.08305,0.0011,-0.00495
1680014148839,1194137193142123,0.091025,0.0020625,-0.0028875
1680014148841,1194137195644277,0.095975,-0.00385,-0.00385
1680014148843,1194137198146508,0.106975,-0.0099,-0.0028875
1680014148845,1194137200648662,0.113025,-0.01595,-0.001925
1680014148847,1194137203150807,0.1189375,-0.023924999,-0.001925
1680014148851,1194137205653268,0.12705,-0.0309375,-9.625E-4
1680014148853,1194137208155422,0.1299375,-0.0389125,-9.625E-4
1680014148856,1194137210657807,0.1329625,-0.0529375,1.375E-4
1680014148857,1194137213159942,0.14093749,-0.0628375,-0.001925
1680014148862,1194137215662095,0.146025,-0.0738375,-9.625E-4
1680014148864,1194137218164326,0.14905,-0.083875,-0.00385
1680014148866,1194137220666711,0.14795,-0.0908875,-9.625E-4
1680014148869,1194137223168927,0.150975,-0.0979,1.375E-4
1680014148872,1194137225671080,0.1530375,-0.10285,-9.625E-4
1680014148875,1194137228173465,0.1549625,-0.108899996,0.0050875
1680014148876,1194137230675619,0.155925,-0.1049125,0.00715
1680014148878,1194137233177773,0.161975,-0.1159125,0.0081124995
1680014148880,1194137235680239,0.16499999,-0.11385,0.0100375
1680014148882,1194137238182393,0.1659625,-0.11495,0.0160875
1680014148885,1194137240684624,0.17105,-0.11495,0.020075
1680014148888,1194137243186778,0.1720125,-0.116875,0.0240625
1680014148891,1194137245688937,0.176,-0.1208625,0.0251625
1680014148893,1194137248191321,0.18095,-0.1199,0.0270875
1680014148895,1194137250693552,0.18205,-0.12595,0.02805
1680014148898,1194137253195937,0.18205,-0.1269125,0.0320375
1680014148902,1194137255698080,0.1830125,-0.127875,0.0430375
1680014148904,1194137258200234,0.1860375,-0.1318625,0.0441375
1680014148905,1194137260702465,0.18493749,-0.13585,0.050049998
1680014148908,1194137263204850,0.183975,-0.1458875,0.0540375
1680014148913,1194137265707014,0.18205,-0.14685,0.0581625
1680014148914,1194137268209244,0.177925,-0.14685,0.061049998
1680014148918,1194137270711398,0.17105,-0.14685,0.0671
1680014148919,1194137273213783,0.1659625,-0.1508375,0.07205
1680014148921,1194137275715937,0.157025,-0.1519375,0.0760375
1680014148923,1194137278218398,0.14905,-0.1529,0.08305
1680014148925,1194137280720552,0.1420375,-0.1519375,0.087037496
1680014148928,1194137283222783,0.135025,-0.1508375,0.0911625
1680014148932,1194137285724937,0.122925,-0.1489125,0.097075
1680014148933,1194137288227091,0.113025,-0.1348875,0.103125
1680014148936,1194137290729469,0.1060125,-0.1318625,0.108075
1680014148939,1194137293231700,0.095975,-0.1269125,0.1101375
1680014148945,1194137295733868,0.0889625,-0.1219625,0.1120625
1680014148946,1194137298236252,0.0840125,-0.1199,0.114125
1680014148947,1194137300738483,0.0779625,-0.11385,0.1150875
1680014148952,1194137303240637,0.0699875,-0.108899996,0.11605
1680014148953,1194137305742791,0.0559625,-0.1018875,0.120037496
1680014148954,1194137308245252,0.047025,-0.0939125,0.120037496
1680014148956,1194137310747387,0.039049998,-0.0878625,0.11715
1680014148958,1194137313249541,0.0320375,-0.078925,0.122099996
1680014148963,1194137315751926,0.023924999,-0.0669625,0.122099996
1680014148963,1194137318254080,0.01705,-0.0578875,0.11605
1680014148965,1194137320756300,0.0089375,-0.0468875,0.119075
1680014148969,1194137323258685,0.001925,-0.0328625,0.119075
1680014148972,1194137325760839,-0.00605,-0.0248875,0.120037496
1680014148973,1194137328263070,-0.0100375,-0.0169125,0.11715
1680014148975,1194137330765459,-0.01705,-0.006875,0.1150875
1680014148978,1194137333267613,-0.020075,0.0011,0.1120625
1680014148984,1194137335769767,-0.02695,0.013062499,0.1120625
1680014148985,1194137338271998,-0.031075,0.0160875,0.1101375
1680014148988,1194137340774372,-0.029975,0.0231,0.108075
1680014148989,1194137343276526,-0.031075,0.0361625,0.1071125
1680014148992,1194137345778757,-0.031075,0.039049998,0.108075
1680014148994,1194137348280911,-0.0320375,0.0451,0.10615
1680014148995,1194137350783295,-0.0320375,0.0490875,0.1071125
1680014148998,1194137353285473,-0.033,0.053075,0.1071125
1680014149002,1194137355787935,-0.03795,0.0561,0.10615
1680014149003,1194137358290089,-0.033,0.0600875,0.1040875
1680014149006,1194137360792243,-0.0369875,0.061049998,0.10615
1680014149008,1194137363294483,-0.036025,0.061049998,0.103125
1680014149012,1194137365796637,-0.036025,0.064075,0.100099996
1680014149013,1194137368299022,-0.03795,0.061049998,0.097075
1680014149018,1194137370801253,-0.036025,0.0581625,0.0991375
1680014149019,1194137373303411,-0.0350625,0.0600875,0.098037496
1680014149022,1194137375805796,-0.036025,0.053075,0.09515
1680014149028,1194137378307950,-0.031075,0.0490875,0.097075
1680014149030,1194137380810080,-0.031075,0.0490875,0.09405
1680014149031,1194137383312311,-0.0350625,0.0411125,0.0911625
1680014149032,1194137385814772,-0.031075,0.0331375,0.086075
1680014149034,1194137388316926,-0.031075,0.020075,0.081125
1680014149035,1194137390819080,-0.031075,0.013062499,0.0760375
1680014149038,1194137393321464,-0.033,0.0031625,0.07315
1680014149042,1194137395823613,-0.0290125,-0.0089375,0.0691625
1680014149043,1194137398325844,-0.0290125,-0.01485,0.0661375
1680014149046,1194137400828229,-0.0320375,-0.0199375,0.064075
1680014149048,1194137403330459,-0.033,-0.0218625,0.061049998
1680014149053,1194137405832622,-0.0350625,-0.028875,0.064075
1680014149053,1194137408335007,-0.031075,-0.028875,0.0650375
1680014149056,1194137410837161,-0.02805,-0.0248875,0.0671
1680014149058,1194137413339315,-0.02805,-0.0279125,0.0650375
1680014149064,1194137415841550,-0.029975,-0.017875,0.070125
1680014149065,1194137420843935,-0.029975,-0.0169125,0.07315
1680014149067,1194137421003627,-0.02695,-0.012925,0.07315
1680014149069,1194137423348320,-0.0240625,-0.0089375,0.0741125
1680014149072,1194137425850474,-0.0259875,-0.00385,0.07315
1680014149073,1194137428352627,-0.02695,-9.625E-4,0.070125
1680014149075,1194137430855027,-0.02805,0.0031625,0.0691625
1680014149078,1194137433357489,-0.0240625,0.0111375,0.070125
1680014149082,1194137435859642,-0.022,0.014162499,0.0691625
1680014149083,1194137438361796,-0.0180125,0.01815,0.064075
1680014149086,1194137440864008,-0.0149875,0.0231,0.0600875
1680014149089,1194137443366162,-0.014025,0.0240625,0.0561
1680014149092,1194137445868546,-0.011,0.0270875,0.0540375
1680014149093,1194137448370777,-0.0100375,0.031075,0.050049998
1680014149095,1194137450872931,-0.007975,0.031075,0.0441375
1680014149102,1194137453375306,-0.00605,0.0350625,0.04015
1680014149103,1194137455877460,-9.625E-4,0.039049998,0.0341
1680014149105,1194137458379613,-0.0,0.0380875,0.031075
1680014149106,1194137460881834,0.001925,0.0350625,0.0301125
1680014149108,1194137463384296,0.007975,0.0350625,0.02805
1680014149111,1194137465886450,0.007975,0.0320375,0.020075
1680014149113,1194137468388603,0.0070125,0.02805,0.01705
1680014149115,1194137470890988,0.00605,0.0251625,0.0111375
1680014149119,1194137473393137,0.00495,0.0210375,0.0081124995
1680014149122,1194137475895291,0.007975,0.014162499,0.004125
1680014149123,1194137478397522,0.0089375,0.00605,0.0031625
1680014149125,1194137480899906,0.0070125,-0.0028875,-9.625E-4
1680014149127,1194137483402137,0.011,-0.0089375,-0.00385
1680014149131,1194137485904311,0.0100375,-0.0138875,-0.006875
1680014149133,1194137488406695,0.0070125,-0.0199375,-0.0099
1680014149137,1194137490908849,0.00605,-0.0279125,-0.01595
1680014149138,1194137493411084,0.007975,-0.03795,-0.01595
1680014149142,1194137495913469,0.00495,-0.0389125,-0.0099
1680014149144,1194137498415623,0.0039875,-0.0438625,-0.0099
1680014149146,1194137500917853,0.003025,-0.0548625,-0.0108624995
1680014149149,1194137503420007,0.00605,-0.0669625,-0.0099
1680014149152,1194137505922142,0.007975,-0.0759,-0.012925
1680014149153,1194137508424527,0.0070125,-0.089925,-0.017875
1680014149156,1194137510926757,0.0070125,-0.095837496,-0.017875
1680014149158,1194137513429142,0.0100375,-0.10285,-0.0199375
1680014149162,1194137515931291,0.0100375,-0.1109625,-0.01595
1680014149164,1194137518433522,0.007975,-0.1128875,-0.01485
1680014149171,1194137520935676,0.0089375,-0.1128875,-0.01485
1680014149171,1194137523437829,0.0089375,-0.1159125,-0.01595
1680014149171,1194137525940291,0.012925,-0.117837496,-0.0119624995
1680014149175,1194137528442417,0.012925,-0.117837496,-0.012925
1680014149176,1194137530944801,0.012925,-0.1199,-0.01595
1680014149178,1194137533446955,0.014025,-0.1238875,-0.01485
1680014149182,1194137535949186,0.01705,-0.1208625,-0.01485
1680014149183,1194137538451340,0.018975,-0.1189375,-0.01485
1680014149186,1194137540953825,0.022,-0.11495,-0.012925
1680014149188,1194137543455979,0.022,-0.111925,-0.012925
1680014149192,1194137545958133,0.02695,-0.1109625,-0.012925
1680014149193,1194137548460518,0.02805,-0.1079375,-0.012925
1680014149197,1194137550962643,0.0320375,-0.10285,-0.0108624995
1680014149201,1194137553464796,0.034925,-0.1018875,-0.0108624995
1680014149202,1194137555967027,0.036025,-0.0999625,-0.0099
1680014149203,1194137558469412,0.0339625,-0.095837496,-0.0108624995
1680014149206,1194137560971643,0.036025,-0.09185,-0.0078375
1680014149208,1194137563473829,0.036025,-0.0878625,-0.0078375
1680014149213,1194137565976214,0.034925,-0.09185,-0.0078375
1680014149216,1194137568478368,0.0339625,-0.0878625,-0.0089375
1680014149217,1194137570980599,0.0339625,-0.0848375,-0.0059125
1680014149218,1194137573482974,0.0320375,-0.0848375,-0.00495
1680014149224,1194137575985128,0.025024999,-0.0829125,-0.00385
1680014149224,1194137578487359,0.0229625,-0.0848375,1.375E-4
1680014149225,1194137580989513,0.018975,-0.0878625,-0.001925
1680014149228,1194137583491667,0.012925,-0.09185,-0.001925
1680014149232,1194137585994017,0.0089375,-0.094875,1.375E-4
1680014149233,1194137588496248,0.00495,-0.0939125,0.004125
1680014149236,1194137590998633,0.001925,-0.095837496,0.0050875
1680014149238,1194137593500787,-0.0039875,-0.0988625,0.0031625
1680014149241,1194137596003007,-0.009075,-0.0979,0.00605
1680014149243,1194137598505161,-0.01595,-0.0979,0.0111375
1680014149245,1194137601007315,-0.018975,-0.1018875,0.01705
1680014149250,1194137603509777,-0.0259875,-0.1109625,0.015125
1680014149252,1194137606011925,-0.025024999,-0.1128875,0.0111375
1680014149254,1194137608514310,-0.031075,-0.1109625,0.014162499
1680014149256,1194137611016464,-0.036025,-0.111925,0.013062499
1680014149259,1194137613518618,-0.0400125,-0.1128875,0.0111375
1680014149262,1194137616020864,-0.047025,-0.1109625,0.0121
1680014149263,1194137618523248,-0.050049998,-0.106975,0.0121
1680014149268,1194137621025479,-0.055,-0.10285,0.013062499
1680014149269,1194137623527633,-0.0620125,-0.0969375,0.0111375
1680014149272,1194137626030017,-0.0650375,-0.0969375,0.0121
1680014149273,1194137628532185,-0.069025,-0.09185,0.0111375
1680014149276,1194137631034339,-0.07205,-0.0878625,0.0111375
1680014149278,1194137633536570,-0.0790625,-0.0859375,0.0100375
1680014149281,1194137636038954,-0.0790625,-0.0779625,0.0111375
1680014149283,1194137638541124,-0.08305,-0.073975,0.0100375
1680014149287,1194137641043278,-0.084975,-0.067925,0.0100375
1680014149289,1194137643545509,-0.088,-0.0639375,0.009075
1680014149291,1194137646047971,-0.091025,-0.056925,0.0081124995
1680014149294,1194137648550114,-0.0891,-0.047849998,0.00605
1680014149297,1194137651052268,-0.0900625,-0.0429,0.004125
1680014149298,1194137653554653,-0.0930875,-0.040975,0.00605
1680014149303,1194137656056807,-0.0891,-0.0328625,0.0031625
1680014149304,1194137658558961,-0.088,-0.0309375,1.375E-4
1680014149306,1194137661061422,-0.084975,-0.0279125,-9.625E-4
1680014149308,1194137663563576,-0.080025,-0.0248875,-9.625E-4
1680014149312,1194137666065807,-0.075075,-0.0199375,-0.001925
1680014149313,1194137668567961,-0.0730125,-0.018975,-0.001925
1680014149316,1194137671070345,-0.07205,-0.0138875,1.375E-4
1680014149318,1194137673572499,-0.0680625,-0.0108624995,-0.0028875
1680014149321,1194137676074961,-0.064075,-0.0089375,-0.0059125
1680014149325,1194137678577114,-0.0600875,-0.0108624995,-0.00495
1680014149326,1194137681079282,-0.0589875,-0.006875,-0.00495
1680014149328,1194137683581513,-0.058025,-0.00385,-0.0059125
1680014149332,1194137686083667,-0.0561,-0.001925,-0.006875
1680014149333,1194137688585821,-0.051975,-0.0028875,-0.0078375
1680014149336,1194137691088282,-0.047025,-0.001925,-0.0089375
1680014149338,1194137693590441,-0.042075,-0.001925,-0.0099
1680014149342,1194137696092595,-0.0430375,1.375E-4,-0.0099
1680014149344,1194137698594980,-0.0400125,0.0050875,-0.0108624995
1680014149346,1194137701097210,-0.0400125,0.004125,-0.0119624995
1680014149348,1194137703599374,-0.0380875,0.003025,-0.012925
1680014149352,1194137706101528,-0.0350625,1.375E-4,-0.0108624995
1680014149353,1194137708603990,-0.036025,0.0011,-0.0119624995
1680014149356,1194137711106144,-0.033,-9.625E-4,-0.012925
1680014149358,1194137713608518,-0.02805,-0.00495,-0.012925
1680014149365,1194137716110672,-0.0290125,-0.0089375,-0.0099
1680014149365,1194137718612826,-0.0270875,-0.0089375,-0.0119624995
1680014149366,1194137721115057,-0.022,-0.0119624995,-0.0099
1680014149368,1194137723617446,-0.020075,-0.012925,-0.00495
1680014149372,1194137726119677,-0.0160875,-0.0169125,-0.0059125
1680014149373,1194137728621831,-0.01705,-0.017875,-0.0089375
1680014149375,1194137731124215,-0.01705,-0.023924999,-0.0028875
1680014149379,1194137733626359,-0.013062499,-0.02585,-0.0028875
1680014149384,1194137736128513,-0.0121,-0.0248875,-0.001925
1680014149385,1194137738630975,-0.011,-0.02695,-0.006875
1680014149386,1194137741133129,-0.0121,-0.02585,-0.0028875
1680014149389,1194137743635311,-0.007975,-0.0309375,-0.00385
1680014149392,1194137746137542,-0.003025,-0.02695,-0.001925
1680014149393,1194137748639696,-0.0,-0.028875,-9.625E-4
1680014149396,1194137751142081,0.0039875,-0.0339625,-9.625E-4
1680014149400,1194137753644330,0.0070125,-0.029975,1.375E-4
1680014149402,1194137756146484,0.0089375,-0.0279125,-0.001925
1680014149404,1194137758648869,0.007975,-0.02695,-0.0028875
1680014149406,1194137761151100,0.011,-0.02695,-0.00385
1680014149408,1194137763653254,0.014025,-0.0309375,-0.001925
1680014149412,1194137766155402,0.01595,-0.0309375,0.0011
1680014149413,1194137768657864,0.0169125,-0.0279125,0.0031625
1680014149415,1194137771160018,0.0180125,-0.0319,0.004125
1680014149418,1194137773662172,0.0180125,-0.0339625,0.0020625
1680014149422,1194137776164556,0.022,-0.0319,0.00605
1680014149423,1194137778666710,0.0209,-0.02585,0.0050875
1680014149425,1194137781168941,0.0209,-0.0279125,0.0081124995
1680014149428,1194137783671095,0.022,-0.02585,0.009075
1680014149431,1194137786173556,0.018975,-0.029975,0.0121
1680014149435,1194137788675701,0.018975,-0.029975,0.0121
1680014149437,1194137791178086,0.01595,-0.0309375,0.013062499
1680014149438,1194137793680240,0.014025,-0.0358875,0.013062499
1680014149442,1194137796182393,0.0119624995,-0.03795,0.0160875
1680014149443,1194137798684619,0.011,-0.03795,0.015125
1680014149445,1194137801187004,0.012925,-0.0429,0.01705
1680014149448,1194137803689158,0.0089375,-0.0438625,0.0221375
1680014149451,1194137806191388,0.0089375,-0.047849998,0.020075
1680014149453,1194137808693542,0.0089375,-0.047849998,0.0221375
1680014149455,1194137811195921,0.0099,-0.050875,0.0221375
1680014149459,1194137813698075,0.0089375,-0.0578875,0.0210375
1680014149463,1194137816200536,0.007975,-0.056925,0.0210375
1680014149466,1194137818702700,0.007975,-0.05995,0.0210375
1680014149466,1194137821204854,0.0089375,-0.0639375,0.0210375
1680014149470,1194137823707085,0.00495,-0.0639375,0.0210375
1680014149472,1194137826209239,0.003025,-0.062975,0.0210375
1680014149475,1194137828711623,0.003025,-0.062975,0.0191125
1680014149476,1194137831213863,0.003025,-0.0669625,0.0160875
1680014149478,1194137833716017,0.0059125,-0.062975,0.01705
1680014149482,1194137836218402,9.625E-4,-0.0609125,0.015125
1680014149483,1194137838720632,-0.0,-0.062975,0.0121
1680014149486,1194137841222777,0.003025,-0.061875,0.0111375
1680014149488,1194137843724931,0.003025,-0.061875,0.0100375
1680014149492,1194137846227393,-0.0,-0.062975,0.00715
1680014149494,1194137848729546,-0.003025,-0.061875,0.004125
1680014149496,1194137851231700,-0.0011,-0.062975,0.0031625
1680014149498,1194137853734080,9.625E-4,-0.0639375,-9.625E-4
1680014149503,1194137856236234,0.001925,-0.0658625,-0.00385
1680014149504,1194137858738388,0.001925,-0.0669625,-9.625E-4
1680014149506,1194137861240618,9.625E-4,-0.06985,-0.00495
1680014149508,1194137863743003,0.0039875,-0.0688875,-0.0108624995
1680014149513,1194137866245234,0.0039875,-0.0719125,-0.0099
1680014149515,1194137868747388,0.001925,-0.0749375,-0.0099
1680014149518,1194137871249762,0.0059125,-0.0759,-0.0108624995
1680014149519,1194137873751916,0.0059125,-0.0779625,-0.01485
1680014149526,1194137876254147,0.007975,-0.0798875,-0.012925
1680014149526,1194137878756532,0.011,-0.08195,-0.012925
1680014149527,1194137881258685,0.0119624995,-0.083875,-0.0199375
1680014149530,1194137883760916,0.012925,-0.083875,-0.0209
1680014149532,1194137886263070,0.01595,-0.086899996,-0.0199375
1680014149534,1194137888765224,0.018975,-0.0859375,-0.0218625
1680014149536,1194137891267608,0.018975,-0.0878625,-0.02585
1680014149539,1194137893769844,0.0180125,-0.0939125,-0.02695
1680014149545,1194137896272229,0.0209,-0.0939125,-0.02585
1680014149547,1194137898774383,0.0199375,-0.09185,-0.0279125
1680014149550,1194137901276623,0.022,-0.09295,-0.0248875
1680014149552,1194137903778777,0.0199375,-0.0878625,-0.02695
1680014149553,1194137906280931,0.0180125,-0.0908875,-0.0248875
1680014149554,1194137908783393,0.0199375,-0.0878625,-0.0229625
1680014149556,1194137911285547,0.018975,-0.0768625,-0.0218625
1680014149558,1194137913787931,0.0169125,-0.0609125,-0.0229625
1680014149561,1194137916290051,0.01595,-0.073975,-0.0218625
1680014149563,1194137918792205,0.014025,-0.08085,-0.0199375
1680014149566,1194137921294436,0.0119624995,-0.0759,-0.0199375
1680014149568,1194137923796820,0.012925,-0.0669625,-0.017875
1680014149571,1194137926299051,0.0119624995,-0.0639375,-0.0169125
1680014149573,1194137928801200,0.0119624995,-0.0578875,-0.01595
1680014149577,1194137931303585,0.0119624995,-0.051975,-0.012925
1680014149580,1194137933805738,0.011,-0.051975,-0.0119624995
1680014149586,1194137936307892,0.007975,-0.051975,-0.0099
1680014149589,1194137938810123,0.0089375,-0.0389125,-0.0108624995
1680014149589,1194137941312508,0.00495,-0.0328625,-0.0099
1680014149591,1194137943814738,0.0059125,-0.0319,-0.00495
1680014149594,1194137946315825,0.0059125,-0.0248875,-0.006875
1680014149594,1194137948816902,0.003025,-0.018975,-0.00385
1680014149596,1194137951321441,0.003025,-0.0169125,-0.00385
1680014149600,1194137953823672,-0.0,-0.0138875,-0.0059125
1680014149602,1194137956326056,-0.0011,-0.007975,-0.00495
1680014149604,1194137958828210,-0.0011,-0.001925,-0.0028875
1680014149606,1194137961330441,-0.0039875,1.375E-4,-0.001925
1680014149609,1194137963832595,-0.007975,0.0020625,-0.0028875
1680014149611,1194137966334748,-0.009075,0.0081124995,1.375E-4
1680014149613,1194137968837133,-0.0121,0.0050875,-9.625E-4
1680014149616,1194137971339378,-0.0121,0.0050875,-0.0028875
1680014149618,1194137973841532,-0.013062499,0.0081124995,-0.001925
1680014149622,1194137976343916,-0.0149875,0.0100375,-9.625E-4
1680014149625,1194137978846147,-0.0180125,0.0100375,-0.0028875
1680014149628,1194137981348311,-0.0210375,0.0050875,-0.001925
1680014149629,1194137983850465,-0.0210375,0.00715,-9.625E-4
1680014149632,1194137986352926,-0.0231,0.0100375,1.375E-4
1680014149634,1194137988855080,-0.0240625,0.00605,0.0011
1680014149636,1194137991357465,-0.0240625,-9.625E-4,-9.625E-4
1680014149638,1194137993859639,-0.0259875,0.003025,-9.625E-4
1680014149642,1194137996361793,-0.0290125,0.004125,0.0011
1680014149643,1194137998864023,-0.0259875,0.0020625,0.0031625
1680014149646,1194138001366177,-0.025024999,0.0011,-9.625E-4
1680014149648,1194138003868547,-0.0270875,1.375E-4,0.0020625
1680014149652,1194138006370778,-0.0231,-0.00495,0.0020625
1680014149654,1194138008873162,-0.0240625,-0.006875,0.0020625
1680014149656,1194138011375311,-0.0231,-0.007975,-9.625E-4
1680014149659,1194138013877465,-0.0210375,-0.006875,0.0011
1680014149664,1194138016379696,-0.0210375,-0.0119624995,0.0020625
1680014149666,1194138021382080,-0.0210375,-0.01595,-0.0028875
1680014149668,1194138021496850,-0.020075,-0.0108624995,-0.0078375
1680014149670,1194138023886465,-0.0180125,-0.01485,-0.00385
1680014149673,1194138026388619,-0.0149875,-0.023924999,-0.0028875
1680014149677,1194138028891003,-0.01705,-0.023924999,-0.0059125
1680014149677,1194138031393234,-0.014025,-0.018975,-0.0059125
1680014149678,1194138033895624,-0.009075,-0.0218625,-0.006875
1680014149681,1194138036397778,-0.009075,-0.023924999,-0.0078375
1680014149685,1194138038899932,-0.0070125,-0.0279125,-0.006875
1680014149686,1194138041402162,-0.003025,-0.028875,-0.0089375
1680014149689,1194138043904561,0.001925,-0.0309375,-0.0089375
1680014149692,1194138046406715,0.0070125,-0.0279125,-0.0089375
1680014149693,1194138048908946,0.007975,-0.0319,-0.0099
1680014149696,1194138051411099,0.014025,-0.034925,-0.01485
1680014149701,1194138053913484,0.012925,-0.029975,-0.01595
1680014149704,1194138056415638,0.01595,-0.0319,-0.01485
1680014149705,1194138058917869,0.0169125,-0.029975,-0.0169125
1680014149707,1194138061420253,0.0199375,-0.0319,-0.0169125
1680014149710,1194138063922407,0.0199375,-0.0339625,-0.0188375
1680014149713,1194138066424571,0.018975,-0.036849998,-0.0218625
1680014149714,1194138068926802,0.022,-0.03795,-0.023924999
1680014149718,1194138071429186,0.023924999,-0.0328625,-0.0229625
1680014149719,1194138073931417,0.025024999,-0.0328625,-0.0248875
1680014149724,1194138076433576,0.02695,-0.0319,-0.0248875
1680014149724,1194138078935961,0.0290125,-0.0328625,-0.0279125
1680014149726,1194138081438114,0.0319,-0.02695,-0.0279125
1680014149729,1194138083940268,0.0319,-0.02585,-0.028875
1680014149732,1194138086442518,0.0339625,-0.0248875,-0.0328625
1680014149733,1194138088944672,0.033,-0.0218625,-0.0328625
1680014149738,1194138091447133,0.0279125,-0.018975,-0.0298375
1680014149739,1194138093949287,0.02695,-0.02695,-0.0319
1680014149743,1194138096451691,0.02695,-0.02585,-0.0319
1680014149745,1194138098953845,0.033,-0.028875,-0.0298375
1680014149746,1194138101456076,0.034925,-0.0328625,-0.0279125
1680014149749,1194138103958229,0.033,-0.0309375,-0.02585
1680014149751,1194138106460614,0.0350625,-0.0319,-0.0279125
1680014149753,1194138108962850,0.033,-0.036849998,-0.0279125
1680014149756,1194138111465004,0.0369875,-0.03795,-0.023924999
1680014149759,1194138113967158,0.033,-0.0438625,-0.0209
1680014149761,1194138116469542,0.0339625,-0.0419375,-0.017875
1680014149764,1194138118971696,0.0350625,-0.047849998,-0.012925
1680014149766,1194138121474144,0.033,-0.0419375,-0.006875
1680014149769,1194138123976297,0.0290125,-0.0328625,-9.625E-4
1680014149772,1194138126478528,0.0290125,-0.036849998,0.00605
1680014149775,1194138128980682,0.0259875,-0.0429,0.0100375
1680014149777,1194138131482836,0.0240625,-0.0468875,0.01705
1680014149779,1194138133985221,0.0229625,-0.047849998,0.0210375
1680014149782,1194138136487451,0.0210375,-0.0449625,0.0160875
1680014149785,1194138138989836,0.01705,-0.0419375,0.01705
1680014149786,1194138141491966,0.01705,-0.0419375,0.014162499
1680014149791,1194138143994197,0.0119624995,-0.0389125,0.0121
1680014149799,1194138146496350,0.009075,-0.03795,0.0121
1680014149799,1194138148998735,0.007975,-0.0279125,0.0100375
1680014149799,1194138151500889,0.0070125,-0.0169125,0.0121
1680014149799,1194138154003129,0.0039875,-0.01485,0.015125
1680014149801,1194138156505513,9.625E-4,-0.0108624995,0.0191125
1680014149803,1194138159007667,-9.625E-4,-0.001925,0.0191125
1680014149806,1194138161509821,-9.625E-4,0.004125,0.0210375
1680014149808,1194138164012038,-0.0039875,0.013062499,0.0240625
1680014149813,1194138166514192,-0.0070125,0.0191125,0.0251625
1680014149814,1194138169016653,-0.00495,0.020075,0.0240625
1680014149816,1194138171518807,-0.00495,0.0251625,0.0231
1680014149818,1194138174020961,-0.0070125,0.0270875,0.0240625
1680014149822,1194138176523335,-0.00605,0.0270875,0.0231
1680014149823,1194138179025489,-0.00605,0.02805,0.0210375
1680014149826,1194138181527720,-0.00495,0.0301125,0.0221375
1680014149829,1194138184030110,-0.007975,0.02915,0.0221375
1680014149831,1194138186532340,-0.0089375,0.02915,0.0221375
1680014149833,1194138189034494,-0.007975,0.0221375,0.0240625
1680014149836,1194138191536648,-0.0100375,0.0240625,0.0221375
1680014149838,1194138194039033,-0.011,0.0210375,0.015125
1680014149841,1194138196541187,-0.014025,0.020075,0.020075
1680014149843,1194138199043417,-0.012925,0.0160875,0.0221375
1680014149846,1194138201545802,-0.0119624995,0.014162499,0.01705
1680014149850,1194138204048018,-0.011,0.0121,0.0191125
1680014149853,1194138206550172,-0.0100375,0.00605,0.015125
1680014149854,1194138209052326,-0.0100375,0.0011,0.0121
1680014149856,1194138211554710,-0.0089375,-0.0059125,0.0100375
1680014149859,1194138214056941,-0.0070125,-0.0119624995,0.00605
1680014149862,1194138216559326,-0.00495,-0.0138875,0.0050875
1680014149863,1194138219061479,-0.003025,-0.0188375,0.0050875
1680014149866,1194138221563633,0.0,-0.023924999,1.375E-4
1680014149870,1194138224065864,-9.625E-4,-0.028875,-0.0028875
1680014149872,1194138226568004,-9.625E-4,-0.0309375,-0.00495
1680014149873,1194138229070158,-9.625E-4,-0.034925,-0.0059125
1680014149876,1194138231572619,0.0,-0.0389125,-0.0089375
1680014149879,1194138234075004,0.003025,-0.03795,-0.0119624995
1680014149881,1194138236577158,0.0039875,-0.036849998,-0.01595
1680014149885,1194138239079312,0.0039875,-0.0408375,-0.01595
1680014149888,1194138241581542,0.0020625,-0.036849998,-0.0169125
1680014149890,1194138244083696,0.0020625,-0.036849998,-0.0209
1680014149892,1194138246586081,0.0020625,-0.034925,-0.0229625
1680014149894,1194138249088312,0.00495,-0.0358875,-0.0248875
1680014149896,1194138251590465,0.00605,-0.036849998,-0.0279125
1680014149900,1194138254092850,0.0039875,-0.036849998,-0.0328625
1680014149902,1194138256595004,0.00605,-0.0358875,-0.0339625
1680014149904,1194138259097249,0.0119624995,-0.0319,-0.0328625
1680014149906,1194138261599633,0.011,-0.0309375,-0.034925
1680014149909,1194138264101864,0.013062499,-0.028875,-0.0339625
1680014149913,1194138266604018,0.01595,-0.028875,-0.0339625
1680014149916,1194138269106158,0.01595,-0.0298375,-0.0298375
1680014149917,1194138271608542,0.020075,-0.023924999,-0.0298375
1680014149919,1194138274110696,0.020075,-0.02695,-0.028875
1680014149922,1194138276612927,0.014025,-0.028875,-0.028875
1680014149926,1194138279115297,0.01595,-0.0309375,-0.0248875
1680014149927,1194138281617451,0.0180125,-0.0319,-0.0229625
1680014149928,1194138284119681,0.018975,-0.0319,-0.0229625
1680014149931,1194138286621835,0.0119624995,-0.0319,-0.0218625
1680014149934,1194138289123989,0.011,-0.034925,-0.017875
1680014149936,1194138291626456,0.00605,-0.0339625,-0.012925
1680014149939,1194138294128609,0.003025,-0.034925,-0.01485
1680014149942,1194138296630994,0.003025,-0.036849998,-0.012925
1680014149944,1194138299133148,0.0020625,-0.036849998,-0.0089375
1680014149946,1194138301635360,-9.625E-4,-0.03795,-0.0089375
1680014149948,1194138304137514,-0.0039875,-0.0339625,-0.0089375
1680014149952,1194138306639667,-0.007975,-0.0339625,-0.0078375
1680014149954,1194138309142129,-0.0089375,-0.0298375,-0.0078375
1680014149956,1194138311644288,-0.0100375,-0.028875,-0.006875
1680014149959,1194138314146442,-0.014025,-0.0218625,-0.00495
1680014149963,1194138316648826,-0.0149875,-0.0218625,-0.0028875
1680014149965,1194138319151057,-0.012925,-0.017875,-0.0028875
1680014149968,1194138321653181,-0.0119624995,-0.0138875,1.375E-4
1680014149969,1194138324155566,-0.012925,-0.0089375,-9.625E-4
1680014149972,1194138326657796,-0.0119624995,-0.0078375,0.0031625
1680014149974,1194138329159950,-0.0119624995,-0.0028875,0.0020625
1680014149976,1194138331662335,-0.014025,1.375E-4,0.004125
1680014149979,1194138334164484,-0.014025,0.0031625,0.00715
1680014149982,1194138336666637,-0.01595,0.0050875,0.009075
1680014149985,1194138339169099,-0.01705,0.00605,0.009075
1680014149986,1194138341671253,-0.0180125,0.0031625,0.0100375
1680014149988,1194138344173402,-0.01705,0.0050875,0.0121
1680014149992,1194138346675632,-0.0180125,0.00605,0.0111375
1680014149993,1194138349178017,-0.01705,0.004125,0.0111375
1680014149996,1194138351680171,-0.0180125,0.0081124995,0.013062499
1680014150000,1194138354182402,-0.0199375,0.00715,0.015125
1680014150003,1194138356684786,-0.0199375,0.00715,0.0160875
1680014150005,1194138359186940,-0.0180125,0.0100375,0.0121
1680014150006,1194138361689094,-0.01705,0.0050875,0.0121
1680014150009,1194138364191325,-0.0180125,0.0050875,0.0121
1680014150012,1194138366693493,-0.018975,0.013062499,0.014162499
1680014150013,1194138369195877,-0.0210375,0.013062499,0.0121
1680014150016,1194138371698108,-0.0199375,0.0121,0.013062499
1680014150020,1194138374200262,-0.0180125,0.01705,0.015125
1680014150022,1194138376702657,-0.01705,0.0210375,0.014162499
1680014150024,1194138379204887,-0.01595,0.0191125,0.013062499
1680014150027,1194138381707041,-0.01595,0.0221375,0.014162499
1680014150028,1194138384209195,-0.0149875,0.0240625,0.0121
1680014150032,1194138386711642,-0.0149875,0.0301125,0.0121
1680014150033,1194138389213795,-0.014025,0.031075,0.0100375
1680014150039,1194138391715949,-0.012925,0.031075,0.0111375
1680014150040,1194138394218334,-0.011,0.0361625,0.013062499
1680014150045,1194138396720488,-0.0089375,0.04015,0.0111375
1680014150046,1194138399222719,-0.007975,0.039049998,0.0081124995
1680014150047,1194138401724872,-0.007975,0.0341,0.00715
1680014150049,1194138404227257,-0.0089375,0.0380875,0.00715
1680014150052,1194138406729488,-0.0070125,0.0341,0.0081124995
1680014150054,1194138409231642,-0.00495,0.037125,0.0100375
1680014150057,1194138411734026,-0.00495,0.0380875,0.015125
1680014150061,1194138414236257,-0.00605,0.0411125,0.0221375
1680014150064,1194138416738392,-0.00605,0.0451,0.0221375
1680014150064,1194138419240546,-0.0039875,0.0430375,0.0221375
1680014150068,1194138421742930,-0.00495,0.04015,0.0231
1680014150068,1194138424245084,-0.0039875,0.031075,0.0240625
1680014150076,1194138426747532,-0.0039875,0.0270875,0.0221375
1680014150077,1194138429249686,-9.625E-4,0.02805,0.0191125
1680014150078,1194138431751916,0.0,0.0221375,0.0221375
1680014150080,1194138434254070,0.0,0.020075,0.0210375
1680014150082,1194138436756455,-9.625E-4,0.014162499,0.01705
1680014150084,1194138439258609,0.0,0.0100375,0.0160875
1680014150087,1194138441760844,9.625E-4,0.00715,0.014162499
1680014150090,1194138444263229,0.0020625,0.0050875,0.0111375
1680014150092,1194138446765383,-9.625E-4,0.0020625,0.0081124995
1680014150094,1194138449267537,0.0,1.375E-4,0.00605
1680014150098,1194138451769748,0.0,1.375E-4,0.004125
1680014150102,1194138454271901,-9.625E-4,-0.0059125,0.0020625
1680014150102,1194138456774055,-9.625E-4,-0.0089375,1.375E-4
1680014150104,1194138459276517,0.0020625,-0.0099,-9.625E-4
1680014150106,1194138461778671,9.625E-4,-0.01595,-0.0028875
1680014150109,1194138464281041,9.625E-4,-0.0199375,-0.006875
1680014150113,1194138466783195,-9.625E-4,-0.01595,-0.0078375
1680014150115,1194138469285426,-0.0039875,-0.017875,-0.0108624995
1680014150117,1194138471787580,-0.007975,-0.023924999,-0.01485
1680014150119,1194138474290089,-0.007975,-0.023924999,-0.017875
1680014150126,1194138476792243,-0.0070125,-0.0218625,-0.023924999
1680014150127,1194138479294397,-0.0100375,-0.0199375,-0.02695
1680014150129,1194138481796787,-0.011,-0.0169125,-0.028875
1680014150131,1194138484298941,-0.0100375,-0.0138875,-0.0319
1680014150132,1194138486801094,-0.012925,-0.0119624995,-0.034925
1680014150135,1194138489303556,-0.0199375,-0.0059125,-0.034925
1680014150136,1194138491805787,-0.012925,-0.001925,-0.036849998
1680014150140,1194138494307945,-0.012925,1.375E-4,-0.03795
1680014150143,1194138496810098,-0.0149875,0.0031625,-0.0389125
1680014150144,1194138499312483,-0.0149875,0.0050875,-0.039875
1680014150146,1194138501814637,-0.0180125,0.0050875,-0.0408375
1680014150150,1194138504317103,-0.0199375,0.0031625,-0.0419375
1680014150153,1194138506819257,-0.0229625,0.0050875,-0.0429
1680014150154,1194138509321411,-0.023924999,0.00715,-0.0438625
1680014150156,1194138511823642,-0.0259875,0.00715,-0.0429
1680014150159,1194138514325796,-0.02695,0.00605,-0.0438625
1680014150161,1194138516827960,-0.02805,0.00715,-0.0429
1680014150164,1194138519330421,-0.0309375,0.0020625,-0.0419375
1680014150166,1194138521832806,-0.034925,0.0050875,-0.0408375
1680014150168,1194138524334960,-0.03795,0.004125,-0.03795
1680014150171,1194138526837123,-0.0400125,0.0011,-0.0328625
1680014150174,1194138529339354,-0.040975,0.0050875,-0.028875
1680014150177,1194138531841508,-0.0419375,0.004125,-0.0298375
1680014150180,1194138534343662,-0.0449625,0.0011,-0.02585
1680014150183,1194138536846108,-0.0479875,-0.001925,-0.02585
1680014150185,1194138539348262,-0.051975,-0.001925,-0.02585
1680014150188,1194138541850647,-0.0540375,-0.00385,-0.0218625
1680014150190,1194138544352801,-0.056925,-0.0089375,-0.0188375
1680014150193,1194138546854950,-0.0589875,-0.0089375,-0.0209
1680014150195,1194138549357180,-0.0620125,-0.0108624995,-0.0188375
1680014150197,1194138551859642,-0.069025,-0.0138875,-0.017875
1680014150199,1194138554361796,-0.0749375,-0.0169125,-0.0169125
1680014150202,1194138556863950,-0.073975,-0.01485,-0.012925
1680014150204,1194138559366344,-0.073975,-0.017875,-0.0169125
1680014150207,1194138561868498,-0.077,-0.0188375,-0.0169125
1680014150209,1194138564370652,-0.077,-0.0199375,-0.01485
1680014150212,1194138566873114,-0.0779625,-0.02695,-0.01595
1680014150214,1194138569375272,-0.080025,-0.02695,-0.0169125
1680014150217,1194138571877426,-0.080025,-0.0279125,-0.017875
1680014150220,1194138574379657,-0.080025,-0.0279125,-0.0188375
1680014150222,1194138576882042,-0.0809875,-0.0298375,-0.012925
1680014150226,1194138579384190,-0.077,-0.023924999,-0.0199375
1680014150228,1194138581886421,-0.0760375,-0.0218625,-0.0188375
1680014150230,1194138584388806,-0.0749375,-0.02585,-0.0188375
1680014150232,1194138586890960,-0.07205,-0.02585,-0.0218625
1680014150235,1194138589393191,-0.0699875,-0.0199375,-0.017875
1680014150236,1194138591895358,-0.069025,-0.0188375,-0.0188375
1680014150239,1194138594397512,-0.0650375,-0.0199375,-0.0209
1680014150242,1194138596899974,-0.062975,-0.01485,-0.0199375
1680014150244,1194138599402128,-0.061049998,-0.012925,-0.0209
1680014150246,1194138601904286,-0.05995,-0.0089375,-0.023924999
1680014150249,1194138604406671,-0.058025,-0.0108624995,-0.0229625
1680014150252,1194138606908825,-0.058025,-0.0078375,-0.0218625
1680014150254,1194138609410979,-0.056925,-0.001925,-0.0229625
1680014150257,1194138611913200,-0.05995,-0.006875,-0.0248875
1680014150260,1194138614415661,-0.0559625,-0.0089375,-0.0229625
1680014150264,1194138616917815,-0.055,-0.0099,-0.0188375
1680014150266,1194138619419969,-0.0540375,-0.006875,-0.0209
1680014150270,1194138621922387,-0.0559625,-0.0059125,-0.0188375
1680014150271,1194138624424541,-0.0529375,-0.00385,-0.0169125
1680014150273,1194138626926772,-0.051975,-0.00495,-0.01595
1680014150275,1194138629429157,-0.0559625,-0.0028875,-0.012925
1680014150276,1194138631931311,-0.055,1.375E-4,-0.0108624995
1680014150279,1194138634433541,-0.0529375,1.375E-4,-0.0089375
1680014150282,1194138636935705,-0.0540375,1.375E-4,-0.00495
1680014150286,1194138639438090,-0.0540375,0.0020625,-0.0028875
1680014150287,1194138641940244,-0.055,0.004125,-0.00495
1680014150289,1194138644442676,-0.055,0.0050875,-0.0028875
1680014150292,1194138646944830,-0.0559625,0.0020625,-0.001925
1680014150296,1194138649446984,-0.0559625,0.0081124995,1.375E-4
1680014150297,1194138651949215,-0.055,0.0160875,1.375E-4
1680014150302,1194138654451349,-0.055,0.01705,0.0020625
1680014150304,1194138656953733,-0.0540375,0.01815,0.0011
1680014150306,1194138659673425,-0.05995,0.0231,0.0050875
1680014150308,1194138661958118,-0.061049998,0.02915,0.00715
1680014150310,1194138664460502,-0.056925,0.0320375,0.00605
1680014150312,1194138666962738,-0.055,0.0341,0.009075
1680014150314,1194138669464892,-0.0559625,0.0341,0.009075
1680014150317,1194138671967046,-0.0540375,0.0361625,0.009075
1680014150319,1194138674469430,-0.051975,0.0380875,0.0121
1680014150323,1194138676971643,-0.050049998,0.0430375,0.0121
1680014150325,1194138679473797,-0.0479875,0.0441375,0.0121
1680014150327,1194138681976182,-0.0479875,0.0430375,0.014162499
1680014150330,1194138684478336,-0.051975,0.0430375,0.014162499
1680014150332,1194138686980489,-0.050049998,0.0451,0.0160875
1680014150334,1194138689482733,-0.0540375,0.048125,0.0210375
1680014150338,1194138691985118,-0.055,0.0471625,0.0221375
1680014150341,1194138694487349,-0.0540375,0.048125,0.026124999
1680014150344,1194138696989502,-0.0529375,0.0471625,0.0301125
1680014150345,1194138699491850,-0.055,0.0441375,0.0320375
1680014150347,1194138701994004,-0.051975,0.039049998,0.0301125
1680014150349,1194138704496235,-0.050049998,0.0341,0.026124999
1680014150353,1194138706998619,-0.051975,0.0301125,0.026124999
1680014150355,1194138709500773,-0.050049998,0.031075,0.02805
1680014150357,1194138712003018,-0.04895,0.02915,0.0270875
1680014150360,1194138714505172,-0.0479875,0.0270875,0.02915
1680014150362,1194138717007326,-0.0479875,0.0231,0.02805
1680014150364,1194138719509710,-0.044,0.0231,0.0270875
