system_ts_ms, sensor_ts_ns, gyrX, gyrY, gyrZ
1679932757330,1112745681892698,-0.03355,-0.4593875,0.0460625
1679932757331,1112745684652698,-0.0275,-0.49335,0.0490875
1679932757333,1112745686897082,-0.025575,-0.52442497,0.0540375
1679932757334,1112745689399236,-0.019524999,-0.546425,0.0561
1679932757336,1112745691901659,-0.014575,-0.5643,0.0570625
1679932757339,1112745694403813,-0.008525,-0.5753,0.0600875
1679932757341,1112745696905966,-0.0015125,-0.5883625,0.061049998
1679932757356,1112745699408197,0.0045375,-0.5913875,0.0600875
1679932757356,1112745701910337,0.01045,-0.5863,0.064075
1679932757357,1112745704412491,0.018424999,-0.5773625,0.0631125
1679932757357,1112745706914645,0.029424999,-0.5663625,0.0600875
1679932757358,1112745709416799,0.0375375,-0.5413375,0.0561
1679932757358,1112745711919192,0.043449998,-0.512325,0.048125
1679932757363,1112745714421423,0.0534875,-0.491425,0.039049998
1679932757363,1112745716923577,0.0595375,-0.463375,0.02805
1679932757365,1112745719425731,0.0664125,-0.42734998,0.0210375
1679932757368,1112745721927884,0.0715,-0.3933875,0.011
1679932757370,1112745724430038,0.0754875,-0.370425,-0.006875
1679932757372,1112745726932192,0.0785125,-0.3304125,-0.022
1679932757374,1112745729434346,0.0785125,-0.2943875,-0.0358875
1679932757379,1112745731936731,0.0774125,-0.260425,-0.050875
1679932757380,1112745734438899,0.0754875,-0.2204125,-0.056925
1679932757381,1112745736941129,0.0664125,-0.1804,-0.066
1679932757385,1112745739443283,0.0584375,-0.138325,-0.072875
1679932757386,1112745741945437,0.0495,-0.100375,-0.077
1679932757389,1112745744447582,0.0424875,-0.061325,-0.08195
1679932757391,1112745746949966,0.0364375,-0.0264,-0.0829125
1679932757396,1112745749452120,0.0284625,-0.0023375,-0.0829125
1679932757398,1112745751954274,0.019524999,0.020624999,-0.0809875
1679932757400,1112745754456433,0.01045,0.0386375,-0.0779625
1679932757402,1112745756958587,0.0064625,0.0506,-0.0759
1679932757405,1112745759460818,0.0015125,0.0526625,-0.073975
1679932757407,1112745761962972,-0.0075625,0.0517,-0.062975
1679932757413,1112745764465356,-0.0185625,0.0517,-0.05995
1679932757413,1112745766967471,-0.024475,0.0506,-0.051975
1679932757414,1112745769469625,-0.0265375,0.0435875,-0.040975
1679932757417,1112745771971779,-0.036575,0.0336875,-0.0339625
1679932757419,1112745774473933,-0.0405625,0.0176,-0.02695
1679932757422,1112745776976076,-0.0424875,0.0056375,-0.018975
1679932757424,1112745779478307,-0.0424875,-0.0023375,-0.0089375
1679932757431,1112745781980461,-0.04455,-0.0143,-9.625E-4
1679932757432,1112745784482615,-0.0424875,-0.029424999,0.0121
1679932757435,1112745786984979,-0.0394625,-0.0444125,0.020075
1679932757435,1112745789487133,-0.036575,-0.061325,0.0270875
1679932757437,1112745791989287,-0.0295625,-0.08635,0.0320375
1679932757439,1112745794491441,-0.0215875,-0.10835,0.0400125
1679932757442,1112745796993672,-0.0165,-0.13035,0.0411125
1679932757446,1112745799495803,-0.014575,-0.1533125,0.0341
1679932757447,1112745801997957,-0.008525,-0.1793,0.036025
1679932757450,1112745804500110,-0.008525,-0.2003375,0.036025
1679932757452,1112745807002495,-0.0075625,-0.2173875,0.02805
1679932757454,1112745809504649,-0.0045375,-0.237325,0.026124999
1679932757457,1112745812006871,-0.003575,-0.254375,0.025024999
1679932757462,1112745814509024,0.0015125,-0.265375,0.0231
1679932757463,1112745817011178,0.0045375,-0.276375,0.01705
1679932757464,1112745819513332,0.0045375,-0.2794,0.011
1679932757467,1112745822015481,0.0034375,-0.2794,0.0081124995
1679932757471,1112745824517635,0.0055,-0.27335,0.003025
1679932757473,1112745827020096,0.007425,-0.260425,-0.0028875
1679932757479,1112745829522173,0.0045375,-0.2534125,-0.007975
1679932757479,1112745832024389,0.0045375,-0.2413125,-0.011
1679932757480,1112745834526543,0.002475,-0.2314125,-0.01595
1679932757482,1112745837028697,0.002475,-0.215325,-0.0199375
1679932757485,1112745839530851,0.0034375,-0.1973125,-0.0259875
1679932757487,1112745842033005,-0.0055,-0.183425,-0.033
1679932757490,1112745844535409,-0.0125124995,-0.1703625,-0.0369875
1679932757492,1112745847037563,-0.0174625,-0.15235,-0.0429
1679932757499,1112745849539717,-0.0185625,-0.1403875,-0.0499125
1679932757499,1112745852041871,-0.0204875,-0.133375,-0.056925
1679932757502,1112745854544092,-0.0275,-0.11935,-0.0578875
1679932757502,1112745857046245,-0.0314875,-0.1093125,-0.064899996
1679932757504,1112745859548630,-0.036575,-0.100375,-0.066
1679932757508,1112745862050770,-0.04455,-0.0903375,-0.064899996
1679932757512,1112745864552924,-0.0485375,-0.0803,-0.066
1679932757513,1112745867055078,-0.0545875,-0.072325,-0.066
1679932757514,1112745869557308,-0.058575,-0.0664125,-0.0609125
1679932757517,1112745872059462,-0.0595375,-0.0743875,-0.056925
1679932757520,1112745874561630,-0.0595375,-0.07535,-0.0559625
1679932757522,1112745877063784,-0.05555,-0.0763125,-0.0529375
1679932757525,1112745879565938,-0.05555,-0.091299996,-0.050875
1679932757529,1112745882068092,-0.05555,-0.1023,-0.045925
1679932757530,1112745884570447,-0.047575,-0.113299996,-0.044
1679932757532,1112745887072678,-0.0435875,-0.13035,-0.0429
1679932757534,1112745889574832,-0.0455125,-0.149325,-0.0429
1679932757537,1112745892076986,-0.0435875,-0.166375,-0.0419375
1679932757539,1112745894579164,-0.0424875,-0.188375,-0.0449625
1679932757541,1112745897081317,-0.0405625,-0.2063875,-0.044
1679932757547,1112745899583471,-0.041525,-0.2244,-0.045925
1679932757548,1112745902085856,-0.0455125,-0.243375,-0.0499125
1679932757551,1112745904587991,-0.0424875,-0.259325,-0.0529375
1679932757552,1112745907090145,-0.0435875,-0.281325,-0.051975
1679932757554,1112745909592298,-0.047575,-0.3003,-0.056925
1679932757557,1112745912094529,-0.0485375,-0.314325,-0.0609125
1679932757562,1112745914596683,-0.0495,-0.3304125,-0.064899996
1679932757563,1112745917098837,-0.0504625,-0.3443,-0.064899996
1679932757566,1112745919601222,-0.0495,-0.3564,-0.062975
1679932757567,1112745922103375,-0.057475,-0.3683625,-0.0669625
1679932757570,1112745924605529,-0.0614625,-0.3744125,-0.0699875
1679932757572,1112745927107688,-0.0644875,-0.3784,-0.067925
1679932757574,1112745929609842,-0.068475,-0.3843125,-0.064899996
1679932757581,1112745932112073,-0.0715,-0.3894,-0.0609125
1679932757582,1112745934614457,-0.0724625,-0.3933875,-0.0609125
1679932757584,1112745937116611,-0.0715,-0.402325,-0.0578875
1679932757585,1112745939618765,-0.06655,-0.4093375,-0.0578875
1679932757587,1112745942120919,-0.06655,-0.40535,-0.0539
1679932757590,1112745944623073,-0.063525,-0.40535,-0.04895
1679932757592,1112745947125227,-0.0644875,-0.403425,-0.04895
1679932757598,1112745949627451,-0.0655875,-0.39435,-0.0499125
1679932757598,1112745952129605,-0.0614625,-0.381425,-0.0479875
1679932757600,1112745954631759,-0.0605,-0.3683625,-0.0479875
1679932757602,1112745957133913,-0.0614625,-0.36135,-0.045925
1679932757605,1112745959636288,-0.058575,-0.347325,-0.04895
1679932757607,1112745962138441,-0.057475,-0.3304125,-0.04895
1679932757612,1112745964640595,-0.058575,-0.3223,-0.0479875
1679932757613,1112745967142826,-0.0595375,-0.314325,-0.04895
1679932757615,1112745969644980,-0.05555,-0.29741248,-0.050875
1679932757617,1112745972147149,-0.0565125,-0.2893,-0.055
1679932757621,1112745974649303,-0.0565125,-0.2783,-0.0539
1679932757623,1112745977151456,-0.057475,-0.270325,-0.056925
1679932757625,1112745979653841,-0.0614625,-0.2613875,-0.062975
1679932757630,1112745982156091,-0.0605,-0.249425,-0.0609125
1679932757630,1112745984658245,-0.058575,-0.2443375,-0.061875
1679932757632,1112745987160399,-0.0625625,-0.2413125,-0.066
1679932757634,1112745989662552,-0.0625625,-0.23333749,-0.064899996
1679932757637,1112745992164706,-0.0644875,-0.2314125,-0.061875
1679932757640,1112745994666874,-0.069575,-0.2253625,-0.064899996
1679932757642,1112745997169028,-0.068475,-0.2204125,-0.0699875
1679932757647,1112745999671489,-0.068475,-0.2253625,-0.07095
1679932757648,1112746002173643,-0.0715,-0.2253625,-0.0699875
1679932757650,1112746004675797,-0.0735625,-0.226325,-0.0688875
1679932757652,1112746007177951,-0.07645,-0.232375,-0.0699875
1679932757654,1112746009680105,-0.0754875,-0.2413125,-0.07095
1679932757659,1112746012182235,-0.074525,-0.248325,-0.0699875
1679932757666,1112746014684619,-0.0785125,-0.2563,-0.0688875
1679932757667,1112746017186773,-0.0735625,-0.26235,-0.0699875
1679932757668,1112746019689004,-0.0754875,-0.270325,-0.0688875
1679932757670,1112746022191081,-0.07645,-0.2794,-0.066
1679932757671,1112746024693197,-0.07755,-0.2853125,-0.064899996
1679932757672,1112746027195428,-0.0754875,-0.303325,-0.062975
1679932757674,1112746029697812,-0.074525,-0.314325,-0.064899996
1679932757679,1112746032199966,-0.07645,-0.3304125,-0.0609125
1679932757680,1112746034702134,-0.074525,-0.342375,-0.05995
1679932757681,1112746037204288,-0.0735625,-0.3603875,-0.0578875
1679932757685,1112746039706442,-0.074525,-0.3763375,-0.0589875
1679932757687,1112746042208595,-0.07645,-0.397375,-0.0589875
1679932757690,1112746044710749,-0.07755,-0.414425,-0.0578875
1679932757692,1112746047213225,-0.07645,-0.4313375,-0.0578875
1679932757698,1112746049715379,-0.0735625,-0.4453625,-0.0559625
1679932757700,1112746052217533,-0.074525,-0.46035,-0.04895
1679932757701,1112746054719691,-0.0735625,-0.468325,-0.0479875
1679932757702,1112746057221845,-0.069575,-0.474375,-0.044
1679932757704,1112746059723999,-0.06655,-0.4813875,-0.03795
1679932757707,1112746062226230,-0.0605,-0.48839998,-0.0358875
1679932757712,1112746064728384,-0.05555,-0.48839998,-0.0319
1679932757713,1112746067230731,-0.0504625,-0.4893625,-0.028875
1679932757714,1112746069732654,-0.04455,-0.4893625,-0.0248875
1679932757717,1112746072235039,-0.0424875,-0.480425,-0.0229625
1679932757720,1112746074737193,-0.036575,-0.4723125,-0.0248875
1679932757723,1112746077239337,-0.03355,-0.4643375,-0.02695
1679932757726,1112746079741568,-0.0314875,-0.4483875,-0.02695
1679932757729,1112746082243721,-0.0275,-0.436425,-0.0259875
1679932757731,1112746084745875,-0.0265375,-0.4184125,-0.029975
1679932757734,1112746087248274,-0.025575,-0.402325,-0.029975
1679932757736,1112746089750197,-0.02145,-0.38541248,-0.0279125
1679932757738,1112746092252582,-0.0185625,-0.36135,-0.029975
1679932757740,1112746094754812,-0.019524999,-0.3493875,-0.03795
1679932757742,1112746097256966,-0.0155375,-0.3323375,-0.034925
1679932757745,1112746099759129,-0.014575,-0.3113,-0.0358875
1679932757747,1112746102261283,-0.0155375,-0.29535,-0.0369875
1679932757750,1112746104763437,-0.0125124995,-0.2794,-0.040975
1679932757752,1112746107265591,-0.0125124995,-0.2684,-0.044
1679932757754,1112746109767999,-0.0165,-0.249425,-0.045925
1679932757757,1112746112270230,-0.0155375,-0.2363625,-0.045925
1679932757760,1112746114772384,-0.0174625,-0.221375,-0.045925
1679932757762,1112746117274538,-0.019524999,-0.2123,-0.0429
1679932757766,1112746119776682,-0.0235125,-0.2083125,-0.0449625
1679932757769,1112746122278835,-0.024475,-0.2013,-0.0449625
1679932757773,1112746124780989,-0.024475,-0.193325,-0.0449625
1679932757774,1112746127283374,-0.0235125,-0.19139999,-0.0479875
1679932757776,1112746129785543,-0.0204875,-0.19139999,-0.04895
1679932757779,1112746132287697,-0.019524999,-0.19139999,-0.0479875
1679932757781,1112746134789927,-0.0185625,-0.1863125,-0.0449625
1679932757783,1112746137292004,-0.0174625,-0.19139999,-0.0429
1679932757785,1112746139794235,-0.014575,-0.199375,-0.044
1679932757787,1112746142296624,-0.0125124995,-0.1984125,-0.044
1679932757790,1112746144798778,-0.0125124995,-0.2013,-0.0419375
1679932757792,1112746147300931,-0.0094875,-0.2063875,-0.039875
1679932757795,1112746149803085,-0.01155,-0.2094125,-0.0419375
1679932757798,1112746152305230,-0.01155,-0.21133749,-0.03795
1679932757800,1112746154807461,-0.01045,-0.2143625,-0.03795
1679932757803,1112746157309538,-0.01155,-0.2193125,-0.0369875
1679932757806,1112746159811999,-0.01045,-0.2253625,-0.034925
1679932757809,1112746162314124,-0.013475,-0.226325,-0.033
1679932757811,1112746164816278,-0.01155,-0.2303125,-0.033
1679932757814,1112746167318432,-0.01045,-0.23333749,-0.028875
1679932757815,1112746169820586,-0.01155,-0.2343,-0.02695
1679932757817,1112746172322816,-0.0094875,-0.23539999,-0.02695
1679932757820,1112746174824956,-0.008525,-0.2363625,-0.0259875
1679932757822,1112746177327110,-0.0075625,-0.23333749,-0.028875
1679932757825,1112746179829264,-0.003575,-0.2424125,-0.028875
1679932757827,1112746182331418,0.0015125,-0.237325,-0.028875
1679932757830,1112746184833803,0.0015125,-0.23539999,-0.0319
1679932757832,1112746187336033,0.002475,-0.2343,-0.03795
1679932757835,1112746189838110,0.0055,-0.2343,-0.03795
1679932757837,1112746192340341,0.0045375,-0.2343,-0.0389125
1679932757840,1112746194842495,0.0064625,-0.2303125,-0.040975
1679932757842,1112746197344697,0.002475,-0.227425,-0.0419375
1679932757847,1112746199846851,0.0055,-0.221375,-0.0449625
1679932757851,1112746202349235,0.0094875,-0.221375,-0.0449625
1679932757852,1112746204961903,0.01155,-0.2173875,-0.0479875
1679932757854,1112746207353596,0.01045,-0.2083125,-0.0479875
1679932757856,1112746209855673,0.01045,-0.2024,-0.04895
1679932757857,1112746212357904,0.01155,-0.193325,-0.051975
1679932757860,1112746214860057,0.008525,-0.1813625,-0.0529375
1679932757862,1112746217362418,0.01155,-0.1764125,-0.055
1679932757864,1112746219864572,0.0055,-0.166375,-0.0578875
1679932757867,1112746222366726,0.0034375,-0.1593625,-0.0559625
1679932757870,1112746224868880,0.0015125,-0.1513875,-0.056925
1679932757872,1112746227371047,0.0015125,-0.14533749,-0.0578875
1679932757874,1112746229873201,-5.5E-4,-0.1423125,-0.0559625
1679932757877,1112746232375663,-0.0055,-0.1313125,-0.0589875
1679932757880,1112746234877817,-0.0075625,-0.122375,-0.0609125
1679932757884,1112746237379764,-0.01045,-0.113299996,-0.0609125
1679932757887,1112746239882148,-0.01045,-0.1023,-0.0589875
1679932757890,1112746242384302,-0.01155,-0.0994125,-0.05995
1679932757892,1112746244886456,-0.013475,-0.094325,-0.05995
1679932757893,1112746247388610,-0.01155,-0.0884125,-0.0578875
1679932757895,1112746249890851,-0.0125124995,-0.0823625,-0.062975
1679932757898,1112746252393005,-0.014575,-0.0774125,-0.064899996
1679932757900,1112746254895389,-0.0165,-0.0664125,-0.0609125
1679932757903,1112746257397312,-0.0174625,-0.0603625,-0.05995
1679932757906,1112746259899711,-0.019524999,-0.05335,-0.0589875
1679932757908,1112746262401865,-0.014575,-0.051425,-0.0578875
1679932757910,1112746264904095,-0.0165,-0.0463375,-0.05995
1679932757912,1112746267406249,-0.0125124995,-0.039325,-0.061875
1679932757915,1112746269908403,-0.01045,-0.039325,-0.0609125
1679932757917,1112746272410538,-0.01155,-0.0353375,-0.0609125
1679932757922,1112746274912692,-0.0125124995,-0.0323125,-0.062975
1679932757927,1112746277414846,-0.0155375,-0.028324999,-0.062975
1679932757927,1112746279917234,-0.0155375,-0.0253,-0.064899996
1679932757930,1112746282419465,-0.0174625,-0.0243375,-0.066
1679932757932,1112746285071081,-0.019524999,-0.0253,-0.0669625
1679932757933,1112746287423773,-0.0204875,-0.0253,-0.07095
1679932757936,1112746289925927,-0.0204875,-0.018424999,-0.0699875
1679932757938,1112746292428086,-0.02255,-0.018424999,-0.067925
1679932757941,1112746294930239,-0.0235125,-0.018424999,-0.0669625
1679932757942,1112746297432624,-0.0235125,-0.0213125,-0.064899996
1679932757945,1112746299934855,-0.019524999,-0.0224125,-0.061875
1679932757948,1112746302436995,-0.0204875,-0.0273625,-0.061875
1679932757952,1112746304939148,-0.02255,-0.028324999,-0.062975
1679932757962,1112746307441302,-0.02255,-0.0264,-0.064899996
1679932757962,1112746309943456,-0.02145,-0.0323125,-0.064899996
1679932757963,1112746312445600,-0.02255,-0.0334125,-0.0609125
1679932757963,1112746314947985,-0.0235125,-0.0374,-0.066
1679932757963,1112746317450139,-0.02145,-0.039325,-0.066
1679932757966,1112746319952369,-0.0265375,-0.0444125,-0.066
1679932757969,1112746322454547,-0.0275,-0.045375,-0.064899996
1679932757971,1112746324956701,-0.0275,-0.0484,-0.066
1679932757973,1112746327458855,-0.0295625,-0.0473,-0.0669625
1679932757975,1112746329961239,-0.0284625,-0.0493625,-0.064899996
1679932757977,1112746332463393,-0.0284625,-0.0573375,-0.064899996
1679932757980,1112746334965566,-0.0295625,-0.05335,-0.0669625
1679932757982,1112746337467720,-0.030524999,-0.0573375,-0.064899996
1679932757985,1112746339969874,-0.030524999,-0.0603625,-0.062975
1679932757987,1112746342472028,-0.030524999,-0.0583,-0.064899996
1679932757990,1112746344974259,-0.030524999,-0.0594,-0.062975
1679932757993,1112746347476638,-0.0275,-0.0594,-0.0609125
1679932757997,1112746349978792,-0.030524999,-0.062425,-0.062975
1679932757999,1112746352480946,-0.03355,-0.061325,-0.066
1679932758001,1112746354983120,-0.0295625,-0.061325,-0.062975
1679932758003,1112746357485274,-0.0295625,-0.0573375,-0.061875
1679932758005,1112746359987427,-0.032449998,-0.0554125,-0.064899996
1679932758008,1112746362489658,-0.032449998,-0.0543125,-0.066
1679932758011,1112746364991812,-0.03355,-0.0543125,-0.064899996
1679932758012,1112746367494173,-0.032449998,-0.050325,-0.066
1679932758015,1112746369996327,-0.032449998,-0.045375,-0.064899996
1679932758017,1112746372498480,-0.036575,-0.0463375,-0.064899996
1679932758020,1112746375000634,-0.03355,-0.04235,-0.064899996
1679932758023,1112746377502869,-0.036575,-0.0374,-0.0609125
1679932758025,1112746380005023,-0.0385,-0.0363,-0.0609125
1679932758027,1112746382507177,-0.032449998,-0.0334125,-0.061875
1679932758030,1112746385009331,-0.03355,-0.0323125,-0.062975
1679932758034,1112746387511725,-0.0385,-0.0303875,-0.062975
1679932758036,1112746390013648,-0.0375375,-0.0303875,-0.062975
1679932758038,1112746392516033,-0.036575,-0.0253,-0.05995
1679932758041,1112746395018264,-0.03355,-0.0264,-0.05995
1679932758042,1112746397520417,-0.0375375,-0.0264,-0.056925
1679932758046,1112746400022556,-0.036575,-0.0224125,-0.05995
1679932758048,1112746402524710,-0.036575,-0.0213125,-0.0589875
1679932758052,1112746405026864,-0.036575,-0.02035,-0.05995
1679932758053,1112746407529249,-0.032449998,-0.0253,-0.05995
1679932758055,1112746410031403,-0.035475,-0.0253,-0.0578875
1679932758059,1112746412533561,-0.0375375,-0.0243375,-0.0589875
1679932758060,1112746415035792,-0.036575,-0.0243375,-0.0589875
1679932758063,1112746417537946,-0.0394625,-0.0264,-0.0578875
1679932758065,1112746420040100,-0.0394625,-0.028324999,-0.05995
1679932758069,1112746422542278,-0.041525,-0.034375,-0.05995
1679932758072,1112746425044662,-0.0405625,-0.0363,-0.0589875
1679932758075,1112746427546816,-0.0405625,-0.0353375,-0.0589875
1679932758077,1112746430048965,-0.0385,-0.0363,-0.0589875
1679932758079,1112746432551119,-0.0405625,-0.0374,-0.05995
1679932758081,1112746435053350,-0.041525,-0.0484,-0.0578875
1679932758084,1112746437555427,-0.041525,-0.0463375,-0.056925
1679932758086,1112746440057657,-0.041525,-0.0473,-0.0578875
1679932758089,1112746442560028,-0.0405625,-0.0523875,-0.055
1679932758091,1112746445062182,-0.0394625,-0.0594,-0.0578875
1679932758093,1112746447564336,-0.036575,-0.0653125,-0.0578875
1679932758095,1112746450066490,-0.0375375,-0.069299996,-0.0589875
1679932758102,1112746452568605,-0.0385,-0.0713625,-0.0589875
1679932758103,1112746455070836,-0.041525,-0.078375,-0.0578875
1679932758103,1112746457572990,-0.0455125,-0.0803,-0.0578875
1679932758106,1112746460075375,-0.0455125,-0.0873125,-0.0559625
1679932758111,1112746462577523,-0.0424875,-0.095425,-0.055
1679932758112,1112746465079677,-0.0394625,-0.1043625,-0.055
1679932758114,1112746467581831,-0.041525,-0.1073875,-0.055
1679932758116,1112746470083985,-0.041525,-0.10835,-0.0499125
1679932758121,1112746472586139,-0.041525,-0.1144,-0.045925
1679932758123,1112746477588600,-0.0424875,-0.1203125,-0.0449625
1679932758126,1112746477664172,-0.0405625,-0.1243,-0.0449625
1679932758126,1112746477747371,-0.0385,-0.1263625,-0.0419375
1679932758129,1112746482594831,-0.035475,-0.1293875,-0.0389125
1679932758131,1112746485097264,-0.0325875,-0.1293875,-0.0369875
1679932758133,1112746487599341,-0.0314875,-0.1243,-0.0369875
1679932758135,1112746490101571,-0.0275,-0.122375,-0.03795
1679932758138,1112746492603725,-0.025575,-0.1293875,-0.0339625
1679932758141,1112746495105879,-0.02255,-0.13035,-0.0319
1679932758143,1112746497608028,-0.0185625,-0.127325,-0.033
1679932758147,1112746500110413,-0.0176,-0.122375,-0.033
1679932758149,1112746502612567,-0.0155375,-0.1183875,-0.033
1679932758153,1112746505114701,-0.0176,-0.117425,-0.033
1679932758153,1112746507616855,-0.0204875,-0.1123375,-0.0339625
1679932758155,1112746510119009,-0.0176,-0.111375,-0.034925
1679932758159,1112746512621240,-0.0165,-0.1043625,-0.034925
1679932758160,1112746515123317,-0.014575,-0.100375,-0.0339625
1679932758162,1112746517625778,-0.014575,-0.100375,-0.0358875
1679932758166,1112746520127917,-0.013475,-0.094325,-0.0369875
1679932758169,1112746522630071,-0.013475,-0.08635,-0.039875
1679932758171,1112746525132225,-0.0165,-0.0803,-0.03795
1679932758173,1112746527634379,-0.0176,-0.0713625,-0.0389125
1679932758175,1112746530136533,-0.0176,-0.0664125,-0.040975
1679932758181,1112746532638961,-0.0176,-0.061325,-0.0389125
1679932758181,1112746535140884,-0.0185625,-0.0523875,-0.0429
1679932758185,1112746537643269,-0.0185625,-0.0484,-0.0429
1679932758186,1112746540145423,-0.0176,-0.045375,-0.040975
1679932758189,1112746542647577,-0.0176,-0.0363,-0.044
1679932758191,1112746545149730,-0.0185625,-0.0323125,-0.0449625
1679932758192,1112746547651961,-0.0185625,-0.03135,-0.0449625
1679932758194,1112746550154115,-0.0215875,-0.0303875,-0.045925
1679932758198,1112746552656269,-0.0185625,-0.0264,-0.0479875
1679932758200,1112746555158423,-0.0155375,-0.0253,-0.0479875
1679932758202,1112746557660821,-0.0165,-0.0303875,-0.0499125
1679932758206,1112746560162975,-0.0185625,-0.029424999,-0.04895
1679932758208,1112746562665129,-0.0176,-0.0273625,-0.0449625
1679932758211,1112746565167360,-0.0155375,-0.0303875,-0.0449625
1679932758212,1112746567669514,-0.0165,-0.028324999,-0.0449625
1679932758215,1112746570171687,-0.0185625,-0.03135,-0.0449625
1679932758219,1112746572673840,-0.014575,-0.0353375,-0.0429
1679932758222,1112746575175994,-0.013475,-0.0383625,-0.040975
1679932758224,1112746577678374,-0.013475,-0.0444125,-0.039875
1679932758226,1112746580180605,-0.0125124995,-0.0473,-0.039875
1679932758228,1112746582682758,-0.0125124995,-0.0573375,-0.039875
1679932758230,1112746585184912,-0.014575,-0.0554125,-0.0419375
1679932758232,1112746587687066,-0.0176,-0.0594,-0.040975
1679932758235,1112746590189220,-0.014575,-0.0633875,-0.040975
1679932758239,1112746592691374,-0.0176,-0.0633875,-0.0389125
1679932758241,1112746595193528,-0.019524999,-0.0633875,-0.0389125
1679932758243,1112746597695989,-0.0185625,-0.069299996,-0.039875
1679932758246,1112746600198052,-0.0165,-0.0774125,-0.034925
1679932758248,1112746602700283,-0.013475,-0.0814,-0.033
1679932758251,1112746605202437,-0.01155,-0.0853875,-0.033
1679932758254,1112746607704591,-0.014575,-0.0853875,-0.033
1679932758256,1112746610206745,-0.014575,-0.08635,-0.0319
1679932758260,1112746612709100,-0.013475,-0.0884125,-0.0319
1679932758262,1112746615211254,-0.0105875,-0.0933625,-0.033
1679932758264,1112746617713408,-0.0105875,-0.0994125,-0.033
1679932758266,1112746620215562,-0.008525,-0.0983125,-0.029975
1679932758270,1112746622717792,-0.0055,-0.0983125,-0.033
1679932758271,1112746625219965,-0.0066,-0.100375,-0.033
1679932758274,1112746627722119,-0.0075625,-0.0994125,-0.033
1679932758275,1112746630224504,-0.0055,-0.1013375,-0.034925
1679932758279,1112746632726658,-5.5E-4,-0.1043625,-0.0339625
1679932758281,1112746635228812,-0.003575,-0.1023,-0.0369875
1679932758286,1112746637730989,-5.5E-4,-0.105325,-0.03795
1679932758287,1112746640233143,4.125E-4,-0.1073875,-0.0389125
1679932758289,1112746642735297,-0.003575,-0.1093125,-0.0429
1679932758291,1112746645237784,-5.5E-4,-0.1104125,-0.0429
1679932758293,1112746647739937,-5.5E-4,-0.1153625,-0.044
1679932758297,1112746650242091,-0.0015125,-0.1183875,-0.0449625
1679932758300,1112746652744245,-0.003575,-0.117425,-0.044
1679932758302,1112746655246394,-0.0045375,-0.1183875,-0.0449625
1679932758303,1112746657748548,-0.0066,-0.122375,-0.044
1679932758305,1112746660250779,-0.0075625,-0.122375,-0.0429
1679932758309,1112746662752933,-0.0066,-0.128425,-0.039875
1679932758311,1112746665255317,-0.008525,-0.128425,-0.039875
1679932758313,1112746667757279,-0.008525,-0.127325,-0.040975
1679932758316,1112746670259664,-0.008525,-0.128425,-0.0358875
1679932758322,1112746672761818,-0.0075625,-0.128425,-0.0339625
1679932758322,1112746675263972,-0.0055,-0.133375,-0.0319
1679932758324,1112746677766183,-0.0055,-0.1324125,-0.029975
1679932758326,1112746680268337,4.125E-4,-0.128425,-0.028875
1679932758331,1112746682770491,4.125E-4,-0.127325,-0.028875
1679932758337,1112746685272673,-0.0015125,-0.1214125,-0.028875
1679932758337,1112746687774827,0.0034375,-0.11935,-0.02695
1679932758338,1112746690277211,0.0064625,-0.1144,-0.0279125
1679932758340,1112746692779442,0.0055,-0.1093125,-0.0279125
1679932758341,1112746695281596,0.0055,-0.1013375,-0.029975
1679932758343,1112746697783750,0.008525,-0.094325,-0.0319
1679932758345,1112746700285948,0.0094875,-0.091299996,-0.033
1679932758349,1112746702788102,0.008525,-0.0803,-0.0339625
1679932758351,1112746705290255,0.01045,-0.067375,-0.0369875
1679932758353,1112746707792409,0.0165,-0.062425,-0.0389125
1679932758355,1112746710294813,0.019524999,-0.0493625,-0.03795
1679932758359,1112746712797044,0.018424999,-0.0383625,-0.0419375
1679932758361,1112746715299121,0.0174625,-0.03135,-0.0449625
1679932758363,1112746717801351,0.02145,-0.0213125,-0.04895
1679932758366,1112746720303519,0.019524999,-0.0133375,-0.0529375
1679932758369,1112746722805673,0.018424999,-0.001375,-0.0539
1679932758372,1112746725308058,0.0154,0.0066,-0.0559625
1679932758374,1112746727810212,0.0165,0.015675,-0.0559625
1679932758377,1112746730312370,0.0125124995,0.0187,-0.0578875
1679932758379,1112746732814601,0.01045,0.02365,-0.055
1679932758381,1112746735316678,0.0125124995,0.0297,-0.055
1679932758383,1112746737818909,0.0154,0.0325875,-0.055
1679932758386,1112746740321293,0.0174625,0.037675,-0.0559625
1679932758389,1112746742823428,0.0114124995,0.0407,-0.0559625
1679932758391,1112746745325582,0.0114124995,0.042625,-0.0578875
1679932758392,1112746747827736,0.01045,0.047575,-0.056925
1679932758395,1112746750329890,0.0114124995,0.047575,-0.0578875
1679932758398,1112746752832140,0.0125124995,0.0466125,-0.0578875
1679932758401,1112746755334217,0.01045,0.0435875,-0.056925
1679932758403,1112746757836678,0.01045,0.042625,-0.0539
1679932758407,1112746760338832,0.0125124995,0.034649998,-0.0529375
1679932758411,1112746762841000,0.0125124995,0.0286,-0.0559625
1679932758412,1112746765343154,0.0125124995,0.026675,-0.056925
1679932758414,1112746767845308,0.01045,0.0196625,-0.0578875
1679932758416,1112746770347461,0.013475,0.0176,-0.0578875
1679932758419,1112746772849692,0.0114124995,0.01265,-0.0578875
1679932758421,1112746775351827,0.0114124995,0.00165,-0.0589875
1679932758423,1112746777853981,0.0125124995,-4.125E-4,-0.05995
1679932758425,1112746780356365,0.0125124995,-0.007425,-0.0578875
1679932758429,1112746782858289,0.0114124995,-0.0133375,-0.0559625
1679932758430,1112746785360707,0.0125124995,-0.0143,-0.056925
1679932758433,1112746787862861,0.01045,-0.0193875,-0.056925
1679932758435,1112746790365092,0.0094875,-0.029424999,-0.0539
1679932758439,1112746792867246,0.0114124995,-0.03135,-0.055
1679932758441,1112746795369400,0.0114124995,-0.0363,-0.055
1679932758443,1112746797871533,0.0154,-0.0413875,-0.051975
1679932758448,1112746800373918,0.0154,-0.0473,-0.051975
1679932758453,1112746802876087,0.0125124995,-0.051425,-0.0499125
1679932758453,1112746805676702,0.01045,-0.0543125,-0.0479875
1679932758455,1112746807880395,0.0094875,-0.05335,-0.0479875
1679932758456,1112746810382625,0.007425,-0.0573375,-0.050875
1679932758459,1112746812884779,0.0064625,-0.0554125,-0.0479875
1679932758461,1112746815387164,0.008525,-0.0603625,-0.044
1679932758463,1112746817889313,0.0034375,-0.061325,-0.045925
1679932758465,1112746820391466,0.0015125,-0.061325,-0.050875
1679932758469,1112746822893620,4.125E-4,-0.0603625,-0.0499125
1679932758471,1112746825395774,-0.0045375,-0.0573375,-0.04895
1679932758473,1112746827897938,-0.0066,-0.0543125,-0.051975
1679932758476,1112746830400169,-0.008525,-0.0493625,-0.0529375
1679932758479,1112746832902553,-0.0125124995,-0.0473,-0.0539
1679932758480,1112746835404707,-0.0125124995,-0.0413875,-0.051975
1679932758485,1112746837906841,-0.0165,-0.039325,-0.050875
1679932758487,1112746840408995,-0.0155375,-0.034375,-0.04895
1679932758490,1112746842911149,-0.019524999,-0.0374,-0.04895
1679932758492,1112746845413303,-0.019524999,-0.0353375,-0.051975
1679932758494,1112746847915533,-0.019524999,-0.034375,-0.050875
1679932758495,1112746850417938,-0.024475,-0.0374,-0.04895
1679932758499,1112746852920092,-0.025575,-0.0334125,-0.050875
1679932758502,1112746855422246,-0.0286,-0.028324999,-0.0499125
1679932758503,1112746857924400,-0.035475,-0.0303875,-0.045925
1679932758506,1112746860426530,-0.036575,-0.0334125,-0.0449625
1679932758509,1112746862928760,-0.0396,-0.0353375,-0.0429
1679932758511,1112746865430914,-0.0396,-0.0383625,-0.040975
1679932758513,1112746867933068,-0.0396,-0.0444125,-0.040975
1679932758516,1112746870435202,-0.0455125,-0.0493625,-0.03795
1679932758519,1112746872937356,-0.0485375,-0.051425,-0.03795
1679932758523,1112746875439510,-0.047575,-0.05335,-0.0369875
1679932758527,1112746877940692,-0.0455125,-0.0583,-0.0358875
1679932758527,1112746880441885,-0.0485375,-0.06435,-0.0339625
1679932758530,1112746882946270,-0.0534875,-0.069299996,-0.0319
1679932758531,1112746885448424,-0.0534875,-0.07535,-0.033
1679932758534,1112746887950578,-0.047575,-0.08635,-0.029975
1679932758535,1112746890452731,-0.046475,-0.0873125,-0.028875
1679932758539,1112746892954875,-0.046475,-0.0924,-0.02695
1679932758541,1112746895457260,-0.0485375,-0.0963875,-0.0279125
1679932758543,1112746897959491,-0.0485375,-0.095425,-0.0259875
1679932758545,1112746900461644,-0.047575,-0.09735,-0.029975
1679932758548,1112746902963793,-0.0424875,-0.1043625,-0.0319
1679932758551,1112746905465947,-0.0435875,-0.1073875,-0.028875
1679932758553,1112746907968101,-0.0435875,-0.1073875,-0.028875
1679932758555,1112746910470255,-0.0435875,-0.10835,-0.028875
1679932758560,1112746912972634,-0.0435875,-0.105325,-0.029975
1679932758562,1112746915474788,-0.0455125,-0.1043625,-0.0339625
1679932758564,1112746917977019,-0.0495,-0.1013375,-0.0358875
1679932758567,1112746920479096,-0.0495,-0.100375,-0.034925
1679932758570,1112746922981327,-0.047575,-0.1013375,-0.0369875
1679932758572,1112746925483481,-0.047575,-0.0994125,-0.034925
1679932758574,1112746927985865,-0.052525,-0.095425,-0.03795
1679932758577,1112746930488019,-0.0545875,-0.091299996,-0.039875
1679932758587,1112746932990159,-0.0565125,-0.091299996,-0.0389125
1679932758587,1112746935492313,-0.05555,-0.091299996,-0.0449625
1679932758588,1112746937994467,-0.0565125,-0.0933625,-0.045925
1679932758588,1112746940496621,-0.05555,-0.091299996,-0.0419375
1679932758589,1112746942999101,-0.0565125,-0.0873125,-0.0429
1679932758590,1112746945501255,-0.057475,-0.0873125,-0.045925
1679932758593,1112746948003409,-0.0565125,-0.08635,-0.0479875
1679932758597,1112746950505563,-0.0605,-0.0853875,-0.0499125
1679932758600,1112746953007679,-0.0595375,-0.09735,-0.051975
1679932758601,1112746955509832,-0.057475,-0.0994125,-0.050875
1679932758603,1112746958011986,-0.0565125,-0.0994125,-0.051975
1679932758606,1112746960514217,-0.057475,-0.100375,-0.0499125
1679932758609,1112746963016371,-0.057475,-0.1073875,-0.0539
1679932758611,1112746965518783,-0.0545875,-0.1123375,-0.056925
1679932758613,1112746968020937,-0.0595375,-0.1153625,-0.055
1679932758615,1112746970523091,-0.0605,-0.1153625,-0.0539
1679932758619,1112746973025245,-0.0595375,-0.117425,-0.055
1679932758621,1112746975527481,-0.058575,-0.117425,-0.0539
1679932758623,1112746978029635,-0.058575,-0.1203125,-0.056925
1679932758625,1112746980531788,-0.0576125,-0.1254,-0.056925
1679932758629,1112746983033942,-0.0565125,-0.1263625,-0.056925
1679932758630,1112746985536307,-0.0545875,-0.122375,-0.056925
1679932758635,1112746988038230,-0.05555,-0.1214125,-0.0578875
1679932758637,1112746990540615,-0.0565125,-0.1263625,-0.056925
1679932758639,1112746993042845,-0.0495,-0.1263625,-0.0609125
1679932758641,1112746995544989,-0.0495,-0.1254,-0.0578875
1679932758643,1112746998047143,-0.052525,-0.1243,-0.056925
1679932758646,1112747000549297,-0.05555,-0.11935,-0.0589875
1679932758649,1112747003051451,-0.0545875,-0.113299996,-0.056925
1679932758652,1112747005553850,-0.0565125,-0.10835,-0.0559625
1679932758653,1112747008056004,-0.058575,-0.1034,-0.0589875
1679932758656,1112747010558235,-0.05555,-0.1034,-0.0539
1679932758659,1112747013060389,-0.0534875,-0.1023,-0.0529375
1679932758661,1112747015562543,-0.058575,-0.1034,-0.055
1679932758663,1112747018064682,-0.0625625,-0.100375,-0.055
1679932758666,1112747020566836,-0.0644875,-0.094325,-0.055
1679932758669,1112747023068989,-0.0644875,-0.08635,-0.0529375
1679932758672,1112747025571384,-0.0726,-0.0853875,-0.055
1679932758675,1112747028073538,-0.0705375,-0.0903375,-0.0589875
1679932758677,1112747030575692,-0.06655,-0.0873125,-0.061875
1679932758679,1112747033077922,-0.0726,-0.083325,-0.062975
1679932758684,1112747035579970,-0.0735625,-0.0793375,-0.061875
1679932758684,1112747038082201,-0.074525,-0.0774125,-0.0669625
1679932758687,1112747040584586,-0.0754875,-0.0814,-0.067925
1679932758689,1112747043086740,-0.0796125,-0.0873125,-0.0669625
1679932758691,1112747045588893,-0.0785125,-0.0924,-0.066
1679932758693,1112747048091061,-0.07755,-0.094325,-0.066
1679932758696,1112747050593215,-0.0785125,-0.095425,-0.062975
1679932758699,1112747053095446,-0.0785125,-0.0963875,-0.061875
1679932758701,1112747055597600,-0.0754875,-0.10835,-0.0609125
1679932758703,1112747058099984,-0.074525,-0.111375,-0.05995
1679932758706,1112747060602138,-0.0726,-0.113299996,-0.061875
1679932758710,1112747063104292,-0.0726,-0.1153625,-0.05995
1679932758712,1112747065606446,-0.074525,-0.117425,-0.0589875
1679932758714,1112747068108586,-0.074525,-0.122375,-0.0589875
1679932758716,1112747070610740,-0.0715,-0.1324125,-0.05995
1679932758719,1112747073113201,-0.0655875,-0.1364,-0.061875
1679932758722,1112747075615124,-0.0644875,-0.1364,-0.0589875
1679932758723,1112747078117509,-0.0655875,-0.1353,-0.0589875
1679932758726,1112747080619682,-0.063525,-0.1353,-0.066
1679932758729,1112747083121836,-0.0655875,-0.1373625,-0.066
1679932758731,1112747085623990,-0.0655875,-0.1364,-0.067925
1679932758738,1112747088126201,-0.063525,-0.138325,-0.066
1679932758738,1112747090628355,-0.063525,-0.138325,-0.064899996
1679932758740,1112747093130509,-0.0655875,-0.1343375,-0.067925
1679932758742,1112747095632663,-0.0686125,-0.1324125,-0.0688875
1679932758743,1112747098134817,-0.0715,-0.128425,-0.0719125
1679932758747,1112747100637201,-0.0715,-0.1263625,-0.07095
1679932758750,1112747103139355,-0.0715,-0.1263625,-0.0688875
1679932758751,1112747105641509,-0.0705375,-0.1183875,-0.0688875
1679932758753,1112747108143663,-0.0705375,-0.117425,-0.0719125
1679932758755,1112747110645894,-0.0735625,-0.11935,-0.067925
1679932758759,1112747113147976,-0.0726,-0.116325,-0.067925
1679932758761,1112747115650437,-0.0754875,-0.117425,-0.0688875
1679932758763,1112747118152591,-0.07755,-0.116325,-0.0719125
1679932758766,1112747120654745,-0.0785125,-0.111375,-0.067925
1679932758769,1112747123156904,-0.0815375,-0.1144,-0.067925
1679932758771,1112747125659058,-0.0815375,-0.116325,-0.0688875
1679932758773,1112747128161211,-0.0815375,-0.1153625,-0.067925
1679932758775,1112747130663673,-0.082499996,-0.113299996,-0.062975
1679932758779,1112747133165567,-0.0815375,-0.116325,-0.0609125
1679932758781,1112747135667952,-0.0785125,-0.1183875,-0.0589875
1679932758786,1112747138170105,-0.0815375,-0.1153625,-0.0609125
1679932758786,1112747140672259,-0.085525,-0.11935,-0.062975
1679932758790,1112747143174408,-0.080575,-0.1203125,-0.0609125
1679932758791,1112747145676562,-0.0815375,-0.1203125,-0.05995
1679932758793,1112747148178793,-0.07755,-0.1203125,-0.0609125
1679932758796,1112747150680947,-0.07755,-0.1144,-0.05995
1679932758799,1112747153183101,-0.074525,-0.1144,-0.05995
1679932758801,1112747155685485,-0.069575,-0.1144,-0.056925
1679932758803,1112747158187639,-0.0655875,-0.105325,-0.0578875
1679932758807,1112747160689793,-0.0644875,-0.1123375,-0.061875
1679932758809,1112747163192024,-0.0616,-0.113299996,-0.064899996
1679932758811,1112747165694201,-0.058575,-0.1093125,-0.0609125
1679932758813,1112747168196355,-0.058575,-0.1043625,-0.066
1679932758816,1112747170698509,-0.0545875,-0.105325,-0.0669625
1679932758819,1112747173200663,-0.0565125,-0.09735,-0.067925
1679932758823,1112747175703053,-0.058575,-0.0903375,-0.07095
1679932758824,1112747178205283,-0.0595375,-0.084425,-0.0669625
1679932758826,1112747180707360,-0.0625625,-0.0803,-0.0699875
1679932758829,1112747183209591,-0.0644875,-0.07535,-0.072875
1679932758831,1112747185711745,-0.0644875,-0.0704,-0.0719125
1679932758834,1112747188213913,-0.0655875,-0.0664125,-0.07095
1679932758836,1112747190716067,-0.069575,-0.0594,-0.0699875
1679932758839,1112747193218221,-0.0705375,-0.0543125,-0.0688875
1679932758841,1112747195720605,-0.0715,-0.05335,-0.066
1679932758843,1112747198222836,-0.0726,-0.050325,-0.066
1679932758847,1112747200724928,-0.0754875,-0.0493625,-0.067925
1679932758849,1112747203227159,-0.0765875,-0.0444125,-0.0688875
1679932758852,1112747205729312,-0.07755,-0.0433125,-0.0688875
1679932758853,1112747208231466,-0.080575,-0.0413875,-0.0688875
1679932758856,1112747210733870,-0.0796125,-0.0484,-0.0699875
1679932758861,1112747213236024,-0.0815375,-0.0473,-0.0688875
1679932758863,1112747215738178,-0.0875875,-0.050325,-0.0699875
1679932758866,1112747218240351,-0.091575,-0.0493625,-0.0699875
1679932758866,1112747220742504,-0.0946,-0.0523875,-0.07095
1679932758869,1112747223244735,-0.0925375,-0.051425,-0.07095
1679932758871,1112747225746889,-0.0895125,-0.0554125,-0.07095
1679932758873,1112747228249274,-0.085525,-0.0653125,-0.0688875
1679932758876,1112747230751437,-0.082499996,-0.0653125,-0.067925
1679932758880,1112747233253591,-0.080575,-0.069299996,-0.0669625
1679932758881,1112747235755745,-0.0796125,-0.0664125,-0.0699875
1679932758886,1112747238257899,-0.0785125,-0.0664125,-0.0699875
1679932758887,1112747240760052,-0.0796125,-0.0683375,-0.072875
1679932758889,1112747243262513,-0.0785125,-0.0653125,-0.0749375
1679932758891,1112747245764667,-0.0796125,-0.0633875,-0.073975
1679932758893,1112747248266821,-0.0796125,-0.0664125,-0.073975
1679932758900,1112747250768932,-0.0815375,-0.062425,-0.0779625
1679932758902,1112747253271086,-0.080575,-0.0573375,-0.077
1679932758903,1112747255773240,-0.082499996,-0.0543125,-0.073975
1679932758904,1112747258275470,-0.0864875,-0.0573375,-0.0759
1679932758906,1112747260777624,-0.08855,-0.0523875,-0.077
1679932758911,1112747263280014,-0.0895125,-0.050325,-0.0809875
1679932758912,1112747265781937,-0.091575,-0.0463375,-0.0809875
1679932758914,1112747268284091,-0.0935,-0.045375,-0.0779625
1679932758916,1112747270786475,-0.0974875,-0.04235,-0.0749375
1679932758919,1112747273288629,-0.1016125,-0.04235,-0.073975
1679932758922,1112747275790836,-0.102575,-0.0463375,-0.0749375
1679932758926,1112747278292990,-0.1056,-0.0484,-0.072875
1679932758927,1112747280795144,-0.1056,-0.050325,-0.072875
1679932758930,1112747283297298,-0.1065625,-0.0523875,-0.07095
1679932758931,1112747285799452,-0.11055,-0.050325,-0.0688875
1679932758936,1112747288301581,-0.1155,-0.0473,-0.0669625
1679932758937,1112747290804043,-0.1194875,-0.0554125,-0.067925
1679932758940,1112747293306197,-0.1194875,-0.0603625,-0.066
1679932758942,1112747295808351,-0.118525,-0.062425,-0.066
1679932758943,1112747298310523,-0.1166,-0.0664125,-0.062975
1679932758946,1112747300812677,-0.1166,-0.0704,-0.061875
1679932758949,1112747303314831,-0.1126125,-0.0774125,-0.061875
1679932758952,1112747305816985,-0.1115125,-0.0814,-0.061875
1679932758953,1112747308319389,-0.1115125,-0.084425,-0.0609125
1679932758956,1112747310821619,-0.1115125,-0.0853875,-0.061875
1679932758959,1112747313323696,-0.113575,-0.0884125,-0.064899996
1679932758961,1112747315825927,-0.1145375,-0.08635,-0.062975
1679932758964,1112747318328062,-0.113575,-0.095425,-0.062975
1679932758966,1112747320830216,-0.1145375,-0.0994125,-0.066
1679932758969,1112747323332600,-0.1155,-0.0963875,-0.064899996
1679932758973,1112747325834754,-0.1155,-0.0983125,-0.0669625
1679932758975,1112747328336923,-0.1166,-0.100375,-0.0699875
1679932758977,1112747330839154,-0.1155,-0.09735,-0.0688875
1679932758980,1112747333341231,-0.1166,-0.094325,-0.0688875
1679932758982,1112747335843462,-0.1166,-0.095425,-0.0699875
1679932758983,1112747338345616,-0.118525,-0.091299996,-0.0719125
1679932758986,1112747340847976,-0.1205875,-0.094325,-0.073975
1679932758989,1112747343350130,-0.12155,-0.091299996,-0.0719125
1679932758991,1112747345852284,-0.1265,-0.0853875,-0.0699875
1679932758993,1112747348354438,-0.1315875,-0.078375,-0.07095
1679932758995,1112747350856587,-0.1315875,-0.07535,-0.07095
1679932758999,1112747353358740,-0.13255,-0.0713625,-0.073975
1679932759004,1112747355860971,-0.13859999,-0.0683375,-0.0699875
1679932759005,1112747358363356,-0.13859999,-0.0664125,-0.0688875
1679932759006,1112747360865279,-0.1414875,-0.061325,-0.0669625
1679932759011,1112747363367663,-0.14355,-0.0594,-0.064899996
1679932759013,1112747365869817,-0.1425875,-0.0543125,-0.061875
1679932759014,1112747368371971,-0.1425875,-0.0543125,-0.0609125
1679932759016,1112747370874202,-0.14355,-0.0493625,-0.05995
1679932759019,1112747373376356,-0.146575,-0.0473,-0.0578875
1679932759021,1112747375878510,-0.1485,-0.0484,-0.056925
1679932759023,1112747378380894,-0.1496,-0.0473,-0.055
1679932759026,1112747380882817,-0.1496,-0.045375,-0.055
1679932759029,1112747383385217,-0.1475375,-0.0473,-0.0529375
1679932759030,1112747385887371,-0.1496,-0.0493625,-0.051975
1679932759035,1112747388389602,-0.1485,-0.0484,-0.0499125
1679932759037,1112747390891755,-0.146575,-0.051425,-0.051975
1679932759039,1112747393393884,-0.1456125,-0.051425,-0.0529375
1679932759041,1112747395896038,-0.1496,-0.051425,-0.0539
1679932759044,1112747398398423,-0.1524875,-0.0573375,-0.0529375
1679932759047,1112747400900346,-0.1485,-0.0573375,-0.051975
1679932759050,1112747403402736,-0.1475375,-0.0603625,-0.0529375
1679932759053,1112747405904966,-0.1475375,-0.0603625,-0.051975
1679932759055,1112747408407120,-0.1445125,-0.06435,-0.0529375
1679932759056,1112747410909274,-0.14355,-0.0664125,-0.050875
1679932759059,1112747413411423,-0.1445125,-0.0664125,-0.055
1679932759061,1112747415913807,-0.1425875,-0.0653125,-0.056925
1679932759063,1112747418415961,-0.1395625,-0.0683375,-0.0539
1679932759067,1112747420918115,-0.140525,-0.072325,-0.0559625
1679932759069,1112747423420289,-0.1425875,-0.072325,-0.0578875
1679932759071,1112747425922443,-0.140525,-0.0713625,-0.05995
1679932759074,1112747428424597,-0.1395625,-0.07535,-0.0589875
1679932759076,1112747430927058,-0.14355,-0.0704,-0.0589875
1679932759079,1112747433429005,-0.1456125,-0.0704,-0.0609125
1679932759081,1112747435931390,-0.1425875,-0.069299996,-0.061875
1679932759086,1112747438433544,-0.1414875,-0.06435,-0.05995
1679932759088,1112747440935698,-0.1456125,-0.0603625,-0.0589875
1679932759090,1112747443437885,-0.14355,-0.0543125,-0.0609125
1679932759092,1112747445940115,-0.1425875,-0.051425,-0.061875
1679932759094,1112747448442269,-0.1425875,-0.0473,-0.05995
1679932759095,1112747450944654,-0.1395625,-0.0433125,-0.0609125
1679932759099,1112747453446577,-0.135575,-0.0413875,-0.0609125
1679932759102,1112747455948731,-0.140525,-0.0334125,-0.05995
1679932759105,1112747458451115,-0.1414875,-0.03135,-0.0609125
1679932759107,1112747460953038,-0.1375,-0.0253,-0.05995
1679932759109,1112747463455500,-0.140525,-0.0193875,-0.05995
1679932759110,1112747465957668,-0.13653749,-0.0224125,-0.05995
1679932759113,1112747468459822,-0.135575,-0.02035,-0.0589875
1679932759116,1112747470961976,-0.1315875,-0.0143,-0.0578875
1679932759120,1112747473464129,-0.135575,-0.012375,-0.055
1679932759127,1112747475966287,-0.13859999,-0.0083875,-0.0529375
1679932759129,1112747478467517,-0.1395625,-0.006325,-0.051975
1679932759129,1112747480968750,-0.140525,-0.0083875,-0.0499125
1679932759131,1112747483473056,-0.140525,-0.007425,-0.0479875
1679932759133,1112747485975210,-0.1395625,-0.0083875,-0.045925
1679932759135,1112747488477364,-0.1395625,-0.0053625,-0.0419375
1679932759136,1112747490979538,-0.140525,-0.0083875,-0.0449625
1679932759139,1112747493481923,-0.1384625,-0.0103124995,-0.0449625
1679932759141,1112747495984076,-0.135575,-0.0103124995,-0.0419375
1679932759143,1112747498486307,-0.135575,-0.0114124995,-0.040975
1679932759146,1112747500988389,-0.1335125,-0.0143,-0.0429
1679932759149,1112747503490620,-0.1335125,-0.018424999,-0.040975
1679932759152,1112747505992774,-0.13255,-0.0224125,-0.039875
1679932759154,1112747508494928,-0.1315875,-0.0224125,-0.039875
1679932759157,1112747510997341,-0.1315875,-0.028324999,-0.0389125
1679932759161,1112747513499495,-0.1315875,-0.0353375,-0.03795
1679932759162,1112747516001649,-0.1285625,-0.0353375,-0.039875
1679932759165,1112747518503803,-0.129525,-0.0363,-0.039875
1679932759167,1112747521005957,-0.1285625,-0.0433125,-0.03795
1679932759170,1112747523508111,-0.1274625,-0.0444125,-0.0369875
1679932759171,1112747526010572,-0.1285625,-0.045375,-0.03795
1679932759174,1112747528512495,-0.1265,-0.0484,-0.039875
1679932759176,1112747531014880,-0.1274625,-0.0493625,-0.040975
1679932759179,1112747533517034,-0.1265,-0.051425,-0.03795
1679932759181,1112747536019188,-0.1265,-0.05335,-0.0389125
1679932759184,1112747538521341,-0.1255375,-0.0573375,-0.0369875
1679932759186,1112747541023495,-0.124575,-0.0583,-0.034925
1679932759189,1112747543525716,-0.1225125,-0.0573375,-0.0339625
1679932759191,1112747546028101,-0.1205875,-0.0583,-0.0319
1679932759194,1112747548530024,-0.118525,-0.0583,-0.0339625
1679932759198,1112747551032408,-0.112475,-0.0594,-0.029975
1679932759200,1112747553534558,-0.113575,-0.0543125,-0.028875
1679932759204,1112747556036712,-0.112475,-0.0523875,-0.02695
1679932759211,1112747558538943,-0.1095875,-0.050325,-0.02695
1679932759211,1112747561041097,-0.1065625,-0.051425,-0.0259875
1679932759211,1112747563543270,-0.1065625,-0.0463375,-0.0229625
1679932759211,1112747566045654,-0.101475,-0.0493625,-0.022
1679932759214,1112747568547577,-0.0974875,-0.0473,-0.023924999
1679932759216,1112747571049731,-0.0974875,-0.0444125,-0.023924999
1679932759219,1112747573552179,-0.0935,-0.0413875,-0.0248875
1679932759221,1112747576054332,-0.0875875,-0.0374,-0.0279125
1679932759223,1112747578556486,-0.0875875,-0.0374,-0.028875
1679932759226,1112747581058640,-0.0864875,-0.0353375,-0.029975
1679932759229,1112747583560803,-0.0815375,-0.0334125,-0.0279125
1679932759231,1112747586062957,-0.080575,-0.0323125,-0.029975
1679932759237,1112747588565111,-0.0785125,-0.0353375,-0.0319
1679932759238,1112747591067495,-0.0754875,-0.03135,-0.034925
1679932759240,1112747593569754,-0.0724625,-0.0323125,-0.034925
1679932759242,1112747596071831,-0.0724625,-0.0353375,-0.0358875
1679932759245,1112747598574062,-0.0724625,-0.0413875,-0.0358875
1679932759246,1112747601076216,-0.0724625,-0.0374,-0.039875
1679932759249,1112747603578370,-0.0715,-0.0374,-0.0419375
1679932759252,1112747606080744,-0.0705375,-0.0413875,-0.044
1679932759253,1112747608582898,-0.068475,-0.0383625,-0.045925
1679932759256,1112747611085052,-0.06655,-0.039325,-0.0479875
1679932759259,1112747613587283,-0.0644875,-0.04235,-0.04895
1679932759260,1112747616089360,-0.0644875,-0.0413875,-0.04895
1679932759264,1112747618591586,-0.0644875,-0.0374,-0.051975
1679932759266,1112747621093740,-0.0655875,-0.0413875,-0.0539
1679932759269,1112747623596125,-0.0625625,-0.0383625,-0.0529375
1679932759273,1112747626098279,-0.0605,-0.0363,-0.055
1679932759275,1112747628600433,-0.058575,-0.0383625,-0.055
1679932759277,1112747631102586,-0.057475,-0.0374,-0.055
1679932759279,1112747633604740,-0.057475,-0.0353375,-0.0539
1679932759281,1112747636106894,-0.058575,-0.03135,-0.056925
1679932759285,1112747638609356,-0.05555,-0.0303875,-0.0589875
1679932759286,1112747641111476,-0.0534875,-0.029424999,-0.0578875
1679932759289,1112747643613630,-0.047575,-0.0243375,-0.056925
1679932759291,1112747646115784,-0.0455125,-0.0193875,-0.056925
1679932759293,1112747648617938,-0.0435875,-0.0213125,-0.0559625
1679932759296,1112747651120087,-0.0424875,-0.0163625,-0.056925
1679932759298,1112747653622318,-0.0375375,-0.017324999,-0.0589875
1679932759301,1112747656124471,-0.030524999,-0.02035,-0.0559625
1679932759303,1112747658626625,-0.0295625,-0.017324999,-0.056925
1679932759307,1112747661129024,-0.0275,-0.0143,-0.055
1679932759310,1112747663630947,-0.02255,-0.012375,-0.0559625
1679932759312,1112747666133332,-0.02255,-0.0083875,-0.0578875
1679932759314,1112747668635486,-0.02255,-0.00935,-0.0578875
1679932759316,1112747671137716,-0.0235125,-0.0103124995,-0.0589875
1679932759320,1112747673639870,-0.0215875,-0.0044,-0.0609125
1679932759322,1112747676142024,-0.0174625,-0.0023375,-0.064899996
1679932759325,1112747678644178,-0.0215875,-4.125E-4,-0.0699875
1679932759327,1112747681146318,-0.0185625,-4.125E-4,-0.066
1679932759330,1112747683648472,-0.0165,0.0056375,-0.067925
1679932759331,1112747686150933,-0.0185625,0.004675,-0.07095
1679932759333,1112747688653087,-0.0174625,0.0066,-0.07095
1679932759336,1112747691155241,-0.0174625,0.009625,-0.07095
1679932759339,1112747693657385,-0.0185625,0.0077,-0.072875
1679932759341,1112747696159539,-0.0204875,0.01265,-0.0759
1679932759343,1112747698661692,-0.0185625,0.0105875,-0.073975
1679932759350,1112747701163827,-0.019524999,0.0116875,-0.0719125
1679932759352,1112747703666212,-0.0204875,0.0105875,-0.072875
1679932759353,1112747706168366,-0.0235125,0.0116875,-0.073975
1679932759354,1112747708670596,-0.0235125,0.0077,-0.072875
1679932759356,1112747711172673,-0.02255,0.0077,-0.072875
1679932759360,1112747713674890,-0.0235125,0.0066,-0.0749375
1679932759361,1112747716177044,-0.0235125,0.004675,-0.0719125
1679932759364,1112747718679429,-0.025575,6.875E-4,-0.0699875
1679932759366,1112747721181352,-0.025575,-0.0053625,-0.0669625
1679932759370,1112747723683726,-0.024475,-0.007425,-0.0669625
1679932759371,1112747726185880,-0.02255,-0.0103124995,-0.0688875
1679932759374,1112747728688111,-0.025575,-0.017324999,-0.0688875
1679932759376,1112747731190265,-0.0265375,-0.0193875,-0.0699875
1679932759379,1112747733692419,-0.02255,-0.0273625,-0.067925
1679932759381,1112747736194568,-0.0235125,-0.0334125,-0.064899996
1679932759385,1112747738696721,-0.0185625,-0.0374,-0.062975
1679932759387,1112747741198875,-0.0215875,-0.0413875,-0.061875
1679932759390,1112747743701029,-0.02255,-0.0484,-0.061875
1679932759391,1112747746203501,-0.019524999,-0.051425,-0.05995
1679932759394,1112747748705654,-0.0204875,-0.05335,-0.05995
1679932759397,1112747751207808,-0.019524999,-0.0554125,-0.05995
1679932759399,1112747753709962,-0.02255,-0.0573375,-0.056925
1679932759401,1112747756212116,-0.02255,-0.0594,-0.0578875
1679932759404,1112747758714270,-0.0235125,-0.0594,-0.0589875
1679932759406,1112747761216655,-0.024475,-0.06435,-0.056925
1679932759409,1112747763718808,-0.0204875,-0.0664125,-0.055
1679932759411,1112747766221039,-0.0185625,-0.0653125,-0.0529375
1679932759414,1112747768723116,-0.0185625,-0.061325,-0.0529375
1679932759417,1112747771225299,-0.0174625,-0.0583,-0.0499125
1679932759419,1112747773727453,-0.0185625,-0.05335,-0.045925
1679932759422,1112747776229837,-0.019524999,-0.0573375,-0.0479875
1679932759424,1112747778731991,-0.0185625,-0.0484,-0.0449625
1679932759426,1112747781234135,-0.0174625,-0.0444125,-0.040975
1679932759429,1112747783736289,-0.0155375,-0.045375,-0.0358875
1679932759431,1112747786238520,-0.0125124995,-0.039325,-0.0259875
1679932759435,1112747788740597,-0.003575,-0.0353375,-0.0099
1679932759436,1112747791242798,-0.0045375,-0.0273625,0.0
1679932759439,1112747793745183,-0.003575,-0.00935,0.0070125
1679932759441,1112747796247337,-0.0045375,0.009625,0.013062499
1679932759444,1112747798749491,-0.0075625,0.0187,0.013062499
1679932759446,1112747801251655,-0.0064625,0.0356125,0.0121
1679932759449,1112747803753808,-0.0075625,0.048675,0.0121
1679932759452,1112747806255962,-0.0105875,0.0606375,0.0081124995
1679932759454,1112747808758193,-0.0094875,0.06765,0.00605
1679932759456,1112747811260366,-0.0105875,0.073699996,0.0081124995
1679932759461,1112747813762750,-0.008525,0.075625,0.00605
1679932759463,1112747816264674,-0.0094875,0.0796125,-0.001925
1679932759464,1112747818767058,-0.0125124995,0.0856625,-0.006875
1679932759467,1112747821269212,-0.013475,0.080575,-0.006875
1679932759470,1112747823771366,-0.0165,0.0847,-0.012925
1679932759471,1112747826273597,-0.0215875,0.0826375,-0.0149875
1679932759474,1112747828775751,-0.0215875,0.07865,-0.0149875
1679932759476,1112747831277904,-0.0235125,0.075625,-0.012925
1679932759479,1112747833780289,-0.0235125,0.0716375,-0.011
1679932759482,1112747836282212,-0.0204875,0.0686125,-0.006875
1679932759485,1112747838784597,-0.0185625,0.0636625,-0.0059125
1679932759487,1112747841286827,-0.0165,0.0606375,0.0
1679932759489,1112747843788965,-0.0174625,0.056649998,0.0050875
1679932759491,1112747846291119,-0.0155375,0.0526625,0.0081124995
1679932759493,1112747848793273,-0.0155375,0.0466125,0.0081124995
1679932759498,1112747851295427,-0.0165,0.045649998,0.011
1679932759501,1112747853797557,-0.0165,0.0407,0.009075
1679932759502,1112747856299711,-0.0174625,0.0336875,0.0081124995
1679932759505,1112747858802095,-0.0165,0.0286,0.00605
1679932759506,1112747861304326,-0.014575,0.026675,0.0020625
1679932759509,1112747863806495,-0.0155375,0.0196625,-0.001925
1679932759511,1112747866308649,-0.013475,0.014575,0.0
1679932759514,1112747868810803,-0.0094875,0.0077,0.0020625
1679932759517,1112747871312956,-0.01155,0.00165,0.0
1679932759520,1112747873815345,-0.0125124995,-0.0053625,0.0
1679932759522,1112747876317499,-0.0105875,-0.00935,0.0
1679932759524,1112747878819653,-0.0094875,-0.012375,-0.0028875
1679932759528,1112747881321883,-0.0064625,-0.0163625,-0.001925
1679932759531,1112747883823970,-0.0064625,-0.0193875,-9.625E-4
1679932759533,1112747886326201,-0.0064625,-0.0253,-9.625E-4
1679932759536,1112747888828586,-0.0045375,-0.0213125,-9.625E-4
1679932759538,1112747891330740,-0.0045375,-0.0224125,-0.001925
1679932759541,1112747893832913,-0.0015125,-0.0273625,-0.001925
1679932759542,1112747896335066,0.0034375,-0.0273625,0.0
1679932759544,1112747898837220,0.002475,-0.0323125,0.0020625
1679932759546,1112747901339451,0.0045375,-0.0303875,0.0050875
1679932759549,1112747903841528,0.0055,-0.0303875,0.004125
1679932759552,1112747906343989,0.002475,-0.0273625,0.009075
1679932759553,1112747908846143,0.0015125,-0.0264,0.013062499
1679932759556,1112747911348297,0.002475,-0.0243375,0.014025
1679932759559,1112747913850451,0.0045375,-0.017324999,0.013062499
1679932759561,1112747916352605,0.002475,-0.0143,0.0160875
1679932759565,1112747918854740,-5.5E-4,-0.0163625,0.020075
1679932759567,1112747921356971,0.0034375,-0.0163625,0.0210375
1679932759570,1112747923859124,0.0064625,-0.0143,0.0191125
1679932759574,1112747926361273,0.007425,-0.017324999,0.0160875
1679932759576,1112747928863658,0.013475,-0.018424999,0.020075
1679932759578,1112747931365581,0.0174625,-0.0243375,0.0210375
1679932759581,1112747933867966,0.0204875,-0.0273625,0.020075
1679932759582,1112747936370119,0.0235125,-0.03135,0.0210375
1679932759584,1112747938872398,0.0235125,-0.0353375,0.020075
1679932759586,1112747941374552,0.0254375,-0.045375,0.01705
1679932759590,1112747943876706,0.0254375,-0.051425,0.015125
1679932759591,1112747946378860,0.024475,-0.0583,0.0191125
1679932759594,1112747948881244,0.0254375,-0.06435,0.013062499
1679932759596,1112747951383167,0.024475,-0.067375,0.013062499
1679932759599,1112747953885629,0.0284625,-0.0743875,0.014025
1679932759601,1112747956387783,0.0275,-0.0803,0.0100375
1679932759605,1112747958889937,0.0265375,-0.0814,0.0100375
1679932759608,1112747961392115,0.029424999,-0.083325,0.009075
1679932759611,1112747963894268,0.0284625,-0.083325,0.00605
1679932759613,1112747966396422,0.0265375,-0.0873125,0.004125
1679932759614,1112747968898807,0.0265375,-0.0903375,0.004125
1679932759616,1112747971400966,0.0275,-0.0924,0.0050875
1679932759619,1112747973903196,0.029424999,-0.09735,0.003025
1679932759621,1112747976405350,0.0265375,-0.0983125,0.004125
1679932759624,1112747978907504,0.032449998,-0.1034,0.0011
1679932759626,1112747981409658,0.0385,-0.10835,0.0
1679932759629,1112747983911812,0.0364375,-0.1093125,0.003025
1679932759631,1112747986414197,0.0374,-0.1104125,0.00605
1679932759635,1112747988916350,0.0385,-0.1073875,0.0081124995
1679932759636,1112747991418513,0.0364375,-0.0983125,0.0121
1679932759639,1112747993920744,0.0374,-0.09735,0.013062499
1679932759641,1112747996422898,0.0394625,-0.095425,0.015125
1679932759645,1112747998924975,0.0394625,-0.0884125,0.015125
1679932759648,1112748001427408,0.0394625,-0.084425,0.013062499
1679932759652,1112748003929562,0.0413875,-0.078375,0.015125
1679932759654,1112748006431716,0.0394625,-0.0713625,0.013062499
1679932759656,1112748008933870,0.0385,-0.06435,0.0121
1679932759658,1112748011436024,0.040425,-0.0584375,0.014025
1679932759660,1112748013938193,0.043449998,-0.05335,0.011
1679932759662,1112748016440346,0.043449998,-0.0484,0.009075
1679932759664,1112748018942577,0.040425,-0.0374,0.0100375
1679932759666,1112748021444962,0.0424875,-0.0273625,0.009075
1679932759669,1112748023947145,0.0424875,-0.0193875,0.0100375
1679932759671,1112748026449299,0.0394625,-0.0154,0.0070125
1679932759674,1112748028951452,0.0413875,-0.0083875,0.011
1679932759677,1112748031453683,0.043449998,-4.125E-4,0.0100375
1679932759679,1112748033955827,0.0444125,0.004675,0.011
1679932759682,1112748036457981,0.0444125,0.0066,0.0100375
1679932759688,1112748038960135,0.0444125,0.01265,0.0121
1679932759689,1112748041462289,0.046475,0.0196625,0.014025
1679932759691,1112748043964688,0.0495,0.020624999,0.014025
1679932759692,1112748046466919,0.0495,0.0215875,0.014025
1679932759695,1112748048969073,0.051425,0.0246125,0.0160875
1679932759697,1112748051471150,0.054449998,0.0246125,0.01705
1679932759699,1112748053973381,0.0534875,0.026675,0.014025
1679932759703,1112748056475553,0.0554125,0.0295625,0.013062499
1679932759705,1112748058977707,0.057475,0.0276375,0.015125
1679932759706,1112748061480092,0.0594,0.0226875,0.015125
1679932759709,1112748063982246,0.0584375,0.02365,0.0160875
1679932759711,1112748066484366,0.0605,0.0215875,0.0160875
1679932759714,1112748068986519,0.0644875,0.0215875,0.0160875
1679932759717,1112748071488673,0.06545,0.015675,0.014025
1679932759720,1112748073990904,0.067375,0.015675,0.0121
1679932759724,1112748076493270,0.0715,0.0116875,0.011
1679932759726,1112748078995423,0.073425,0.0066,0.011
1679932759730,1112748083997577,0.0715,0.004675,0.0121
1679932759732,1112748084401039,0.0724625,0.0056375,0.014025
1679932759735,1112748086501885,0.0694375,0.0056375,0.0121
1679932759736,1112748089004058,0.0715,0.003575,0.0081124995
1679932759738,1112748091506289,0.07645,0.0026125,0.0081124995
1679932759740,1112748094008673,0.07645,0.004675,0.011
1679932759742,1112748096510827,0.0774125,0.0056375,0.0100375
1679932759744,1112748099012981,0.0774125,0.0066,0.0100375
1679932759746,1112748101515150,0.0774125,0.0056375,0.0121
1679932759749,1112748104017304,0.078375,0.004675,0.0100375
1679932759752,1112748106519458,0.078375,0.003575,0.0121
1679932759754,1112748109021688,0.079475,0.0066,0.011
1679932759756,1112748111523813,0.0834625,0.004675,0.014025
1679932759761,1112748114025967,0.084425,0.0066,0.014025
1679932759763,1112748116528121,0.082499996,0.0066,0.0121
1679932759767,1112748119030246,0.084425,0.009625,0.013062499
1679932759770,1112748121532630,0.0834625,0.0105875,0.013062499
1679932759770,1112748124034861,0.0834625,0.0105875,0.0121
1679932759772,1112748126537015,0.089375,0.0105875,0.014025
1679932759775,1112748129039169,0.0864875,0.009625,0.013062499
1679932759776,1112748131541323,0.0864875,0.013612499,0.011
1679932759779,1112748134043486,0.084425,0.013612499,0.013062499
1679932759782,1112748136545639,0.0814,0.013612499,0.0121
1679932759784,1112748139047793,0.084425,0.01265,0.0121
1679932759787,1112748141550255,0.0814,0.0166375,0.014025
1679932759789,1112748144052429,0.0814,0.0176,0.014025
1679932759791,1112748146554583,0.0814,0.0176,0.014025
1679932759794,1112748149056736,0.0754875,0.0196625,0.01705
1679932759798,1112748151558890,0.07645,0.0185625,0.020075
1679932759802,1112748154061039,0.0754875,0.0185625,0.0191125
1679932759803,1112748156563424,0.073425,0.020624999,0.022
1679932759805,1112748159065578,0.0715,0.0185625,0.0240625
1679932759807,1112748161567731,0.0724625,0.0176,0.0270875
1679932759810,1112748164069875,0.0704,0.0196625,0.02805
1679932759811,1112748166572106,0.067375,0.015675,0.036025
1679932759814,1112748169074260,0.0704,0.014575,0.037125
1679932759818,1112748171576414,0.0664125,0.01265,0.0400125
1679932759819,1112748174078798,0.062425,0.009625,0.0460625
1679932759822,1112748176580947,0.0605,0.0056375,0.047025
1679932759824,1112748179083101,0.0554125,0.0066,0.0490875
1679932759829,1112748181585255,0.0554125,0.0066,0.050049998
1679932759838,1112748184087409,0.054449998,0.004675,0.048125
1679932759838,1112748186589573,0.054449998,6.875E-4,0.055
1679932759838,1112748189092034,0.051425,-4.125E-4,0.0540375
1679932759838,1112748191594188,0.051425,-0.0023375,0.053075
1679932759840,1112748194096342,0.0534875,-0.0053625,0.058025
1679932759842,1112748196598486,0.054449998,-0.006325,0.0600875
1679932759844,1112748199100640,0.054449998,-0.006325,0.059125
1679932759846,1112748201602793,0.0534875,-0.007425,0.061049998
1679932759849,1112748204105024,0.0534875,-0.00935,0.064075
1679932759852,1112748206607178,0.0554125,-0.0103124995,0.064075
1679932759854,1112748209109337,0.0584375,-0.0114124995,0.064075
1679932759856,1112748211611722,0.0554125,-0.0154,0.066
1679932759859,1112748214113875,0.0554125,-0.0193875,0.07205
1679932759861,1112748216616029,0.056375,-0.0163625,0.07205
1679932759864,1112748219118169,0.057475,-0.012375,0.07205
1679932759866,1112748221620400,0.0534875,-0.012375,0.075075
1679932759870,1112748224122554,0.054449998,-0.007425,0.0730125
1679932759873,1112748226624708,0.051425,-0.0034375,0.078099996
1679932759875,1112748229126832,0.0495,-0.006325,0.0741125
1679932759877,1112748231628986,0.045375,-0.0034375,0.0741125
1679932759880,1112748234131140,0.045375,-4.125E-4,0.0730125
1679932759881,1112748236633602,0.046475,0.003575,0.0710875
1679932759885,1112748239135788,0.046475,0.0116875,0.0710875
1679932759887,1112748241637942,0.0444125,0.015675,0.0710875
1679932759891,1112748244140096,0.0444125,0.0166375,0.069025
1679932759895,1112748246642236,0.0444125,0.0176,0.070125
1679932759897,1112748249144390,0.0424875,0.020624999,0.0671
1679932759898,1112748251646544,0.040425,0.02365,0.066
1679932759899,1112748254148928,0.0385,0.0295625,0.069025
1679932759902,1112748256651159,0.0385,0.031625,0.070125
1679932759905,1112748259153313,0.0334125,0.0306625,0.07205
1679932759907,1112748261655457,0.034375,0.0356125,0.070125
1679932759913,1112748264157611,0.0334125,0.036575,0.0671
1679932759914,1112748266659765,0.0334125,0.0396,0.069025
1679932759915,1112748269162149,0.029424999,0.0356125,0.070125
1679932759917,1112748271664308,0.0264,0.042625,0.070125
1679932759920,1112748274166462,0.0254375,0.037675,0.0710875
1679932759922,1112748276668693,0.0254375,0.037675,0.0741125
1679932759925,1112748279170770,0.0254375,0.037675,0.0741125
1679932759927,1112748281673005,0.0264,0.0356125,0.0730125
1679932759930,1112748284175390,0.024475,0.0356125,0.0760375
1679932759932,1112748286677544,0.0224125,0.0306625,0.0760375
1679932759935,1112748289179698,0.023375,0.0276375,0.075075
1679932759937,1112748291681852,0.023375,0.0226875,0.077
1679932759940,1112748294184005,0.024475,0.0185625,0.0760375
1679932759941,1112748296686236,0.024475,0.014575,0.081125
1679932759944,1112748299188313,0.02145,0.009625,0.0851125
1679932759948,1112748301690520,0.024475,0.0066,0.086075
1679932759952,1112748304192904,0.024475,0.00165,0.088
1679932759953,1112748306695058,0.0204875,-0.006325,0.0891
1679932759955,1112748309197212,0.02145,-0.0083875,0.091025
1679932759957,1112748311699366,0.0224125,-0.00935,0.0891
1679932759960,1112748314201496,0.0193875,-0.0133375,0.091025
1679932759961,1112748316703727,0.023375,-0.02035,0.0930875
1679932759965,1112748319205881,0.0224125,-0.0213125,0.09405
1679932759967,1112748321708034,0.024475,-0.0264,0.0950125
1679932759970,1112748324210399,0.02145,-0.03135,0.0950125
1679932759972,1112748326712322,0.02145,-0.0303875,0.0950125
1679932759974,1112748329214707,0.0254375,-0.034375,0.0961125
1679932759977,1112748331716861,0.0284625,-0.0364375,0.0961125
1679932759979,1112748334219091,0.0284625,-0.0383625,0.0961125
1679932759983,1112748336721241,0.0314875,-0.0433125,0.0950125
1679932759987,1112748339223395,0.0394625,-0.0474375,0.09405
1679932759988,1112748341725549,0.0314875,-0.0444125,0.092125
1679932759991,1112748344227934,0.0284625,-0.0444125,0.0930875
1679932759992,1112748346730091,0.034375,-0.0484,0.091025
1679932759994,1112748349232245,0.034375,-0.0474375,0.0891
1679932759996,1112748351734399,0.034375,-0.0463375,0.0900625
1679932759999,1112748354236553,0.032449998,-0.0474375,0.0891
1679932760005,1112748356738707,0.034375,-0.0463375,0.088
1679932760006,1112748359241149,0.0334125,-0.045375,0.087037496
1679932760007,1112748361743303,0.0314875,-0.045375,0.088
1679932760009,1112748364245457,0.032449998,-0.0413875,0.086075
1679932760011,1112748366747611,0.0284625,-0.0323125,0.086075
1679932760014,1112748369249779,0.0275,-0.034375,0.08305
1679932760016,1112748371751933,0.032449998,-0.0334125,0.08305
1679932760019,1112748374254086,0.0284625,-0.0254375,0.081125
1679932760023,1112748376756317,0.0284625,-0.0193875,0.0790625
1679932760025,1112748379258443,0.0284625,-0.018424999,0.080025
1679932760027,1112748381760828,0.0284625,-0.0114124995,0.0790625
1679932760029,1112748384262751,0.0275,-0.0103124995,0.0790625
1679932760031,1112748386765135,0.0264,-0.00935,0.078099996
1679932760034,1112748389267289,0.023375,-0.00935,0.077
1679932760037,1112748391769524,0.024475,-0.006325,0.0790625
1679932760039,1112748394271678,0.0264,-4.125E-4,0.078099996
1679932760042,1112748396773832,0.0224125,-0.0034375,0.080025
1679932760045,1112748399275986,0.02145,0.0026125,0.0760375
1679932760047,1112748401778370,0.018424999,0.0056375,0.077
1679932760049,1112748404280293,0.0174625,0.0056375,0.078099996
1679932760051,1112748406782678,0.018424999,0.0075625,0.078099996
1679932760054,1112748409284909,0.0204875,0.013612499,0.0790625
1679932760057,1112748411787078,0.0193875,0.0105875,0.077
1679932760062,1112748414289231,0.0204875,0.0066,0.0760375
1679932760065,1112748416791385,0.0204875,0.0176,0.075075
1679932760066,1112748419293539,0.0204875,0.0166375,0.0760375
1679932760068,1112748421795924,0.0224125,0.014575,0.0760375
1679932760070,1112748424298111,0.0224125,0.0215875,0.0741125
1679932760072,1112748426800264,0.024475,0.0196625,0.0741125
1679932760074,1112748429302495,0.0224125,0.02365,0.069025
1679932760077,1112748431804649,0.02145,0.02365,0.066
1679932760079,1112748434306826,0.0193875,0.026675,0.0631125
1679932760081,1112748436808980,0.018424999,0.0286,0.061049998
1679932760085,1112748439311364,0.02145,0.02365,0.059125
1679932760087,1112748441813518,0.0193875,0.0215875,0.0631125
1679932760089,1112748444315667,0.018424999,0.02365,0.061049998
1679932760091,1112748446817821,0.0174625,0.0246125,0.0600875
1679932760094,1112748449320052,0.0174625,0.0226875,0.059125
1679932760101,1112748451822116,0.012375,0.0176,0.0600875
1679932760103,1112748454324346,0.01045,0.0215875,0.0561
1679932760104,1112748456826731,0.0094875,0.0196625,0.053075
1679932760105,1112748459328885,0.0083875,0.0185625,0.0540375
1679932760107,1112748461831039,0.0083875,0.015675,0.048125
1679932760110,1112748464333240,0.013475,0.01265,0.048125
1679932760111,1112748466835393,0.0165,0.0056375,0.0430375
1679932760114,1112748469337624,0.0174625,0.0026125,0.042075
1679932760118,1112748471839778,0.0204875,-0.001375,0.0430375
1679932760121,1112748474341932,0.0204875,-0.0034375,0.042075
1679932760123,1112748476844317,0.0264,-0.00935,0.042075
1679932760126,1112748479346470,0.0275,-0.0143,0.0411125
1679932760129,1112748481848624,0.0265375,-0.0243375,0.0411125
1679932760131,1112748484350793,0.0284625,-0.0353375,0.0400125
1679932760133,1112748486853024,0.0314875,-0.0334125,0.0400125
1679932760137,1112748489355178,0.0275,-0.0383625,0.036025
1679932760139,1112748491857332,0.0265375,-0.0493625,0.037125
1679932760141,1112748494531509,0.024475,-0.05335,0.0341
1679932760143,1112748496861894,0.0204875,-0.0484,0.0301125
1679932760145,1112748499363817,0.02145,-0.050325,0.0290125
1679932760147,1112748501866202,0.019524999,-0.0543125,0.0270875
1679932760150,1112748504368433,0.02145,-0.0554125,0.0231
1679932760153,1112748506870576,0.019524999,-0.0573375,0.026124999
1679932760155,1112748509372730,0.0155375,-0.0583,0.022
1679932760157,1112748511874884,0.0165,-0.0594,0.022
1679932760161,1112748514377038,0.013475,-0.0554125,0.0191125
1679932760163,1112748516879433,0.0114124995,-0.0594,0.01705
1679932760165,1112748519381586,0.0125124995,-0.0543125,0.015125
1679932760168,1112748521883817,0.01045,-0.051425,0.013062499
1679932760170,1112748524385971,0.01045,-0.050325,0.013062499
1679932760173,1112748526888135,0.008525,-0.045375,0.0121
1679932760176,1112748529390289,0.008525,-0.0433125,0.011
1679932760177,1112748531892443,0.0114124995,-0.04235,0.011
1679932760180,1112748534394596,0.008525,-0.0374,0.0100375
1679932760182,1112748536897058,0.008525,-0.0334125,0.0121
1679932760185,1112748539399140,0.0064625,-0.03135,0.0100375
1679932760187,1112748541901294,0.0045375,-0.028324999,0.0070125
1679932760190,1112748544403525,0.0045375,-0.028324999,0.0081124995
1679932760192,1112748546905601,0.002475,-0.0243375,0.0100375
1679932760195,1112748549407865,0.0045375,-0.02035,0.011
1679932760197,1112748551910250,0.0015125,-0.018424999,0.011
1679932760200,1112748554412404,-0.0015125,-0.0154,0.011
1679932760202,1112748556914558,-5.5E-4,-0.0143,0.011
1679932760205,1112748559416702,-5.5E-4,-0.012375,0.013062499
1679932760207,1112748561918856,-0.0045375,-0.0103124995,0.009075
1679932760211,1112748564421087,-0.0045375,-0.007425,0.009075
1679932760213,1112748566923164,-0.0075625,-0.0044,0.009075
1679932760215,1112748569425640,-0.0064625,-0.0044,0.0100375
1679932760217,1112748571927793,-0.0015125,-4.125E-4,0.0081124995
1679932760219,1112748574429947,-0.008525,-4.125E-4,0.0050875
1679932760222,1112748576932101,-0.0064625,-0.0023375,0.004125
1679932760224,1112748579434255,-0.0045375,0.00165,0.00605
1679932760226,1112748581936390,-0.0064625,0.00165,0.003025
1679932760229,1112748584438851,-0.0075625,0.00165,0.003025
1679932760232,1112748586940774,-0.0045375,0.0026125,0.0011
1679932760235,1112748589443159,-0.003575,0.00165,-9.625E-4
1679932760237,1112748591945327,-5.5E-4,0.00165,0.0011
1679932760240,1112748594447481,-5.5E-4,-0.001375,0.0011
1679932760242,1112748596949635,-0.003575,-0.0023375,-0.001925
1679932760245,1112748599451865,4.125E-4,6.875E-4,0.0
1679932760249,1112748601954000,-5.5E-4,-4.125E-4,-9.625E-4
1679932760251,1112748604456385,4.125E-4,-0.0053625,-0.0028875
1679932760253,1112748606958308,0.0045375,-0.0083875,-0.0028875
1679932760255,1112748609460462,0.0055,-0.0114124995,-0.0028875
1679932760257,1112748611962846,0.0064625,-0.0103124995,-0.00495
1679932760260,1112748614464784,0.007425,-0.0143,-0.0039875
1679932760262,1112748616967246,0.0094875,-0.0163625,-0.006875
1679932760264,1112748619469400,0.01045,-0.0163625,-0.006875
1679932760268,1112748621971554,0.0114124995,-0.0193875,-0.007975
1679932760271,1112748624473732,0.0114124995,-0.0224125,-0.0119624995
1679932760272,1112748626975885,0.01045,-0.0243375,-0.0149875
1679932760275,1112748629478270,0.0094875,-0.0243375,-0.01595
1679932760278,1112748631980501,0.0114124995,-0.0253,-0.017875
1679932760282,1112748634482578,0.013475,-0.0273625,-0.017875
1679932760284,1112748636984799,0.01045,-0.0273625,-0.018975
1679932760287,1112748639486952,0.008525,-0.03135,-0.018975
1679932760289,1112748641989106,0.0094875,-0.0334125,-0.0209
1679932760291,1112748644561645,0.0064625,-0.0323125,-0.018975
1679932760293,1112748646993414,0.0064625,-0.0323125,-0.018975
1679932760295,1112748649495799,0.007425,-0.0334125,-0.017875
1679932760297,1112748651997952,4.125E-4,-0.034375,-0.0169125
1679932760300,1112748654500106,0.002475,-0.0363,-0.0169125
1679932760304,1112748657002245,-5.5E-4,-0.0374,-0.0149875
1679932760305,1112748659504476,-0.0045375,-0.0374,-0.0119624995
1679932760307,1112748662006861,-0.0045375,-0.04235,-0.0119624995
1679932760310,1112748664509014,-0.0045375,-0.045375,-0.0089375
1679932760312,1112748667010928,-0.0045375,-0.0463375,-0.0059125
1679932760314,1112748669513313,-0.0055,-0.0463375,-0.006875
1679932760317,1112748672015467,-0.0045375,-0.045375,-0.00495
1679932760320,1112748674517698,-0.0015125,-0.051425,-0.00495
1679932760324,1112748677019852,-0.0055,-0.0523875,-0.0059125
1679932760327,1112748679522005,-0.0064625,-0.051425,-0.0028875
1679932760329,1112748682024159,-0.0045375,-0.050325,-0.0039875
1679932760331,1112748684911544,-0.003575,-0.0573375,0.0
1679932760334,1112748687028467,-0.0045375,-0.0594,-9.625E-4
1679932760335,1112748689530852,-0.003575,-0.061325,-9.625E-4
1679932760337,1112748692033082,-0.003575,-0.062425,0.0011
1679932760341,1112748694535236,-0.0015125,-0.0603625,0.003025
1679932760343,1112748697037390,-0.003575,-0.0633875,0.0020625
1679932760345,1112748699539548,-5.5E-4,-0.061325,0.003025
1679932760347,1112748702041702,-0.0015125,-0.062425,0.00605
1679932760350,1112748704543856,4.125E-4,-0.062425,0.0070125
1679932760352,1112748707046240,-5.5E-4,-0.062425,0.0050875
1679932760355,1112748709548443,0.0034375,-0.0583,0.0050875
1679932760357,1112748712050597,0.0064625,-0.0594,0.0050875
1679932760361,1112748714552751,0.0055,-0.0554125,0.00605
1679932760364,1112748717054905,0.0064625,-0.0554125,0.0070125
1679932760366,1112748719557038,0.007425,-0.0583,0.004125
1679932760368,1112748722059423,0.0045375,-0.05335,0.004125
1679932760371,1112748724561577,0.0045375,-0.050325,-9.625E-4
1679932760373,1112748727063731,0.0045375,-0.0493625,0.0
1679932760375,1112748729565962,0.0015125,-0.0523875,0.0
1679932760377,1112748732068149,0.002475,-0.0473,-0.0028875
1679932760380,1112748734570303,0.002475,-0.050325,-0.0059125
1679932760382,1112748737072457,0.0034375,-0.0444125,-0.007975
1679932760385,1112748739574842,0.0045375,-0.0444125,-0.011
1679932760387,1112748742076996,0.0055,-0.039325,-0.0089375
1679932760390,1112748744579149,0.0015125,-0.039325,-0.007975
1679932760392,1112748747081303,0.002475,-0.04235,-0.0089375
1679932760395,1112748749583534,0.0034375,-0.0353375,-0.0089375
1679932760400,1112748752085654,0.0015125,-0.0353375,-0.006875
1679932760404,1112748754588038,0.002475,-0.0334125,-0.0059125
1679932760406,1112748757090192,-5.5E-4,-0.03135,-0.00495
1679932760407,1112748759592346,-5.5E-4,-0.028324999,-0.0059125
1679932760409,1112748762094471,-0.003575,-0.0334125,-0.0028875
1679932760411,1112748764596625,-0.003575,-0.0353375,0.0011
1679932760413,1112748767098779,-0.0015125,-0.0273625,0.0020625
1679932760415,1112748769600933,-0.003575,-0.0213125,0.0020625
1679932760417,1112748772103163,-5.5E-4,-0.02035,0.003025
1679932760420,1112748774605322,-0.003575,-0.02035,0.0070125
1679932760422,1112748777107707,-0.003575,-0.018424999,0.0070125
1679932760424,1112748779609861,-0.0075625,-0.0163625,0.0070125
1679932760427,1112748782112015,-0.008525,-0.017324999,0.0081124995
1679932760430,1112748784614168,-0.0094875,-0.0163625,0.0100375
1679932760432,1112748787116399,-0.01155,-0.0154,0.0121
1679932760436,1112748789618553,-0.013475,-0.0154,0.014025
1679932760439,1112748792120707,-0.0174625,-0.0154,0.0160875
1679932760441,1112748794622871,-0.0165,-0.0143,0.0191125
1679932760443,1112748797125255,-0.0165,-0.0163625,0.022
1679932760445,1112748799627409,-0.0174625,-0.017324999,0.0240625
1679932760447,1112748802129640,-0.0165,-0.0163625,0.025024999
1679932760450,1112748804631794,-0.014575,-0.018424999,0.025024999
1679932760453,1112748807133957,-0.013475,-0.0193875,0.0290125
1679932760462,1112748809636111,-0.0155375,-0.0193875,0.031075
1679932760462,1112748812138264,-0.0174625,-0.0253,0.033
1679932760462,1112748814640418,-0.0185625,-0.0224125,0.036025
1679932760462,1112748817142803,-0.0165,-0.0213125,0.036025
1679932760465,1112748819644957,-0.0155375,-0.0253,0.0341
1679932760467,1112748822147188,-0.0155375,-0.0253,0.0380875
1679932760470,1112748824649341,-0.01155,-0.028324999,0.039049998
1679932760474,1112748827151505,-0.0094875,-0.029424999,0.0380875
1679932760475,1112748829653659,-0.0055,-0.029424999,0.0400125
1679932760479,1112748832155813,-0.0045375,-0.0334125,0.0400125
1679932760481,1112748834658198,-5.5E-4,-0.0334125,0.0411125
1679932760482,1112748837160428,4.125E-4,-0.034375,0.042075
1679932760486,1112748839662505,-5.5E-4,-0.0334125,0.0430375
1679932760487,1112748842164659,4.125E-4,-0.0323125,0.0451
1679932760490,1112748844666890,-5.5E-4,-0.0303875,0.042075
1679932760492,1112748847169044,-5.5E-4,-0.0303875,0.044
1679932760494,1112748849671198,-0.0055,-0.0323125,0.044
1679932760497,1112748852173582,-0.0055,-0.0323125,0.039049998
1679932760500,1112748854675736,-0.0045375,-0.029424999,0.042075
1679932760502,1112748857177890,-0.0064625,-0.03135,0.0430375
1679932760505,1112748859680044,-0.0105875,-0.03135,0.042075
1679932760507,1112748862182203,-0.0094875,-0.0273625,0.0411125
1679932760511,1112748864684433,-0.008525,-0.0224125,0.042075
1679932760513,1112748867186587,-0.01155,-0.018424999,0.042075
1679932760515,1112748869688972,-0.0105875,-0.0133375,0.044
1679932760518,1112748872191131,-0.0125124995,-0.0193875,0.0451
1679932760521,1112748874693285,-0.0165,-0.0193875,0.044
1679932760526,1112748877195438,-0.0165,-0.0154,0.0451
1679932760527,1112748879697592,-0.0155375,-0.0114124995,0.044
1679932760529,1112748882199760,-0.019524999,-0.012375,0.048125
1679932760531,1112748884702222,-0.0215875,-0.012375,0.0521125
1679932760533,1112748887204145,-0.024475,-0.0133375,0.053075
1679932760535,1112748889706529,-0.02255,-0.007425,0.053075
1679932760537,1112748892208683,-0.0204875,-0.00935,0.0540375
1679932760540,1112748894710851,-0.024475,-0.0083875,0.0540375
1679932760543,1112748897213005,-0.024475,-0.006325,0.0570625
1679932760544,1112748899715236,-0.024475,-0.007425,0.0600875
1679932760549,1112748902217371,-0.0265375,-0.0033,0.059125
1679932760552,1112748904719755,-0.0295625,-0.0033,0.059125
1679932760553,1112748907221678,-0.025575,-0.0023375,0.058025
1679932760556,1112748909724063,-0.02255,-0.006325,0.0600875
1679932760557,1112748912226217,-0.025575,-0.0044,0.0620125
1679932760560,1112748914728442,-0.024475,-4.125E-4,0.0600875
1679932760562,1112748917230596,-0.025575,6.875E-4,0.0620125
1679932760568,1112748919732750,-0.025575,-0.0023375,0.0650375
1679932760569,1112748922234904,-0.025575,-4.125E-4,0.0650375
1679932760571,1112748924737313,-0.024475,6.875E-4,0.0631125
1679932760573,1112748927239236,-0.024475,-0.001375,0.064075
1679932760575,1112748929741620,-0.0235125,-4.125E-4,0.0650375
1679932760577,1112748932243851,-0.024475,0.00165,0.0650375
1679932760580,1112748934746005,-0.0275,0.00165,0.0631125
1679932760582,1112748937248159,-0.025575,0.00165,0.066
1679932760586,1112748939750313,-0.0295625,0.0056375,0.066
1679932760589,1112748942252467,-0.030524999,0.0056375,0.069025
1679932760591,1112748944754620,-0.0284625,0.0066,0.066
1679932760593,1112748947257000,-0.0284625,0.0066,0.0650375
1679932760594,1112748949759231,-0.0295625,0.013612499,0.066
1679932760599,1112748952261385,-0.0295625,0.013612499,0.066
1679932760600,1112748954763462,-0.0284625,0.0116875,0.064075
1679932760602,1112748957265692,-0.0284625,0.013612499,0.066
1679932760606,1112748959767827,-0.0314875,0.0116875,0.0671
1679932760607,1112748962270212,-0.0314875,0.009625,0.066
1679932760610,1112748964772135,-0.0314875,0.009625,0.070125
1679932760612,1112748967274520,-0.030524999,0.01265,0.069025
1679932760615,1112748969776673,-0.03355,0.0116875,0.070125
1679932760618,1112748972278818,-0.030524999,0.009625,0.0671
1679932760620,1112748974781049,-0.0275,0.0066,0.0710875
1679932760624,1112748977283203,-0.024475,0.004675,0.070125
1679932760626,1112748979785357,-0.0204875,0.00165,0.07205
1679932760628,1112748982287726,-0.01045,-0.0044,0.075075
1679932760630,1112748984789649,5.5E-4,-0.0053625,0.0730125
1679932760632,1112748987292034,0.007425,-0.0023375,0.077
1679932760634,1112748989794265,0.013475,-0.0114124995,0.0790625
1679932760637,1112748992296419,0.019524999,-0.0143,0.078099996
1679932760640,1112748994798583,0.0314875,-0.0143,0.081125
1679932760643,1112748997300736,0.0345125,-0.0193875,0.080025
1679932760645,1112748999802890,0.0364375,-0.0224125,0.077
1679932760648,1112749002305044,0.0385,-0.0253,0.077
1679932760650,1112749004807207,0.0424875,-0.02035,0.078099996
1679932760652,1112749007309668,0.040425,-0.0224125,0.075075
1679932760655,1112749009811822,0.040425,-0.0303875,0.0730125
1679932760658,1112749012313976,0.0394625,-0.0264,0.0671
1679932760662,1112749014816125,0.0375375,-0.0264,0.0620125
1679932760663,1112749017318279,0.0364375,-0.0253,0.0600875
1679932760665,1112749019820433,0.03355,-0.0243375,0.058025
1679932760668,1112749022322817,0.029424999,-0.02035,0.0561
1679932760670,1112749024824981,0.0284625,-0.018424999,0.0561
1679932760673,1112749027327135,0.024475,-0.0133375,0.0540375
1679932760675,1112749029829366,0.02255,-0.0083875,0.0490875
1679932760677,1112749032331520,0.02145,-0.0083875,0.0490875
1679932760680,1112749034833660,0.0204875,-0.006325,0.0490875
1679932760682,1112749037336044,0.018424999,-0.0033,0.050049998
1679932760686,1112749039838198,0.0174625,-4.125E-4,0.0521125
1679932760687,1112749042340352,0.0155375,0.003575,0.053075
1679932760690,1112749044842496,0.0174625,0.0077,0.0540375
1679932760692,1112749047344650,0.0155375,0.0105875,0.0521125
1679932760695,1112749049846803,0.01155,0.0116875,0.0540375
1679932760699,1112749052348957,0.0165,0.0116875,0.0570625
1679932760705,1112749054851414,0.0125124995,0.013612499,0.0570625
1679932760705,1112749057353568,0.013475,0.013612499,0.0570625
1679932760708,1112749059855722,0.0165,0.013612499,0.059125
1679932760709,1112749062357875,0.0155375,0.015675,0.061049998
1679932760711,1112749064860029,0.013475,0.013612499,0.0620125
1679932760713,1112749067362255,0.0125124995,0.0116875,0.0631125
1679932760715,1112749069864409,0.013475,0.013612499,0.0631125
1679932760718,1112749072366563,0.0165,0.014575,0.061049998
1679932760721,1112749074868947,0.0155375,0.013612499,0.064075
1679932760722,1112749077371087,0.0125124995,0.014575,0.0650375
1679932760725,1112749079873241,0.0165,0.013612499,0.064075
1679932760727,1112749082375395,0.0204875,0.013612499,0.0650375
1679932760730,1112749084877549,0.02255,0.014575,0.064075
1679932760732,1112749087379780,0.0235125,0.01265,0.0631125
1679932760736,1112749089881923,0.032449998,0.0116875,0.0631125
1679932760739,1112749092384077,0.035475,0.009625,0.0631125
1679932760741,1112749094886462,0.0424875,0.0116875,0.064075
1679932760743,1112749097388375,0.04455,0.0066,0.0631125
1679932760745,1112749099890760,0.0495,0.0066,0.0620125
1679932760748,1112749102392990,0.054449998,0.0056375,0.061049998
1679932760750,1112749104895144,0.0584375,6.875E-4,0.0600875
1679932760752,1112749107397298,0.062425,0.00165,0.0600875
1679932760755,1112749109899462,0.06545,0.003575,0.058025
1679932760757,1112749112401616,0.0675125,0.0026125,0.059125
1679932760760,1112749114903770,0.068475,-4.125E-4,0.058025
1679932760762,1112749117406154,0.0694375,6.875E-4,0.058025
1679932760765,1112749119908390,0.0705375,-0.001375,0.0570625
1679932760767,1112749122410544,0.0675125,-0.0023375,0.055
1679932760771,1112749124912698,0.06655,0.004675,0.0521125
1679932760774,1112749127414852,0.0644875,6.875E-4,0.050049998
1679932760776,1112749129916995,0.0595375,-0.0033,0.050049998
1679932760780,1112749132419149,0.0584375,-0.001375,0.0490875
1679932760781,1112749134921611,0.0565125,0.00165,0.050049998
1679932760783,1112749137423688,0.05555,-4.125E-4,0.050049998
1679932760786,1112749139925823,0.054449998,0.004675,0.047025
1679932760788,1112749142428053,0.052525,0.0066,0.047025
1679932760790,1112749144930207,0.051425,0.0066,0.048125
1679932760792,1112749147432361,0.054449998,0.0077,0.0490875
1679932760798,1112749149934731,0.052525,0.009625,0.048125
1679932760799,1112749152436885,0.052525,0.013612499,0.048125
1679932760802,1112749154939038,0.051425,0.009625,0.047025
1679932760804,1112749157441192,0.0534875,0.01265,0.0490875
1679932760806,1112749159943346,0.0534875,0.014575,0.050049998
1679932760807,1112749162445577,0.052525,0.01265,0.0460625
1679932760812,1112749164947659,0.051425,0.014575,0.0460625
1679932760813,1112749167450120,0.052525,0.0166375,0.048125
1679932760815,1112749169952274,0.052525,0.0166375,0.048125
1679932760818,1112749172454404,0.051425,0.0176,0.047025
1679932760821,1112749174956558,0.0534875,0.014575,0.0460625
1679932760822,1112749177458712,0.0565125,0.013612499,0.044
1679932760825,1112749179960866,0.05555,0.0196625,0.044
1679932760827,1112749182463327,0.054449998,0.0116875,0.0430375
1679932760830,1112749184965250,0.057475,0.0105875,0.0451
1679932760833,1112749187467635,0.05555,0.013612499,0.044
1679932760835,1112749189969789,0.0534875,0.0116875,0.0430375
1679932760838,1112749192471943,0.0534875,0.009625,0.0451
1679932760840,1112749194974096,0.05555,0.003575,0.0451
1679932760842,1112749197476327,0.052525,0.004675,0.044
1679932760845,1112749199978481,0.052525,0.00165,0.047025
1679932760849,1112749202480635,0.051425,0.004675,0.0460625
1679932760854,1112749204982799,0.046475,-4.125E-4,0.0460625
1679932760856,1112749207485183,0.04455,-0.001375,0.0451
1679932760857,1112749209987337,0.04455,-0.0044,0.0460625
1679932760859,1112749212489260,0.0424875,-0.0083875,0.0460625
1679932760860,1112749214991722,0.0424875,-0.007425,0.047025
1679932760862,1112749217493880,0.046475,-0.0103124995,0.0430375
1679932760865,1112749219996034,0.0485375,-0.012375,0.0430375
1679932760868,1112749222498187,0.0495,-0.0154,0.042075
1679932760870,1112749225000346,0.0534875,-0.0163625,0.0430375
1679932760873,1112749227502500,0.0534875,-0.018424999,0.042075
1679932760875,1112749230004962,0.054449998,-0.0193875,0.0430375
1679932760879,1112749232507039,0.052525,-0.0253,0.0430375
1679932760882,1112749235009274,0.0534875,-0.0264,0.039049998
1679932760883,1112749237511428,0.052525,-0.0264,0.036025
1679932760888,1112749240013582,0.0534875,-0.0253,0.0400125
1679932760890,1112749242515736,0.0504625,-0.0224125,0.037125
1679932760892,1112749245352370,0.0504625,-0.0193875,0.036025
1679932760894,1112749247520293,0.0485375,-0.0193875,0.033
1679932760895,1112749250022447,0.043449998,-0.0193875,0.033
1679932760902,1112749252524601,0.043449998,-0.0163625,0.0320375
1679932760905,1112749255026832,0.0455125,-0.0133375,0.0301125
1679932760906,1112749257528977,0.04455,-0.0154,0.0290125
1679932760908,1112749260031131,0.04455,-0.0083875,0.0290125
1679932760909,1112749262533515,0.0455125,-0.006325,0.0270875
1679932760911,1112749265035669,0.043449998,-0.0023375,0.02805
1679932760913,1112749267537823,0.040425,0.0077,0.025024999
1679932760915,1112749270040001,0.0394625,0.01265,0.0240625
1679932760917,1112749272542231,0.0394625,0.0166375,0.025024999
1679932760921,1112749275044385,0.0385,0.0215875,0.026124999
1679932760925,1112749277546529,0.0345125,0.0286,0.0240625
1679932760928,1112749280048914,0.0364375,0.034649998,0.0231
1679932760930,1112749285051068,0.035475,0.0325875,0.0210375
1679932760933,1112749285494529,0.035475,0.036575,0.0240625
1679932760935,1112749287555375,0.032449998,0.0336875,0.025024999
1679932760937,1112749290057591,0.03355,0.0386375,0.0210375
1679932760938,1112749292559745,0.0345125,0.0396,0.0210375
1679932760941,1112749295061899,0.0345125,0.037675,0.022
1679932760942,1112749297564053,0.03355,0.037675,0.020075
1679932760945,1112749300066207,0.035475,0.0356125,0.0210375
1679932760949,1112749302568606,0.0385,0.0336875,0.0210375
1679932760952,1112749305070760,0.0385,0.0336875,0.020075
1679932760955,1112749307572991,0.0375375,0.0325875,0.0160875
1679932760956,1112749310075145,0.041525,0.026675,0.01705
1679932760959,1112749312577323,0.0424875,0.0215875,0.0160875
1679932760962,1112749315079476,0.0385,0.0215875,0.015125
1679932760963,1112749317581630,0.0394625,0.0196625,0.015125
1679932760966,1112749320084015,0.0394625,0.014575,0.0160875
1679932760971,1112749322586188,0.040425,0.0116875,0.013062499
1679932760972,1112749325088342,0.0385,0.009625,0.0121
1679932760973,1112749327590572,0.0394625,0.0066,0.013062499
1679932760976,1112749330092726,0.041525,0.003575,0.0121
1679932760979,1112749332594880,0.040425,0.0026125,0.0121
1679932760981,1112749335097020,0.0364375,0.0026125,0.0100375
1679932760982,1112749337599404,0.0375375,0.004675,0.0100375
1679932760986,1112749340101558,0.035475,0.0026125,0.0100375
1679932760989,1112749342603712,0.0385,-0.001375,0.011
1679932760990,1112749345105880,0.040425,-0.001375,0.0100375
1679932760992,1112749347608111,0.040425,-0.0033,0.014025
1679932760995,1112749350110265,0.0455125,-0.0044,0.0081124995
1679932761000,1112749352612649,0.0495,-0.006325,0.0100375
1679932761002,1112749355114817,0.054449998,-0.0083875,0.011
1679932761003,1112749357616971,0.0584375,-0.0103124995,0.0081124995
1679932761006,1112749360119125,0.0605,-0.0114124995,0.009075
1679932761009,1112749362621279,0.0595375,-0.0083875,0.00605
1679932761011,1112749365123433,0.05555,-0.00935,0.0050875
1679932761013,1112749367625649,0.052525,-0.0103124995,0.004125
1679932761015,1112749370127803,0.052525,-0.0053625,0.004125
1679932761019,1112749372629957,0.051425,-0.0103124995,0.004125
1679932761020,1112749375132342,0.046475,-0.0114124995,0.0011
1679932761023,1112749377634496,0.046475,-0.0103124995,-9.625E-4
1679932761025,1112749380136649,0.046475,-0.012375,-9.625E-4
1679932761029,1112749382638803,0.0385,-0.0114124995,-0.0028875
1679932761030,1112749385141034,0.040425,-0.0133375,-0.00495
1679932761033,1112749387643178,0.041525,-0.0133375,-0.0059125
1679932761037,1112749390145332,0.040425,-0.0154,-0.0059125
1679932761039,1112749392647486,0.0375375,-0.0133375,-0.0059125
1679932761041,1112749395149870,0.0375375,-0.0133375,-0.0099
1679932761043,1112749397652024,0.0345125,-0.0163625,-0.0119624995
1679932761046,1112749400154178,0.035475,-0.0154,-0.006875
1679932761049,1112749402656409,0.035475,-0.018424999,-0.0099
1679932761052,1112749405158563,0.03355,-0.017324999,-0.0099
1679932761053,1112749407660716,0.032449998,-0.0163625,-0.0099
1679932761055,1112749410162851,0.0314875,-0.0163625,-0.0099
1679932761059,1112749412665005,0.03355,-0.0163625,-0.0089375
1679932761061,1112749415167390,0.029424999,-0.0193875,-0.0119624995
1679932761062,1112749417669544,0.029424999,-0.018424999,-0.012925
1679932761067,1112749420171745,0.0314875,-0.0154,-0.012925
1679932761069,1112749422673899,0.03355,-0.0163625,-0.0149875
1679932761071,1112749425176053,0.029424999,-0.0103124995,-0.01595
1679932761074,1112749427678207,0.029424999,-0.0103124995,-0.018975
1679932761076,1112749430180380,0.029424999,-0.0163625,-0.0199375
1679932761084,1112749432682764,0.029424999,-0.0114124995,-0.0199375
1679932761090,1112749435184995,0.029424999,-0.0114124995,-0.0199375
1679932761090,1112749437687072,0.0284625,-0.0133375,-0.0199375
1679932761090,1112749440189226,0.0284625,-0.007425,-0.018975
1679932761090,1112749442691472,0.0265375,-0.00935,-0.022
1679932761090,1112749445193626,0.0254375,-0.0114124995,-0.0209
1679932761093,1112749447695779,0.024475,-0.0083875,-0.018975
1679932761095,1112749450198164,0.024475,-0.0083875,-0.022
1679932761098,1112749452700323,0.02255,-0.006325,-0.0229625
1679932761102,1112749455202477,0.02145,-0.006325,-0.018975
1679932761102,1112749457704631,0.018424999,-0.0133375,-0.018975
1679932761105,1112749460206784,0.0204875,-0.0114124995,-0.017875
1679932761109,1112749462709010,0.0204875,-0.007425,-0.017875
1679932761113,1112749465211395,0.019524999,-0.0114124995,-0.0169125
1679932761114,1112749467713549,0.018424999,-0.012375,-0.0149875
1679932761116,1112749470215703,0.018424999,-0.012375,-0.01595
1679932761120,1112749472717856,0.019524999,-0.0114124995,-0.012925
1679932761123,1112749477720010,0.019524999,-0.012375,-0.0149875
1679932761125,1112749477869318,0.019524999,-0.012375,-0.0169125
1679932761129,1112749480224318,0.0174625,-0.0163625,-0.0169125
1679932761131,1112749485226774,0.018424999,-0.0154,-0.011
1679932761133,1112749485519700,0.0165,-0.0133375,-0.01595
1679932761133,1112749485820083,0.018424999,-0.0143,-0.0169125
1679932761135,1112749490233236,0.018424999,-0.0143,-0.017875
1679932761139,1112749492735390,0.019524999,-0.017324999,-0.0149875
1679932761141,1112749495237549,0.0204875,-0.017324999,-0.0169125
1679932761144,1112749497739779,0.0224125,-0.0143,-0.0169125
1679932761145,1112749500241933,0.0235125,-0.0143,-0.012925
1679932761154,1112749502744327,0.0235125,-0.0193875,-0.0169125
1679932761155,1112749507746250,0.02145,-0.018424999,-0.012925
1679932761155,1112749507846865,0.0235125,-0.017324999,-0.012925
1679932761156,1112749510250789,0.024475,-0.018424999,-0.011
1679932761159,1112749512753019,0.0235125,-0.0163625,-0.012925
1679932761163,1112749515255140,0.0235125,-0.0163625,-0.0149875
1679932761164,1112749517757294,0.0204875,-0.0163625,-0.012925
1679932761168,1112749520259448,0.02145,-0.017324999,-0.01595
1679932761170,1112749522761602,0.0224125,-0.0143,-0.0119624995
1679932761171,1112749525263756,0.0235125,-0.0154,-0.0119624995
1679932761174,1112749527765909,0.019524999,-0.0154,-0.01595
1679932761175,1112749530268371,0.019524999,-0.0154,-0.018975
1679932761181,1112749532770448,0.019524999,-0.0143,-0.0169125
1679932761181,1112749535272679,0.018424999,-0.0163625,-0.0149875
1679932761183,1112749537774862,0.0174625,-0.0133375,-0.01595
1679932761187,1112749540277015,0.0165,-0.0133375,-0.0169125
1679932761189,1112749542779169,0.013475,-0.0103124995,-0.017875
1679932761191,1112749545281554,0.0114124995,-0.012375,-0.01595
1679932761193,1112749547783722,0.01045,-0.0114124995,-0.0169125
1679932761195,1112749550285952,0.0125124995,-0.0143,-0.0149875
1679932761202,1112749552788029,0.01045,-0.0163625,-0.0149875
1679932761203,1112749555290260,0.007425,-0.017324999,-0.012925
1679932761203,1112749557792414,0.0064625,-0.0154,-0.012925
1679932761206,1112749560294553,0.0055,-0.0193875,-0.0119624995
1679932761212,1112749562796937,0.0064625,-0.018424999,-0.0089375
1679932761213,1112749565299091,0.008525,-0.02035,-0.011
1679932761213,1112749567801245,0.008525,-0.018424999,-0.0119624995
1679932761215,1112749570303399,0.008525,-0.0193875,-0.0089375
1679932761220,1112749572805557,0.0064625,-0.0213125,-0.006875
1679932761220,1112749575307788,0.0064625,-0.02035,-0.0059125
1679932761224,1112749577810172,0.0055,-0.0224125,-0.00495
1679932761226,1112749580312326,0.0094875,-0.0213125,-0.0039875
1679932761229,1112749582814283,0.013475,-0.0243375,-0.007975
1679932761231,1112749585316668,0.0125124995,-0.0264,-0.007975
1679932761233,1112749587818899,0.0204875,-0.0224125,-0.00495
1679932761235,1112749590321052,0.0235125,-0.0253,-0.001925
1679932761239,1112749592823235,0.02145,-0.0264,-0.0028875
1679932761241,1112749595325389,0.024475,-0.0224125,-0.00495
1679932761242,1112749597827543,0.0224125,-0.0193875,-0.00495
1679932761246,1112749600329697,0.02145,-0.018424999,-0.007975
1679932761253,1112749602831832,0.0235125,-0.0224125,-0.00495
1679932761254,1112749605334216,0.0264,-0.0224125,-0.0028875
1679932761254,1112749607836447,0.0284625,-0.02035,-0.0039875
1679932761255,1112749610338524,0.035475,-0.0213125,-0.00495
1679932761259,1112749612840755,0.0374,-0.017324999,-0.0028875
1679932761263,1112749615342880,0.0364375,-0.018424999,-0.0028875
1679932761264,1112749617845034,0.0374,-0.0213125,-0.00495
1679932761266,1112749620347418,0.0374,-0.02035,-0.0039875
1679932761269,1112749622849572,0.0374,-0.018424999,-0.006875
1679932761271,1112749625351726,0.032449998,-0.0133375,-0.00495
1679932761273,1112749627853932,0.0314875,-0.0114124995,-0.006875
1679932761275,1112749630356009,0.0345125,-0.012375,-0.0059125
1679932761279,1112749632858239,0.032449998,-0.0133375,-0.006875
1679932761280,1112749635360624,0.0334125,-0.0114124995,-0.00495
1679932761282,1112749637862778,0.0284625,-0.012375,-0.006875
1679932761286,1112749640364952,0.029424999,-0.0154,-0.0089375
1679932761289,1112749642867106,0.0364375,-0.0103124995,-0.006875
1679932761290,1112749645369259,0.040425,-0.012375,-0.00495
1679932761292,1112749647871413,0.0424875,-0.017324999,-0.007975
1679932761295,1112749650373567,0.0444125,-0.017324999,-0.006875
1679932761301,1112749652876014,0.0484,-0.0163625,-0.00495
1679932761303,1112749655378167,0.046475,-0.017324999,-0.0059125
1679932761305,1112749657880321,0.0444125,-0.018424999,-0.006875
1679932761306,1112749660382475,0.043449998,-0.0213125,-0.006875
1679932761309,1112749662884629,0.041525,-0.0193875,-0.006875
1679932761310,1112749665386788,0.0394625,-0.02035,-0.007975
1679932761313,1112749667889019,0.035475,-0.0213125,-0.007975
1679932761315,1112749670391173,0.035475,-0.0253,-0.0089375
1679932761319,1112749672893557,0.035475,-0.018424999,-0.011
1679932761321,1112749675395697,0.029424999,-0.0243375,-0.0119624995
1679932761323,1112749677897851,0.0284625,-0.0264,-0.01595
1679932761326,1112749680400005,0.029424999,-0.0253,-0.01595
1679932761329,1112749682902159,0.0284625,-0.02035,-0.017875
1679932761331,1112749685404389,0.032449998,-0.0213125,-0.017875
1679932761333,1112749687906543,0.0314875,-0.02035,-0.0169125
1679932761337,1112749690408697,0.0284625,-0.017324999,-0.017875
1679932761339,1112749692911082,0.0284625,-0.018424999,-0.0149875
1679932761341,1112749695413005,0.0284625,-0.018424999,-0.017875
1679932761343,1112749697915408,0.029424999,-0.017324999,-0.01595
1679932761345,1112749700417639,0.0275,-0.017324999,-0.0149875
1679932761349,1112749702919793,0.0284625,-0.0154,-0.017875
1679932761351,1112749705421947,0.0284625,-0.012375,-0.01595
1679932761353,1112749707924101,0.0284625,-0.0114124995,-0.0149875
1679932761355,1112749710426255,0.0235125,-0.0114124995,-0.0169125
1679932761362,1112749712928408,0.0235125,-0.006325,-0.0149875
1679932761363,1112749715430562,0.0254375,-0.00935,-0.01595
1679932761364,1112749717932947,0.0264,-0.00935,-0.0169125
1679932761366,1112749720435163,0.0235125,-0.007425,-0.01595
1679932761369,1112749722937316,0.0235125,0.0026125,-0.017875
1679932761371,1112749725439470,0.0224125,0.00165,-0.0169125
1679932761375,1112749727941619,0.0235125,-4.125E-4,-0.018975
1679932761377,1112749730443773,0.02145,0.004675,-0.0199375
1679932761380,1112749732946158,0.0204875,0.0077,-0.022
1679932761381,1112749735448312,0.0204875,0.0077,-0.0209
1679932761383,1112749737950465,0.0204875,0.013612499,-0.0209
1679932761385,1112749740452706,0.0204875,0.013612499,-0.0209
1679932761389,1112749742954783,0.0254375,0.0196625,-0.022
1679932761391,1112749745457014,0.0284625,0.020624999,-0.0229625
1679932761393,1112749747959398,0.0275,0.0176,-0.0199375
1679932761395,1112749750461528,0.0314875,0.020624999,-0.0209
1679932761403,1112749752963682,0.032449998,0.0187,-0.0229625
1679932761404,1112749755465836,0.0334125,0.0187,-0.0229625
1679932761407,1112749757967990,0.0314875,0.0187,-0.0259875
1679932761409,1112749760470206,0.024475,0.0187,-0.0248875
1679932761410,1112749762972283,0.0235125,0.0187,-0.02695
1679932761413,1112749765474744,0.0254375,0.026675,-0.0259875
1679932761414,1112749767976898,0.0275,0.0226875,-0.0279125
1679932761416,1112749770479067,0.0254375,0.020624999,-0.029975
1679932761419,1112749772981221,0.0264,0.020624999,-0.029975
1679932761421,1112749775483375,0.0284625,0.0176,-0.0319
1679932761424,1112749777985528,0.032449998,0.0187,-0.033
1679932761426,1112749780487759,0.0364375,0.0176,-0.033
1679932761429,1112749782989927,0.0364375,0.013612499,-0.033
1679932761431,1112749785492081,0.035475,0.009625,-0.0358875
1679932761434,1112749787994465,0.0334125,0.0077,-0.039875
1679932761436,1112749790496389,0.0314875,0.004675,-0.039875
1679932761439,1112749792998778,0.0314875,6.875E-4,-0.039875
1679932761440,1112749795500932,0.0284625,-4.125E-4,-0.0389125
1679932761444,1112749798003163,0.024475,-0.0023375,-0.0419375
1679932761447,1112749800505317,0.02145,-0.0033,-0.044
1679932761454,1112749803007500,0.0224125,-0.0033,-0.0449625
1679932761454,1112749805508576,0.02145,-0.0044,-0.045925
1679932761455,1112749808009653,0.0204875,-0.006325,-0.045925
1679932761458,1112749810513961,0.018424999,-0.0033,-0.045925
1679932761460,1112749813016394,0.013475,-0.0053625,-0.045925
1679932761462,1112749815518547,0.0114124995,-0.0083875,-0.04895
1679932761464,1112749818020701,0.0154,-0.0103124995,-0.04895
1679932761466,1112749820522855,0.013475,-0.00935,-0.0449625
1679932761469,1112749823025023,0.01045,-0.00935,-0.0429
1679932761471,1112749825527177,0.0094875,-0.006325,-0.045925
1679932761474,1112749828029638,0.0094875,-0.00935,-0.04895
1679932761475,1112749830531715,0.01045,-0.0103124995,-0.0479875
1679932761479,1112749833033927,0.013475,-0.0114124995,-0.044
1679932761481,1112749835536081,0.01045,-0.012375,-0.0429
1679932761483,1112749838038235,0.0094875,-0.0114124995,-0.0429
1679932761488,1112749840540389,0.0094875,-0.007425,-0.0429
1679932761491,1112749843042533,0.0094875,-0.007425,-0.0419375
1679932761493,1112749845735763,0.0114124995,-0.007425,-0.0429
1679932761494,1112749848047148,0.007425,-0.0033,-0.0429
1679932761496,1112749850549225,0.0034375,-0.006325,-0.0389125
1679932761498,1112749853051456,0.0015125,-0.0044,-0.0389125
1679932761501,1112749855553629,0.002475,-0.0044,-0.0369875
1679932761503,1112749858055705,0.0044,-0.006325,-0.0419375
1679932761505,1112749860558167,0.0034375,-0.0083875,-0.03795
1679932761509,1112749863060321,4.125E-4,-0.0083875,-0.0358875
1679932761512,1112749865562490,0.0015125,-0.00935,-0.03795
1679932761514,1112749868064644,0.0015125,-0.012375,-0.034925
1679932761516,1112749870566797,0.0034375,-0.0103124995,-0.034925
1679932761520,1112749873068951,0.002475,-0.0103124995,-0.034925
1679932761522,1112749875571163,0.0034375,-0.0133375,-0.0339625
1679932761525,1112749878073317,0.0055,-0.0163625,-0.0319
1679932761527,1112749880575701,0.0044,-0.0133375,-0.033
1679932761530,1112749883077855,0.0034375,-0.0133375,-0.0319
1679932761532,1112749885580009,0.0055,-0.0143,-0.0319
1679932761533,1112749888082163,0.0055,-0.017324999,-0.0279125
1679932761535,1112749890584394,0.0055,-0.0154,-0.0259875
1679932761540,1112749893086548,0.008525,-0.012375,-0.02695
1679932761543,1112749895588702,0.007425,-0.0133375,-0.02695
1679932761544,1112749898090845,0.0125124995,-0.0143,-0.022
1679932761546,1112749900593230,0.0154,-0.012375,-0.0279125
1679932761549,1112749903095384,0.019524999,-0.012375,-0.0248875
1679932761552,1112749905597615,0.0235125,-0.0083875,-0.0259875
1679932761554,1112749908099758,0.0275,-0.006325,-0.0259875
1679932761556,1112749910601912,0.0314875,-0.0053625,-0.023924999
1679932761558,1112749913104066,0.035475,-0.001375,-0.02695
1679932761562,1112749915606220,0.0385,-4.125E-4,-0.0279125
1679932761563,1112749918108408,0.040425,-4.125E-4,-0.02695
1679932761566,1112749920610793,0.043449998,0.003575,-0.0279125
1679932761570,1112749923112946,0.0424875,0.009625,-0.02695
1679932761572,1112749925615177,0.0424875,0.0116875,-0.028875
1679932761574,1112749928117317,0.0394625,0.009625,-0.029975
1679932761576,1112749930619471,0.0385,0.01265,-0.029975
1679932761579,1112749933121625,0.040425,0.013612499,-0.029975
1679932761581,1112749935624009,0.0394625,0.013612499,-0.02695
1679932761583,1112749938126163,0.040425,0.013612499,-0.029975
1679932761586,1112749940628293,0.0424875,0.01265,-0.029975
1679932761589,1112749943130447,0.040425,0.0166375,-0.028875
1679932761591,1112749945632601,0.0385,0.0105875,-0.0319
1679932761594,1112749948134831,0.0394625,0.0066,-0.028875
1679932761595,1112749950637225,0.0385,0.0105875,-0.028875
1679932761600,1112749953139379,0.0374,0.009625,-0.02695
1679932761604,1112749955641533,0.0345125,0.004675,-0.029975
1679932761607,1112749958143687,0.0385,0.003575,-0.029975
1679932761608,1112749960645841,0.0364375,6.875E-4,-0.0259875
1679932761610,1112749963147994,0.0345125,-0.0044,-0.0248875
1679932761612,1112749965650148,0.0334125,-0.006325,-0.023924999
1679932761614,1112749968152379,0.029424999,-0.00935,-0.0229625
1679932761616,1112749970654533,0.032449998,-0.0133375,-0.0229625
1679932761619,1112749973156917,0.029424999,-0.012375,-0.0209
1679932761621,1112749975659071,0.029424999,-0.0193875,-0.017875
1679932761624,1112749978161225,0.029424999,-0.0253,-0.0169125
1679932761627,1112749980663379,0.0265375,-0.028324999,-0.01595
1679932761629,1112749983165625,0.0275,-0.0303875,-0.0119624995
1679932761631,1112749985667779,0.029424999,-0.03135,-0.011
1679932761633,1112749988169933,0.0314875,-0.0353375,-0.011
1679932761637,1112749990672086,0.032449998,-0.034375,-0.007975
1679932761640,1112749993174475,0.0345125,-0.0383625,-0.0059125
1679932761642,1112749995676629,0.0314875,-0.039325,-0.006875
1679932761643,1112749998178783,0.0314875,-0.039325,-0.00495
1679932761648,1112750000680989,0.0345125,-0.0413875,-0.00495
1679932761650,1112750003183143,0.032449998,-0.0413875,-0.0099
1679932761651,1112750005685297,0.035475,-0.034375,-0.006875
1679932761653,1112750008187451,0.0334125,-0.0353375,-0.006875
1679932761656,1112750010689605,0.0345125,-0.0353375,-0.0089375
1679932761660,1112750013191788,0.0385,-0.034375,-0.007975
1679932761661,1112750015694172,0.0394625,-0.0363,-0.006875
1679932761663,1112750018196326,0.040425,-0.034375,-0.0099
1679932761666,1112750020698557,0.0394625,-0.028324999,-0.0099
1679932761669,1112750023200711,0.0424875,-0.0253,-0.007975
1679932761671,1112750025702846,0.041525,-0.0213125,-0.007975
1679932761677,1112750028205000,0.0424875,-0.02035,-0.007975
1679932761677,1112750030707384,0.043449998,-0.0163625,-0.0099
1679932761680,1112750033209533,0.0424875,-0.0143,-0.0099
1679932761682,1112750035711687,0.043449998,-0.0103124995,-0.007975
1679932761685,1112750038213841,0.0455125,-0.006325,-0.012925
1679932761686,1112750040716071,0.046475,-0.007425,-0.01595
1679932761689,1112750043218225,0.046475,-0.0033,-0.0119624995
1679932761691,1112750045720408,0.0504625,-0.0023375,-0.011
1679932761693,1112750048222793,0.051425,-0.0023375,-0.01595
1679932761696,1112750050724947,0.0534875,-0.0023375,-0.0149875
1679932761699,1112750053227101,0.0534875,-0.0033,-0.0119624995
1679932761702,1112750055729254,0.0554125,-0.0023375,-0.007975
1679932761706,1112750058231398,0.0565125,-4.125E-4,-0.0059125
1679932761713,1112750060733629,0.052525,-0.0033,-0.0099
1679932761713,1112750063235783,0.0495,-0.0033,-0.007975
1679932761713,1112750065738167,0.046475,-0.0083875,-0.006875
1679932761714,1112750068240326,0.052525,-0.0044,-0.0089375
1679932761715,1112750070742480,0.0504625,-0.0083875,-0.007975
1679932761719,1112750073244634,0.0504625,-0.0133375,-0.007975
1679932761721,1112750075746788,0.051425,-0.0154,-0.00495
1679932761725,1112750078248942,0.0504625,-0.0143,-0.00495
1679932761727,1112750080751173,0.0554125,-0.0154,-0.0059125
1679932761729,1112750083253326,0.0534875,-0.0163625,-0.0099
1679932761731,1112750085755480,0.0504625,-0.0163625,-0.006875
1679932761733,1112750088257865,0.0485375,-0.017324999,-9.625E-4
1679932761735,1112750090760005,0.043449998,-0.0253,-9.625E-4
1679932761740,1112750093262159,0.043449998,-0.0243375,-0.001925
1679932761741,1112750095764389,0.0424875,-0.0253,-0.001925
1679932761743,1112750098266543,0.041525,-0.029424999,0.0
1679932761746,1112750100768730,0.0364375,-0.0303875,0.0020625
1679932761751,1112750103270884,0.0364375,-0.0323125,0.003025
1679932761753,1112750105773038,0.0375375,-0.0334125,0.004125
1679932761754,1112750108275422,0.0345125,-0.0334125,0.0020625
1679932761755,1112750110777364,0.029424999,-0.0303875,0.004125
1679932761759,1112750113279826,0.0284625,-0.028324999,0.00605
1679932761764,1112750115781980,0.0254375,-0.0303875,0.00605
1679932761765,1112750118284134,0.02145,-0.0273625,0.003025
1679932761766,1112750120786288,0.0204875,-0.028324999,0.0081124995
1679932761769,1112750123288441,0.018424999,-0.0264,0.014025
1679932761771,1112750125790595,0.0155375,-0.0273625,0.0121
1679932761773,1112750128293057,0.0165,-0.0224125,0.009075
1679932761776,1112750130795134,0.0125124995,-0.02035,0.0100375
1679932761780,1112750133297364,0.0094875,-0.018424999,0.009075
1679932761781,1112750135799518,0.0064625,-0.012375,0.0081124995
1679932761786,1112750138301672,0.0064625,-0.0114124995,0.011
1679932761787,1112750140803831,0.007425,-0.00935,0.011
1679932761790,1112750143306216,0.002475,-0.0103124995,0.0121
1679932761792,1112750145808370,0.0015125,-0.006325,0.0121
1679932761794,1112750148310600,-0.0055,-0.0044,0.011
1679932761796,1112750150812677,-0.0064625,-0.0044,0.011
1679932761799,1112750153314841,-0.0045375,0.003575,0.015125
1679932761802,1112750155817072,-0.003575,0.00165,0.01705
1679932761804,1112750158319226,-0.003575,6.875E-4,0.013062499
1679932761806,1112750160821610,-0.003575,-4.125E-4,0.014025
1679932761811,1112750163323749,-0.003575,0.0026125,0.0160875
1679932761811,1112750165825903,-0.0045375,0.0056375,0.015125
1679932761815,1112750168328057,-5.5E-4,0.0026125,0.015125
1679932761816,1112750170830211,0.0034375,-0.001375,0.015125
1679932761819,1112750173332465,0.008525,0.0026125,0.013062499
1679932761821,1112750175834850,0.0094875,0.0066,0.015125
1679932761825,1112750178336773,0.0094875,-4.125E-4,0.011
1679932761827,1112750180839158,0.007425,0.0026125,0.011
1679932761832,1112750183341288,0.007425,0.0077,0.011
1679932761833,1112750185843442,0.0055,0.0116875,0.0070125
1679932761834,1112750188345595,0.002475,0.0105875,0.0050875
1679932761836,1112750190847749,0.0034375,0.0066,0.0050875
1679932761839,1112750193349980,-0.0015125,0.0077,0.0011
1679932761841,1112750195852365,-0.0015125,0.0166375,0.0
1679932761846,1112750198354288,-0.003575,0.0166375,0.0
1679932761846,1112750200856442,-0.008525,0.015675,-0.0028875
1679932761849,1112750203358831,-0.0105875,0.013612499,-0.00495
1679932761852,1112750205861062,-0.014575,0.013612499,-0.0059125
1679932761853,1112750208363139,-0.013475,0.015675,-0.006875
1679932761856,1112750210865293,-0.014575,0.0105875,-0.0099
1679932761859,1112750213367524,-0.0165,0.013612499,-0.006875
1679932761862,1112750215869682,-0.0155375,0.01265,-0.00495
1679932761864,1112750218372067,-0.0155375,0.0077,-0.006875
1679932761866,1112750220874221,-0.014575,0.01265,-0.0059125
1679932761869,1112750223376375,-0.0165,0.01265,-0.0039875
1679932761871,1112750225878605,-0.0185625,0.0066,-0.0028875
1679932761873,1112750228380682,-0.0204875,0.004675,-0.001925
1679932761877,1112750230882836,-0.024475,0.0056375,-0.001925
1679932761879,1112750233385067,-0.02255,0.00165,-9.625E-4
1679932761881,1112750235887216,-0.0284625,0.00165,0.0
1679932761884,1112750238389600,-0.03355,0.0066,-0.001925
1679932761886,1112750240891754,-0.036575,0.0056375,0.0011
1679932761891,1112750243393922,-0.0385,0.0026125,0.0011
1679932761892,1112750245896076,-0.0385,0.0056375,0.0020625
1679932761893,1112750248398230,-0.0394625,0.0056375,0.003025
1679932761896,1112750250900461,-0.0455125,0.0116875,-9.625E-4
1679932761902,1112750253402826,-0.04455,0.0056375,0.0020625
1679932761903,1112750255904749,-0.0424875,6.875E-4,0.003025
1679932761905,1112750258407134,-0.0455125,0.00165,0.003025
1679932761906,1112750260909288,-0.0495,-4.125E-4,0.00605
1679932761909,1112750263411442,-0.047575,0.003575,0.0050875
1679932761911,1112750265913639,-0.0495,6.875E-4,0.00605
1679932761913,1112750268415793,-0.052525,0.00165,0.0070125
1679932761916,1112750270917947,-0.0534875,6.875E-4,0.0070125
1679932761921,1112750273420332,-0.0565125,-0.001375,0.0100375
1679932761922,1112750275922241,-0.0614625,6.875E-4,0.011
1679932761924,1112750278424626,-0.0595375,-0.0033,0.009075
1679932761926,1112750280926779,-0.0614625,-0.0053625,0.011
1679932761929,1112750283429010,-0.0605,-0.0033,0.0121
1679932761931,1112750285931164,-0.0614625,-0.0044,0.011
1679932761933,1112750288433318,-0.0625625,-0.0033,0.011
1679932761937,1112750290935472,-0.0644875,-0.001375,0.013062499
1679932761940,1112750293437626,-0.0644875,-0.0033,0.0121
1679932761942,1112750295939779,-0.063525,-0.0033,0.015125
1679932761944,1112750298442174,-0.0605,-0.0044,0.020075
1679932761946,1112750300944405,-0.0605,-0.0053625,0.01705
1679932761949,1112750303446482,-0.0565125,-0.0083875,0.014025
1679932761951,1112750305948713,-0.058575,-0.0103124995,0.0160875
1679932761953,1112750308450875,-0.0534875,-0.0114124995,0.0160875
1679932761956,1112750310953029,-0.0504625,-0.012375,0.014025
1679932761959,1112750313455183,-0.0504625,-0.0163625,0.0160875
1679932761961,1112750315957568,-0.0504625,-0.02035,0.0191125
1679932761964,1112750318459717,-0.046475,-0.0193875,0.015125
1679932761966,1112750320961947,-0.052525,-0.0253,0.0160875
1679932761969,1112750323464024,-0.0565125,-0.0273625,0.015125
1679932761971,1112750325966255,-0.0595375,-0.0253,0.0160875
1679932761975,1112750328468432,-0.063525,-0.0253,0.0160875
1679932761977,1112750330970816,-0.0644875,-0.028324999,0.0160875
1679932761980,1112750333472970,-0.063525,-0.028324999,0.01705
1679932761982,1112750335975124,-0.0655875,-0.028324999,0.01705
1679932761983,1112750338477278,-0.0735625,-0.0303875,0.0191125
1679932761986,1112750340979442,-0.0715,-0.0334125,0.01705
1679932761989,1112750343481596,-0.0715,-0.0323125,0.020075
1679932761991,1112750345984057,-0.0724625,-0.0303875,0.0191125
1679932761994,1112750348486211,-0.0754875,-0.0273625,0.0160875
1679932761997,1112750350988379,-0.0754875,-0.0303875,0.020075
1679932761999,1112750353490533,-0.07755,-0.0323125,0.0210375
1679932762002,1112750355992687,-0.0785125,-0.0323125,0.0231
1679932762004,1112750358494841,-0.080575,-0.034375,0.0231
1679932762006,1112750360997004,-0.082499996,-0.0334125,0.026124999
1679932762009,1112750363499235,-0.082499996,-0.0353375,0.025024999
1679932762013,1112750366001389,-0.0785125,-0.0383625,0.0240625
1679932762015,1112750368503774,-0.0754875,-0.0383625,0.026124999
1679932762017,1112750371005711,-0.0765875,-0.0383625,0.0240625
1679932762019,1112750373508095,-0.0765875,-0.0413875,0.0231
1679932762021,1112750376010249,-0.0735625,-0.0374,0.0231
1679932762024,1112750378512480,-0.0754875,-0.04235,0.0231
1679932762026,1112750381014634,-0.074525,-0.0383625,0.0240625
1679932762029,1112750383516764,-0.0735625,-0.0383625,0.0231
1679932762031,1112750386018918,-0.0735625,-0.0383625,0.0231
1679932762033,1112750388521302,-0.0724625,-0.0383625,0.025024999
1679932762036,1112750391023225,-0.074525,-0.039325,0.0240625
1679932762039,1112750393525625,-0.074525,-0.0374,0.025024999
1679932762041,1112750396027856,-0.07755,-0.0363,0.0240625
1679932762044,1112750398530009,-0.079475,-0.04235,0.022
1679932762046,1112750401032163,-0.080575,-0.039325,0.0231
1679932762052,1112750403534317,-0.0864875,-0.039325,0.022
1679932762054,1112750406036471,-0.085525,-0.039325,0.0210375
1679932762055,1112750408538625,-0.0864875,-0.0374,0.0210375
1679932762056,1112750411041010,-0.0864875,-0.0413875,0.0210375
1679932762059,1112750413543246,-0.0875875,-0.039325,0.025024999
1679932762061,1112750416045400,-0.0944625,-0.0413875,0.025024999
1679932762063,1112750418547477,-0.0944625,-0.045375,0.0231
1679932762069,1112750421049727,-0.0935,-0.0463375,0.025024999
1679932762071,1112750423551881,-0.0935,-0.0493625,0.026124999
1679932762072,1112750426054035,-0.0955625,-0.051425,0.0240625
1679932762074,1112750428556419,-0.0955625,-0.0554125,0.026124999
1679932762076,1112750431058573,-0.0974875,-0.0583,0.0240625
1679932762079,1112750433560755,-0.0974875,-0.0573375,0.025024999
1679932762082,1112750436062986,-0.09955,-0.0633875,0.026124999
1679932762085,1112750438565063,-0.096525,-0.0664125,0.025024999
1679932762087,1112750441067293,-0.0955625,-0.069299996,0.0240625
1679932762090,1112750443569673,-0.0944625,-0.072325,0.026124999
1679932762092,1112750446071827,-0.096525,-0.078375,0.0270875
1679932762093,1112750448573981,-0.0955625,-0.0803,0.02805
1679932762096,1112750451076135,-0.0974875,-0.08635,0.0290125
1679932762101,1112750453578302,-0.0944625,-0.0884125,0.0270875
1679932762103,1112750456080456,-0.090475,-0.0903375,0.0270875
1679932762105,1112750458582687,-0.090475,-0.1013375,0.0301125
1679932762107,1112750461085072,-0.090475,-0.10835,0.02805
1679932762109,1112750463587216,-0.085525,-0.113299996,0.0301125
1679932762111,1112750466089370,-0.0875875,-0.113299996,0.0320375
1679932762115,1112750468591524,-0.082499996,-0.1153625,0.0290125
1679932762118,1112750471093678,-0.0765875,-0.1183875,0.0290125
1679932762122,1112750473595822,-0.07755,-0.11935,0.0301125
1679932762123,1112750476098053,-0.074525,-0.11935,0.0290125
1679932762129,1112750478600207,-0.0735625,-0.11935,0.025024999
1679932762133,1112750481101297,-0.068475,-0.1214125,0.025024999
1679932762133,1112750483602374,-0.0625625,-0.1214125,0.0210375
1679932762136,1112750488606682,-0.063525,-0.1203125,0.01705
1679932762138,1112750488710913,-0.0625625,-0.117425,0.014025
1679932762140,1112750491111297,-0.063525,-0.1183875,0.0100375
1679932762142,1112750493613451,-0.0595375,-0.117425,0.0100375
1679932762143,1112750496115577,-0.057475,-0.1203125,0.0081124995
1679932762145,1112750498617731,-0.0595375,-0.11935,0.0081124995
1679932762147,1112750501119885,-0.058575,-0.1153625,0.0100375
1679932762150,1112750503622039,-0.0565125,-0.1104125,0.0121
1679932762153,1112750506124193,-0.0565125,-0.10835,0.013062499
1679932762155,1112750508626577,-0.057475,-0.1034,0.0100375
1679932762157,1112750511128731,-0.0565125,-0.100375,0.011
1679932762160,1112750513630962,-0.0565125,-0.0983125,0.013062499
1679932762163,1112750516133130,-0.052525,-0.094325,0.013062499
1679932762165,1112750518635514,-0.0565125,-0.0924,0.011
1679932762168,1112750521137668,-0.057475,-0.08635,0.013062499
1679932762171,1112750523639822,-0.058575,-0.0803,0.014025
1679932762172,1112750526141976,-0.0595375,-0.07535,0.013062499
1679932762174,1112750528644121,-0.0616,-0.0704,0.01705
1679932762177,1112750531146275,-0.057475,-0.069299996,0.0191125
1679932762179,1112750533648505,-0.0605,-0.0683375,0.01705
1679932762181,1112750536150890,-0.0616,-0.0633875,0.01705
1679932762183,1112750538652813,-0.0616,-0.0594,0.020075
1679932762186,1112750541155198,-0.0595375,-0.0554125,0.0191125
1679932762189,1112750543657352,-0.0605,-0.0543125,0.01705
1679932762191,1112750546159505,-0.0595375,-0.0543125,0.022
1679932762194,1112750548661659,-0.0595375,-0.05335,0.022
1679932762197,1112750551163890,-0.0565125,-0.0493625,0.0231
1679932762201,1112750553666044,-0.052525,-0.0463375,0.025024999
1679932762203,1112750556168198,-0.052525,-0.04235,0.026124999
1679932762205,1112750558670365,-0.047575,-0.0413875,0.025024999
1679932762206,1112750561172749,-0.0424875,-0.0374,0.025024999
1679932762209,1112750563674903,-0.0396,-0.0433125,0.026124999
1679932762212,1112750566177134,-0.0385,-0.04235,0.02805
1679932762213,1112750568679288,-0.035475,-0.0413875,0.0270875
1679932762217,1112750571181447,-0.030524999,-0.0433125,0.026124999
1679932762220,1112750573683600,-0.0325875,-0.0413875,0.02805
1679932762222,1112750576185754,-0.035475,-0.04235,0.0240625
1679932762224,1112750578687908,-0.0375375,-0.04235,0.0191125
1679932762227,1112750581190293,-0.041525,-0.034375,0.0210375
1679932762230,1112750583692523,-0.0396,-0.04235,0.0191125
1679932762231,1112750586194600,-0.041525,-0.0484,0.0191125
1679932762235,1112750588696831,-0.0396,-0.050325,0.020075
1679932762238,1112750591198971,-0.0435875,-0.0523875,0.014025
1679932762242,1112750593701125,-0.046475,-0.0603625,0.014025
1679932762243,1112750596203279,-0.046475,-0.0633875,0.01705
1679932762245,1112750598705663,-0.0485375,-0.069299996,0.013062499
1679932762246,1112750601207817,-0.052525,-0.078375,0.013062499
1679932762253,1112750603710025,-0.052525,-0.0823625,0.015125
1679932762253,1112750606212102,-0.0495,-0.0903375,0.01705
1679932762255,1112750608714333,-0.052525,-0.09735,0.0160875
1679932762256,1112750611216487,-0.0545875,-0.1073875,0.01705
1679932762259,1112750613718871,-0.057475,-0.116325,0.020075
1679932762261,1112750616221025,-0.05555,-0.1254,0.0191125
1679932762265,1112750618723179,-0.0565125,-0.133375,0.0210375
1679932762267,1112750621225333,-0.057475,-0.144375,0.0231
1679932762270,1112750623727477,-0.0545875,-0.150425,0.0231
1679932762272,1112750626229630,-0.0506,-0.1544125,0.022
