system_ts_ms, sensor_ts_ns, gyrX, gyrY, gyrZ
1679992136111,1172124462468954,-0.7651875,-0.51919997,-1.312025
1679992136111,1172124464970723,-0.737275,-0.41415,-1.2771
1679992136112,1172124467472248,-0.7052375,-0.323125,-1.2390125
1679992136114,1172124469973863,-0.6692125,-0.2431,-1.208075
1679992136118,1172124472475632,-0.6342875,-0.17613749,-1.180025
1679992136127,1172124474977248,-0.5982625,-0.12815,-1.1540375
1679992136128,1172124477478785,-0.560175,-0.100099996,-1.1400125
1679992136128,1172124479980554,-0.522225,-0.0930875,-1.133
1679992136128,1172124482482400,-0.483175,-0.0941875,-1.12805
1679992136129,1172124484984016,-0.451275,-0.1082125,-1.129975
1679992136132,1172124487485559,-0.4222625,-0.1241625,-1.1341
1679992136135,1172124489987329,-0.3922875,-0.1480875,-1.1400125
1679992136137,1172124492488944,-0.3691875,-0.175175,-1.15005
1679992136141,1172124494990713,-0.340175,-0.1931875,-1.166
1679992136143,1172124497492267,-0.307175,-0.1901625,-1.184975
1679992136145,1172124499994113,-0.2673,-0.1661,-1.2029876
1679992136147,1172124502495728,-0.2371875,-0.1271875,-1.2280124
1679992136149,1172124504997267,-0.1992375,-0.0721875,-1.24905
1679992136153,1172124507499021,-0.1601875,-0.0022,-1.2720125
1679992136156,1172124510000636,-0.1243,0.0658625,-1.2970375
1679992136158,1172124512502405,-0.0902,0.1478125,-1.3160125
1679992136159,1172124515004021,-0.055275,0.231825,-1.3330625
1679992136163,1172124517505790,-0.0202125,0.3188625,-1.3490125
1679992136164,1172124520007445,0.0077,0.3988875,-1.35905
1679992136167,1172124522509214,0.027775,0.47685,-1.367025
1679992136169,1172124525010752,0.044825,0.5599,-1.3789876
1679992136173,1172124527512368,0.0587125,0.6378625,-1.39205
1679992136174,1172124530014247,0.0627,0.7099125,-1.4040124
1679992136179,1172124532516016,0.06875,0.7827875,-1.415975
1679992136180,1172124535017554,0.077825,0.8438375,-1.4290375
1679992136183,1172124537519170,0.077825,0.8908625,-1.441
1679992136184,1172124540020925,0.073699996,0.930875,-1.4510375
1679992136190,1172124542522540,0.0748,0.9538375,-1.45805
1679992136190,1172124545024079,0.073699996,0.9629125,-1.4620374
1679992136193,1172124547525925,0.0677875,0.952875,-1.461075
1679992136194,1172124550027669,0.05775,0.9367875,-1.455025
1679992136198,1172124552529285,0.04675,0.91685,-1.4449875
1679992136199,1172124555030823,0.03575,0.8848125,-1.4260125
1679992136203,1172124557532592,0.0237875,0.8419125,-1.3990625
1679992136206,1172124560034203,0.0088,0.7888375,-1.37005
1679992136207,1172124562535741,-0.00825,0.726825,-1.33705
1679992136209,1172124565037511,-0.027224999,0.65587497,-1.296075
1679992136213,1172124567539357,-0.049225,0.572825,-1.2560625
1679992136216,1172124570040967,-0.065175,0.4857875,-1.213025
1679992136217,1172124572542506,-0.0831875,0.3878875,-1.1680624
1679992136219,1172124575044275,-0.1032625,0.2748625,-1.1259875
1679992136224,1172124577545890,-0.122237496,0.1618375,-1.0850124
1679992136224,1172124580047659,-0.1392875,0.0468875,-1.0440375
1679992136228,1172124582549169,-0.1573,-0.070125,-1.0049875
1679992136229,1172124585051015,-0.17325,-0.1771,-0.9719875
1679992136233,1172124587552630,-0.1962125,-0.2662,-0.9389875
1679992136234,1172124590054400,-0.2112,-0.3392125,-0.911075
1679992136239,1172124592555991,-0.22825,-0.3931125,-0.88
1679992136240,1172124595057530,-0.247225,-0.4272125,-0.8520875
1679992136243,1172124597559299,-0.26427498,-0.44715,-0.8289875
1679992136245,1172124600060914,-0.2792625,-0.45815,-0.810975
1679992136247,1172124602562683,-0.29425,-0.4621375,-0.7970875
1679992136250,1172124605064525,-0.30827498,-0.4481125,-0.7860875
1679992136256,1172124607566063,-0.3202375,-0.42515,-0.7849875
1679992136257,1172124610067678,-0.3342625,-0.3821125,-0.7849875
1679992136257,1172124612569448,-0.3482875,-0.33715,-0.7800375
1679992136259,1172124615071063,-0.3592875,-0.2941125,-0.781
1679992136263,1172124617572832,-0.368225,-0.26015,-0.784025
1679992136264,1172124620074448,-0.3782625,-0.2311375,-0.7910375
1679992136267,1172124622576217,-0.3832125,-0.2182125,-0.79805
1679992136269,1172124625077770,-0.384175,-0.2182125,-0.801075
1679992136273,1172124627579386,-0.3872,-0.2292125,-0.8050625
1679992136274,1172124630081155,-0.38225,-0.2481875,-0.8050625
1679992136278,1172124632582770,-0.3752375,-0.2781625,-0.8041
1679992136279,1172124635084540,-0.3672625,-0.3081375,-0.8069875
1679992136283,1172124637586169,-0.3612125,-0.329175,-0.8069875
1679992136285,1172124640087938,-0.35021248,-0.3421,-0.80602497
1679992136287,1172124642589554,-0.3392125,-0.3471875,-0.8050625
1679992136291,1172124645091102,-0.3251875,-0.35915,-0.803
1679992136293,1172124647592871,-0.31625,-0.3790875,-0.8020375
1679992136295,1172124650094487,-0.3042875,-0.40315,-0.812075
1679992136297,1172124652596333,-0.296175,-0.43408749,-0.82005
1679992136300,1172124655097871,-0.2893,-0.4761625,-0.834075
1679992136303,1172124657599641,-0.2822875,-0.5361125,-0.8520875
1679992136306,1172124660101256,-0.28325,-0.6111875,-0.876975
1679992136307,1172124662603025,-0.2902625,-0.6961625,-0.905025
1679992136309,1172124665104564,-0.2982375,-0.78113747,-0.935
1679992136313,1172124667606184,-0.30827498,-0.85415,-0.964975
1679992136315,1172124670108030,-0.3152875,-0.906125,-0.9890375
1679992136317,1172124672609569,-0.324225,-0.94215,-1.0131
1679992136319,1172124675111338,-0.329175,-0.96415,-1.02905
1679992136323,1172124677612953,-0.3312375,-0.9620875,-1.0379875
1679992136324,1172124680114723,-0.32725,-0.95315,-1.045
1679992136329,1172124682616338,-0.3202375,-0.93115,-1.0520124
1679992136330,1172124685117876,-0.3113,-0.9070875,-1.0550375
1679992136333,1172124687619636,-0.3031875,-0.8721625,-1.0570999
1679992136334,1172124690121482,-0.291225,-0.8281625,-1.0550375
1679992136340,1172124692623097,-0.2822875,-0.7792125,-1.059025
1679992136341,1172124695124866,-0.2682625,-0.72214997,-1.0610875
1679992136343,1172124697626386,-0.258225,-0.66316247,-1.059025
1679992136345,1172124700128001,-0.252175,-0.6061,-1.0599875
1679992136347,1172124702629771,-0.242275,-0.54821247,-1.0630125
1679992136350,1172124705131309,-0.230175,-0.49513748,-1.063975
1679992136353,1172124707633232,-0.2261875,-0.4401375,-1.067
1679992136356,1172124710134771,-0.220275,-0.3931125,-1.07305
1679992136357,1172124712636309,-0.214225,-0.356125,-1.0770375
1679992136359,1172124715138078,-0.2112,-0.32615,-1.0840499
1679992136363,1172124717639694,-0.2022625,-0.3130875,-1.0901
1679992136366,1172124720141540,-0.197175,-0.3081375,-1.1020625
1679992136368,1172124722643078,-0.1903,-0.3141875,-1.1160874
1679992136369,1172124725144848,-0.1882375,-0.33715,-1.1320375
1679992136373,1172124727646463,-0.1802625,-0.3641,-1.1510125
1679992136374,1172124730148236,-0.17325,-0.4081,-1.1680624
1679992136377,1172124732649775,-0.170225,-0.4560875,-1.186075
1679992136381,1172124735151390,-0.1672,-0.5121875,-1.2010624
1679992136383,1172124737653236,-0.1582625,-0.5671875,-1.2150875
1679992136385,1172124740155015,-0.1463,-0.615175,-1.2330999
1679992136387,1172124742656631,-0.1302125,-0.6472125,-1.2480875
1679992136390,1172124745158169,-0.115225,-0.670175,-1.2661
1679992136394,1172124747659939,-0.093225,-0.686125,-1.2799875
1679992136397,1172124750161568,-0.0682,-0.6821375,-1.296075
1679992136398,1172124752663337,-0.032175,-0.6381375,-1.3330625
1679992136400,1172124755164953,0.0187,-0.5561875,-1.386
1679992136408,1172124757666722,0.0787875,-0.4621375,-1.4449875
1679992136409,1172124760168337,0.132825,-0.39214998,-1.499025
1679992136410,1172124762670106,0.175725,-0.3551625,-1.532025
1679992136410,1172124765171722,0.2017125,-0.3221625,-1.5470124
1679992136412,1172124767673260,0.22275,-0.279125,-1.5530624
1679992136415,1172124770175029,0.2398,-0.2281125,-1.5580125
1679992136417,1172124772676645,0.2487375,-0.1661,-1.5640625
1679992136420,1172124775178511,0.2607,-0.103125,-1.5690125
1679992136423,1172124777680050,0.275825,-0.0451,-1.5780874
1679992136424,1172124780181819,0.2908125,8.25E-4,-1.587025
1679992136427,1172124782683434,0.3047,0.0237875,-1.604075
1679992136429,1172124785185178,0.3177625,0.044825,-1.6160375
1679992136432,1172124787686717,0.3278,0.0567875,-1.62305
1679992136435,1172124790188332,0.3348125,0.0688875,-1.628
1679992136437,1172124792690178,0.3397625,0.077825,-1.628
1679992136441,1172124795191929,0.340725,0.0878625,-1.6240125
1679992136444,1172124797693467,0.341825,0.1018875,-1.617
1679992136446,1172124800195082,0.3337125,0.1208625,-1.6080625
1679992136448,1172124802696852,0.3278,0.138875,-1.593075
1679992136450,1172124805198467,0.3168,0.1628,-1.5769875
1679992136453,1172124807699992,0.307725,0.1868625,-1.560075
1679992136456,1172124810201838,0.29273748,0.215875,-1.54
1679992136457,1172124812703376,0.27775,0.2448875,-1.5170375
1679992136460,1172124815205145,0.2597375,0.2748625,-1.4920125
1679992136463,1172124817706737,0.2398,0.2938375,-1.4629999
1679992136464,1172124820208506,0.21779999,0.297825,-1.4320625
1679992136467,1172124822710352,0.19373749,0.2919125,-1.3960375
1679992136469,1172124825211968,0.1667875,0.28187498,-1.35905
1679992136473,1172124827713496,0.1387375,0.25685,-1.316975
1679992136475,1172124830215265,0.1087625,0.2259125,-1.2689875
1679992136479,1172124832716881,0.077825,0.1838375,-1.221
1679992136480,1172124835218650,0.044825,0.1318625,-1.1750749
1679992136483,1172124837720188,0.0127875,0.072875,-1.1320375
1679992136485,1172124840221804,-0.016224999,0.0158125,-1.092025
1679992136490,1172124842723650,-0.0473,-0.0490875,-1.0520124
1679992136491,1172124845225419,-0.07425,-0.1122,-1.0170875
1679992136493,1172124847727035,-0.1012,-0.1731125,-0.9860125
1679992136495,1172124850228588,-0.1271875,-0.2261875,-0.957
1679992136497,1172124852730357,-0.1452,-0.268125,-0.9340375
1679992136500,1172124855231973,-0.1662375,-0.3051125,-0.9169875
1679992136503,1172124857733741,-0.176275,-0.3331625,-0.9040625
1679992136505,1172124860235356,-0.18425,-0.36313748,-0.8949875
1679992136507,1172124862737126,-0.1903,-0.384175,-0.8921
1679992136510,1172124865238741,-0.192225,-0.4041125,-0.900075
1679992136513,1172124867740510,-0.1931875,-0.4151125,-0.9059875
1679992136517,1172124870242040,-0.192225,-0.4321625,-0.92303747
1679992136519,1172124872743655,-0.1892,-0.4450875,-0.9400875
1679992136521,1172124875245424,-0.186175,-0.45815,-0.964975
1679992136523,1172124877747270,-0.1793,-0.466125,-0.9890375
1679992136525,1172124880248804,-0.1711875,-0.4642,-1.021075
1679992136528,1172124882750419,-0.170225,-0.466125,-1.0470625
1679992136530,1172124885252189,-0.1672,-0.466125,-1.0791
1679992136533,1172124887753804,-0.165275,-0.4651625,-1.1130625
1679992136535,1172124890255352,-0.1582625,-0.4701125,-1.1451
1679992136537,1172124892757122,-0.1573,-0.47808748,-1.1750749
1679992136540,1172124895258737,-0.15125,-0.49115,-1.2020249
1679992136543,1172124897760506,-0.1472625,-0.5091625,-1.2330999
1679992136546,1172124900262113,-0.142175,-0.538175,-1.2640375
1679992136547,1172124902763882,-0.1342,-0.5641625,-1.2881
1679992136550,1172124905265497,-0.121275,-0.5831375,-1.3140875
1679992136554,1172124907767036,-0.1023,-0.5990875,-1.3360875
1679992136556,1172124910268858,-0.082225,-0.61215,-1.356025
1679992136559,1172124912770627,-0.054175,-0.620125,-1.375
1679992136560,1172124915272243,-0.0202125,-0.626175,-1.38105
1679992136563,1172124917773781,0.01375,-0.6281,-1.384075
1679992136565,1172124920275550,0.0477125,-0.6391,-1.384075
1679992136568,1172124922777151,0.0818125,-0.6551875,-1.371975
1679992136570,1172124925278920,0.115775,-0.6760875,-1.3550625
1679992136573,1172124927780535,0.1518,-0.7101875,-1.3330625
1679992136575,1172124930282304,0.1848,-0.74909997,-1.3110625
1679992136577,1172124932783925,0.21573749,-0.7931,-1.2830125
1679992136580,1172124935285694,0.242825,-0.83709997,-1.2530375
1679992136583,1172124937787233,0.2677125,-0.879175,-1.2200375
1679992136585,1172124940288848,0.2908125,-0.92015,-1.184975
1679992136588,1172124942790617,0.3128125,-0.9510875,-1.1490875
1679992136591,1172124945292439,0.3348125,-0.96415,-1.114025
1679992136593,1172124947793978,0.357775,-0.967175,-1.078
1679992136597,1172124950295593,0.3777125,-0.95315,-1.043075
1679992136598,1172124952797362,0.4027375,-0.9191875,-1.00705
1679992136600,1172124955298978,0.4268,-0.86515,-0.979
1679992136604,1172124957800530,0.4467375,-0.796125,-0.9450375
1679992136605,1172124960302300,0.46475,-0.7121125,-0.909975
1679992136607,1172124962804146,0.48675,-0.620125,-0.88
1679992136610,1172124965305761,0.5047625,-0.5251125,-0.850025
1679992136613,1172124967807320,0.5187875,-0.4272125,-0.82005
1679992136615,1172124970309089,0.5357,-0.3301375,-0.792
1679992136617,1172124972810704,0.5427125,-0.246125,-0.7690375
1679992136620,1172124975312473,0.5537125,-0.1551,-0.74909997
1679992136623,1172124977814007,0.5517875,-0.059125,-0.71802497
1679992136625,1172124980315622,0.5407875,0.0298375,-0.685025
1679992136629,1172124982817468,0.5258,0.1018875,-0.65505
1679992136630,1172124985319238,0.5097125,0.1518,-0.63305
1679992136633,1172124987820853,0.4888125,0.1808125,-0.6150375
1679992136636,1172124990322392,0.461725,0.193875,-0.6070625
1679992136637,1172124992824161,0.4327125,0.1948375,-0.6070625
1679992136640,1172124995325776,0.4008125,0.1918125,-0.6089875
1679992136643,1172124997827550,0.362725,0.198825,-0.6199875
1679992136645,1172125000329166,0.3257375,0.1978625,-0.62205
1679992136647,1172125002830935,0.28875,0.1918125,-0.6281
1679992136650,1172125005332550,0.2508,0.1819125,-0.638
1679992136653,1172125007834320,0.2167,0.1588125,-0.6419875
1679992136655,1172125010335857,0.1827375,0.1348875,-0.645975
1679992136657,1172125012837703,0.1588125,0.094875,-0.6510625
1679992136661,1172125015339319,0.12979999,0.0457875,-0.656975
1679992136664,1172125017840848,0.10175,-0.0092124995,-0.6560125
1679992136667,1172125020342617,0.076725,-0.076175,-0.656975
1679992136668,1172125022844233,0.0567875,-0.1452,-0.6611
1679992136670,1172125025346002,0.0427625,-0.21615,-0.6611
1679992136673,1172125027847540,0.027775,-0.2882,-0.65505
1679992136676,1172125030349392,0.011825,-0.3612125,-0.6529875
1679992136677,1172125032851007,0.0077,-0.4241875,-0.6510625
1679992136680,1172125035352776,0.005775,-0.477125,-0.6480375
1679992136683,1172125037854315,0.010725,-0.5281375,-0.647075
1679992136685,1172125040355929,0.021724999,-0.5660875,-0.6430875
1679992136688,1172125042857698,0.0308,-0.5990875,-0.6370375
1679992136690,1172125045359314,0.043725,-0.62315,-0.6309875
1679992136693,1172125047861160,0.0617375,-0.631125,-0.62205
1679992136695,1172125050362718,0.0787875,-0.6351125,-0.6040375
1679992136698,1172125052864488,0.0818125,-0.6252125,-0.581075
1679992136700,1172125055366103,0.07975,-0.5962,-0.548075
1679992136705,1172125057867872,0.0677875,-0.560175,-0.506
1679992136706,1172125060369425,0.049775,-0.5091625,-0.4610375
1679992136708,1172125062871040,0.038775,-0.4450875,-0.414975
1679992136710,1172125065372809,0.0198,-0.3711125,-0.3650625
1679992136713,1172125067874656,-0.0033,-0.2891625,-0.31405
1679992136716,1172125070376271,-0.0312125,-0.19415,-0.2651
1679992136718,1172125072877814,-0.0732875,-0.0902,-0.2110625
1679992136720,1172125075379584,-0.1232,0.022824999,-0.1610125
1679992136723,1172125077881199,-0.186175,0.1348875,-0.1150875
1679992136725,1172125080382968,-0.2563,0.2468125,-0.0699875
1679992136727,1172125082884579,-0.330275,0.347875,-0.029975
1679992136733,1172125085386348,-0.4112625,0.4459125,-0.0039875
Name:,Teste 1
Assessment number:,002

system_ts_ms, sensor_ts_ns, gyrX, gyrY, gyrZ
1679992150680,1172139031853796,0.2946625,-0.015125,0.40094998
1679992150680,1172139034355334,0.3147375,0.0308,0.381975
1679992150681,1172139036857180,0.3267,0.0878625,0.35901248
1679992150685,1172139039358796,0.33673748,0.1628,0.3399
1679992150687,1172139041860339,0.3386625,0.23485,0.3229875
1679992150698,1172139044362108,0.3337125,0.3108875,0.3059375
1679992150699,1172139046863955,0.3207875,0.3818375,0.2869625
1679992150699,1172139049365570,0.291775,0.4389,0.2629
1679992150699,1172139051867339,0.2506625,0.484825,0.238975
1679992150699,1172139054368873,0.1956625,0.5148,0.210925
1679992150701,1172139056870488,0.12375,0.528825,0.1799875
1679992150703,1172139059372257,0.03575,0.5218125,0.1549625
1679992150709,1172139061873796,-0.0583,0.4928,0.1299375
1679992150709,1172139064375411,-0.159225,0.446875,0.0969375
1679992150711,1172139066877267,-0.259325,0.3928375,0.064899996
1679992150714,1172139069379037,-0.3553,0.3328875,0.0339625
1679992150717,1172139071880652,-0.4522375,0.2767875,-0.0
1679992150722,1172139074382416,-0.5432625,0.2168375,-0.0350625
1679992150725,1172139076883955,-0.6172375,0.165825,-0.07205
1679992150727,1172139079384763,-0.682275,0.127875,-0.099
1679992150727,1172139081885570,-0.73425,0.1007875,-0.1249875
1679992150729,1172139084389185,-0.7733,0.08085,-0.1450625
1679992150731,1172139086890810,-0.8053375,0.0688875,-0.1640375
1679992150734,1172139089392579,-0.8232125,0.0578875,-0.1780625
1679992150736,1172139091894118,-0.8283,0.0518375,-0.1860375
1679992150742,1172139094395733,-0.8262375,0.0429,-0.19305
1679992150743,1172139096897502,-0.808225,0.039875,-0.198
1679992150744,1172139099399118,-0.78223747,0.038775,-0.2000625
1679992150746,1172139101900887,-0.75528747,0.039875,-0.1991
1679992150750,1172139104402502,-0.7143125,0.039875,-0.2000625
1679992150751,1172139106904271,-0.671275,0.044825,-0.201025
1679992150753,1172139109405805,-0.6312625,0.0528,-0.198
1679992150759,1172139111907420,-0.5853375,0.0539,-0.1940125
1679992150761,1172139114409190,-0.5462875,0.0598125,-0.1881
1679992150763,1172139116910801,-0.5022875,0.0738375,-0.183975
1679992150765,1172139119412570,-0.4582875,0.083875,-0.1750375
1679992150766,1172139121914416,-0.412225,0.09185,-0.17105
1679992150769,1172139124415955,-0.3722125,0.099825,-0.1610125
1679992150771,1172139126917570,-0.330275,0.11385,-0.1530375
1679992150775,1172139129419362,-0.2883375,0.116875,-0.146025
1679992150777,1172139131920978,-0.25025,0.1208625,-0.13805
1679992150780,1172139134422747,-0.21725,0.116875,-0.128975
1679992150782,1172139136924362,-0.18425,0.11385,-0.119075
1679992150784,1172139139426127,-0.1573,0.1098625,-0.109037496
1679992150786,1172139141927742,-0.1343375,0.1078,-0.100099996
1679992150792,1172139144429281,-0.113299996,0.1038125,-0.091025
1679992150792,1172139146931050,-0.0952875,0.09185,-0.0790625
1679992150794,1172139149432660,-0.0803,0.082775,-0.0671
1679992150799,1172139151934506,-0.069299996,0.0748,-0.055
1679992150801,1172139154436276,-0.0583,0.066825,-0.042075
1679992150803,1172139156937891,-0.0473,0.055825,-0.02805
1679992150805,1172139159439425,-0.038225,0.0468875,-0.0149875
1679992150809,1172139161941195,-0.0312125,0.039875,-0.0
1679992150809,1172139164442810,-0.0232375,0.0328625,0.007975
1679992150811,1172139166944579,-0.01925,0.0248875,0.022
1679992150814,1172139169446425,-0.015262499,0.0268125,0.0339625
1679992150816,1172139171947944,-0.0103124995,0.022824999,0.044
1679992150820,1172139174449559,-0.00825,0.017875,0.055
1679992150821,1172139176951329,-0.006325,0.017875,0.0620125
1679992150825,1172139179452944,-0.0072875,0.01485,0.0669625
1679992150826,1172139181954482,-0.0023375,0.0099,0.0749375
1679992150829,1172139184456252,-0.0033,0.006875,0.078925
1679992150831,1172139186957867,-0.0033,0.00385,0.084975
1679992150835,1172139189459713,-2.75E-4,0.005775,0.086899996
1679992150838,1172139191961247,-0.0042625,0.00385,0.0889625
1679992150842,1172139194463016,-0.0023375,-1.375E-4,0.0919875
1679992150843,1172139196964631,-0.0023375,0.0028875,0.09295
1679992150845,1172139199466401,-2.75E-4,0.006875,0.09295
1679992150847,1172139201968016,0.0017875,0.005775,0.09295
1679992150850,1172139204469785,0.004675,0.0099,0.0939125
1679992150852,1172139206971631,0.0067375,0.0138875,0.0950125
1679992150854,1172139209473170,0.0127875,0.0198,0.0950125
1679992150859,1172139211974785,0.0187,0.0188375,0.09295
1679992150859,1172139214476554,0.0196625,0.0209,0.088
1679992150861,1172139216978170,0.02475,0.0218625,0.088
1679992150865,1172139219479708,0.0287375,0.022824999,0.0889625
1679992150867,1172139221981477,0.0347875,0.0209,0.086899996
1679992150870,1172139224483309,0.0416625,0.0218625,0.0859375
1679992150875,1172139226984924,0.0477125,0.0218625,0.084975
1679992150876,1172139229486462,0.05775,0.0268125,0.0829125
1679992150877,1172139231988232,0.0627,0.0378125,0.080025
1679992150880,1172139234489828,0.071775,0.0378125,0.0779625
1679992150881,1172139236991597,0.0776875,0.0468875,0.0749375
1679992150884,1172139239493213,0.0847,0.0578875,0.0719125
1679992150886,1172139241994982,0.087725,0.0677875,0.069025
1679992150892,1172139244496612,0.09075,0.0798875,0.0639375
1679992150892,1172139246998382,0.0977625,0.0858,0.0589875
1679992150894,1172139249499920,0.104775,0.1018875,0.0499125
1679992150896,1172139252001535,0.0996875,0.116875,0.0449625
1679992150900,1172139254503382,0.098725,0.1337875,0.0419375
1679992150901,1172139257005151,0.0977625,0.138875,0.033
1679992150904,1172139259506689,0.0966625,0.1538625,0.023924999
1679992150909,1172139262008305,0.09075,0.1628,0.01595
1679992150911,1172139264510074,0.0837375,0.1698125,0.0089375
1679992150912,1172139267011689,0.0787875,0.17985,0.003025
1679992150914,1172139269513459,0.06875,0.19085,-0.0070125
1679992150917,1172139272015074,0.059675,0.1997875,-0.0149875
1679992150919,1172139274516920,0.0477125,0.20185,-0.0259875
1679992150922,1172139277018708,0.038775,0.2079,-0.033
1679992150927,1172139279520247,0.0257125,0.21285,-0.0400125
1679992150927,1172139282021862,0.010725,0.2138125,-0.0460625
1679992150930,1172139284523631,6.875E-4,0.215875,-0.055
1679992150932,1172139287025170,-0.0122375,0.214775,-0.0570625
1679992150934,1172139289526795,-0.0243375,0.21285,-0.062975
1679992150936,1172139292028641,-0.0372625,0.2118875,-0.0680625
1679992150942,1172139294530411,-0.050325,0.21285,-0.0710875
1679992150943,1172139297031949,-0.060225,0.21285,-0.078099996
1679992150945,1172139299533526,-0.0672375,0.2088625,-0.08305
1679992150949,1172139302035295,-0.071225,0.2068,-0.08305
1679992150951,1172139304536910,-0.077275,0.2088625,-0.086075
1679992150952,1172139307038679,-0.077275,0.2138125,-0.088
1679992150954,1172139309540531,-0.0752125,0.2138125,-0.0919875
1679992150958,1172139312042146,-0.071225,0.2138125,-0.0919875
1679992150960,1172139314543684,-0.0653125,0.2217875,-0.0919875
1679992150962,1172139317045454,-0.0653125,0.2248125,-0.09405
1679992150964,1172139319547069,-0.0592625,0.2288,-0.0950125
1679992150967,1172139322048824,-0.0573375,0.2338875,-0.098037496
1679992150970,1172139324550440,-0.0532125,0.23485,-0.098037496
1679992150971,1172139327051978,-0.0482625,0.2308625,-0.09405
1679992150976,1172139329553824,-0.0463375,0.2327875,-0.098037496
1679992150977,1172139332055608,-0.0532125,0.2299,-0.102025
1679992150980,1172139334557146,-0.055275,0.2217875,-0.102025
1679992150981,1172139337058761,-0.0543125,0.2138125,-0.1040875
1679992150986,1172139339560531,-0.0573375,0.1997875,-0.1010625
1679992150987,1172139342062146,-0.0592625,0.1868625,-0.100099996
1679992150993,1172139344563992,-0.0642125,0.1777875,-0.100099996
1679992150994,1172139347065531,-0.0672375,0.16885,-0.095975
1679992150995,1172139349567300,-0.069299996,0.1518,-0.0930875
1679992150997,1172139352068915,-0.0702625,0.138875,-0.0900625
1679992151000,1172139354570680,-0.07425,0.12485,-0.088
1679992151001,1172139357072295,-0.0793375,0.1078,-0.084975
1679992151004,1172139359574064,-0.08525,0.0968,-0.0790625
1679992151010,1172139362075680,-0.089237496,0.082775,-0.077
1679992151011,1172139364577425,-0.0903375,0.066825,-0.0699875
1679992151012,1172139367079040,-0.091299996,0.049775,-0.0699875
1679992151014,1172139369580579,-0.0903375,0.0378125,-0.062975
1679992151017,1172139372082348,-0.0952875,0.0308,-0.0561
1679992151020,1172139374583949,-0.089237496,0.022824999,-0.055
1679992151025,1172139377085795,-0.0842875,0.0158125,-0.051975
1679992151026,1172139379587565,-0.0812625,0.005775,-0.0479875
1679992151027,1172139382089180,-0.077275,0.0017875,-0.044
1679992151030,1172139384590728,-0.0683375,0.0028875,-0.0400125
1679992151031,1172139387092497,-0.060225,0.011825,-0.0341
1679992151034,1172139389594112,-0.052249998,0.017875,-0.0290125
1679992151037,1172139392095881,-0.0422125,0.0198,-0.0270875
1679992151041,1172139394597502,-0.0312125,0.0237875,-0.025024999
1679992151042,1172139397099271,-0.0182875,0.0298375,-0.0231
1679992151044,1172139399600886,-0.0042625,0.0328625,-0.0231
1679992151046,1172139402102656,0.0097624995,0.0308,-0.018975
1679992151050,1172139404604271,0.0196625,0.038775,-0.01705
1679992151052,1172139407105805,0.032725,0.0429,-0.0149875
1679992151054,1172139409607574,0.049775,0.049775,-0.011
1679992151058,1172139412109189,0.0627,0.055825,-0.007975
1679992151062,1172139414611035,0.0727375,0.0638,-0.0100375
1679992151063,1172139417112555,0.0856625,0.06985,-0.0100375
1679992151065,1172139419614401,0.0977625,0.0759,-0.009075
1679992151066,1172139422115939,0.1106875,0.0798875,-0.007975
1679992151070,1172139424617709,0.12375,0.086899996,-0.0100375
1679992151072,1172139427119309,0.1337875,0.0979,-0.0121
1679992151074,1172139429621078,0.1447875,0.106837496,-0.013062499
1679992151077,1172139432122924,0.1557875,0.1148125,-0.0149875
1679992151080,1172139434624540,0.164725,0.1208625,-0.018975
1679992151082,1172139437126078,0.1747625,0.12485,-0.0270875
1679992151084,1172139439627848,0.1827375,0.127875,-0.0380875
1679992151087,1172139442129463,0.19373749,0.1419,-0.0451
1679992151089,1172139444631232,0.197725,0.15785,-0.053075
1679992151091,1172139447132848,0.1997875,0.17985,-0.0600875
1679992151094,1172139449634608,0.2066625,0.1948375,-0.0680625
1679992151099,1172139452136146,0.2127125,0.20185,-0.0760375
1679992151101,1172139454637762,0.2187625,0.2058375,-0.0809875
1679992151103,1172139457139526,0.2277,0.215875,-0.088
1679992151105,1172139459641141,0.2327875,0.2189,-0.0950125
1679992151107,1172139462142987,0.2396625,0.2288,-0.1010625
1679992151110,1172139464644526,0.2457125,0.2418625,-0.1040875
1679992151112,1172139467146295,0.2497,0.2528625,-0.1120625
1679992151114,1172139469647949,0.2597375,0.2668875,-0.119075
1679992151118,1172139472149718,0.2627625,0.280775,-0.122099996
1679992151120,1172139474651256,0.2677125,0.2968625,-0.12705
1679992151122,1172139477152872,0.2707375,0.3188625,-0.1331
1679992151124,1172139479654636,0.2737625,0.3328875,-0.1370875
1679992151127,1172139482156482,0.2817375,0.3438875,-0.1500125
1679992151130,1172139484658097,0.28875,0.3608,-0.1590875
1679992151132,1172139487159867,0.29273748,0.38279998,-0.1689875
1679992151136,1172139489661425,0.2946625,0.41085,-0.1750375
1679992151138,1172139492163271,0.29975,0.43285,-0.183975
1679992151141,1172139494664810,0.3067625,0.4538875,-0.1881
1679992151143,1172139497166425,0.3177625,0.4728625,-0.19305
1679992151145,1172139499668271,0.3257375,0.4939,-0.1940125
1679992151147,1172139502170031,0.3317875,0.5108125,-0.19305
1679992151150,1172139504671569,0.3427875,0.5218125,-0.19305
1679992151152,1172139507173184,0.3496625,0.5358375,-0.194975
1679992151155,1172139509674954,0.3636875,0.5478,-0.19305
1679992151157,1172139512176526,0.3697375,0.555775,-0.1860375
1679992151160,1172139514678141,0.367675,0.56485,-0.179025
1679992151161,1172139517179988,0.36574998,0.5698,-0.1750375
1679992151165,1172139519681757,0.373725,0.57585,-0.1771
1679992151167,1172139522183372,0.37867498,0.583825,-0.18205
1679992151171,1172139524685142,0.3826625,0.589875,-0.1810875
1679992151174,1172139527186757,0.379775,0.59482497,-0.1830125
1679992151175,1172139529688295,0.3777125,0.5938625,-0.1890625
1679992151177,1172139532190065,0.3777125,0.5878125,-0.19305
1679992151180,1172139534691680,0.3707,0.5737875,-0.1909875
1679992151182,1172139537193526,0.356675,0.56581247,-0.1780625
1679992151184,1172139539695295,0.3306875,0.550825,-0.150975
1679992151187,1172139542196834,0.2976875,0.5388625,-0.1111
1679992151191,1172139544698459,0.2677125,0.5297875,-0.0820875
1679992151192,1172139547200228,0.2437875,0.5138375,-0.075075
1679992151194,1172139549701844,0.225775,0.48688748,-0.078099996
1679992151198,1172139552203613,0.2107875,0.456775,-0.0930875
1679992151201,1172139554705186,0.1967625,0.423775,-0.1111
1679992151202,1172139557206955,0.1837,0.3839,-0.128975
1679992151205,1172139559708570,0.1736625,0.3408625,-0.146025
1679992151207,1172139562210109,0.1667875,0.30085,-0.1640375
1679992151211,1172139564711883,0.1617,0.2618,-0.1780625
1679992151213,1172139567213729,0.158675,0.22385,-0.190025
1679992151216,1172139569715344,0.159775,0.1918125,-0.1991
1679992151217,1172139572217114,0.15675,0.1667875,-0.20899999
1679992151220,1172139574718652,0.15675,0.1458875,-0.21505
1679992151222,1172139577220281,0.1577125,0.1188,-0.212025
1679992151224,1172139579722051,0.1557875,0.1018875,-0.2101
1679992151227,1172139582223666,0.1557875,0.0908875,-0.20899999
1679992151230,1172139584725435,0.1507,0.0787875,-0.2101
1679992151232,1172139587227051,0.1507,0.0759,-0.205975
1679992151235,1172139589728796,0.1507,0.0738375,-0.20405
1679992151238,1172139592230411,0.158675,0.072875,-0.2050125
1679992151241,1172139594732181,0.1617,0.0748,-0.2030875
1679992151243,1172139597233796,0.1687125,0.06985,-0.20405
1679992151245,1172139599735339,0.180675,0.0528,-0.2101
1679992151248,1172139602237186,0.1887875,0.0328625,-0.216975
1679992151252,1172139604738955,0.19373749,0.0218625,-0.229075
1679992151254,1172139607240570,0.21175,0.01485,-0.2380125
1679992151256,1172139609742353,0.2327875,0.0158125,-0.242
1679992151258,1172139612243969,0.247775,0.017875,-0.251075
1679992151260,1172139614745507,0.2707375,0.017875,-0.262075
1679992151262,1172139617247277,0.2976875,0.0209,-0.275
1679992151266,1172139619748892,0.32175,0.028875,-0.2871
1679992151267,1172139622250652,0.3507625,0.0319,-0.295075
1679992151271,1172139624752268,0.3837625,0.038775,-0.306075
1679992151272,1172139627254037,0.4147,0.0567875,-0.3180375
1679992151274,1172139629755652,0.4467375,0.06985,-0.3311
1679992151278,1172139632257430,0.478775,0.0878625,-0.337975
1679992151281,1172139634759046,0.5127375,0.117837496,-0.3449875
1679992151282,1172139637260584,0.5487625,0.1458875,-0.3570875
1679992151286,1172139639762430,0.582725,0.17379999,-0.3669875
1679992151287,1172139642264200,0.615725,0.2028125,-0.374
1679992151291,1172139644765738,0.648725,0.2388375,-0.383075
1679992151292,1172139647267354,0.6777375,0.2767875,-0.39105
1679992151295,1172139649769123,0.70867497,0.3078625,-0.392975
1679992151298,1172139652270969,0.7297125,0.3388,-0.399025
1679992151303,1172139654772507,0.75075,0.363825,-0.4010875
1679992151308,1172139657274123,0.763675,0.3839,-0.4010875
1679992151308,1172139659775892,0.7767375,0.39985,-0.3999875
1679992151308,1172139662277507,0.7816875,0.412775,-0.39105
1679992151310,1172139664779277,0.7847125,0.4169,-0.3861
1679992151312,1172139667280892,0.7777,0.4148375,-0.38005
1679992151315,1172139669782738,0.7706875,0.407825,-0.36905
1679992151317,1172139672284287,0.7577625,0.3988875,-0.363
1679992151320,1172139674786056,0.7337,0.3848625,-0.352
1679992151324,1172139677287671,0.703725,0.36781248,-0.344025
1679992151325,1172139679789210,0.670725,0.3438875,-0.3370125
1679992151327,1172139682290979,0.6307125,0.3179,-0.326975
1679992151330,1172139684792584,0.58575,0.2858625,-0.322025
1679992151332,1172139687294354,0.5357,0.2558875,-0.31501248
1679992151334,1172139689796200,0.478775,0.225775,-0.3100625
1679992151337,1172139692297738,0.42075,0.1859,-0.308
1679992151340,1172139694799359,0.357775,0.1447875,-0.3040125
1679992151342,1172139697301128,0.29273748,0.104775,-0.300025
1679992151344,1172139699802743,0.224675,0.06985,-0.2990625
1679992151347,1172139702304513,0.15675,0.028875,-0.297
1679992151350,1172139704806157,0.087725,-0.0111375,-0.2981
1679992151351,1172139707308003,0.0187,-0.0422125,-0.300025
1679992151354,1172139709809542,-0.0473,-0.078099996,-0.3009875
1679992151358,1172139712311311,-0.110275,-0.114125,-0.304975
1679992151362,1172139714812930,-0.17325,-0.1522125,-0.311025
1679992151364,1172139717314699,-0.2343,-0.1892,-0.3201
1679992151365,1172139719816238,-0.292325,-0.2151875,-0.328075
1679992151367,1172139722317853,-0.341275,-0.24419999,-0.3339875
1679992151371,1172139724819699,-0.391325,-0.27115,-0.341
1679992151372,1172139727321503,-0.43821248,-0.290125,-0.348975
1679992151374,1172139729823041,-0.4753375,-0.301125,-0.3449875
1679992151377,1172139732324657,-0.512325,-0.312125,-0.3449875
1679992151380,1172139734826426,-0.5402375,-0.31515,-0.344025
1679992151382,1172139737328041,-0.5652625,-0.31515,-0.3430625
1679992151385,1172139739829815,-0.5842375,-0.3102,-0.3421
1679992151387,1172139742331431,-0.5963375,-0.3051125,-0.339075
1679992151390,1172139744833277,-0.605275,-0.2992,-0.3350875
1679992151392,1172139747334815,-0.6073375,-0.2871,-0.32999998
1679992151395,1172139749836566,-0.6062375,-0.2761,-0.3260125
1679992151400,1172139752338104,-0.605275,-0.2662,-0.3229875
1679992151402,1172139754839950,-0.5952375,-0.2552,-0.31707498
1679992151404,1172139757512335,-0.583275,-0.24213749,-0.315975
1679992151405,1172139759843368,-0.56925,-0.224125,-0.3130875
1679992151407,1172139762344983,-0.5493125,-0.214225,-0.3100625
1679992151410,1172139764846753,-0.528275,-0.20515,-0.311025
1679992151412,1172139767348368,-0.506275,-0.1962125,-0.3100625
1679992151415,1172139769849906,-0.48221248,-0.18315,-0.3091
1679992151417,1172139772351695,-0.4543,-0.17215,-0.3070375
1679992151420,1172139774853541,-0.429275,-0.1601875,-0.3070375
1679992151422,1172139777355156,-0.4002625,-0.142175,-0.3070375
1679992151425,1172139779856695,-0.3702875,-0.126225,-0.306075
1679992151427,1172139782358431,-0.3372875,-0.109175,-0.306075
1679992151430,1172139784860046,-0.30827498,-0.0862125,-0.306075
1679992151432,1172139787361816,-0.2792625,-0.07315,-0.306075
1679992151436,1172139789863354,-0.247225,-0.0532125,-0.3070375
1679992151439,1172139792365205,-0.215325,-0.0411125,-0.3070375
1679992151442,1172139794866821,-0.18425,-0.026124999,-0.3100625
1679992151443,1172139797368590,-0.154275,-0.010175,-0.315975
1679992151445,1172139799870205,-0.1233375,0.0017875,-0.31707498
1679992151449,1172139802371974,-0.0972125,0.0138875,-0.319
1679992151451,1172139804873498,-0.0702625,0.022824999,-0.3201
1679992151453,1172139807375113,-0.049225,0.0319,-0.322025
1679992151455,1172139809876959,-0.0232375,0.044825,-0.3240875
1679992151457,1172139812378729,-0.0023375,0.050875,-0.3240875
1679992151460,1172139814880325,0.01375,0.0528,-0.3260125
1679992151462,1172139817382094,0.0257125,0.0539,-0.326975
1679992151466,1172139819883633,0.043725,0.0518375,-0.328075
1679992151468,1172139822385248,0.0556875,0.0548625,-0.328075
1679992151470,1172139824887017,0.0636625,0.0488125,-0.328075
1679992151473,1172139827388628,0.0757625,0.0429,-0.32999998
1679992151475,1172139829890397,0.0837375,0.0378125,-0.3311
1679992151478,1172139832392012,0.0917125,0.0358875,-0.3311
1679992151481,1172139834893777,0.1007875,0.033825,-0.32999998
1679992151482,1172139837395392,0.1067,0.028875,-0.3240875
1679992151485,1172139839897161,0.1067,0.0268125,-0.319
1679992151488,1172139842398777,0.1117875,0.0237875,-0.31707498
1679992151490,1172139844900315,0.1216875,0.0188375,-0.311025
1679992151492,1172139847402065,0.1247125,0.0088,-0.30305
1679992151494,1172139849903681,0.125675,0.011825,-0.297
1679992151497,1172139852405450,0.1247125,0.0017875,-0.2930125
1679992151500,1172139854907065,0.1227875,-0.0061875,-0.286
1679992151502,1172139857408815,0.120725,-0.015125,-0.2800875
1679992151504,1172139859910661,0.115775,-0.0281875,-0.27005
1679992151507,1172139862412199,0.1087625,-0.0352,-0.2651
1679992151511,1172139864913819,0.098725,-0.0462,-0.264
1679992151513,1172139867415588,0.087725,-0.0561,-0.2541
1679992151516,1172139869917203,0.0757625,-0.06215,-0.2431
1679992151518,1172139872418972,0.0666875,-0.070125,-0.23705
1679992151520,1172139874920588,0.0556875,-0.082225,-0.231
1679992151522,1172139877422348,0.0397375,-0.093225,-0.2220625
1679992151524,1172139879923964,0.026675,-0.100099996,-0.21505
1679992151527,1172139882425733,0.01375,-0.1111,-0.205975
1679992151530,1172139884927348,0.00275,-0.1161875,-0.19305
1679992151532,1172139887428887,-0.0143,-0.125125,-0.1860375
1679992151535,1172139889930637,-0.0253,-0.1351625,-0.1780625
1679992151538,1172139892432252,-0.0372625,-0.1431375,-0.17105
1679992151540,1172139894934021,-0.050325,-0.1551,-0.1640375
1679992151542,1172139897435868,-0.060225,-0.1621125,-0.1560625
1679992151545,1172139899937492,-0.071225,-0.1632125,-0.146025
1679992151549,1172139902439030,-0.0842875,-0.1681625,-0.13805
1679992151551,1172139904940800,-0.0903375,-0.17215,-0.128975
1679992151553,1172139907442415,-0.100237496,-0.169125,-0.119075
1679992151555,1172139909944179,-0.110275,-0.1711875,-0.1120625
1679992151559,1172139912445795,-0.115225,-0.1681625,-0.108075
1679992151561,1172139914947564,-0.1172875,-0.1632125,-0.1029875
1679992151562,1172139917449179,-0.121275,-0.1621125,-0.098037496
1679992151564,1172139919950949,-0.1243,-0.15619999,-0.0919875
1679992151567,1172139922452569,-0.122237496,-0.1522125,-0.086075
1679992151570,1172139924954107,-0.1203125,-0.1461625,-0.084975
1679992151572,1172139927455877,-0.121275,-0.142175,-0.0840125
1679992151575,1172139929957492,-0.1142625,-0.13213749,-0.0840125
1679992151577,1172139932459343,-0.110275,-0.125125,-0.0820875
1679992151580,1172139934961112,-0.105325,-0.114125,-0.08305
1679992151582,1172139937462728,-0.099275,-0.0991375,-0.0820875
1679992151586,1172139939964266,-0.093225,-0.0911625,-0.0790625
1679992151587,1172139942466026,-0.08525,-0.0792,-0.0820875
1679992151590,1172139944967641,-0.077275,-0.0661375,-0.0820875
1679992151592,1172139947469487,-0.069299996,-0.0561,-0.0820875
1679992151595,1172139949971026,-0.0622875,-0.043175,-0.08305
1679992151599,1172139952472810,-0.0573375,-0.0312125,-0.0820875
1679992151600,1172139954974425,-0.050325,-0.0231,-0.0790625
1679992151602,1172139957476194,-0.041249998,-0.0092124995,-0.0809875
1679992151604,1172139959977733,-0.038225,-1.375E-4,-0.0790625
1679992151608,1172139962479579,-0.0342375,0.0127875,-0.0760375
1679992151610,1172139964981213,-0.033275,0.0198,-0.073975
1679992151612,1172139967482983,-0.0262625,0.022824999,-0.077
1679992151616,1172139969984598,-0.0232375,0.028875,-0.0760375
1679992151618,1172139972486367,-0.0253,0.0378125,-0.0760375
1679992151620,1172139974987992,-0.0243375,0.0408375,-0.075075
1679992151624,1172139977489530,-0.0243375,0.0378125,-0.075075
1679992151625,1172139979991299,-0.0262625,0.0378125,-0.073975
1679992151628,1172139982493146,-0.033275,0.0358875,-0.0699875
1679992151632,1172139984994747,-0.038225,0.038775,-0.066
1679992151632,1172139987496285,-0.0433125,0.0358875,-0.0650375
1679992151635,1172139989998055,-0.050325,0.039875,-0.0620125
1679992151638,1172139992499670,-0.0583,0.038775,-0.0600875
1679992151641,1172139995001444,-0.071225,0.038775,-0.0589875
1679992151643,1172139997503060,-0.0752125,0.0378125,-0.0589875
1679992151645,1172140000004829,-0.0812625,0.0308,-0.0600875
1679992151649,1172140002506444,-0.089237496,0.028875,-0.0589875
1679992151651,1172140005008214,-0.093225,0.0237875,-0.0561
1679992151652,1172140007509819,-0.100237496,0.016775,-0.061049998
1679992151655,1172140010011588,-0.104225,0.0127875,-0.0589875
1679992151657,1172140012513204,-0.1093125,0.0088,-0.058025
1679992151662,1172140015014771,-0.1123375,0.005775,-0.0570625
1679992151663,1172140017516617,-0.110275,0.0048125,-0.0570625
1679992151665,1172140020018386,-0.1123375,0.0028875,-0.0561
1679992151667,1172140022520002,-0.1123375,0.0048125,-0.0589875
1679992151670,1172140025021540,-0.1123375,0.006875,-0.055
1679992151672,1172140027523325,-0.10835,0.0099,-0.053075
1679992151675,1172140030024940,-0.1023,0.0127875,-0.051975
1679992151678,1172140032526709,-0.0983125,0.0138875,-0.0451
1679992151681,1172140035028248,-0.09625,0.01485,-0.0451
1679992151682,1172140037530099,-0.091299996,0.0188375,-0.0430375
1679992151685,1172140040031714,-0.0842875,0.0218625,-0.0400125
1679992151687,1172140042533483,-0.0793375,0.0198,-0.036025
1679992151690,1172140045035099,-0.0763125,0.0248875,-0.0290125
1679992151692,1172140047536868,-0.07425,0.0298375,-0.0259875
1679992151695,1172140050038469,-0.0702625,0.0328625,-0.025024999
1679992151699,1172140052540239,-0.06325,0.0319,-0.0210375
1679992151702,1172140055041854,-0.0592625,0.0319,-0.0180125
1679992151703,1172140057543421,-0.0562375,0.033825,-0.020075
1679992151704,1172140060045190,-0.0512875,0.0347875,-0.018975
1679992151707,1172140062546805,-0.0473,0.0358875,-0.018975
1679992151710,1172140065048574,-0.0433125,0.0408375,-0.0180125
1679992151713,1172140067550421,-0.041249998,0.038775,-0.01705
1679992151716,1172140070052022,-0.038225,0.038775,-0.0121
1679992151719,1172140072553560,-0.039325,0.038775,-0.0100375
1679992151724,1172140075055330,-0.039325,0.0378125,-0.0100375
1679992151724,1172140077556945,-0.0372625,0.0418,-0.0100375
1679992151725,1172140080058714,-0.0372625,0.0488125,-0.00605
1679992151729,1172140082560253,-0.0372625,0.044825,-0.0020625
1679992151732,1172140085062099,-0.0353375,0.0408375,-0.0011
1679992151732,1172140087563714,-0.038225,0.038775,-0.0
1679992151738,1172140090065465,-0.038225,0.0358875,0.0039875
1679992151738,1172140092567003,-0.0372625,0.0319,0.0070125
1679992151742,1172140095068618,-0.04235,0.0237875,0.007975
1679992151743,1172140097570388,-0.04235,0.0188375,0.0099
1679992151745,1172140100072003,-0.039325,0.0127875,0.012925
1679992151748,1172140102573757,-0.0353375,0.0048125,0.01595
1679992151750,1172140105075603,-0.033275,8.25E-4,0.0149875
1679992151752,1172140107577219,-0.03025,-0.005225,0.014025
1679992151755,1172140110078988,-0.03025,-0.0092124995,0.018975
1679992151758,1172140112580522,-0.0292875,-0.014162499,0.0229625
1679992151761,1172140115082137,-0.027224999,-0.0171875,0.023924999
1679992151763,1172140117583906,-0.022275,-0.014162499,0.023924999
1679992151765,1172140120085522,-0.0182875,-0.0132,0.02695
1679992151767,1172140122587291,-0.01925,-0.0171875,0.0309375
1679992151770,1172140125088906,-0.0143,-0.0171875,0.0319
1679992151774,1172140127590675,-0.0133375,-0.016224999,0.0309375
1679992151775,1172140130092291,-0.011275,-0.016224999,0.0309375
1679992151777,1172140132593829,-0.00935,-0.0121,0.033
1679992151783,1172140135095594,-0.0103124995,-0.016224999,0.03795
1679992151784,1172140137597209,-0.00935,-0.014162499,0.033
1679992151785,1172140140099055,-0.0143,-0.0132,0.033
1679992151788,1172140142600824,-0.011275,-0.014162499,0.0319
1679992151790,1172140145102426,-0.0122375,-0.010175,0.0309375
1679992151793,1172140147603964,-0.0182875,-0.0111375,0.033
1679992151797,1172140150105733,-0.0182875,-0.0111375,0.033
1679992151798,1172140152607580,-0.022275,-0.00715,0.0339625
1679992151801,1172140155109132,-0.0262625,-0.004125,0.033
1679992151802,1172140157610747,-0.0323125,-0.0011,0.033
1679992151805,1172140160112517,-0.0363,-0.0011,0.036025
1679992151808,1172140162614132,-0.0363,-0.0031625,0.0339625
1679992151814,1172140165115882,-0.039325,-0.005225,0.0339625
1679992151815,1172140167617498,-0.04235,-0.004125,0.033
1679992151816,1172140170119344,-0.0402875,-1.375E-4,0.033
1679992151818,1172140172620882,-0.04235,0.00385,0.0319
1679992151821,1172140175122652,-0.04235,0.005775,0.0319
1679992151822,1172140177624267,-0.04235,0.0048125,0.029975
1679992151825,1172140180126051,-0.0433125,0.0088,0.029975
1679992151827,1172140182627590,-0.0433125,0.0099,0.036025
1679992151830,1172140185129205,-0.044275,0.0127875,0.036025
1679992151833,1172140187630964,-0.04235,0.0158125,0.033
1679992151836,1172140190132810,-0.044275,0.0198,0.0339625
1679992151837,1172140192634349,-0.049225,0.0218625,0.0309375
1679992151841,1172140195135964,-0.049225,0.0298375,0.036025
1679992151843,1172140197637733,-0.050325,0.0328625,0.0339625
1679992151845,1172140200139349,-0.049225,0.033825,0.033
1679992151849,1172140202641118,-0.052249998,0.036849998,0.036025
1679992151852,1172140205142734,-0.0512875,0.0347875,0.0339625
1679992151854,1172140207644580,-0.0512875,0.0378125,0.033
1679992151855,1172140210146349,-0.052249998,0.038775,0.033
1679992151857,1172140212647887,-0.0543125,0.0408375,0.036025
1679992151860,1172140215149503,-0.055275,0.0429,0.03795
1679992151863,1172140217651272,-0.05335,0.0418,0.0389125
1679992151866,1172140220152800,-0.0583,0.0457875,0.03795
1679992151868,1172140222654416,-0.0592625,0.0488125,0.03795
1679992151872,1172140225156262,-0.06325,0.0468875,0.0389125
1679992151872,1172140227658031,-0.0683375,0.0488125,0.0369875
1679992151877,1172140230159618,-0.072325,0.047849998,0.03795
1679992151878,1172140232661156,-0.0763125,0.047849998,0.0369875
1679992151881,1172140235162925,-0.0793375,0.0457875,0.0339625
1679992151883,1172140237664541,-0.0812625,0.0429,0.033
1679992151886,1172140240166310,-0.0842875,0.0457875,0.0290125
1679992151888,1172140242667911,-0.089237496,0.0468875,0.033
1679992151891,1172140245169758,-0.089237496,0.0488125,0.033
1679992151893,1172140247671527,-0.0952875,0.0548625,0.0290125
1679992151895,1172140250173065,-0.0983125,0.058849998,0.029975
1679992151898,1172140252674590,-0.1023,0.066825,0.0309375
1679992151900,1172140255176436,-0.10725,0.072875,0.0339625
1679992151902,1172140257678051,-0.1123375,0.0858,0.0369875
1679992151905,1172140260179820,-0.1172875,0.09185,0.0400125
1679992151909,1172140262681440,-0.121275,0.106837496,0.0419375
1679992151911,1172140265183209,-0.122237496,0.116875,0.047025
1679992151913,1172140267684825,-0.127325,0.1199,0.0499125
1679992151916,1172140270186363,-0.132275,0.1227875,0.04895
1679992151918,1172140272688132,-0.14025,0.1188,0.0529375
1679992151921,1172140275189969,-0.1472625,0.1117875,0.05995
1679992151924,1172140277691585,-0.1563375,0.105875,0.062975
1679992151930,1172140280193123,-0.1683,0.099825,0.069025
1679992151937,1172140282694892,-0.181225,0.09185,0.0730125
1679992151937,1172140285196498,-0.192225,0.0798875,0.073975
1679992151937,1172140287698267,-0.20927499,0.0708125,0.078925
1679992151937,1172140290199806,-0.225225,0.0638,0.084975
1679992151937,1172140292701652,-0.2453,0.0567875,0.0829125
1679992151940,1172140295203281,-0.2633125,0.050875,0.08195
1679992151942,1172140297705050,-0.28435,0.0418,0.0809875
1679992151945,1172140300206666,-0.302225,0.033825,0.08195
1679992151948,1172140302708435,-0.319275,0.022824999,0.078925
1679992151950,1172140305210050,-0.3372875,0.0138875,0.077
1679992151952,1172140307711565,-0.3553,0.0048125,0.0759
1679992151956,1172140310213411,-0.3663,-0.0022,0.073975
1679992151957,1172140312715180,-0.380325,-0.0132,0.0730125
1679992151962,1172140315216801,-0.39435,-0.0242,0.07095
1679992151964,1172140317718339,-0.4063125,-0.0361625,0.0719125
1679992151966,1172140320220108,-0.4203375,-0.04015,0.0749375
1679992151967,1172140322721724,-0.42734998,-0.0422125,0.0779625
1679992151970,1172140325223493,-0.43835,-0.0501875,0.0809875
1679992151972,1172140327725099,-0.4503125,-0.0521125,0.080025
1679992151975,1172140330226869,-0.456225,-0.0532125,0.078925
1679992151977,1172140332728484,-0.4653,-0.0561,0.080025
1679992151981,1172140335230253,-0.468325,-0.06215,0.084975
1679992151982,1172140337731893,-0.4753375,-0.0691625,0.080025
1679992151985,1172140340233662,-0.48235,-0.0801625,0.078925
1679992151987,1172140342735277,-0.4852375,-0.0941875,0.077
1679992151990,1172140345236816,-0.4912875,-0.1131625,0.0730125
1679992151993,1172140347738642,-0.4962375,-0.131175,0.07095
1679992151996,1172140350240180,-0.5022875,-0.153175,0.073975
1679992151999,1172140352741950,-0.506275,-0.1571625,0.0730125
1679992152002,1172140355243565,-0.5053125,-0.16115,0.0809875
1679992152003,1172140357745320,-0.5132875,-0.1901625,0.086899996
1679992152005,1172140360247166,-0.5193375,-0.235125,0.0889625
1679992152008,1172140362748782,-0.5193375,-0.2611125,0.0950125
1679992152011,1172140365250551,-0.51535,-0.2781625,0.1060125
1679992152013,1172140367752161,-0.5083375,-0.296175,0.1079375
1679992152015,1172140370253700,-0.51425,-0.324225,0.1159125
1679992152017,1172140372755469,-0.522225,-0.3521375,0.1199
1679992152020,1172140375257084,-0.5303375,-0.3961375,0.1199
1679992152022,1172140377758931,-0.534325,-0.4371125,0.1170125
1679992152025,1172140380260450,-0.544225,-0.477125,0.1079375
1679992152028,1172140382762219,-0.5493125,-0.51315,0.102025
1679992152033,1172140385263835,-0.5533,-0.5471125,0.091025
1679992152033,1172140387765604,-0.5542625,-0.57722497,0.0809875
1679992152037,1172140390267142,-0.5533,-0.6072,0.073975
1679992152040,1172140392768758,-0.54835,-0.6281,0.066
1679992152041,1172140395270527,-0.5402375,-0.6402,0.05995
1679992152044,1172140397772373,-0.5352875,-0.6461125,0.0529375
1679992152046,1172140400273989,-0.5242875,-0.648175,0.047025
1679992152050,1172140402775786,-0.5083375,-0.643225,0.044
1679992152050,1172140405277401,-0.4973375,-0.6331875,0.040975
1679992152052,1172140407778940,-0.4772625,-0.6171,0.0400125
1679992152055,1172140410280709,-0.4533375,-0.6001875,0.0369875
1679992152058,1172140412782358,-0.424325,-0.57915,0.0389125
1679992152060,1172140415284204,-0.3922875,-0.5632,0.03795
1679992152062,1172140417785743,-0.358325,-0.5361125,0.0429
1679992152066,1172140420287512,-0.3202375,-0.5071,0.045925
1679992152067,1172140422789128,-0.281325,-0.4791875,0.04895
1679992152070,1172140425290897,-0.23925,-0.450175,0.0529375
1679992152074,1172140427792512,-0.19525,-0.422125,0.058025
1679992152078,1172140430294281,-0.1502875,-0.390225,0.0639375
1679992152078,1172140432795897,-0.1032625,-0.3521375,0.066
1679992152082,1172140435297681,-0.0583,-0.3161125,0.0749375
1679992152083,1172140437799296,-0.0133375,-0.27719998,0.0809875
1679992152084,1172140440301066,0.0287375,-0.235125,0.0829125
1679992152087,1172140442802681,0.0746625,-0.1951125,0.086899996
1679992152090,1172140445304229,0.114675,-0.1491875,0.0859375
1679992152093,1172140447805998,0.1507,-0.114125,0.086899996
1679992152096,1172140450307613,0.18975,-0.07315,0.089925
1679992152099,1172140452809382,0.224675,-0.032175,0.0889625
1679992152100,1172140455310998,0.263725,0.0017875,0.086899996
1679992152102,1172140457812767,0.291775,0.0378125,0.086899996
1679992152105,1172140460314382,0.32065,0.06985,0.08195
1679992152108,1172140462816229,0.3477375,0.094875,0.0779625
1679992152113,1172140465317729,0.37565,0.1188,0.0779625
1679992152115,1172140467819498,0.39765,0.1318625,0.0749375
1679992152116,1172140470321114,0.41965,0.1447875,0.0749375
1679992152118,1172140472822883,0.4367,0.15785,0.0749375
1679992152121,1172140475324421,0.450725,0.170775,0.080025
1679992152123,1172140477826037,0.46475,0.18287499,0.0859375
1679992152125,1172140480327806,0.4767125,0.1898875,0.0979
1679992152128,1172140482829652,0.483725,0.20185,0.11
1679992152130,1172140485331268,0.483725,0.2107875,0.1219625
1679992152132,1172140487833037,0.488675,0.220825,0.1390125
1679992152136,1172140490334666,0.488675,0.2228875,0.155925
1679992152137,1172140492836205,0.48565,0.2288,0.1689875
1679992152140,1172140495337974,0.4797375,0.2288,0.18493749
1679992152143,1172140497839589,0.4697,0.2217875,0.194975
1679992152145,1172140500341440,0.450725,0.21779999,0.2079
1679992152150,1172140502843210,0.4327125,0.2088625,0.22
1679992152152,1172140505344748,0.4147,0.1997875,0.22893749
1679992152154,1172140507846364,0.390775,0.187825,0.23595
1679992152156,1172140510348143,0.3606625,0.1788875,0.2459875
1679992152158,1172140512849681,0.3287625,0.1648625,0.2509375
1679992152160,1172140515351297,0.3007125,0.1518,0.253
1679992152162,1172140517853143,0.2707375,0.138875,0.254925
1679992152165,1172140520354912,0.23773749,0.1238875,0.260975
1679992152167,1172140522856541,0.2057,0.108899996,0.25795
1679992152170,1172140525358311,0.1727,0.0968,0.254925
1679992152172,1172140527859849,0.137775,0.0928125,0.256025
1679992152175,1172140530361465,0.10175,0.09185,0.254925
1679992152177,1172140532863234,0.0636625,0.0897875,0.253
1679992152181,1172140535364868,0.0336875,0.0908875,0.2539625
1679992152183,1172140537866714,0.0017875,0.094875,0.2490125
1679992152187,1172140540368484,-0.0292875,0.094875,0.242
1679992152188,1172140542870007,-0.06325,0.094875,0.238975
1679992152191,1172140545371622,-0.093225,0.086899996,0.238975
1679992152193,1172140547873392,-0.1172875,0.0759,0.2380125
1679992152195,1172140550375007,-0.138325,0.058849998,0.2399375
1679992152198,1172140552876776,-0.159225,0.0418,0.245025
1679992152200,1172140555378411,-0.1783375,0.0198,0.2539625
1679992152203,1172140557880180,-0.1962125,-0.0061875,0.2600125
1679992152205,1172140560381795,-0.2123,-0.0341,0.26895
1679992152207,1172140562883565,-0.2223375,-0.06215,0.275
1679992152211,1172140565385194,-0.2352625,-0.0941875,0.2849
1679992152212,1172140567886963,-0.242275,-0.1232,0.2899875
1679992152216,1172140570388579,-0.25025,-0.153175,0.2959
1679992152217,1172140572890348,-0.2523125,-0.1841125,0.3009875
1679992152221,1172140575391862,-0.2553375,-0.2171125,0.3059375
1679992152224,1172140577893478,-0.26125,-0.2501125,0.3119875
1679992152226,1172140580395247,-0.259325,-0.279125,0.3169375
1679992152227,1172140582896862,-0.2542375,-0.3081375,0.3199625
1679992152230,1172140585398684,-0.25025,-0.3331625,0.32395
1679992152233,1172140587900454,-0.2432375,-0.35021248,0.326975
1679992152236,1172140590401992,-0.23333749,-0.357225,0.3389375
1679992152237,1172140592903608,-0.2182125,-0.351175,0.3419625
1679992152241,1172140595405401,-0.2072125,-0.340175,0.348975
1679992152243,1172140597907016,-0.1973125,-0.3271125,0.355025
1679992152245,1172140600408785,-0.182325,-0.3141875,0.363
1679992152249,1172140602910401,-0.1643125,-0.2941125,0.3669875
1679992152250,1172140605412185,-0.149325,-0.2761,0.3639625
1679992152252,1172140607913800,-0.1343375,-0.252175,0.3609375
1679992152256,1172140610415570,-0.122237496,-0.2281125,0.35694999
1679992152257,1172140612917185,-0.1082125,-0.202125,0.348975
1679992152262,1172140615418708,-0.093225,-0.175175,0.3399
1679992152263,1172140617920478,-0.088275,-0.1441,0.3249125
1679992152265,1172140620422093,-0.0793375,-0.1131625,0.31295
1679992152268,1172140622923939,-0.0683375,-0.08415,0.3009875
1679992152270,1172140625425709,-0.060225,-0.0581625,0.2809125
1679992152272,1172140627927343,-0.0543125,-0.032175,0.264
1679992152276,1172140630428881,-0.0433125,-0.0081124995,0.2479125
1679992152277,1172140632930651,-0.033275,0.016775,0.23595
1679992152280,1172140635432266,-0.027224999,0.039875,0.22
1679992152282,1172140637934074,-0.017324999,0.061875,0.2099625
1679992152285,1172140640435920,-0.006325,0.0897875,0.1989625
1679992152289,1172140642937459,0.004675,0.1098625,0.1929125
1679992152291,1172140645439074,0.016775,0.1337875,0.187
1679992152294,1172140647940867,0.0317625,0.1538625,0.1830125
1679992152295,1172140650442483,0.0507375,0.1777875,0.1859
1679992152301,1172140652944252,0.0677875,0.1997875,0.1830125
1679992152302,1172140655445868,0.0847,0.220825,0.1830125
1679992152303,1172140657947632,0.1057375,0.2409,0.19195
1679992152305,1172140660449247,0.12375,0.258775,0.2019875
1679992152308,1172140662950786,0.142725,0.2688125,0.20899999
1679992152311,1172140665452555,0.1607375,0.27885,0.2239875
1679992152314,1172140667954165,0.1846625,0.2888875,0.238975
1679992152316,1172140670456011,0.20075,0.2849,0.2539625
1679992152318,1172140672957550,0.21573749,0.2739,0.27101249
1679992152321,1172140675459319,0.2277,0.2638625,0.2869625
1679992152323,1172140677960934,0.2387,0.24585,0.298925
1679992152326,1172140680462699,0.247775,0.22385,0.3139125
1679992152329,1172140682964314,0.2487375,0.1958,0.326975
1679992152332,1172140685466083,0.2437875,0.1588125,0.3370125
1679992152332,1172140687967699,0.2407625,0.1199,0.344025
1679992152337,1172140690469463,0.2316875,0.0759,0.352
1679992152338,1172140692971078,0.2167,0.0319,0.352
1679992152341,1172140695472848,0.1967625,-0.0132,0.3509
1679992152343,1172140697974463,0.1727,-0.06215,0.348975
1679992152345,1172140700476001,0.14575,-0.1131625,0.3469125
1679992152348,1172140702977766,0.1137125,-0.164175,0.3370125
1679992152350,1172140705479381,0.082775,-0.2151875,0.3260125
1679992152353,1172140707981227,0.0457875,-0.2591875,0.31501248
1679992152356,1172140710482766,0.01375,-0.2981,0.3040125
1679992152357,1172140712984535,-0.016224999,-0.3301375,0.2919125
1679992152361,1172140715486150,-0.0512875,-0.362175,0.2789875
1679992152362,1172140717987920,-0.083325,-0.3851375,0.2649625
1679992152366,1172140720489535,-0.1082125,-0.3982,0.253
1679992152367,1172140722991304,-0.1313125,-0.40713748,0.242
1679992152370,1172140725493131,-0.143275,-0.4041125,0.2319625
1679992152374,1172140727994670,-0.1582625,-0.395175,0.223025
1679992152376,1172140730496285,-0.16733749,-0.384175,0.2129875
1679992152378,1172140732998054,-0.1722875,-0.3641,0.20693749
1679992152380,1172140735499680,-0.1742125,-0.3432,0.194975
1679992152382,1172140738001218,-0.171325,-0.323125,0.187
1679992152385,1172140740502988,-0.1643125,-0.296175,0.18095
1679992152387,1172140743004622,-0.15125,-0.269225,0.1749
1679992152390,1172140745506468,-0.1392875,-0.2391125,0.172975
1679992152393,1172140748008237,-0.127325,-0.208175,0.16995
1679992152396,1172140750509776,-0.110275,-0.1791625,0.168025
1679992152398,1172140753011391,-0.091299996,-0.1461625,0.168025
1679992152401,1172140755513242,-0.07425,-0.1122,0.161975
1679992152403,1172140758015012,-0.055275,-0.08415,0.161975
1679992152405,1172140760516627,-0.0353375,-0.0572,0.1579875
1679992152408,1172140763018165,-0.016224999,-0.0301125,0.1529
1679992152412,1172140765519925,-0.0033,-0.0031625,0.1529
1679992152413,1172140768021540,0.014712499,0.0237875,0.1500125
1679992152415,1172140770523309,0.0336875,0.0488125,0.144925
1679992152417,1172140773024848,0.0457875,0.0708125,0.1419
1679992152420,1172140775526689,0.0517,0.09185,0.1359875
1679992152422,1172140778028304,0.0647625,0.108899996,0.1309
1679992152425,1172140780530074,0.0727375,0.1238875,0.12595
1679992152428,1172140783031689,0.0787875,0.1318625,0.1199
1679992152430,1172140785533477,0.076725,0.1368125,0.111925
1679992152433,1172140788035093,0.0807125,0.1447875,0.1049125
1679992152436,1172140790536631,0.076725,0.1419,0.0939125
1679992152437,1172140793038477,0.0757625,0.1447875,0.086899996
1679992152440,1172140795540251,0.06875,0.1408,0.078925
1679992152443,1172140798041867,0.059675,0.1368125,0.0719125
1679992152445,1172140800543405,0.05775,0.12979999,0.0669625
1679992152451,1172140803045161,0.0477125,0.121825,0.062975
1679992152452,1172140805546776,0.038775,0.1128875,0.056925
1679992152453,1172140808048545,0.0317625,0.1038125,0.0499125
1679992152455,1172140810550084,0.0237875,0.0928125,0.047025
1679992152457,1172140813051930,0.014712499,0.0818125,0.0429
1679992152462,1172140815553535,0.004675,0.0738375,0.0389125
1679992152463,1172140818055304,-0.0033,0.066825,0.03795
1679992152467,1172140820556920,-0.0133375,0.0567875,0.0369875
1679992152468,1172140823058689,-0.0182875,0.0518375,0.0339625
1679992152471,1172140825560304,-0.0243375,0.0457875,0.0319
1679992152472,1172140828062065,-0.0342375,0.038775,0.0290125
1679992152477,1172140830563680,-0.041249998,0.0347875,0.02695
1679992152478,1172140833065449,-0.0482625,0.0319,0.0229625
1679992152480,1172140835567065,-0.0532125,0.0248875,0.0199375
1679992152483,1172140838068838,-0.06325,0.0198,0.012925
1679992152487,1172140840570376,-0.071225,0.0127875,0.0089375
1679992152488,1172140843071992,-0.077275,0.005775,0.003025
1679992152491,1172140845573761,-0.0873125,0.0017875,-0.0
1679992152492,1172140848075598,-0.091299996,-0.0061875,-0.0039875
1679992152495,1172140850577214,-0.0972125,-0.0092124995,-0.013062499
1679992152497,1172140853078752,-0.105325,-0.0111375,-0.01705
1679992152501,1172140855580521,-0.1093125,-0.0171875,-0.020075
1679992152502,1172140858082060,-0.113299996,-0.0221375,-0.0259875
1679992152505,1172140860583915,-0.1172875,-0.027224999,-0.029975
1679992152508,1172140863085530,-0.1203125,-0.0341,-0.033
1679992152510,1172140865587300,-0.1233375,-0.0391875,-0.0369875
1679992152513,1172140868088915,-0.1233375,-0.04015,-0.042075
1679992152516,1172140870590665,-0.1252625,-0.0411125,-0.0479875
1679992152518,1172140873092204,-0.1233375,-0.04015,-0.053075
1679992152521,1172140875593819,-0.121275,-0.0422125,-0.0540375
1679992152524,1172140878095690,-0.1192125,-0.0411125,-0.0510125
1679992152526,1172140880597459,-0.121275,-0.043175,-0.050049998
1679992152527,1172140883099075,-0.11825,-0.0451,-0.0490875
1679992152530,1172140885600844,-0.1123375,-0.048125,-0.0479875
1679992152533,1172140888102383,-0.1082125,-0.0611875,-0.0479875
1679992152535,1172140890604008,-0.10725,-0.0661375,-0.0479875
1679992152538,1172140893105777,-0.1062875,-0.0792,-0.0460625
1679992152541,1172140895607393,-0.10725,-0.0911625,-0.0460625
1679992152543,1172140898109162,-0.104225,-0.1012,-0.0460625
1679992152545,1172140900610772,-0.100237496,-0.10615,-0.044
1679992152549,1172140903112541,-0.1013375,-0.1232,-0.0460625
1679992152556,1172140905614157,-0.1023,-0.1342,-0.0460625
Name:,Teste 1
Assessment number:,002

system_ts_ms, sensor_ts_ns, gyrX, gyrY, gyrZ
1679992166313,1172154667213608,-0.474375,0.2498375,-0.1111
1679992166314,1172154669715363,-0.5303375,0.2748625,-0.113025
1679992166317,1172154672216979,-0.584375,0.2987875,-0.100099996
1679992166320,1172154674718825,-0.6433625,0.3207875,-0.0699875
1679992166322,1172154677220363,-0.6953375,0.330825,-0.022
1679992166332,1172154679722142,-0.7423625,0.3378375,0.0419375
1679992166332,1172154682223757,-0.77935,0.3378375,0.121
1679992166333,1172154684725526,-0.8053375,0.3348125,0.20295
1679992166334,1172154687227142,-0.82335,0.3218875,0.29095
1679992166335,1172154689728911,-0.8333875,0.30085,0.385
1679992166336,1172154692230531,-0.8273375,0.286825,0.474925
1679992166340,1172154694732301,-0.8053375,0.270875,0.5669125
1679992166343,1172154697233916,-0.77935,0.2558875,0.6499625
1679992166345,1172154699735685,-0.743325,0.2517625,0.7239375
1679992166347,1172154702237292,-0.6892875,0.2468125,0.7909
1679992166349,1172154704739061,-0.6293375,0.2407625,0.843975
1679992166352,1172154707240676,-0.561275,0.2358125,0.88989997
1679992166354,1172154709742445,-0.49335,0.2297625,0.924
1679992166357,1172154712244282,-0.4203375,0.21779999,0.947925
1679992166360,1172154714745820,-0.341275,0.1997875,0.964975
1679992166362,1172154717247436,-0.2682625,0.1838375,0.97295
1679992166364,1172154719749205,-0.188375,0.1648625,0.9739125
1679992166367,1172154722250820,-0.1142625,0.1337875,0.97295
1679992166369,1172154724752594,-0.0413875,0.1018875,0.9689625
1679992166372,1172154727254210,0.026675,0.0658625,0.9579625
1679992166374,1172154729755979,0.0917125,0.0317625,0.9449
1679992166378,1172154732257594,0.1516625,-0.0022,0.9329375
1679992166379,1172154734759378,0.2146375,-0.02915,0.914925
1679992166382,1172154737260993,0.26565,-0.0581625,0.8949875
1679992166384,1172154739762531,0.3136375,-0.0801625,0.876975
1679992166386,1172154742264378,0.3606625,-0.1012,0.8569
1679992166389,1172154744766147,0.4046625,-0.1192125,0.837925
1679992166393,1172154747267748,0.438625,-0.1342,0.8179875
1679992166394,1172154749769518,0.46873748,-0.136125,0.793925
1679992166397,1172154752271133,0.493625,-0.125125,0.7789375
1679992166399,1172154754772902,0.5086125,-0.122237496,0.7649125
1679992166402,1172154757274441,0.5086125,-0.120175,0.7489625
1679992166404,1172154759776287,0.505725,-0.125125,0.738925
1679992166406,1172154762277902,0.493625,-0.1302125,0.7330125
1679992166410,1172154764779671,0.477675,-0.1332375,0.729025
1679992166412,1172154767281224,0.4536125,-0.1342,0.727925
1679992166415,1172154769782839,0.4156625,-0.1342,0.733975
1679992166417,1172154772284608,0.37661248,-0.1291125,0.737
1679992166419,1172154774786224,0.3276625,-0.126225,0.74593747
1679992166422,1172154777287993,0.2776125,-0.1161875,0.755975
1679992166424,1172154779789839,0.22165,-0.10615,0.77
1679992166427,1172154782291455,0.1596375,-0.089237496,0.7819625
1679992166429,1172154784793224,0.104637496,-0.07315,0.795025
1679992166432,1172154787294767,0.0416625,-0.0572,0.8100125
1679992166434,1172154789796383,-0.01925,-0.0342375,0.826925
1679992166437,1172154792298152,-0.083325,-0.016224999,0.8369625
1679992166439,1172154794799767,-0.14135,-0.0031625,0.8479625
1679992166443,1172154797301619,-0.20927499,0.0127875,0.854975
1679992166445,1172154799803388,-0.27225,0.0218625,0.8619875
1679992166447,1172154802305003,-0.330275,0.0408375,0.87395
1679992166449,1172154804806542,-0.38334998,0.0757625,0.8839875
1679992166453,1172154807308311,-0.4343625,0.106837496,0.89196247
1679992166455,1172154809809926,-0.4723125,0.1417625,0.89595
1679992166457,1172154812311695,-0.507375,0.1728375,0.905025
1679992166459,1172154814813311,-0.540375,0.2077625,0.9079125
1679992166462,1172154817315080,-0.562375,0.2517625,0.909975
1679992166464,1172154819816676,-0.578325,0.2938375,0.9119
1679992166466,1172154822318445,-0.5872625,0.3177625,0.9119
1679992166469,1172154824820060,-0.5963375,0.3378375,0.9079125
1679992166472,1172154827321829,-0.5933125,0.3608,0.9059875
1679992166474,1172154829823450,-0.5872625,0.380875,0.8949875
1679992166477,1172154832325219,-0.5823125,0.3818375,0.887975
1679992166479,1172154834826834,-0.5713125,0.374825,0.8779375
1679992166482,1172154837328604,-0.55935,0.363825,0.865975
1679992166484,1172154839830243,-0.5462875,0.3548875,0.8589625
1679992166486,1172154842332012,-0.5313,0.34485,0.8449375
1679992166490,1172154844833628,-0.512325,0.3317875,0.8419125
1679992166493,1172154847335397,-0.490325,0.3207875,0.83393747
1679992166495,1172154849837031,-0.4653,0.2987875,0.8320125
1679992166497,1172154852338801,-0.43835,0.2688125,0.8349
1679992166499,1172154854840416,-0.4103,0.2327875,0.837925
1679992166502,1172154857342185,-0.3793625,0.1868625,0.84095
1679992166504,1172154859843801,-0.3482875,0.1518,0.850025
1679992166506,1172154862345325,-0.3122625,0.12485,0.861025
1679992166510,1172154864847171,-0.26633748,0.1148125,0.87395
1679992166512,1172154867348940,-0.21725,0.104775,0.89402497
1679992166514,1172154869850556,-0.1643125,0.10285,0.91795
1679992166518,1172154872352089,-0.09735,0.10285,0.9439375
1679992166519,1172154874853858,-0.03135,0.1007875,0.9719875
1679992166522,1172154877355474,0.037675,0.0977625,0.9999
1679992166524,1172154879857243,0.1076625,0.0867625,1.0260249
1679992166528,1172154882359070,0.17173749,0.071775,1.0520124
1679992166529,1172154884860686,0.23265,0.0537625,1.067
1679992166532,1172154887362455,0.29865,0.0328625,1.081025
1679992166534,1172154889864070,0.3597,0.011825,1.0960125
1679992166536,1172154892365609,0.4266625,-0.016224999,1.1070125
1679992166539,1172154894867373,0.488675,-0.05115,1.11595
1679992166543,1172154897368988,0.548625,-0.082225,1.122
1679992166544,1172154899870758,0.603625,-0.114125,1.1259875
1679992166547,1172154902372604,0.658625,-0.1491875,1.134925
1679992166549,1172154904874209,0.7016625,-0.1841125,1.140975
1679992166552,1172154907375978,0.7407125,-0.2171125,1.14895
1679992166554,1172154909877517,0.7777,-0.2501125,1.155
1679992166557,1172154912379132,0.80575,-0.279125,1.158025
1679992166560,1172154914880902,0.829675,-0.30415,1.1609125
1679992166562,1172154917382541,0.846725,-0.3322,1.1709499
1679992166565,1172154919884387,0.8586875,-0.362175,1.180025
1679992166567,1172154922385926,0.862675,-0.3872,1.1869
1679992166569,1172154924887695,0.8586875,-0.4162125,1.1939125
1679992166572,1172154927389324,0.85263747,-0.4412375,1.20395
1679992166574,1172154929891093,0.83875,-0.4701125,1.2089
1679992166577,1172154932392940,0.8217,-0.4972,1.217975
1679992166579,1172154934894478,0.802725,-0.5262125,1.224025
1679992166582,1172154937396079,0.77275,-0.5522,1.2299374
1679992166584,1172154939897849,0.7407125,-0.5812125,1.2359875
1679992166587,1172154942399464,0.713625,-0.6081625,1.239975
1679992166589,1172154944901233,0.68475,-0.631125,1.2419
1679992166593,1172154947402844,0.6557375,-0.6571125,1.246025
1679992166594,1172154949904690,0.6276875,-0.6791125,1.2419
1679992166597,1172154952406459,0.60665,-0.69519997,1.2419
1679992166599,1172154954907998,0.5867125,-0.714175,1.2419
1679992166603,1172154957409632,0.571725,-0.725175,1.2419
1679992166605,1172154959911401,0.56265,-0.731225,1.246025
1679992166607,1172154962413017,0.5586625,-0.7431875,1.2439625
1679992166610,1172154964914786,0.55962497,-0.7541875,1.243
1679992166612,1172154967416632,0.56374997,-0.7722,1.2409375
1679992166614,1172154969918218,0.57475,-0.8012125,1.2379125
1679992166617,1172154972419757,0.5867125,-0.8361375,1.2329625
1679992166619,1172154974921526,0.6087125,-0.8721625,1.224025
1679992166622,1172154977423141,0.631675,-0.92015,1.221
1679992166624,1172154979924902,0.6557375,-0.973225,1.2159125
1679992166627,1172154982426440,0.6787,-1.0212125,1.206975
1679992166629,1172154984928056,0.70675,-1.0701625,1.1978999
1679992166632,1172154987429902,0.72765,-1.1171875,1.1919875
1679992166634,1172154989931690,0.7437375,-1.1462,1.1859375
1679992166637,1172154992433305,0.7627125,-1.1682,1.1809875
1679992166641,1172154994935075,0.77165,-1.1831875,1.1730125
1679992166644,1172154997436695,0.7767375,-1.1862125,1.1669625
1679992166646,1172154999938464,0.7777,-1.1801625,1.1639374
1679992166648,1172155002440003,0.7737125,-1.1642125,1.15995
1679992166650,1172155004941849,0.7657375,-1.1391875,1.162975
1679992166653,1172155007443464,0.757625,-1.104125,1.167925
1679992166654,1172155009945218,0.73768747,-1.071125,1.169025
1679992166656,1172155012446834,0.7126625,-1.0311126,1.178925
1679992166660,1172155014948603,0.6876375,-0.98821247,1.1889625
1679992166662,1172155017450218,0.6557375,-0.95411247,1.1999625
1679992166664,1172155019951757,0.625625,-0.9142375,1.2060125
1679992166666,1172155022453603,0.593725,-0.8592375,1.189925
1679992166669,1172155024955372,0.5666375,-0.7981875,1.1429
1679992166672,1172155027456988,0.5427125,-0.741125,1.074975
1679992166674,1172155029958526,0.504625,-0.6991875,0.9909625
1679992166679,1172155032460295,0.4566375,-0.664125,0.9079125
1679992166681,1172155034962142,0.4156625,-0.6111875,0.828025
1679992166683,1172155037463757,0.37565,-0.5292375,0.7539125
1679992166685,1172155039965295,0.340725,-0.4241875,0.685025
1679992166686,1172155042467065,0.312675,-0.31515,0.62095
1679992166689,1172155044968666,0.27775,-0.213125,0.56993747
1679992166693,1172155047470435,0.246675,-0.11715,0.53295
1679992166694,1172155049972051,0.21367499,-0.032175,0.5069625
1679992166697,1172155052473897,0.1797125,0.050875,0.4879875
1679992166699,1172155054975671,0.14973749,0.1398375,0.4719
1679992166702,1172155057477286,0.120725,0.2278375,0.4549875
1679992166704,1172155059978825,0.093637496,0.3177625,0.4360125
1679992166706,1172155062480594,0.06765,0.4178625,0.4189625
1679992166709,1172155064982195,0.048675,0.52085,0.3999875
1679992166712,1172155067483964,0.032725,0.6208125,0.3810125
1679992166716,1172155069985579,0.01265,0.715825,0.3639625
1679992166718,1172155072487425,-0.006325,0.803825,0.3480125
1679992166720,1172155074989176,-0.02035,0.8738125,0.3389375
1679992166723,1172155077490714,-0.034375,0.9337625,0.3399
1679992166724,1172155079992329,-0.0493625,0.979825,0.34595
1679992166727,1172155082494099,-0.06435,1.012825,0.3619
1679992166729,1172155084995714,-0.077275,1.0338625,0.388025
1679992166732,1172155087497243,-0.0873125,1.0488499,0.4189625
1679992166734,1172155089999089,-0.0922625,1.0538,0.4519625
1679992166737,1172155092500858,-0.09735,1.056825,0.4929375
1679992166739,1172155095002473,-0.09625,1.0528375,0.53295
1679992166743,1172155097504234,-0.0873125,1.050775,0.568975
1679992166745,1172155100005849,-0.0763125,1.0478874,0.5999125
1679992166747,1172155102507618,-0.066275,1.0437624,0.6259
1679992166749,1172155105009234,-0.050325,1.039775,0.65395
1679992166754,1172155107510772,-0.034375,1.0308375,0.6749875
1679992166755,1172155110012618,-0.01925,1.018875,0.694925
1679992166758,1172155112514387,-0.0053625,1.0038875,0.7110125
1679992166760,1172155115016003,0.009625,0.98285,0.7269625
1679992166762,1172155117517772,0.0226875,0.963875,0.7440125
1679992166764,1172155120019396,0.0407,0.941875,0.755975
1679992166767,1172155122521166,0.05775,0.92785,0.7689
1679992166769,1172155125022704,0.0716375,0.913825,0.7789375
1679992166772,1172155127524550,0.0826375,0.8988375,0.78595
1679992166774,1172155130026133,0.0947375,0.8768375,0.7909
1679992166777,1172155132527902,0.10065,0.8448,0.792
1679992166779,1172155135029440,0.109725,0.8118,0.7880125
1679992166783,1172155137531287,0.12375,0.7797625,0.7849875
1679992166784,1172155140032902,0.13475,0.7467625,0.77701247
1679992166787,1172155142534671,0.1436875,0.7128,0.7679375
1679992166791,1172155145036287,0.1507,0.67485,0.7569375
1679992166793,1172155147538056,0.1577125,0.6458375,0.749925
1679992166795,1172155150039603,0.158675,0.6208125,0.74195
1679992166798,1172155152541219,0.1607375,0.599775,0.7319125
1679992166799,1172155155042988,0.1626625,0.5828625,0.722975
1679992166802,1172155157544834,0.1617,0.566775,0.7110125
1679992166804,1172155160046449,0.1607375,0.5548125,0.7019375
1679992166807,1172155162548224,0.1607375,0.5468375,0.6909375
1679992166809,1172155165049839,0.15675,0.5377625,0.6749875
1679992166812,1172155167551608,0.1546875,0.5358375,0.66495
1679992166814,1172155170053147,0.15675,0.5377625,0.652025
1679992166817,1172155172554752,0.1546875,0.544775,0.6389625
1679992166819,1172155175056598,0.153725,0.5517875,0.6340125
1679992166822,1172155177558368,0.14973749,0.555775,0.62796247
1679992166824,1172155180059983,0.1436875,0.5548125,0.6249375
1679992166828,1172155182561762,0.1357125,0.5548125,0.623975
1679992166830,1172155185063378,0.1296625,0.555775,0.627
1679992166833,1172155187564916,0.12265,0.5548125,0.6340125
1679992166834,1172155190066685,0.114675,0.5517875,0.6369
1679992166837,1172155192568301,0.1067,0.5487625,0.6439125
1679992166840,1172155195070133,0.10065,0.545875,0.649
1679992166843,1172155197571671,0.093637496,0.5358375,0.6549125
1679992166845,1172155200073441,0.0847,0.53185,0.663025
1679992166847,1172155202575056,0.0826375,0.5278625,0.667975
1679992166850,1172155205076825,0.076725,0.5218125,0.6719625
1679992166853,1172155207578445,0.06875,0.5218125,0.672925
1679992166854,1172155210080214,0.0606375,0.5168625,0.6749875
1679992166857,1172155212582060,0.0526625,0.5047625,0.6749875
1679992166860,1172155215083675,0.043725,0.4948625,0.672925
1679992166862,1172155217585219,0.037675,0.484825,0.6670125
1679992166867,1172155220086988,0.03575,0.4698375,0.65793747
1679992166868,1172155222588603,0.03575,0.45485,0.6469375
1679992166869,1172155225090373,0.0386375,0.44288749,0.634975
1679992166872,1172155227592007,0.0397375,0.435875,0.62095
1679992166875,1172155230093853,0.0477125,0.4307875,0.608025
1679992166877,1172155232595392,0.059675,0.4228125,0.594
1679992166880,1172155235097171,0.06765,0.4148375,0.5790125
1679992166882,1172155237598786,0.0776875,0.4098875,0.5680125
1679992166885,1172155240100556,0.0837375,0.396825,0.55495
1679992166887,1172155242602402,0.0996875,0.3768875,0.540925
1679992166889,1172155245104036,0.11275,0.3397625,0.531025
1679992166892,1172155247605575,0.1216875,0.30085,0.5229125
1679992166894,1172155250107344,0.1357125,0.25685,0.518925
1679992166897,1172155252608959,0.14973749,0.1997875,0.5159
1679992166900,1172155255110728,0.164725,0.1368125,0.51094997
1679992166904,1172155257612257,0.1797125,0.077825,0.509025
1679992166906,1172155260114103,0.19373749,0.0158125,0.502975
1679992166907,1172155262615718,0.21065,-0.0441375,0.498025
1679992166909,1172155265117488,0.2256375,-0.1051875,0.4929375
1679992166912,1172155267619103,0.2426875,-0.158125,0.491975
1679992166915,1172155270120872,0.2497,-0.2061125,0.484
1679992166918,1172155272622488,0.257675,-0.2451625,0.47795
1679992166920,1172155275124026,0.2607,-0.2811875,0.476025
1679992166923,1172155277625791,0.2607,-0.307175,0.4679125
1679992166925,1172155280127638,0.25575,-0.3282125,0.45993748
1679992166927,1172155282629253,0.2506625,-0.335225,0.4519625
1679992166929,1172155285131022,0.2457125,-0.335225,0.443025
1679992166933,1172155287632623,0.23773749,-0.329175,0.4349125
1679992166936,1172155290134392,0.2256375,-0.323125,0.42295
1679992166940,1172155292636007,0.2057,-0.3111625,0.41799998
1679992166941,1172155295137546,0.1896125,-0.2971375,0.41195
1679992166944,1172155297639397,0.1736625,-0.27513748,0.4049375
1679992166946,1172155300141166,0.1516625,-0.24915,0.3999875
1679992166948,1172155302642782,0.1296625,-0.2231625,0.396
1679992166949,1172155305144551,0.1057375,-0.19415,0.3949
1679992166952,1172155307646166,0.07865,-0.1621125,0.3949
1679992166955,1172155310147959,0.0507375,-0.13213749,0.3949
1679992166957,1172155312649498,0.0246125,-0.0961125,0.392975
1679992166959,1172155315151344,-0.0033,-0.060225,0.3909125
1679992166962,1172155317652959,-0.0273625,-0.0202125,0.3889875
1679992166964,1172155320154729,-0.05335,0.017875,0.3839
1679992166967,1172155322656272,-0.0763125,0.0567875,0.37895
1679992166969,1172155325157887,-0.09735,0.1038125,0.374
1679992166972,1172155327659734,-0.1153625,0.1518,0.363
1679992166974,1172155330161272,-0.1362625,0.1958,0.353925
1679992166978,1172155332663013,-0.1563375,0.2418625,0.342925
1679992166980,1172155335164860,-0.1733875,0.2888875,0.3339875
1679992166983,1172155337666398,-0.18727499,0.336875,0.3260125
1679992166985,1172155340168013,-0.199375,0.3738625,0.320925
1679992166987,1172155342669783,-0.2063875,0.41085,0.3119875
1679992166989,1172155345171388,-0.2143625,0.4368375,0.3040125
1679992166993,1172155347673234,-0.2143625,0.462825,0.297
1679992166995,1172155350175003,-0.2123,0.4818,0.2869625
1679992166997,1172155352676619,-0.20735,0.4857875,0.2759625
1679992167000,1172155355178148,-0.1953875,0.4857875,0.2629
1679992167002,1172155357679917,-0.1832875,0.467775,0.2539625
1679992167004,1172155360181533,-0.1582625,0.44288749,0.238975
1679992167007,1172155362683302,-0.133375,0.401775,0.22495
1679992167009,1172155365185148,-0.1032625,0.3628625,0.210925
1679992167012,1172155367686764,-0.0713625,0.3097875,0.194975
1679992167016,1172155370188533,-0.0383625,0.2498375,0.1819125
1679992167018,1172155372690148,-0.0033,0.187825,0.1769625
1679992167019,1172155375191687,0.0306625,0.1318625,0.1720125
1679992167022,1172155377693451,0.064625,0.0748,0.1689875
1679992167024,1172155380195066,0.097625,0.0237875,0.1720125
1679992167027,1172155382696913,0.1266375,-0.0191125,0.1709125
1679992167029,1172155385198682,0.153725,-0.0642125,0.16995
1679992167033,1172155387700292,0.175725,-0.103125,0.168025
1679992167035,1172155390202061,0.196625,-0.13213749,0.1689875
1679992167037,1172155392703600,0.2167,-0.15619999,0.16995
1679992167040,1172155395205215,0.230725,-0.17613749,0.16995
1679992167043,1172155397706975,0.24365,-0.1931875,0.168025
1679992167045,1172155400208590,0.251625,-0.2072125,0.1639
1679992167047,1172155402710436,0.2616625,-0.2212375,0.1639
1679992167050,1172155405211975,0.262625,-0.2292125,0.1610125
1679992167054,1172155407713730,0.2616625,-0.23815,0.1599125
1679992167055,1172155410215345,0.257675,-0.246125,0.15895
1679992167057,1172155412717114,0.2476375,-0.2542375,0.1579875
1679992167059,1172155415218730,0.2387,-0.26015,0.157025
1679992167062,1172155417720499,0.2206875,-0.2652375,0.1549625
1679992167064,1172155420222354,0.2057,-0.26221249,0.157025
1679992167067,1172155422723893,0.1907125,-0.26015,0.157025
1679992167069,1172155425225508,0.16665,-0.2501125,0.1579875
1679992167072,1172155427727277,0.1486375,-0.2341625,0.157025
1679992167075,1172155430228917,0.1296625,-0.208175,0.155925
1679992167077,1172155432730686,0.1027125,-0.1791625,0.1529
1679992167080,1172155435232301,0.0807125,-0.147125,0.1500125
1679992167082,1172155437734071,0.0556875,-0.1122,0.1489125
1679992167084,1172155440235686,0.0336875,-0.07315,0.144925
1679992167087,1172155442737455,0.0077,-0.0331375,0.143
1679992167091,1172155445239071,-0.02035,0.006875,0.143
1679992167093,1172155447740840,-0.0493625,0.049775,0.1390125
1679992167095,1172155450242686,-0.0713625,0.0968,0.139975
1679992167097,1172155452744205,-0.0933625,0.13585,0.135025
1679992167100,1172155455245821,-0.1172875,0.16885,0.128975
1679992167102,1172155457747590,-0.138325,0.1997875,0.12595
1679992167104,1172155460249205,-0.1573,0.2308625,0.1219625
1679992167107,1172155462750744,-0.17435,0.258775,0.1159125
1679992167109,1172155465252590,-0.18933749,0.286825,0.106975
1679992167112,1172155467754359,-0.2003375,0.3067625,0.10395
1679992167115,1172155470255975,-0.21133749,0.3287625,0.09295
1679992167117,1172155472757759,-0.21835,0.347875,0.08195
1679992167120,1172155475259374,-0.226325,0.357775,0.0759
1679992167122,1172155477761144,-0.2343,0.368775,0.064899996
1679992167124,1172155480262682,-0.2393875,0.37785,0.058025
1679992167129,1172155482764287,-0.2363625,0.3837625,0.045925
1679992167130,1172155485266057,-0.23333749,0.379775,0.036025
1679992167133,1172155487767903,-0.23333749,0.3738625,0.0259875
1679992167135,1172155490269518,-0.2253625,0.363825,0.012925
1679992167137,1172155492771287,-0.2173875,0.3518625,0.00495
1679992167139,1172155495272908,-0.20927499,0.330825,-0.0039875
1679992167142,1172155497774677,-0.198275,0.314875,-0.009075
1679992167144,1172155500276216,-0.18535,0.291775,-0.0121
1679992167147,1172155502777831,-0.1722875,0.2608375,-0.0180125
1679992167149,1172155505279705,-0.155375,0.236775,-0.018975
1679992167152,1172155507781474,-0.138325,0.2077625,-0.018975
1679992167155,1172155510283090,-0.1203125,0.1747625,-0.01705
1679992167157,1172155512784859,-0.099275,0.1458875,-0.0149875
1679992167159,1172155515286474,-0.083325,0.1197625,-0.011
1679992167162,1172155517788235,-0.0603625,0.094875,-0.0100375
1679992167167,1172155520289773,-0.0402875,0.072875,-0.0070125
1679992167168,1172155522791619,-0.0163625,0.050875,-0.00605
1679992167169,1172155525293235,-0.0023375,0.0237875,-0.00605
1679992167172,1172155527794777,0.0177375,-0.0081124995,-0.0070125
1679992167174,1172155530296623,0.0416625,-0.0281875,-0.009075
1679992167177,1172155532798392,0.059675,-0.0562375,-0.0100375
1679992167179,1172155535299931,0.07865,-0.076175,-0.0149875
1679992167182,1172155537801792,0.098725,-0.0941875,-0.0149875
1679992167185,1172155540303407,0.1167375,-0.111237496,-0.0180125
1679992167187,1172155542804946,0.131725,-0.1241625,-0.022
1679992167190,1172155545306715,0.1507,-0.136125,-0.0320375
1679992167193,1172155547808345,0.16665,-0.1491875,-0.0320375
1679992167195,1172155550310114,0.17765,-0.1571625,-0.0350625
1679992167197,1172155552811960,0.19373749,-0.1621125,-0.0400125
1679992167199,1172155555313575,0.207625,-0.169125,-0.0430375
1679992167204,1172155557815364,0.2256375,-0.1772375,-0.0479875
1679992167206,1172155560316979,0.2316875,-0.1892,-0.053075
1679992167207,1172155562818517,0.241725,-0.2041875,-0.0600875
1679992167210,1172155565320287,0.251625,-0.2151875,-0.0600875
1679992167212,1172155567821902,0.257675,-0.22715,-0.0600875
1679992167214,1172155570323671,0.257675,-0.2341625,-0.0650375
1679992167217,1172155572825517,0.257675,-0.24213749,-0.069025
1679992167220,1172155575327133,0.25465,-0.24419999,-0.0710875
1679992167222,1172155577828902,0.240625,-0.2451625,-0.0730125
1679992167224,1172155580330441,0.2286625,-0.246125,-0.07205
1679992167227,1172155582832090,0.21573749,-0.247225,-0.0710875
1679992167230,1172155585333859,0.19965,-0.2432375,-0.0680625
1679992167233,1172155587835475,0.180675,-0.24213749,-0.0620125
1679992167235,1172155590337316,0.1596375,-0.2341625,-0.058025
1679992167237,1172155592839085,0.141625,-0.225225,-0.0510125
1679992167241,1172155595340700,0.115637496,-0.2171125,-0.051975
1679992167244,1172155597842470,0.0917125,-0.2121625,-0.0430375
1679992167246,1172155600343984,0.0636625,-0.202125,-0.039049998
1679992167248,1172155602845599,0.037675,-0.2041875,-0.0320375
1679992167249,1172155605347369,0.013612499,-0.2072125,-0.0259875
1679992167252,1172155607848984,-0.00935,-0.2102375,-0.020075
1679992167255,1172155610350830,-0.034375,-0.2102375,-0.0149875
1679992167257,1172155612852594,-0.0543125,-0.2151875,-0.0070125
1679992167259,1172155615354210,-0.0713625,-0.2231625,-0.003025
1679992167262,1172155617855748,-0.0873125,-0.225225,-0.0
1679992167264,1172155620357518,-0.0963875,-0.236225,9.625E-4
1679992167267,1172155622859157,-0.1062875,-0.2501125,-0.0011
1679992167269,1172155625360926,-0.1153625,-0.2611125,-0.0
1679992167272,1172155627862772,-0.1172875,-0.274175,-0.003025
1679992167276,1172155630364311,-0.1172875,-0.2891625,-0.00605
1679992167279,1172155632865936,-0.1172875,-0.2992,-0.0121
1679992167280,1172155635367705,-0.1142625,-0.3172125,-0.022
1679992167283,1172155637869321,-0.1062875,-0.334125,-0.0270875
1679992167285,1172155640371090,-0.1062875,-0.3612125,-0.0350625
1679992167287,1172155642872705,-0.1013375,-0.3881625,-0.044
1679992167290,1172155645374475,-0.100375,-0.4131875,-0.051975
1679992167293,1172155647876090,-0.09735,-0.4401375,-0.0600875
1679992167294,1172155650377859,-0.0983125,-0.4731375,-0.0710875
1679992167297,1172155652879475,-0.099275,-0.499125,-0.0809875
1679992167300,1172155655381244,-0.1023,-0.532125,-0.0919875
1679992167302,1172155657882864,-0.1093125,-0.5691125,-0.099
1679992167305,1172155660384634,-0.1142625,-0.6001875,-0.10505
1679992167307,1172155662886249,-0.1263625,-0.631125,-0.1111
1679992167309,1172155665388018,-0.1373625,-0.6612375,-0.119075
1679992167313,1172155667889634,-0.1502875,-0.68915,-0.117975
1679992167317,1172155670391403,-0.1643125,-0.719125,-0.117975
1679992167319,1172155672893018,-0.176275,-0.747175,-0.1150875
1679992167321,1172155675394845,-0.1912625,-0.775225,-0.1120625
1679992167323,1172155677896384,-0.21133749,-0.8042375,-0.108075
1679992167325,1172155680398153,-0.23127499,-0.8262375,-0.1040875
1679992167327,1172155682899768,-0.248325,-0.8421875,-0.10505
1679992167330,1172155685401538,-0.2673,-0.85415,-0.10505
1679992167333,1172155687903167,-0.2853125,-0.8581375,-0.1060125
1679992167335,1172155690404936,-0.30635,-0.8551125,-0.106975
1679992167337,1172155692906552,-0.3273875,-0.8452125,-0.1150875
1679992167340,1172155695408321,-0.3463625,-0.8311875,-0.122099996
1679992167343,1172155697909931,-0.3623125,-0.8091875,-0.132
1679992167345,1172155700411701,-0.3812875,-0.7902125,-0.143
1679992167347,1172155702913316,-0.39627498,-0.7682125,-0.1551
1679992167350,1172155705415085,-0.413325,-0.7392,-0.1670625
1679992167354,1172155707916682,-0.429275,-0.7162375,-0.1771
1679992167357,1172155710418451,-0.4442625,-0.692175,-0.19305
1679992167358,1172155712920066,-0.4582875,-0.66316247,-0.201025
1679992167360,1172155715421835,-0.4723125,-0.632225,-0.207075
1679992167363,1172155717923451,-0.4882625,-0.60513747,-0.2140875
1679992167365,1172155720425210,-0.5003625,-0.571175,-0.22
1679992167368,1172155722926826,-0.512325,-0.5391375,-0.22605
1679992167370,1172155725428364,-0.517275,-0.5061375,-0.234025
1679992167372,1172155727930210,-0.5273125,-0.4731375,-0.24007499
1679992167375,1172155730431970,-0.5383125,-0.4422,-0.245025
1679992167378,1172155732933586,-0.5493125,-0.4162125,-0.2520375
1679992167380,1172155735435355,-0.556325,-0.3911875,-0.260975
1679992167382,1172155737936970,-0.5652625,-0.36519998,-0.262075
1679992167385,1172155740438513,-0.5743375,-0.3471875,-0.2651
1679992167388,1172155742940359,-0.5823125,-0.3271125,-0.262075
1679992167391,1172155745442128,-0.5872625,-0.3161125,-0.2600125
1679992167393,1172155747943744,-0.595375,-0.3081375,-0.2569875
1679992167396,1172155750445504,-0.5993625,-0.2992,-0.253
1679992167398,1172155752947119,-0.6023875,-0.291225,-0.2541
1679992167400,1172155755448889,-0.6023875,-0.2891625,-0.251075
1679992167402,1172155757950427,-0.5982625,-0.2891625,-0.2470875
1679992167404,1172155760452273,-0.594275,-0.2941125,-0.24805
1679992167407,1172155762953889,-0.5823125,-0.3102,-0.249975
1679992167410,1172155765455658,-0.572275,-0.3271125,-0.2520375
1679992167413,1172155767957273,-0.5603125,-0.3551625,-0.249975
1679992167415,1172155770459042,-0.5413375,-0.3832125,-0.2490125
1679992167417,1172155772960667,-0.518375,-0.411125,-0.24805
1679992167420,1172155775462436,-0.4983,-0.444125,-0.251075
1679992167423,1172155777963974,-0.46928748,-0.4811125,-0.253
1679992167425,1172155780465821,-0.43835,-0.521125,-0.253
1679992167429,1172155782967432,-0.40535,-0.5611375,-0.2541
1679992167430,1172155785469201,-0.3713875,-0.5941375,-0.256025
1679992167433,1172155787970817,-0.336325,-0.6271375,-0.2569875
1679992167435,1172155790472586,-0.298375,-0.659175,-0.25905
1679992167437,1172155792974201,-0.2693625,-0.6832375,-0.2580875
1679992167440,1172155795475725,-0.23333749,-0.70015,-0.264
1679992167443,1172155797977571,-0.2013,-0.719125,-0.267025
1679992167445,1172155800479340,-0.17435,-0.731225,-0.27101249
1679992167447,1172155802980956,-0.143275,-0.7352125,-0.275
1679992167450,1172155805482725,-0.1153625,-0.731225,-0.278025
1679992167452,1172155807984359,-0.0903375,-0.72214997,-0.28105
1679992167455,1172155810486128,-0.066275,-0.71115,-0.2850375
1679992167457,1172155812987744,-0.0413875,-0.6912125,-0.2910875
1679992167460,1172155815489287,-0.0154,-0.681175,-0.2981
1679992167463,1172155817991133,0.009625,-0.6661875,-0.3070375
1679992167467,1172155820492903,0.0336875,-0.653125,-0.3130875
1679992167468,1172155822994518,0.0517,-0.64515,-0.319
1679992167470,1172155825496287,0.070675,-0.632225,-0.3229875
1679992167473,1172155827997913,0.0847,-0.6221875,-0.328075
1679992167476,1172155830499451,0.1016125,-0.620125,-0.333025
1679992167477,1172155833001220,0.1205875,-0.62425,-0.33605
1679992167480,1172155835503067,0.1357125,-0.6331875,-0.344025
1679992167482,1172155838004687,0.153725,-0.64625,-0.352
1679992167485,1172155840506456,0.163625,-0.6612375,-0.359975
1679992167487,1172155843007995,0.1766875,-0.6851625,-0.3700125
1679992167490,1172155845509610,0.1926375,-0.719125,-0.381975
1679992167492,1172155848011446,0.2066625,-0.75322497,-0.3920125
1679992167495,1172155850513215,0.2237125,-0.7942,-0.399025
1679992167497,1172155853014754,0.2396625,-0.851125,-0.4060375
1679992167500,1172155855516369,0.2616625,-0.9191875,-0.41305
1679992167504,1172155858018158,0.284625,-0.994125,-0.41305
1679992167505,1172155860519773,0.3157,-1.083225,-0.4090625
1679992167507,1172155863021542,0.34759998,-1.1801625,-0.40301248
1679992167510,1172155865523388,0.3876125,-1.28315,-0.3900875
1679992167512,1172155868025004,0.439725,-1.3982375,-0.3730375
1679992167516,1172155870526788,0.494725,-1.5202,-0.3510375
1679992167519,1172155873028326,0.55962497,-1.6431249,-0.3320625
1679992167520,1172155875529942,0.626725,-1.7722375,-0.308
1679992167523,1172155878031711,0.7046875,-1.907125,-0.2820125
1679992167525,1172155880533326,0.7866375,-2.050125,-0.2569875
1679992167527,1172155883035177,0.8767,-2.2001374,-0.231
1679992167530,1172155885536946,0.9766625,-2.3892,-0.1970375
1679992167533,1172155888038561,1.077725,-2.6092,-0.1560625
1679992167535,1172155890540330,1.176725,-2.7831376,-0.121
1679992167537,1172155893041865,1.2786125,-2.925175,-0.100099996
1679992167541,1172155895543480,1.3866875,-3.06515,-0.078099996
1679992167544,1172155898045250,1.4927,-3.194125,-0.0561
1679992167546,1172155900546865,1.5996749,-3.3132,-0.0341
1679992167548,1172155903048720,1.7017,-3.4232,-0.0149875
1679992167551,1172155905550489,1.8035874,-3.5201375,-0.0
1679992167552,1172155908052105,1.9036875,-3.5921874,0.014025
1679992167556,1172155910553874,1.9966375,-3.6432,0.0209
1679992167557,1172155913055412,2.0827124,-3.678125,0.022
1679992167561,1172155915557023,2.1626,-3.6961374,0.0199375
1679992167566,1172155918058792,2.2336874,-3.7021875,0.0099
1679992167566,1172155920560638,2.298725,-3.6961374,-0.003025
1679992167567,1172155923062254,2.352625,-3.678125,-0.0240625
1679992167569,1172155925564023,2.3986876,-3.6542,-0.053075
1679992167572,1172155928065638,2.4366374,-3.62725,-0.084975
1679992167575,1172155930567177,2.46565,-3.5952125,-0.117975
1679992167578,1172155933068946,2.484625,-3.5662,-0.150975
1679992167580,1172155935570552,2.496725,-3.52825,-0.1860375
1679992167583,1172155938072398,2.5007124,-3.4871376,-0.216975
1679992167584,1172155940574168,2.496725,-3.448225,-0.242
1679992167587,1172155943075783,2.4866874,-3.4051874,-0.2600125
1679992167590,1172155945577322,2.4787126,-3.3611875,-0.275
1679992167593,1172155948079090,2.4586375,-3.3331375,-0.2880625
1679992167596,1172155950580936,2.4316876,-3.326125,-0.293975
1679992167597,1172155953082551,2.41065,-3.337125,-0.2930125
1679992167600,1172155955584321,2.391675,-3.3581624,-0.2930125
1679992167603,1172155958085941,2.374625,-3.3902,-0.2871
1679992167605,1172155960587710,2.3676126,-3.4372249,-0.2800875
1679992167607,1172155963089326,2.369675,-3.4911249,-0.2651
1679992167610,1172155965590864,2.369675,-3.5531375,-0.249975
1679992167612,1172155968092725,2.374625,-3.6191375,-0.229075
1679992167617,1172155970594494,2.37765,-3.6911874,-0.21505
1679992167618,1172155973096110,2.3816376,-3.772175,-0.1920875
1679992167620,1172155975597879,2.38865,-3.86925,-0.1590875
1679992167622,1172155978099480,2.3956625,-3.965225,-0.12705
1679992167625,1172155980601249,2.4057,-4.063125,-0.0950125
1679992167628,1172155983102787,2.4176624,-4.1672125,-0.062975
1679992167630,1172155985604403,2.42165,-4.2711625,-0.0350625
1679992167632,1172155988106259,2.4277,-4.383225,-0.0
1679992167635,1172155990608028,2.429625,-4.4911623,0.029975
1679992167637,1172155993109566,2.430725,-4.59525,0.055
1679992167641,1172155995611182,2.4336126,-4.680225,0.08195
1679992167643,1172155998112951,2.4316876,-4.7411375,0.106975
1679992167645,1172156000614797,2.42165,-4.7972374,0.1269125
1679992167647,1172156003116336,2.4146376,-4.8391747,0.14093749
1679992167650,1172156005618182,2.4006126,-4.8651624,0.1500125
1679992167654,1172156008119801,2.3816376,-4.866125,0.1549625
1679992167656,1172156010621571,2.3566124,-4.84715,0.1439625
1679992167657,1172156013123109,2.3276,-4.7991624,0.1309
1679992167660,1172156015624724,2.28965,-4.723125,0.1109625
1679992167662,1172156018126494,2.2477124,-4.625225,0.0829125
1679992167665,1172156020628138,2.20165,-4.5082126,0.051975
1679992167667,1172156023129907,2.1516,-4.377175,0.011
1679992167670,1172156025631753,2.0926125,-4.2301874,-0.0290125
1679992167673,1172156028133369,2.023725,-4.05625,-0.075075
1679992167676,1172156030634888,1.9437,-3.860175,-0.120037496
1679992167677,1172156033136657,1.8566625,-3.668225,-0.168025
1679992167680,1172156035638273,1.7677,-3.5201375,-0.212025
1679992167684,1172156038140042,1.681625,-3.4342,-0.256025
1679992167685,1172156040641658,1.5987124,-3.3941875,-0.306075
1679992167687,1172156043143465,1.5156626,-3.370125,-0.355025
1679992167691,1172156045645234,1.4416875,-3.3441374,-0.399025
1679992167694,1172156048146772,1.37665,-3.299175,-0.44
1679992167696,1172156050648388,1.3156,-3.2362,-0.4769875
1679992167697,1172156053150143,1.2617,-3.1571374,-0.5099875
1679992167700,1172156055651989,1.2106875,-3.06625,-0.5350125
1679992167702,1172156058153605,1.15665,-2.9651875,-0.559075
1679992167705,1172156060655143,1.1026125,-2.8631625,-0.581075
1679992167707,1172156063156912,1.0527,-2.760175,-0.597025
1679992167710,1172156065658533,0.9937125,-2.6541624,-0.6061
1679992167713,1172156068160302,0.9356875,-2.5542,-0.616
1679992167716,1172156070661917,0.8756,-2.4552,-0.608025
1679992167718,1172156073163763,0.8116625,-2.3571625,-0.5930375
1679992167720,1172156075665533,0.7506125,-2.254175,-0.5680125
1679992167722,1172156078167071,0.6906625,-2.155175,-0.531025
1679992167725,1172156080668687,0.636625,-2.0472374,-0.4851
1679992167729,1172156083170460,0.5856125,-1.924175,-0.43408749
1679992167730,1172156085672075,0.53061247,-1.8022125,-0.388025
1679992167733,1172156088173844,0.477675,-1.6812125,-0.3339875
1679992167735,1172156090675691,0.43559998,-1.572175,-0.2740375
1679992167737,1172156093177306,0.39765,-1.4612125,-0.2140875
1679992167740,1172156095679066,0.3707,-1.3542374,-0.1420375
1679992167743,1172156098180605,0.3466375,-1.2491875,-0.077
1679992167745,1172156100682220,0.328625,-1.14015,-0.0210375
1679992167747,1172156103183989,0.3136375,-1.039225,0.0229625
1679992167750,1172156105685605,0.3007125,-0.940225,0.05995
1679992167752,1172156108187383,0.29067498,-0.85415,0.091025
1679992167756,1172156110689229,0.2866875,-0.7731625,0.1189375
1679992167758,1172156113190844,0.2776125,-0.708125,0.132
1679992167760,1172156115692610,0.2756875,-0.66316247,0.143
1679992167763,1172156118194148,0.2726625,-0.6292,0.1489125
1679992167767,1172156120695764,0.262625,-0.599225,0.155925
1679992167768,1172156123197533,0.2607,-0.58025,0.1579875
1679992167770,1172156125699148,0.2567125,-0.5632,0.161975
1679992167772,1172156128200998,0.257675,-0.5531625,0.1689875
1679992167775,1172156130702768,0.2536875,-0.5412,0.1749
1679992167777,1172156133204383,0.2497,-0.5231875,0.1799875
1679992167780,1172156135706152,0.246675,-0.5011875,0.190025
1679992167782,1172156138207691,0.2457125,-0.4731375,0.1969
1679992167785,1172156140709306,0.2366375,-0.445225,0.2039125
1679992167787,1172156143211075,0.2256375,-0.4092,0.20899999
1679992167790,1172156145712921,0.2156,-0.367125,0.2129875
1679992167792,1172156148214537,0.1986875,-0.3212,0.2129875
1679992167796,1172156150716075,0.18259999,-0.274175,0.21395
1679992167797,1172156153217845,0.1617,-0.2341625,0.2179375
1679992167800,1172156155719460,0.14465,-0.20019999,0.212025
1679992167804,1172156158221297,0.1276,-0.1672,0.2099625
1679992167805,1172156160723066,0.1166,-0.1491875,0.20295
1679992167807,1172156163224682,0.1067,-0.1442375,0.188925
1679992167810,1172156165726451,0.097625,-0.148225,0.176
1679992167812,1172156168228051,0.095699996,-0.164175,0.1549625
1679992167815,1172156170729590,0.08965,-0.192225,0.1299375
1679992167818,1172156173231359,0.0856625,-0.23815,0.1060125
1679992167820,1172156175733205,0.0847,-0.291225,0.0779625
1679992167823,1172156178234807,0.0826375,-0.34814999,0.044
1679992167825,1172156180736576,0.0856625,-0.40425,0.0119624995
1679992167827,1172156183238191,0.0946,-0.455125,-0.018975
1679992167830,1172156185739960,0.104637496,-0.49115,-0.0510125
1679992167832,1172156188241465,0.115637496,-0.5201625,-0.088
1679992167836,1172156190743080,0.115637496,-0.544225,-0.121
1679992167838,1172156193244850,0.093637496,-0.55715,-0.152075
1679992167842,1172156195746701,0.045649998,-0.549175,-0.17407499
1679992167845,1172156198248316,-0.023375,-0.52415,-0.1830125
1679992167847,1172156200750085,-0.1062875,-0.4602125,-0.179025
1679992167849,1172156203251701,-0.18933749,-0.3422375,-0.1700875
1679992167851,1172156205753470,-0.2693625,-0.1772375,-0.1590875
1679992167853,1172156208255032,-0.3323375,0.0158125,-0.1530375
1679992167855,1172156210756648,-0.385275,0.2278375,-0.146025
1679992167857,1172156213258494,-0.4313375,0.4228125,-0.1390125
1679992167860,1172156215760263,-0.4582875,0.5798375,-0.124025
1679992167862,1172156218261889,-0.4703875,0.6837875,-0.10505
1679992167865,1172156220763658,-0.4613125,0.74181247,-0.0760375
1679992167868,1172156223265273,-0.4313375,0.7497875,-0.044
1679992167870,1172156225767042,-0.3894,0.72985,-0.01705
1679992167873,1172156228268581,-0.3454,0.699875,0.0059125
1679992167876,1172156230770422,-0.2913625,0.65381247,0.022
1679992167879,1172156233272037,-0.2473625,0.5938625,0.02695
1679992167881,1172156235773807,-0.20927499,0.5148,0.0259875
1679992167883,1172156238275417,-0.1783375,0.43285,0.018975
1679992167885,1172156240777186,-0.1563375,0.34485,0.001925
1679992167888,1172156243278802,-0.1463,0.2638625,-0.0231
1679992167890,1172156245780340,-0.1423125,0.1948375,-0.0561
1679992167893,1172156248282109,-0.143275,0.14685,-0.091025
1679992167895,1172156250783956,-0.1533125,0.117837496,-0.1260875
1679992167897,1172156253285571,-0.16733749,0.0977625,-0.1640375
1679992167900,1172156255787109,-0.1863125,0.082775,-0.198
1679992167903,1172156258288879,-0.2052875,0.06985,-0.22605
1679992167905,1172156260790499,-0.226325,0.0518375,-0.2600125
1679992167908,1172156263292345,-0.242275,0.02585,-0.2930125
1679992167910,1172156265794114,-0.2574,-0.00825,-0.3210625
1679992167912,1172156268295730,-0.2693625,-0.052249998,-0.34705
1679992167917,1172156270797494,-0.2743125,-0.100237496,-0.3760625
1679992167919,1172156273299110,-0.27335,-0.147125,-0.4090625
1679992167921,1172156275800648,-0.270325,-0.191125,-0.447975
1679992167924,1172156278302417,-0.275275,-0.225225,-0.4800125
1679992167925,1172156280804263,-0.28435,-0.1651375,-0.484
1679992167927,1172156283305897,-0.2883375,-0.0111375,-0.45705
1679992167930,1172156285807666,-0.298375,0.106837496,-0.4310625
1679992167933,1172156288309281,-0.309375,0.187825,-0.3999875
1679992167935,1172156290811051,-0.304425,0.258775,-0.372075
1679992167938,1172156293312671,-0.2963125,0.3018125,-0.35901248
1679992167940,1172156295814209,-0.292325,0.2987875,-0.3570875
1679992167943,1172156298316056,-0.2893,0.2638625,-0.3680875
1679992167945,1172156300817825,-0.2803625,0.220825,-0.3779875
1679992167948,1172156303319440,-0.2644125,0.1728375,-0.3870625
1679992167950,1172156305821215,-0.248325,0.1368125,-0.394075
1679992167954,1172156308322830,-0.2303125,0.0977625,-0.3900875
1679992167957,1172156310824599,-0.216425,0.0638,-0.3840375
1679992167959,1172156313326143,-0.1953875,0.0378125,-0.377025
1679992167960,1172156315827758,-0.1764125,0.0198,-0.3730375
1679992167963,1172156318329604,-0.1593625,0.0127875,-0.370975
1679992167965,1172156320831373,-0.139425,0.0198,-0.372075
1679992167968,1172156323332989,-0.117425,0.0347875,-0.372075
1679992167971,1172156325834767,-0.0994125,0.0518375,-0.374
1679992167973,1172156328336382,-0.0853875,0.07975,-0.3730375
1679992167975,1172156330838152,-0.069299996,0.104775,-0.374
1679992167977,1172156333339690,-0.0664125,0.115775,-0.3779875
1679992167980,1172156335841531,-0.072325,0.12485,-0.3810125
1679992167984,1172156338343147,-0.0823625,0.1188,-0.3870625
1679992167985,1172156340844916,-0.089375,0.1148125,-0.3980625
1679992167988,1172156343346531,-0.0924,0.1148125,-0.4200625
1679992167992,1172156345848296,-0.0933625,0.106837496,-0.443025
1679992167994,1172156348349911,-0.100375,0.09075,-0.4720375
1679992167996,1172156350851680,-0.106425,0.0708125,-0.498025
1679992167998,1172156353353296,-0.117425,0.03575,-0.520025
1679992168001,1172156355855065,-0.13035,-0.00825,-0.5401
1679992168003,1172156358356685,-0.14135,-0.070125,-0.5550875
1679992168005,1172156360858454,-0.1533125,-0.13915,-0.559075
1679992168007,1172156363360070,-0.1654125,-0.225225,-0.546975
1679992168011,1172156365861839,-0.1863125,-0.324225,-0.513975
1679992168013,1172156368363454,-0.2003375,-0.400125,-0.47905
1679992168015,1172156370865224,-0.2173875,-0.3972375,-0.432025
1679992168018,1172156373366839,-0.2303125,-0.2732125,-0.3779875
1679992168020,1172156375868608,-0.238425,-0.065175,-0.3210625
1679992168023,1172156378370224,-0.2413125,0.148775,-0.256025
1679992168025,1172156380871974,-0.243375,0.352825,-0.187
1679992168029,1172156383373820,-0.2644125,0.5058625,-0.1310375
1679992168031,1172156385875359,-0.3003,0.6048625,-0.08305
1679992168034,1172156388376979,-0.3333,0.687775,-0.0380875
1679992168036,1172156390878748,-0.35035,0.742775,-0.0050875
1679992168038,1172156393380364,-0.3513125,0.7588625,0.023924999
1679992168040,1172156395882133,-0.336325,0.737825,0.0499125
1679992168043,1172156398383748,-0.304425,0.7027625,0.064899996
1679992168045,1172156400885517,-0.2684,0.6507875,0.073975
1679992168048,1172156403387364,-0.2363625,0.59482497,0.08195
1679992168051,1172156405888902,-0.2024,0.5267625,0.0809875
1679992168053,1172156408390517,-0.160325,0.45485,0.08195
1679992168056,1172156410892267,-0.1183875,0.3898125,0.080025
1679992168058,1172156413393882,-0.0774125,0.3278,0.0719125
1679992168060,1172156415895651,-0.0374,0.2718375,0.0719125
1679992168063,1172156418397267,0.0026125,0.2327875,0.0719125
1679992168067,1172156420899123,0.037675,0.21175,0.0779625
1679992168068,1172156423400661,0.073699996,0.2077625,0.0889625
1679992168070,1172156425902431,0.113575,0.2088625,0.102025
1679992168073,1172156428404046,0.15565,0.1967625,0.113025
1679992168076,1172156430905815,0.19167499,0.187825,0.124025
1679992168077,1172156433407431,0.2256375,0.17875,0.128975
1679992168080,1172156435909200,0.256575,0.165825,0.1390125
1679992168084,1172156438411046,0.2916375,0.1447875,0.1379125
1679992168085,1172156440912661,0.3256,0.1227875,0.1359875
1679992168088,1172156443414195,0.3546125,0.094875,0.1249875
1679992168090,1172156445915964,0.38665,0.058849998,0.1170125
1679992168093,1172156448417579,0.4126375,0.022824999,0.1060125
1679992168096,1172156450919349,0.44165,-0.015125,0.0939125
1679992168098,1172156453420945,0.4725875,-0.049225,0.088
1679992168102,1172156455922714,0.4906,-0.0771375,0.086899996
1679992168105,1172156458424330,0.5066875,-0.093225,0.0859375
1679992168106,1172156460926099,0.5126,-0.098175,0.09295
1679992168109,1172156463427714,0.5126,-0.1012,0.1079375
1679992168110,1172156465929484,0.5137,-0.0902,0.1299375
1679992168113,1172156468431330,0.5116375,-0.07315,0.155925
1679992168117,1172156470932945,0.5066875,-0.0672375,0.18095
1679992168118,1172156473434479,0.499675,-0.0752125,0.2099625
1679992168121,1172156475936248,0.5016,-0.100237496,0.2490125
1679992168123,1172156478437863,0.509575,-0.15015,0.2869625
1679992168125,1172156480939632,0.520575,-0.20515,0.3260125
1679992168128,1172156483441248,0.5396875,-0.2561625,0.3749625
1679992168131,1172156485942998,0.5556375,-0.2952125,0.4250125
1679992168133,1172156488444844,0.5715875,-0.318175,0.484
1679992168136,1172156490946383,0.586575,-0.33715,0.546975
1679992168138,1172156493447998,0.58465,-0.36025,0.6029375
1679992168142,1172156495949733,0.5715875,-0.3851375,0.65395
1679992168145,1172156498451349,0.5476625,-0.40425,0.7029
1679992168147,1172156500953118,0.5247,-0.417175,0.7489625
1679992168148,1172156503454733,0.5066875,-0.43725,0.793925
1679992168152,1172156505956580,0.5016,-0.45815,0.843975
1679992168153,1172156508458345,0.5036625,-0.488125,0.8980125
1679992168157,1172156510959960,0.5116375,-0.52525,0.9579625
1679992168158,1172156513461729,0.5286875,-0.565125,1.019975
1679992168162,1172156515963268,0.5495875,-0.610225,1.0819875
1679992168163,1172156518465124,0.5746125,-0.659175,1.147025
1679992168166,1172156520966662,0.609675,-0.708125,1.2159125
1679992168168,1172156523468278,0.653675,-0.7572125,1.2849375
1679992168171,1172156525970124,0.7007,-0.808225,1.356025
1679992168173,1172156528471893,0.752675,-0.8592375,1.43
1679992168176,1172156530973538,0.8096,-0.9042,1.5019125
1679992168179,1172156533475307,0.8716125,-0.9442125,1.5709375
1679992168182,1172156535976922,0.9306,-0.972125,1.618925
1679992168184,1172156538478456,0.9856,-0.9601625,1.635975
1679992168188,1172156540980225,1.0236875,-0.9692375,1.662925
1679992168193,1172156543482071,1.0676875,-1.0041625,1.690975
1679992168193,1172156545983687,1.1226875,-1.0261625,1.708025
1679992168194,1172156548485456,1.17865,-1.04115,1.72095
1679992168196,1172156550987095,1.2406625,-1.0481625,1.7369
1679992168198,1172156553488864,1.29965,-1.0401875,1.7560124
1679992168200,1172156555990480,1.3635875,-1.028225,1.76495
1679992168203,1172156558492249,1.43165,-1.00815,1.7780125
1679992168205,1172156560993864,1.4986125,-0.983125,1.7939625
1679992168208,1172156563495639,1.5646125,-0.9482,1.8019375
1679992168210,1172156565997254,1.6286875,-0.9051625,1.8149999
1679992168213,1172156568499023,1.68465,-0.84315,1.83095
1679992168217,1172156571000639,1.7386875,-0.7651875,1.8519875
1679992168219,1172156573502393,1.7826875,-0.675125,1.8770125
1679992168220,1172156576004008,1.8145875,-0.5702125,1.9060249
1679992168223,1172156578505778,1.8356249,-0.466125,1.939025
1679992168225,1172156581007393,1.8566625,-0.35915,1.972025
1679992168228,1172156583509162,1.8676625,-0.252175,2.014925
1679992168230,1172156586010797,1.88265,-0.15015,2.060025
1679992168233,1172156588512566,1.8976375,-0.0642125,2.1019626
1679992168236,1172156591014181,1.912625,0.0158125,2.1379874
1679992168238,1172156593515950,1.9217,0.0867625,2.1700249
1679992168241,1172156596017538,1.929675,0.1478125,2.1879
1679992168244,1172156598519307,1.93765,0.1997875,2.2
1679992168246,1172156601020922,1.94865,0.220825,2.2070124
1679992168248,1172156603522692,1.9535999,0.2138125,2.1949124
1679992168250,1172156606024307,1.9575875,0.1868625,2.1709876
1679992168254,1172156608526076,1.9556625,0.1417625,2.1370249
1679992168256,1172156611027692,1.9476875,0.094875,2.0909624
1679992168258,1172156613529461,1.929675,0.0628375,2.0420125
1679992168260,1172156616031076,1.9025875,0.0308,1.983025
1679992168263,1172156618532855,1.8676625,-0.0031625,1.915925
1679992168265,1172156621034470,1.8236625,-0.0452375,1.8519875
1679992168268,1172156623536239,1.7705874,-0.0881375,1.774025
1679992168270,1172156626037855,1.708575,-0.1431375,1.694
1679992168273,1172156628539720,1.6385875,-0.197175,1.6119125
1679992168276,1172156631041258,1.5596625,-0.2561625,1.5279
1679992168278,1172156633543027,1.4817,-0.307175,1.4480125
1679992168281,1172156636044624,1.3976874,-0.35915,1.3679875
1679992168284,1172156638546393,1.3226125,-0.3982,1.294975
1679992168285,1172156641048008,1.2425874,-0.43725,1.232
1679992168288,1172156643549778,1.169575,-0.477125,1.173975
1679992168292,1172156646051624,1.10165,-0.5152125,1.1279125
1679992168295,1172156648553239,1.0335875,-0.5531625,1.0960125
1679992168296,1172156651055008,0.9736375,-0.588225,1.0659
1679992168298,1172156653556547,0.9125875,-0.6142125,1.045
1679992168302,1172156656058162,0.8586875,-0.6402,1.034
1679992168304,1172156658559913,0.80465,-0.65615,1.0319375
1679992168305,1172156661061759,0.7596875,-0.6551875,1.03895
1679992168308,1172156663563374,0.7216,-0.64625,1.048025
1679992168310,1172156666065143,0.69465,-0.637175,1.057925
1679992168313,1172156668566701,0.6656375,-0.620125,1.07195
1679992168317,1172156671068316,0.641575,-0.60225,1.08295
1679992168318,1172156673570085,0.6246625,-0.576125,1.0960125
1679992168320,1172156676071932,0.60665,-0.5391375,1.1070125
1679992168323,1172156678573537,0.592625,-0.4962375,1.1149875
1679992168325,1172156681075306,0.581625,-0.4461875,1.1169125
1679992168329,1172156683576922,0.5726875,-0.4082375,1.114025
1679992168332,1172156686078691,0.565675,-0.38225,1.111
1679992168334,1172156688580225,0.56168747,-0.37125,1.103025
1679992168336,1172156691081841,0.554675,-0.36025,1.0839125
1679992168338,1172156693583610,0.543675,-0.35021248,1.067
1679992168341,1172156696085456,0.526625,-0.33825,1.0429375
1679992168343,1172156698587072,0.5086125,-0.313225,1.0190125
1679992168345,1172156701088821,0.4866125,-0.2921875,0.997975
1679992168348,1172156703590436,0.465575,-0.269225,0.9769375
1679992168351,1172156706091975,0.4477,-0.252175,0.957
1679992168353,1172156708593744,0.4367,-0.2451625,0.9339
1679992168356,1172156711095364,0.4236375,-0.23815,0.9119
1679992168359,1172156713597210,0.4147,-0.23815,0.88989997
1679992168361,1172156716098980,0.4126375,-0.24213749,0.858
1679992168363,1172156718600595,0.416625,-0.2561625,0.8259625
1679992168367,1172156721102369,0.4147,-0.274175,0.793925
1679992168369,1172156723603985,0.4076875,-0.2921875,0.7629875
1679992168371,1172156726105523,0.399575,-0.3102,0.7239375
1679992168373,1172156728607292,0.3986125,-0.3202375,0.6829625
1679992168376,1172156731108908,0.3966875,-0.3221625,0.641025
1679992168378,1172156733610744,0.394625,-0.31515,0.594
1679992168381,1172156736112513,0.399575,-0.3111625,0.5460125
1679992168383,1172156738614129,0.4147,-0.3092375,0.495
1679992168385,1172156741115898,0.4266625,-0.31515,0.4459125
1679992168388,1172156743617455,0.443575,-0.3141875,0.3949
1679992168391,1172156746119071,0.4626875,-0.307175,0.3359125
1679992168393,1172156748620840,0.4906,-0.3001625,0.276925
1679992168396,1172156751122686,0.51865,-0.296175,0.2189
1679992168399,1172156753624277,0.5526125,-0.2882,0.154
1679992168400,1172156756126047,0.5856125,-0.28325,0.086899996
1679992168405,1172156758627662,0.6226,-0.2872375,0.023924999
1679992168406,1172156761129431,0.6595875,-0.29425,-0.042075
1679992168408,1172156763631057,0.7007,-0.307175,-0.113025
1679992168410,1172156766132826,0.7436,-0.3141875,-0.1750375
1679992168414,1172156768634441,0.7876,-0.3221625,-0.23705
1679992168416,1172156771136211,0.8316,-0.324225,-0.295075
1679992168418,1172156773637821,0.8767,-0.313225,-0.3531
1679992168421,1172156776139590,0.917675,-0.29315,-0.4060375
1679992168423,1172156778641129,0.960575,-0.27225,-0.4530625
1679992168425,1172156781143052,1.005675,-0.25025,-0.4940375
1679992168428,1172156783644807,1.043625,-0.2292125,-0.53405
1679992168430,1172156786146422,1.0786875,-0.208175,-0.5649875
1679992168433,1172156788647961,1.1077,-0.1892,-0.5880875
1679992168436,1172156791149730,1.126675,-0.1651375,-0.60101247
1679992168438,1172156793651345,1.1336875,-0.13915,-0.6089875
1679992168442,1172156796153086,1.1276375,-0.10615,-0.6100875
1679992168445,1172156798654932,1.1187,-0.0642125,-0.605
1679992168447,1172156801156547,1.1046749,-0.027224999,-0.5990875
1679992168448,1172156803658330,1.0896875,8.25E-4,-0.5900125
1679992168450,1172156806159869,1.0736,0.0127875,-0.5790125
1679992168453,1172156808661484,1.060675,0.005775,-0.564025
1679992168455,1172156811163254,1.048575,-0.0022,-0.5410625
1679992168458,1172156813664869,1.0366125,-0.0012375,-0.5209875
1679992168461,1172156816166624,1.026575,0.0048125,-0.502975
1679992168463,1172156818668470,1.0206625,0.022824999,-0.476025
1679992168465,1172156821170086,1.0206625,0.049775,-0.451
1679992168468,1172156823671855,1.0236875,0.08085,-0.427075
1679992168471,1172156826173426,1.0296,0.115775,-0.40205
1679992168473,1172156828675042,1.0456874,0.1428625,-0.3779875
1679992168476,1172156831176811,1.0676875,0.1428625,-0.352
1679992168479,1172156833678426,1.0967,0.1148125,-0.328075
1679992168482,1172156836180273,1.1297,0.0647625,-0.308
1679992168484,1172156838682042,1.1616,-0.004125,-0.2880625
1679992168486,1172156841183657,1.1957,-0.0782375,-0.27101249
1679992168488,1172156843685426,1.2216874,-0.147125,-0.2600125
1679992168491,1172156846187042,1.236675,-0.20515,-0.249975
1679992168493,1172156848688595,1.2397,-0.263175,-0.2410375
1679992168496,1172156851190365,1.236675,-0.3111625,-0.234025
1679992168498,1172156853692288,1.219625,-0.3612125,-0.231
1679992168501,1172156856193826,1.1957,-0.4101625,-0.227975
1679992168503,1172156858695589,1.170675,-0.456225,-0.234025
1679992168505,1172156861197205,1.1356125,-0.505175,-0.2410375
1679992168508,1172156863698974,1.1006875,-0.5531625,-0.249975
1679992168511,1172156866200589,1.0616375,-0.6001875,-0.262075
1679992168513,1172156868702364,1.0206625,-0.6411625,-0.275
1679992168518,1172156871203979,0.9736375,-0.6722375,-0.289025
1679992168520,1172156873705748,0.92565,-0.70015,-0.3040125
1679992168524,1172156876206540,0.8806875,-0.720225,-0.3240875
1679992168524,1172156878707349,0.83765,-0.7162375,-0.339075
1679992168526,1172156881210733,0.7915875,-0.697125,-0.350075
1679992168528,1172156883712503,0.7456625,-0.6582125,-0.3559875
1679992168531,1172156886214118,0.6956125,-0.6081625,-0.3531
1679992168535,1172156888715887,0.642675,-0.55825,-0.341
1679992168536,1172156891217495,0.586575,-0.5072375,-0.32505
1679992168538,1172156893719264,0.52965,-0.456225,-0.2990625
1679992168541,1172156896220879,0.4756125,-0.40315,-0.27101249
1679992168543,1172156898722648,0.41965,-0.3542,-0.2410375
1679992168545,1172156901224268,0.36465,-0.3102,-0.2101
1679992168548,1172156903726037,0.30965,-0.27115,-0.1810875
1679992168551,1172156906227652,0.257675,-0.241175,-0.1500125
1679992168555,1172156908729422,0.2057,-0.2151875,-0.119075
1679992168557,1172156911231028,0.1546875,-0.19525,-0.0891
1679992168559,1172156913732797,0.1056,-0.1672,-0.0589875
1679992168562,1172156916234413,0.059675,-0.1452,-0.0320375
1679992168564,1172156918736182,0.015675,-0.1241625,-0.013062499
1679992168565,1172156921237797,-0.023375,-0.0991375,9.625E-4
1679992168568,1172156923739652,-0.0573375,-0.07315,0.014025
1679992168571,1172156926241422,-0.0884125,-0.0391875,0.0199375
1679992168573,1172156928742960,-0.1153625,-0.00825,0.0209
1679992168576,1172156931244576,-0.1324125,0.01375,0.0209
1679992168578,1172156933746349,-0.1423125,0.0308,0.01595
1679992168581,1172156936247964,-0.14533749,0.0317625,0.0099
1679992168584,1172156938749810,-0.138325,0.0198,0.003025
1679992168585,1172156941251580,-0.1233375,0.006875,-0.0020625
1679992168588,1172156943753191,-0.1023,-0.0022,-0.007975
1679992168592,1172156946254960,-0.073425,-0.0092124995,-0.007975
1679992168595,1172156948756576,-0.0433125,-0.0122375,-0.0050875
1679992168597,1172156951258114,-0.00935,-0.015125,-0.0020625
1679992168599,1172156953759869,0.025575,-0.0012375,0.007975
1679992168601,1172156956261485,0.0636625,0.0158125,0.0209
1679992168604,1172156958763331,0.0946,0.033825,0.0309375
1679992168606,1172156961265100,0.130625,0.055825,0.0389125
1679992168608,1172156963766715,0.1626625,0.0787875,0.0429
1679992168611,1172156966268254,0.1947,0.0988625,0.0429
1679992168613,1172156968770023,0.2256375,0.11275,0.040975
1679992168616,1172156971271869,0.2506625,0.121825,0.029975
1679992168619,1172156973773485,0.2745875,0.12485,0.0169125
1679992168622,1172156976275249,0.2965875,0.12485,-0.0039875
1679992168623,1172156978776864,0.3196875,0.1188,-0.0259875
1679992168626,1172156981278634,0.33261248,0.106837496,-0.051975
1679992168629,1172156983780172,0.344575,0.09185,-0.077
1679992168633,1172156986281810,0.356675,0.077825,-0.1040875
1679992168635,1172156988783657,0.366575,0.0647625,-0.128975
1679992168637,1172156991285503,0.3696,0.049775,-0.157025
1679992168639,1172156993787041,0.36465,0.0457875,-0.183975
1679992168641,1172156996288810,0.3586,0.0418,-0.2080375
1679992168644,1172156998790417,0.3466375,0.04675,-0.227975
1679992168647,1172157001292186,0.3276625,0.0598125,-0.2490125
1679992168648,1172157003793801,0.3086875,0.077825,-0.275
1679992168651,1172157006295648,0.28861248,0.099825,-0.29205
1679992168653,1172157008797412,0.2616625,0.1188,-0.3091
1679992168656,1172157011299027,0.23265,0.1428625,-0.3229875
1679992168658,1172157013800566,0.2057,0.1588125,-0.3350875
1679992168662,1172157016302335,0.1755875,0.1698125,-0.3430625
1679992168663,1172157018803969,0.1486375,0.171875,-0.3510375
1679992168667,1172157021305739,0.115637496,0.170775,-0.35901248
1679992168669,1172157023807354,0.0826375,0.170775,-0.359975
1679992168671,1172157026309200,0.0526625,0.1637625,-0.363
1679992168673,1172157028810979,0.0166375,0.1588125,-0.363
1679992168676,1172157031312518,-0.0163625,0.160875,-0.35901248
1679992168679,1172157033814133,-0.0484,0.1747625,-0.3540625
1679992168681,1172157036315902,-0.08635,0.19085,-0.3449875
1679992168683,1172157038817518,-0.117425,0.2088625,-0.3320625
1679992168685,1172157041319273,-0.1434125,0.2248125,-0.315975
1679992168688,1172157043821119,-0.16335,0.2407625,-0.300025
1679992168691,1172157046322735,-0.1793,0.2618,-0.2820125
1679992168693,1172157048824504,-0.1863125,0.28187498,-0.260975
1679992168696,1172157051326042,-0.1863125,0.2908125,-0.245025
1679992168698,1172157053827889,-0.1793,0.3058,-0.22605
1679992168701,1172157056329427,-0.1654125,0.31185,-0.2160125
1679992168704,1172157058831278,-0.149325,0.3188625,-0.205975
1679992168706,1172157061332894,-0.127325,0.324775,-0.2000625
1679992168708,1172157063834663,-0.1023,0.32381248,-0.2000625
1679992168710,1172157066336278,-0.073425,0.32285,-0.207075
1679992168713,1172157068838047,-0.039325,0.319825,-0.21807499
1679992168718,1172157071339576,-0.0033,0.3128125,-0.229075
1679992168719,1172157073841422,0.0356125,0.3067625,-0.238975
1679992168721,1172157076343037,0.075625,0.2968625,-0.253
1679992168723,1172157078844807,0.113575,0.286825,-0.2660625
1679992168726,1172157081346422,0.1535875,0.2828375,-0.2770625
1679992168728,1172157083848186,0.190575,0.27885,-0.286
1679992168731,1172157086349802,0.224675,0.2718375,-0.295075
1679992168734,1172157088851571,0.25959998,0.270875,-0.3020875
1679992168735,1172157091353186,0.2937,0.270875,-0.311025
1679992168738,1172157093854966,0.3146,0.2638625,-0.3229875
1679992168742,1172157096356581,0.3416875,0.2508,-0.328075
1679992168745,1172157098858350,0.3707,0.23375,-0.3350875
1679992168746,1172157101359966,0.3916,0.220825,-0.337975
1679992168748,1172157103861735,0.4096125,0.2077625,-0.337975
1679992168751,1172157106363350,0.4257,0.20185,-0.333025
1679992168753,1172157108864889,0.432575,0.2068,-0.3260125
1679992168756,1172157111366735,0.4367,0.21285,-0.3130875
1679992168758,1172157113868504,0.4285875,0.220825,-0.293975
1679992168761,1172157116370128,0.416625,0.231825,-0.2740375
1679992168763,1172157118871898,0.3986125,0.231825,-0.2550625
1679992168766,1172157121373513,0.3746875,0.231825,-0.2380125
1679992168769,1172157123875282,0.355575,0.22275,-0.2190375
1679992168771,1172157126376903,0.328625,0.21285,-0.2050125
1679992168773,1172157128878749,0.3036,0.2028125,-0.1940125
1679992168775,1172157131380518,0.2806375,0.1997875,-0.183975
1679992168780,1172157133882133,0.2497,0.18975,-0.17407499
1679992168783,1172157136383903,0.22165,0.1848,-0.17105
1679992168784,1172157138885441,0.196625,0.19085,-0.16499999
1679992168786,1172157141387057,0.1736625,0.1918125,-0.1579875
1679992168788,1172157143888826,0.1535875,0.1978625,-0.150975
1679992168791,1172157146390672,0.1296625,0.215875,-0.1450625
1679992168793,1172157148892287,0.113575,0.237875,-0.1420375
1679992168796,1172157151394057,0.0946,0.258775,-0.13805
1679992168798,1172157153895672,0.0796125,0.27981248,-0.143
