system_ts_ms, sensor_ts_ns, accX, accY, accZ
1679932923519,1112911872597650,10.231951,0.51600003,2.946
1679932923521,1112911875099808,10.288951,0.54705,2.9190001
1679932923522,1112911877601961,10.29405,0.48495004,2.96895
1679932923524,1112911880104346,10.3279505,0.49395,2.8950002
1679932923527,1112911882606500,10.344001,0.45795003,2.9860501
1679932923529,1112911885108654,10.189051,0.432,2.9530501
1679932923539,1112911887610808,10.29405,0.37305,3.0340502
1679932923539,1112911890112962,10.28205,0.49695003,3.04905
1679932923539,1112911892615115,10.227,0.384,3.0250502
1679932923539,1112911895117577,10.1310005,0.44895002,3.111
1679932923541,1112911897619731,10.14105,0.31800002,3.0649502
1679932923544,1112911900121654,10.13595,0.33495003,3.084
1679932923547,1112911902624038,10.1310005,0.44595003,3.216
1679932923550,1112911905126192,10.16205,0.39600003,3.108
1679932923553,1112911907628346,10.10505,0.37095,3.111
1679932923554,1112911910130500,10.066051,0.40605003,3.0370502
1679932923557,1112911912632731,10.102051,0.39795002,3.015
1679932923559,1112911915134885,10.074,0.45405003,3.039
1679932923561,1112911917637039,10.03995,0.43005002,3.1009502
1679932923564,1112911920139212,9.967951,0.44895002,3.01305
1679932923567,1112911922641366,10.033051,0.38205,2.90505
1679932923570,1112911925143520,10.00695,0.36795002,3.04395
1679932923572,1112911927645905,10.102051,0.45405003,3.075
1679932923575,1112911930148059,9.98295,0.43005002,2.96895
1679932923579,1112911932650289,10.071,0.49695003,2.9890501
1679932923580,1112911935152443,10.090051,0.45600003,2.9479501
1679932923585,1112911937654520,10.119,0.45600003,3.0370502
1679932923585,1112911940156751,10.09305,0.54,3.015
1679932923588,1112911942659148,10.114051,0.504,3.0340502
1679932923591,1112911945161302,10.1959505,0.41295,3.015
1679932923592,1112911947663456,10.111951,0.49695003,3.0199502
1679932923594,1112911950165610,10.083,0.42000002,3.0030003
1679932923598,1112911952667750,10.047001,0.53505003,2.93595
1679932923602,1112911955169904,10.087951,0.51600003,2.97405
1679932923602,1112911957672058,9.999001,0.43005002,2.9959502
1679932923604,1112911960174288,10.155001,0.49905002,3.0250502
1679932923608,1112911962676451,10.09305,0.48000002,3.0270002
1679932923610,1112911965178836,10.099951,0.43005002,2.9980502
1679932923612,1112911967680759,10.05195,0.45405003,3.11595
1679932923614,1112911970183144,10.05195,0.48495004,3.1300502
1679932923619,1112911972685273,10.023001,0.48495004,3.0600002
1679932923619,1112911975187427,10.030951,0.528,2.9959502
1679932923622,1112911977689658,9.966001,0.513,2.946
1679932923624,1112911980191812,10.038,0.48900002,3.1039503
1679932923629,1112911982693947,10.057051,0.42000002,2.91405
1679932923631,1112911985196101,10.05195,0.47295,2.95005
1679932923635,1112911987698254,9.97305,0.54,2.943
1679932923635,1112911990200408,10.01895,0.50100005,2.9310002
1679932923638,1112911992702793,10.026,0.44400004,2.9929502
1679932923639,1112911995204932,10.014001,0.528,3.04605
1679932923642,1112911997707086,9.870001,0.43905002,3.0919502
1679932923644,1112912000209239,10.026,0.44895002,3.0030003
1679932923648,1112912002711470,10.033051,0.42195,2.9890501
1679932923652,1112912005213547,10.069051,0.34005,2.9980502
1679932923653,1112912007716009,10.03995,0.40305,3.0250502
1679932923655,1112912010218163,10.047001,0.37695003,2.9890501
1679932923658,1112912012720316,10.10505,0.42195,2.91195
1679932923660,1112912015222461,10.11705,0.44205,2.9479501
1679932923662,1112912017724615,10.15995,0.45795003,2.9569502
1679932923671,1112912020226769,10.10505,0.48195,2.9890501
1679932923672,1112912022728923,10.13595,0.35895002,2.9340003
1679932923672,1112912025231144,10.210051,0.40995002,3.0250502
1679932923673,1112912027733297,10.231951,0.42000002,2.9839501
1679932923675,1112912030235451,10.231951,0.342,2.97195
1679932923678,1112912032737605,10.231951,0.43005002,2.83095
1679932923680,1112912035239759,10.264951,0.37905002,2.89995
1679932923682,1112912037741942,10.18095,0.51600003,2.8260002
1679932923686,1112912040244403,10.1310005,0.41505003,2.9220002
1679932923688,1112912042746480,10.27005,0.34905002,2.8950002
1679932923689,1112912045248711,10.225051,0.45105,2.8660502
1679932923693,1112912047750865,10.255951,0.45795003,2.8519502
1679932923694,1112912050253019,10.14795,0.492,2.90505
1679932923698,1112912052755173,10.19295,0.45405003,2.8879502
1679932923699,1112912055257557,10.110001,0.597,2.88105
1679932923704,1112912057759672,10.155001,0.41295,2.9530501
1679932923705,1112912060261826,10.099951,0.47505003,2.9860501
1679932923708,1112912062763980,10.099951,0.50895,2.9650502
1679932923709,1112912065266211,10.191001,0.492,3.0030003
1679932923712,1112912067768364,10.047001,0.46095002,2.874
1679932923714,1112912070270518,10.014001,0.55695003,3.04095
1679932923720,1112912072772672,10.05195,0.492,2.91195
1679932923720,1112912075275057,10.11705,0.52095,2.9839501
1679932923722,1112912077776980,10.05,0.43905002,2.9890501
1679932923725,1112912080279163,9.943951,0.537,2.8660502
1679932923728,1112912082781624,9.979951,0.48195,2.97195
1679932923730,1112912085283701,9.98505,0.492,3.0270002
1679932923732,1112912087785932,9.975,0.52500004,3.0529501
1679932923736,1112912090288086,9.92805,0.49695003,2.9340003
1679932923738,1112912092790245,9.990001,0.41805002,3.0030003
1679932923741,1112912095292399,9.99495,0.44595003,3.0199502
1679932923742,1112912097794783,10.01595,0.432,2.96895
1679932923744,1112912100296937,9.93,0.44595003,2.9959502
1679932923748,1112912102799110,9.990001,0.34005,3.0289502
1679932923754,1112912105301264,10.014001,0.34905002,3.1680002
1679932923756,1112912107803418,9.97305,0.37500003,3.14895
1679932923757,1112912110305571,10.05405,0.432,3.0529501
1679932923758,1112912112807793,10.05405,0.34005,3.0870001
1679932923760,1112912115309947,10.086,0.49395,3.1249502
1679932923762,1112912117812101,10.095,0.34695002,3.0630002
1679932923764,1112912120314486,10.15995,0.41805002,3.0700502
1679932923769,1112912122816643,10.12905,0.37695003,3.1920002
1679932923770,1112912125318797,10.134001,0.33705002,3.1009502
1679932923772,1112912127820951,10.143001,0.37500003,3.1060503
1679932923775,1112912130323182,10.15005,0.37500003,3.08205
1679932923780,1112912132825341,10.13805,0.34395,3.0270002
1679932923781,1112912135327495,10.1650505,0.36105,2.9959502
1679932923786,1112912137829648,10.047001,0.342,3.0340502
1679932923787,1112912140331802,10.12395,0.45600003,2.9890501
1679932923788,1112912142833956,10.057051,0.54,2.9569502
1679932923790,1112912145336129,9.98295,0.46605003,2.97405
1679932923792,1112912147838514,10.035001,0.432,2.943
1679932923795,1112912150340744,10.02105,0.50100005,2.979
1679932923798,1112912152842821,9.96105,0.47700003,2.9569502
1679932923803,1112912155344975,9.942,0.55395,3.0679502
1679932923804,1112912157847206,10.02795,0.52500004,2.95005
1679932923805,1112912160349360,9.955951,0.55200005,3.0199502
1679932923808,1112912162851744,10.02105,0.492,2.97705
1679932923809,1112912165353898,10.01595,0.46995002,2.93595
1679932923812,1112912167856052,10.02105,0.40305,3.0319502
1679932923819,1112912170358206,10.026,0.42195,2.93595
1679932923819,1112912172860360,10.02795,0.40995002,2.979
1679932923820,1112912175362514,9.990001,0.49905002,3.075
1679932923822,1112912177864749,9.987,0.34905002,3.051
1679932923825,1112912180366903,10.038,0.36105,3.04095
1679932923828,1112912182869057,9.99195,0.40995002,3.1039503
1679932923830,1112912185371211,9.901051,0.384,3.01005
1679932923835,1112912187873587,9.967951,0.42195,3.1249502
1679932923836,1112912190375740,9.906,0.36600003,2.96895
1679932923838,1112912192877894,9.98295,0.44205,3.147
1679932923840,1112912195380125,9.918,0.42195,3.0580502
1679932923842,1112912197882274,10.059,0.36600003,3.07695
1679932923845,1112912200384428,9.96105,0.31305,3.0370502
1679932923848,1112912202886582,9.978001,0.37905002,3.0630002
1679932923852,1112912205388735,10.047001,0.36105,3.11595
1679932923853,1112912207890879,10.095,0.34905002,3.13995
1679932923855,1112912210393264,10.114051,0.31800002,3.15405
1679932923858,1112912212895418,10.099951,0.32295,3.24495
1679932923860,1112912215397572,10.248,0.124050006,3.2209501
1679932923862,1112912217899726,10.18395,0.32805002,3.183
1679932923865,1112912220401894,10.102051,0.29205,3.2070003
1679932923870,1112912222904048,10.062,0.30405003,3.28095
1679932923871,1112912225406279,9.954,0.39600003,3.25395
1679932923873,1112912227908664,9.943951,0.36795002,3.111
1679932923875,1112912230410845,9.87495,0.41295,3.1590002
1679932923878,1112912232912999,9.762,0.44595003,3.18705
1679932923880,1112912235415153,9.717,0.41295,3.18495
1679932923885,1112912237917307,9.745951,0.50100005,3.1300502
1679932923886,1112912240419461,9.658951,0.46305,3.04395
1679932923888,1112912242921692,9.61095,0.51600003,3.2350502
1679932923891,1112912245423846,9.738001,0.52095,3.2040002
1679932923892,1112912247925999,9.745951,0.55200005,3.18
1679932923895,1112912250428153,9.931951,0.564,3.219
1679932923898,1112912252930293,9.904051,0.57105005,3.0529501
1679932923904,1112912255432447,9.93,0.57795,3.1369503
1679932923904,1112912257934832,9.846001,0.573,3.17805
1679932923905,1112912260436985,9.937051,0.58305,3.108
1679932923908,1112912262939235,9.931951,0.51795,3.072
1679932923910,1112912265441389,9.954,0.597,3.0990002
1679932923912,1112912267943466,9.898951,0.50100005,3.1320002
1679932923915,1112912270445697,9.97305,0.54705,3.1200001
1679932923918,1112912272947851,9.98295,0.50100005,3.252
1679932923920,1112912275450235,9.946951,0.44205,3.15405
1679932923922,1112912277952389,10.01595,0.44595003,3.3259501
1679932923924,1112912280454543,9.967951,0.44205,3.28605
1679932923929,1112912282956716,9.99705,0.432,3.3019502
1679932923931,1112912285458870,10.134001,0.40305,3.2950501
1679932923933,1112912287961023,10.081051,0.49395,3.2280002
1679932923935,1112912290463254,10.035001,0.41295,3.252
1679932923938,1112912292965655,10.090051,0.48900002,3.111
1679932923941,1112912295467578,10.102051,0.46995002,3.0340502
1679932923942,1112912297969732,10.207951,0.46095002,2.9929502
1679932923945,1112912300472116,10.13595,0.46800002,3.0700502
1679932923948,1112912302974274,10.155001,0.46605003,3.01005
1679932923950,1112912305476197,10.102051,0.49905002,3.04095
1679932923952,1112912307978659,10.099951,0.528,2.93805
1679932923955,1112912310480813,10.167001,0.46605003,3.0199502
1679932923958,1112912312982948,10.111951,0.48195,2.98095
1679932923960,1112912315485101,10.122001,0.46305,3.0030003
1679932923963,1112912317987255,10.17405,0.46305,2.97405
1679932923966,1112912320489409,10.035001,0.564,2.943
1679932923968,1112912322991794,10.062,0.537,3.01305
1679932923970,1112912325493948,10.107,0.50895,2.97195
1679932923972,1112912327996101,10.02795,0.42195,2.9929502
1679932923975,1112912330498255,9.951,0.47700003,2.979
1679932923978,1112912333000486,9.904051,0.55695003,2.943
1679932923980,1112912335502573,9.894,0.43905002,2.97405
1679932923982,1112912338004804,9.84405,0.47700003,2.87805
1679932923985,1112912340507188,9.84405,0.49395,3.0010502
1679932923988,1112912343009342,9.814951,0.50100005,2.96895
1679932923990,1112912345511486,9.778951,0.48495004,3.04395
1679932923992,1112912348013640,9.74295,0.44595003,2.8639503
1679932923995,1112912350515794,9.748051,0.49395,3.0010502
1679932923998,1112912353017948,9.769051,0.38205,2.9190001
1679932924000,1112912355520178,9.670951,0.52500004,3.0250502
1679932924003,1112912358022322,9.774,0.43005002,3.0289502
1679932924005,1112912360524476,9.790951,0.36105,2.979
1679932924008,1112912363026630,9.784051,0.42195,3.051
1679932924010,1112912365529025,9.825001,0.36105,3.051
1679932924013,1112912368031179,9.834001,0.46800002,3.0960002
1679932924015,1112912370533332,9.901051,0.43395,3.04095
1679932924018,1112912373035486,9.94005,0.40095,3.0600002
1679932924020,1112912375537640,9.943951,0.37095,2.9839501
1679932924022,1112912378039799,9.94005,0.39105,3.1969502
1679932924025,1112912380542030,9.987,0.43905002,2.97405
1679932924028,1112912383044184,9.97095,0.37695003,3.0199502
1679932924030,1112912385546327,10.078051,0.41805002,2.9650502
1679932924032,1112912388048712,10.086,0.34905002,3.0270002
1679932924035,1112912390550866,10.086,0.46800002,2.9569502
1679932924038,1112912393053020,10.189051,0.39405003,2.9620502
1679932924041,1112912395555184,10.207951,0.37500003,3.108
1679932924042,1112912398057414,10.201051,0.37695003,2.9670002
1679932924045,1112912400559568,10.26795,0.34005,3.0220501
1679932924048,1112912403061722,10.299001,0.42495003,2.7949502
1679932924052,1112912405563876,10.251,0.52995,2.9670002
1679932924053,1112912408066034,10.299001,0.48900002,2.8570502
1679932924055,1112912410568188,10.335,0.42705002,2.88105
1679932924058,1112912413070572,10.288951,0.42195,2.8980002
1679932924060,1112912415572726,10.215,0.53505003,2.86905
1679932924062,1112912418074880,10.26,0.48495004,2.9550002
1679932924065,1112912420577034,10.311001,0.43395,3.0250502
1679932924069,1112912423079188,10.30095,0.46605003,2.8639503
1679932924070,1112912425581418,10.252951,0.42705002,2.7490501
1679932924074,1112912428083534,10.1980505,0.47505003,2.69895
1679932924075,1112912430585919,10.167001,0.40095,2.7250502
1679932924079,1112912433088073,10.215,0.43005002,2.706
1679932924082,1112912435590227,10.107,0.51000005,2.73
1679932924083,1112912438092380,10.12905,0.48195,2.7829502
1679932924085,1112912440594529,10.063951,0.46800002,2.89995
1679932924088,1112912443096683,10.078051,0.44595003,2.7799501
1679932924090,1112912445598914,10.13595,0.40995002,2.7589502
1679932924092,1112912448101068,10.167001,0.432,2.9190001
1679932924095,1112912450603198,10.13805,0.37695003,2.8519502
1679932924099,1112912453105351,10.01895,0.38205,2.8879502
1679932924100,1112912455607736,10.071,0.44205,2.88105
1679932924102,1112912458109890,10.05,0.41805002,2.9190001
1679932924105,1112912460612044,9.97305,0.42195,2.8140001
1679932924109,1112912463114285,10.03995,0.43005002,2.871
1679932924110,1112912465616438,10.026,0.37095,2.8620002
1679932924112,1112912468118592,9.97095,0.46305,3.0559502
1679932924117,1112912470620726,9.990001,0.54495,2.9650502
1679932924120,1112912473122880,10.02795,0.46095002,3.1630502
1679932924122,1112912475625034,9.99195,0.36795002,3.04395
1679932924125,1112912478127418,10.00695,0.48000002,3.13995
1679932924126,1112912480629572,10.10505,0.37905002,3.0600002
1679932924129,1112912483131726,10.074,0.43905002,2.9479501
1679932924130,1112912485633880,10.098001,0.52995,2.9239502
1679932924133,1112912488136034,10.143001,0.55200005,2.9290502
1679932924135,1112912490638188,10.075951,0.55395,2.9910002
1679932924138,1112912493140669,10.00395,0.55695003,2.8519502
1679932924140,1112912495642823,10.00695,0.48000002,2.9670002
1679932924145,1112912498144977,10.083,0.60405004,2.9860501
1679932924145,1112912500647131,10.063951,0.564,2.8980002
1679932924148,1112912503149294,10.069051,0.60405004,3.0600002
1679932924150,1112912505651448,10.057051,0.55905,2.97405
1679932924154,1112912508153601,10.00905,0.64305,2.946
1679932924155,1112912510655832,9.98295,0.58305,2.946
1679932924158,1112912513158001,10.011001,0.64305,2.838
1679932924160,1112912515660155,9.9199505,0.56805,2.9020503
1679932924162,1112912518162309,9.93,0.58005005,2.9670002
1679932924165,1112912520664463,9.922951,0.64995,2.88105
1679932924168,1112912523166847,9.955951,0.60405004,2.9860501
1679932924170,1112912525669001,9.987,0.67905,3.0700502
1679932924173,1112912528171155,9.99705,0.56100005,3.0559502
1679932924175,1112912530673386,9.916051,0.564,2.9890501
1679932924178,1112912533175540,9.97095,0.73395,3.0220501
1679932924180,1112912535677697,9.918,0.57795,2.9650502
1679932924182,1112912538179851,9.910951,0.64500004,2.9530501
1679932924186,1112912540682005,9.916051,0.61200005,2.89995
1679932924191,1112912543184362,9.918,0.61605,2.84295
1679932924192,1112912545686516,9.951,0.57600003,2.8279502
1679932924193,1112912548188669,9.967951,0.549,2.8590002
1679932924195,1112912550690823,9.849001,0.564,3.00495
1679932924198,1112912553192977,9.999001,0.55200005,2.9980502
1679932924200,1112912555695135,10.00905,0.52095,2.946
1679932924202,1112912558197366,9.955951,0.57105005,2.7949502
1679932924205,1112912560699750,9.99195,0.54495,2.9839501
1679932924208,1112912563201904,10.00395,0.54495,2.9650502
1679932924210,1112912565703842,9.979951,0.597,2.88105
1679932924212,1112912568206227,9.979951,0.52500004,2.8590002
1679932924215,1112912570708381,9.963,0.48495004,2.8590002
1679932924219,1112912573210612,10.062,0.51600003,2.8590002
1679932924221,1112912575712755,9.978001,0.50895,2.835
1679932924222,1112912578214909,10.071,0.46305,2.835
1679932924225,1112912580717063,10.15305,0.47505003,2.87805
1679932924229,1112912583219217,10.15305,0.48000002,2.8140001
1679932924231,1112912585721366,10.18605,0.50895,2.8590002
1679932924233,1112912588223520,10.29405,0.492,2.73495
1679932924236,1112912590725904,10.21695,0.59505004,2.8519502
1679932924239,1112912593228058,10.26,0.60705,2.7970502
1679932924241,1112912595730212,10.246051,0.56595004,2.9020503
1679932924242,1112912598232381,10.31805,0.588,2.9170501
1679932924245,1112912600734612,10.276951,0.45405003,2.93805
1679932924248,1112912603236689,10.252951,0.55200005,2.9599502
1679932924250,1112912605739150,10.248,0.61605,2.9599502
1679932924254,1112912608241289,10.335,0.58305,2.8860002
1679932924256,1112912610743443,10.29195,0.49905002,2.91195
1679932924258,1112912613245597,10.3279505,0.46605003,2.84505
1679932924260,1112912615747750,10.3279505,0.57600003,2.9260502
1679932924262,1112912618249904,10.31295,0.588,2.83095
1679932924266,1112912620752058,10.287001,0.55905,2.8230002
1679932924269,1112912623254289,10.311001,0.52305,2.77305
1679932924271,1112912625756443,10.31295,0.58995,2.77305
1679932924274,1112912628258597,10.320001,0.609,2.7949502
1679932924276,1112912630760751,10.26,0.58005005,2.76795
1679932924278,1112912633262879,10.26,0.62805,2.7970502
1679932924280,1112912635765264,10.264951,0.609,2.8500001
1679932924283,1112912638267495,10.26,0.56805,2.88105
1679932924285,1112912640769572,10.191001,0.61605,2.802
1679932924288,1112912643271812,10.207951,0.43005002,2.7919502
1679932924292,1112912645773966,10.179001,0.624,2.70795
1679932924293,1112912648276120,10.155001,0.52095,2.7559502
1679932924295,1112912650778274,10.111951,0.61395,2.8470001
1679932924298,1112912653280663,10.1310005,0.56100005,2.7870002
1679932924300,1112912655782816,10.057051,0.57105005,2.9220002
1679932924304,1112912658284970,10.098001,0.63105005,2.871
1679932924305,1112912660787124,10.102051,0.57105005,2.8930502
1679932924309,1112912663289288,10.081051,0.58500004,2.8140001
1679932924310,1112912665791519,10.144951,0.50895,2.7559502
1679932924313,1112912668293673,10.059,0.65505004,2.7589502
1679932924316,1112912670795827,9.92805,0.62595004,2.6250002
1679932924320,1112912673297980,9.85995,0.68595004,2.8519502
1679932924321,1112912675800134,9.963,0.56100005,2.9020503
1679932924323,1112912678302288,9.999001,0.61605,3.0600002
1679932924325,1112912680804750,9.99195,0.65205,3.0700502
1679932924329,1112912683306827,10.00905,0.65205,2.979
1679932924330,1112912685808985,10.074,0.54705,2.9239502
1679932924333,1112912688311216,9.96105,0.60705,2.83995
1679932924335,1112912690813370,10.01895,0.65505004,2.8230002
1679932924338,1112912693315524,9.967951,0.657,2.8159502
1679932924342,1112912695817909,9.99495,0.68595004,2.80695
1679932924343,1112912698320062,10.059,0.70695,2.8519502
1679932924345,1112912700822216,10.074,0.72705,2.7949502
1679932924348,1112912703324370,10.078051,0.58995,2.8950002
1679932924350,1112912705826524,10.252951,0.65205,2.87805
1679932924354,1112912708328668,10.239,0.67905,2.80695
1679932924356,1112912710830822,10.2630005,0.72195005,2.7439501
1679932924358,1112912713333052,10.252951,0.624,2.6580002
1679932924361,1112912715835206,10.1980505,0.648,2.63895
1679932924363,1112912718337591,10.17195,0.624,2.7829502
1679932924366,1112912720839755,10.236,0.58005005,2.8140001
1679932924369,1112912723341909,10.19295,0.71205,2.7949502
1679932924372,1112912725844062,10.240951,0.71505004,2.8500001
1679932924375,1112912728346293,10.189051,0.66195005,2.8189502
1679932924375,1112912730848442,10.243951,0.528,2.6490002
1679932924380,1112912733350596,10.30395,0.60705,2.62695
1679932924381,1112912735852750,10.31805,0.80595005,2.59095
1679932924383,1112912738354904,10.236,0.624,2.5069501
1679932924386,1112912740857042,10.2289505,0.67605,2.5549502
1679932924389,1112912743359196,10.26795,0.65505004,2.66805
1679932924390,1112912745861581,10.19295,0.65505004,2.7850502
1679932924393,1112912748363812,10.27005,0.64305,2.766
1679932924395,1112912750865889,10.236,0.64305,2.73705
1679932924398,1112912753368047,10.203,0.64005005,2.6890502
1679932924400,1112912755870278,10.155001,0.51795,2.6170502
1679932924402,1112912758372432,10.102051,0.59205,2.73495
1679932924405,1112912760874817,10.143001,0.64305,2.7250502
1679932924408,1112912763376957,10.167001,0.67905,2.7799501
1679932924410,1112912765879110,10.156951,0.58995,2.8570502
1679932924413,1112912768381264,10.1310005,0.52095,2.74005
1679932924416,1112912770883418,10.227,0.588,2.67
1679932924419,1112912773385581,10.213051,0.57105005,2.77305
1679932924421,1112912775887812,10.1650505,0.528,2.91195
1679932924423,1112912778389966,10.225051,0.58305,2.8830001
1679932924425,1112912780892119,10.210051,0.588,2.8230002
1679932924428,1112912783394292,10.30395,0.528,2.8830001
1679932924433,1112912785896677,10.35105,0.55695003,2.83095
1679932924433,1112912788398600,10.320001,0.63105005,2.8210502
1679932924435,1112912790900754,10.36095,0.54705,2.73195
1679932924438,1112912793403230,10.420951,0.58005005,2.7829502
1679932924440,1112912795905384,10.41405,0.66,2.7919502
1679932924442,1112912798407538,10.299001,0.58995,2.83995
1679932924445,1112912800909692,10.366051,0.72405005,2.84505
1679932924448,1112912803411855,10.32495,0.657,2.7850502
1679932924450,1112912805914009,10.276951,0.66,2.80905
1679932924454,1112912808416393,10.359,0.65205,2.8189502
1679932924455,1112912810918547,10.243951,0.65205,2.802
1679932924458,1112912813420701,10.17195,0.76005006,2.8980002
1679932924460,1112912815922846,10.083,0.69495004,2.8189502
1679932924462,1112912818425000,10.12905,0.63600004,2.8639503
1679932924465,1112912820927154,10.13805,0.66,2.86905
1679932924468,1112912823429384,10.143001,0.73395,2.8159502
1679932924470,1112912825931769,10.167001,0.67905,2.8279502
1679932924473,1112912828433692,10.099951,0.624,2.63895
1679932924475,1112912830936077,10.126051,0.64995,2.57205
1679932924478,1112912833438231,10.17195,0.67905,2.49495
1679932924480,1112912835940379,10.1310005,0.68805003,2.49495
1679932924483,1112912838442533,10.01895,0.73095006,2.5500002
1679932924485,1112912840944764,10.01595,0.70305,2.706
1679932924488,1112912843446918,9.99495,0.67905,2.7610502
1679932924491,1112912845949020,9.978001,0.67905,2.73495
1679932924493,1112912848451174,9.97305,0.65205,2.70795
1679932924495,1112912850953327,9.975,0.61605,2.70795
1679932924498,1112912853455481,9.999001,0.61200005,2.70795
1679932924500,1112912855957635,9.949051,0.59505004,2.66295
1679932924503,1112912858460006,10.02105,0.57600003,2.73195
1679932924505,1112912860962160,9.99495,0.64005005,2.7520502
1679932924509,1112912863464390,10.033051,0.633,2.775
1679932924511,1112912865966467,10.02105,0.60405004,2.7829502
1679932924513,1112912868468698,10.01895,0.55905,2.661
1679932924515,1112912870970871,10.12395,0.67095006,2.63895
1679932924520,1112912873473256,10.038,0.61905,2.8860002
1679932924521,1112912875975409,10.111951,0.57105005,2.9479501
1679932924524,1112912878477572,10.069051,0.62805,2.8210502
1679932924525,1112912880979726,10.1959505,0.68805003,2.7970502
1679932924529,1112912883481880,10.17405,0.633,2.7559502
1679932924531,1112912885984034,10.201051,0.588,2.67
1679932924533,1112912888486265,10.28205,0.54195005,2.73495
1679932924535,1112912890988413,10.264951,0.54495,2.8140001
1679932924538,1112912893490798,10.207951,0.63600004,2.7280502
1679932924540,1112912895992721,10.311001,0.55905,2.7439501
1679932924543,1112912898495106,10.29405,0.56805,2.7180002
1679932924545,1112912900997260,10.251,0.624,2.7160501
1679932924548,1112912903499174,10.308001,0.6,2.6530502
1679932924550,1112912906001635,10.240951,0.66195005,2.766
1679932924553,1112912908503789,10.32495,0.64995,2.7520502
1679932924555,1112912911005943,10.227,0.58305,2.8210502
1679932924559,1112912913508102,10.272,0.59205,2.8230002
1679932924560,1112912916010256,10.189051,0.62805,2.778
1679932924563,1112912918512410,10.210051,0.66405004,2.7160501
1679932924566,1112912921014770,10.156951,0.60195005,2.7109501
1679932924569,1112912923516924,10.15995,0.63795,2.6490002
1679932924571,1112912926019078,10.11705,0.609,2.7589502
1679932924573,1112912928521309,10.1310005,0.54705,2.7630002
1679932924575,1112912931023462,10.086,0.6,2.63205
1679932924578,1112912933525548,10.002001,0.53505003,2.7130501
1679932924580,1112912936027779,10.063951,0.59505004,2.76795
1679932924584,1112912938530164,9.990001,0.56595004,2.66295
1679932924586,1112912941032318,9.901051,0.50505,2.661
1679932924589,1112912943534457,9.954,0.63795,2.6820002
1679932924591,1112912946036611,9.94005,0.55905,2.70105
1679932924593,1112912948538765,10.042951,0.624,2.7469501
1679932924595,1112912951040919,9.999001,0.50100005,2.5549502
1679932924598,1112912953543150,9.999001,0.44205,2.73705
1679932924600,1112912956045304,9.990001,0.45105,2.6800501
1679932924604,1112912958547688,10.033051,0.54705,2.598
1679932924606,1112912961049611,10.057051,0.492,2.5810502
1679932924608,1112912963551986,9.96105,0.46305,2.53605
1679932924611,1112912966054140,9.966001,0.52500004,2.5240502
1679932924613,1112912968556294,9.934951,0.573,2.6149502
1679932924615,1112912971058448,9.93,0.55395,2.62905
1679932924618,1112912973560601,9.979951,0.54195005,2.6800501
1679932924620,1112912976062760,9.95895,0.48495004,2.6200502
1679932924623,1112912978564991,9.98295,0.56805,2.5189502
1679932924627,1112912981067145,9.98295,0.57795,2.64105
1679932924628,1112912983569530,9.999001,0.59205,2.67705
1679932924630,1112912986071688,10.030951,0.588,2.6149502
1679932924633,1112912988573842,10.00395,0.55905,2.53095
1679932924635,1112912991075996,10.099951,0.58005005,2.6490002
1679932924638,1112912993578150,10.033051,0.45600003,2.5480502
1679932924642,1112912996080381,10.047001,0.51000005,2.53605
1679932924643,1112912998582535,10.081051,0.50895,2.4760501
1679932924645,1112913001084688,10.114051,0.49695003,2.55795
1679932924648,1112913003586842,10.071,0.44400004,2.4810002
1679932924650,1112913006089005,10.081051,0.46305,2.364
1679932924653,1112913008591159,10.13805,0.45795003,2.45895
1679932924655,1112913011093544,10.122001,0.37905002,2.3470502
1679932924658,1112913013595774,10.107,0.40995002,2.35905
1679932924661,1112913016097948,10.13805,0.38895002,2.4379501
1679932924663,1112913018600025,10.122001,0.37905002,2.292
1679932924665,1112913021102256,10.15005,0.35595003,2.2390501
1679932924668,1112913023604410,10.20495,0.42705002,2.2390501
1679932924670,1112913026106563,10.21695,0.37500003,2.18595
1679932924673,1112913028608947,10.155001,0.30105,2.33505
1679932924676,1112913031111101,10.144951,0.28395,2.2339501
1679932924680,1112913033613251,10.16895,0.31305,2.0689502
1679932924681,1112913036115405,10.12905,0.23895001,2.148
1679932924683,1112913038617559,10.201051,0.38205,2.11695
1679932924686,1112913041119712,10.15995,0.40605003,2.124
1679932924688,1112913043621943,10.236,0.35895002,2.0689502
1679932924692,1112913046124318,10.30605,0.32295,2.0740502
1679932924694,1112913048626241,10.26,0.29205,2.18595
1679932924696,1112913051128626,10.342051,0.28905,2.28705
1679932924699,1112913053630779,10.323001,0.384,2.08605
1679932924701,1112913056132703,10.420951,0.30600002,2.2030501
1679932924703,1112913058635082,10.429951,0.23205002,2.08095
1679932924705,1112913061137313,10.408951,0.342,2.09295
1679932924708,1112913063639467,10.48095,0.22200002,2.05695
1679932924710,1112913066141621,10.46895,0.20805001,1.9780501
1679932924713,1112913068643774,10.440001,0.19605,2.0299501
1679932924717,1112913071145933,10.533001,0.22005,1.9609501
1679932924719,1112913073648318,10.488001,0.36405003,1.9969501
1679932924721,1112913076150472,10.5379505,0.24900001,1.9729501
1679932924723,1112913078652626,10.396951,0.23895001,1.94895
1679932924725,1112913081154851,10.372951,0.21000001,2.01
1679932924729,1112913083657005,10.453951,0.21000001,1.9440001
1679932924730,1112913086159159,10.390051,0.186,1.9350001
1679932924733,1112913088661313,10.411051,0.16695,1.8510001
1679932924735,1112913091163717,10.26,0.27,1.8940501
1679932924738,1112913093665870,10.246051,0.23400001,1.9660501
1679932924740,1112913096168024,10.27005,0.19605,2.028
1679932924743,1112913098670178,10.275001,0.186,1.9800001
1679932924746,1112913101172342,10.26795,0.21495001,2.06205
1679932924748,1112913103674573,10.299001,0.12900001,2.1460502
1679932924750,1112913106176650,10.3279505,0.18405001,2.12895
1679932924754,1112913108679111,10.26795,0.141,2.2369502
1679932924755,1112913111181246,10.272,0.18405001,2.2459502
1679932924758,1112913113683400,10.225051,0.052050002,2.2369502
1679932924760,1112913116185554,10.284,0.13095,2.35395
1679932924763,1112913118687708,10.234051,0.052050002,2.1979501
1679932924766,1112913121189862,10.35105,0.081,2.148
1679932924771,1112913123692092,10.239,0.055050004,2.29905
1679932924771,1112913126194246,10.320001,0.061950002,2.3419502
1679932924772,1112913128696400,10.33905,0.079050004,2.3040001
1679932924775,1112913131198554,10.408951,-0.01695,2.3779502
1679932924778,1112913133700708,10.452001,0.093,2.2080002
1679932924780,1112913136202862,10.510051,0.093,2.229
1679932924783,1112913138705246,10.56,0.01905,2.229
1679932924785,1112913141207477,10.584001,0.124050006,2.1769502
1679932924788,1112913143709549,10.540951,-0.010050001,2.0740502
1679932924791,1112913146211780,10.59105,0.043050002,2.06205
1679932924793,1112913148713934,10.62195,0.08595,2.1460502
1679932924795,1112913151216087,10.677,0.105000004,2.02305
1679932924798,1112913153718250,10.62405,0.105000004,1.9969501
1679932924800,1112913156220635,10.726951,0.13800001,2.0299501
1679932924803,1112913158722789,10.687051,0.057000004,1.9279501
1679932924805,1112913161224943,10.75905,0.15795001,1.8679501
1679932924808,1112913163727101,10.704,0.064050004,1.9420501
1679932924811,1112913166229255,10.66005,0.064050004,1.8750001
1679932924813,1112913168731486,10.6699505,0.08805001,1.794
1679932924816,1112913171233640,10.6050005,0.00405,1.863
1679932924818,1112913173735780,10.597951,0.064050004,1.8010501
1679932924821,1112913176238164,10.5720005,0.079050004,1.7740501
1679932924823,1112913178740318,10.552951,0.064050004,1.8700501
1679932924825,1112913181242472,10.524,-0.027,1.84395
1679932924830,1112913183744645,10.465951,0.0019500001,1.7310001
1679932924831,1112913186246799,10.46895,0.045,1.7550001
1679932924833,1112913188749030,10.435051,0.034950003,1.9950001
1679932924835,1112913191251183,10.429951,-0.01695,1.88505
1679932924838,1112913193753337,10.441951,0.022950001,1.9470001
1679932924843,1112913196255491,10.408951,0.040050004,1.8870001
1679932924843,1112913198757876,10.416,0.00705,1.88505
1679932924846,1112913201259799,10.41405,-0.01695,1.8649501
1679932924849,1112913203762173,10.32495,-0.108,1.9590001
1679932924851,1112913206264404,10.372951,-0.079950005,1.9279501
1679932924854,1112913208766558,10.45905,-0.07005,2.019
1679932924856,1112913211268712,10.3279505,-0.064950004,2.0760002
1679932924858,1112913213770866,10.27995,-0.010050001,2.05905
1679932924861,1112913216273035,10.26795,-0.058050003,1.9990501
1679932924863,1112913218775188,10.35105,0.045,2.11395
1679932924866,1112913221277573,10.354051,-0.036000002,2.02005
1679932924870,1112913223779741,10.264951,-0.036000002,2.016
1679932924871,1112913226281895,10.275001,0.016050002,1.9399501
1679932924874,1112913228784049,10.284,-0.027,2.016
1679932924876,1112913231286202,10.231951,-0.04095,1.983
1679932924879,1112913233788433,10.243951,-0.060000002,1.9849501
1679932924882,1112913236290823,10.207951,-0.012,2.00895
1679932924884,1112913238792746,10.210051,-0.08205,1.9879501
1679932924888,1112913241295131,10.19295,-0.079950005,2.02005
1679932924890,1112913243797284,10.111951,-0.048,2.0350502
1679932924892,1112913246299438,10.156951,0.069000006,2.0740502
1679932924893,1112913248801601,10.114051,-0.0049500004,2.05905
1679932924896,1112913251303755,10.231951,0.034950003,1.9660501
1679932924899,1112913253805986,10.18095,-0.079950005,2.02005
1679932924902,1112913256308370,10.246051,0.03795,2.0020502
1679932924904,1112913258810293,10.240951,-0.012,2.016
1679932924907,1112913261312447,10.248,-0.01995,1.8970501
1679932924909,1112913263814832,10.239,0.055050004,1.7910001
1679932924911,1112913266316986,10.342051,0.08805001,1.8370501
1679932924913,1112913268819217,10.371,0.13395001,1.7380501
1679932924917,1112913271321366,10.36095,0.097950004,1.7340001
1679932924919,1112913273823443,10.335,0.124050006,1.8100501
1679932924923,1112913276325674,10.27995,0.093,1.8370501
1679932924925,1112913278828059,10.399051,0.081,1.76505
1679932924926,1112913281330213,10.40205,0.13800001,1.8919501
1679932924928,1112913283832393,10.419001,0.10695001,1.9399501
1679932924931,1112913286334547,10.528951,0.097950004,1.8559501
1679932924934,1112913288836701,10.399051,0.010950001,1.9710001
1679932924936,1112913291338855,10.512,-0.010050001,1.9800001
1679932924940,1112913293841049,10.43805,-0.0010500001,1.83405
1679932924942,1112913296343203,10.465951,-0.10395,2.055
1679932924943,1112913298845587,10.504951,0.022950001,2.02605
1679932924946,1112913301347510,10.512,-0.04095,1.88505
1679932924950,1112913303849880,10.57905,-0.11505,1.9920001
1679932924951,1112913306352034,10.555051,-0.024,1.9920001
1679932924955,1112913308854188,10.584001,-0.02205,2.0740502
1679932924956,1112913311356418,10.555051,-0.024,2.0670002
1679932924958,1112913313858572,10.522051,-0.036000002,2.05695
1679932924961,1112913316360726,10.57905,0.00705,2.019
1679932924963,1112913318862880,10.51395,-0.048,2.1100502
1679932924965,1112913321365034,10.49505,-0.060000002,1.8559501
1679932924968,1112913323867188,10.4740505,-0.027,2.04495
1679932924971,1112913326369659,10.557,0.045,1.9420501
1679932924973,1112913328871736,10.46895,-0.012,2.02005
1679932924976,1112913331373890,10.49295,-0.0010500001,1.9729501
1679932924980,1112913333876121,10.52595,0.064050004,1.9300501
1679932924981,1112913336378275,10.45695,-0.00795,1.8940501
1679932924983,1112913338880429,10.371,0.0019500001,1.9110001
1679932924985,1112913341382582,10.28205,-0.03195,1.7890501
1679932924988,1112913343884967,10.34895,-0.051000003,1.79805
1679932924991,1112913346387102,10.371,-0.01695,1.7670001
1679932924993,1112913348889256,10.378051,0.081,1.7580001
1679932924996,1112913351391410,10.383,0.04695,1.674
1679932924998,1112913353893563,10.31805,0.0139500005,1.65495
1679932925002,1112913356395765,10.396951,0.061950002,1.71405
1679932925004,1112913358897919,10.2960005,0.010950001,1.6860001
1679932925008,1112913361400073,10.378051,0.034950003,1.6710001
1679932925009,1112913363902457,10.429951,0.055050004,1.6639501
1679932925011,1112913366404611,10.311001,-0.051000003,1.5880501
1679932925014,1112913368906726,10.371,0.00705,1.674
1679932925019,1112913371408880,10.423051,-0.02205,1.7310001
1679932925020,1112913373911034,10.395,-0.010050001,1.6810501
1679932925021,1112913376413265,10.420951,-0.01995,1.6830001
1679932925023,1112913378915419,10.516951,-0.0010500001,1.76205
1679932925026,1112913381417563,10.404,-0.028950002,1.7380501
1679932925028,1112913383919717,10.46895,-0.039,1.8700501
1679932925031,1112913386421871,10.45905,-0.11805001,1.71405
1679932925033,1112913388924025,10.378051,-0.08895,1.8250501
1679932925035,1112913391426486,10.5379505,-0.16305001,1.75995
1679932925039,1112913393928644,10.42605,-0.11505,1.863
1679932925042,1112913396430721,10.407001,-0.079950005,1.72905
1679932925044,1112913398932952,10.395,-0.13905,1.8919501
1679932925046,1112913401435106,10.416,-0.13905,1.7740501
1679932925049,1112913403937260,10.46205,-0.08400001,1.7770501
1679932925051,1112913406439644,10.404,-0.09900001,1.7860501
1679932925054,1112913408941798,10.423051,-0.094050005,1.7860501
1679932925056,1112913411443952,10.435051,-0.07005,1.8700501
1679932925059,1112913413946082,10.407001,-0.08205,1.8679501
1679932925061,1112913416448236,10.45005,-0.063,1.8529501
1679932925063,1112913418950390,10.45005,-0.08205,1.8100501
1679932925066,1112913421452620,10.429951,-0.05595,1.9900501
1679932925069,1112913423954991,10.38,0.016050002,1.9060501
1679932925071,1112913426456914,10.395,0.021000002,1.8679501
1679932925074,1112913428959299,10.342051,0.049950004,1.79805
1679932925076,1112913431461453,10.378051,0.14295001,1.79595
1679932925079,1112913433963611,10.33005,0.07095,1.6789501
1679932925081,1112913436465765,10.35105,0.112050004,1.59195
1679932925083,1112913438967996,10.335,0.033,1.5850501
1679932925086,1112913441470150,10.354051,0.061950002,1.5660001
1679932925089,1112913443972308,10.375051,0.25605002,1.52505
1679932925092,1112913446474462,10.342051,0.105000004,1.4970001
1679932925093,1112913448976615,10.41405,0.094950005,1.5469501
1679932925096,1112913451479000,10.419001,0.16695,1.542
1679932925098,1112913453980943,10.356001,0.11400001,1.506
1679932925101,1112913456483405,10.356001,0.20805001,1.5319501
1679932925103,1112913458985559,10.404,0.069000006,1.554
1679932925106,1112913461487712,10.356001,0.105000004,1.5469501
1679932925109,1112913463989919,10.44705,0.124050006,1.59
1679932925111,1112913466492073,10.416,-0.02205,1.69305
1679932925113,1112913468994227,10.43805,-0.015000001,1.6279501
1679932925116,1112913471496612,10.441951,-0.027,1.6189501
1679932925119,1112913473998784,10.44495,-0.0010500001,1.57305
1679932925121,1112913476500938,10.441951,-0.087000005,1.6690501
1679932925123,1112913479003092,10.46895,-0.14895001,1.7119501
1679932925126,1112913481505323,10.47105,-0.14400001,1.6860001
1679932925130,1112913484007384,10.44495,-0.123,1.6309501
1679932925131,1112913486509845,10.453951,-0.051000003,1.71
1679932925133,1112913489011999,10.43805,-0.112950005,1.815
1679932925136,1112913491514153,10.38,-0.096,1.8460501
1679932925139,1112913494016307,10.38,-0.10395,1.7670001
1679932925141,1112913496518447,10.45005,-0.087000005,1.8610501
1679932925143,1112913499020601,10.31595,-0.135,1.9200001
1679932925146,1112913501522755,10.40205,-0.112950005,1.695
1679932925149,1112913504024985,10.323001,-0.135,1.7340001
1679932925151,1112913506527129,10.31295,-0.052950002,1.554
1679932925153,1112913509029514,10.342051,-0.03195,1.64505
1679932925156,1112913511531437,10.395,-0.0010500001,1.434
1679932925158,1112913514033591,10.29405,0.009000001,1.31895
1679932925161,1112913516535975,10.36305,-0.058050003,1.3410001
1679932925163,1112913519038220,10.227,0.061950002,1.3219501
1679932925167,1112913521540374,10.177051,0.040050004,1.24995
1679932925170,1112913524042528,10.258051,0.022950001,1.33395
1679932925173,1112913526544716,10.1959505,0.069000006,1.35
1679932925175,1112913529046870,10.17405,0.052050002,1.3579501
1679932925175,1112913531549023,10.203,0.010950001,1.45305
1679932925179,1112913534051177,10.17405,0.016050002,1.5010501
1679932925181,1112913536553562,10.203,0.11895001,1.5319501
1679932925183,1112913539055750,10.191001,-0.09900001,1.5469501
1679932925187,1112913541557904,10.31595,-0.052950002,1.6330501
1679932925189,1112913544060134,10.2960005,-0.087000005,1.6570501
1679932925192,1112913546562288,10.311001,-0.171,1.5679501
1679932925194,1112913549064389,10.36095,-0.18495001,1.65495
1679932925196,1112913551566851,10.371,-0.28095,1.59
1679932925199,1112913554069004,10.440001,-0.14205001,1.5469501
1679932925201,1112913556571158,10.428,-0.23805001,1.4650501
1679932925205,1112913559073312,10.42605,-0.27405003,1.506
1679932925208,1112913561575466,10.58895,-0.26895002,1.4170501
1679932925209,1112913564077620,10.540951,-0.22095,1.365
1679932925211,1112913566579774,10.60305,-0.22800002,1.3579501
1679932925214,1112913569082005,10.632001,-0.28800002,1.3600501
1679932925216,1112913571584163,10.63395,-0.24705002,1.317
1679932925220,1112913574086317,10.65795,-0.26595002,1.2379501
1679932925221,1112913576588471,10.75905,-0.171,1.2070501
1679932925224,1112913579090856,10.701,-0.15405001,1.2349501
1679932925226,1112913581593029,10.729951,-0.20205002,1.2280501
1679932925229,1112913584095182,10.708051,-0.21105,1.23105
1679932925231,1112913586597413,10.729951,-0.156,1.353
1679932925234,1112913589099490,10.701,-0.17505,1.22595
1679932925236,1112913591601726,10.75605,-0.21105,1.3219501
1679932925240,1112913594104111,10.750951,-0.19500001,1.26195
1679932925242,1112913596606264,10.738951,-0.147,1.2930001
1679932925244,1112913599108418,10.684051,-0.20400001,1.1850001
1679932925246,1112913601610572,10.675051,-0.14400001,1.2760501
1679932925251,1112913604112721,10.632001,-0.123,1.2910501
1679932925252,1112913606614875,10.555051,-0.12495001,1.2739501
1679932925254,1112913609117106,10.651051,-0.14895001,1.23105
1679932925256,1112913611619259,10.675051,-0.156,1.30305
1679932925259,1112913614121639,10.573951,-0.156,1.28295
1679932925261,1112913616623562,10.585951,-0.18,1.1370001
1679932925263,1112913619125716,10.62705,-0.12705001,1.2349501
1679932925266,1112913621628101,10.504951,-0.16800001,1.245
1679932925269,1112913624130235,10.50195,-0.24000001,1.2
1679932925271,1112913626632466,10.46205,-0.23505001,1.14705
1679932925275,1112913629134620,10.504951,-0.17505,1.2349501
1679932925277,1112913631636774,10.441951,-0.27600002,1.281
1679932925280,1112913634138894,10.44705,-0.192,1.3480501
1679932925281,1112913636641048,10.384951,-0.3,1.1730001
1679932925283,1112913639143201,10.420951,-0.29295,1.2379501
1679932925287,1112913641645586,10.342051,-0.41505003,1.38405
1679932925288,1112913644147812,10.36305,-0.35295,1.31895
1679932925291,1112913646649889,10.372951,-0.35700002,1.42005
1679932925293,1112913649152120,10.372951,-0.41700003,1.389
1679932925296,1112913651654273,10.46205,-0.40305,1.5090001
1679932925299,1112913654156427,10.399051,-0.42405003,1.45095
1679932925301,1112913656658581,10.423051,-0.40305,1.4490001
1679932925303,1112913659160966,10.50195,-0.50295,1.57305
1679932925306,1112913661663120,10.557,-0.42000002,1.48905
1679932925309,1112913664165264,10.531051,-0.40005,1.5180001
1679932925311,1112913666667418,10.524,-0.42405003,1.6279501
1679932925314,1112913669169572,10.5070505,-0.36195,1.4130001
1679932925318,1112913671671711,10.57695,-0.32595003,1.60395
1679932925320,1112913674173942,10.533001,-0.30195,1.5090001
1679932925323,1112913676676096,10.524,-0.33795002,1.4800501
1679932925325,1112913679178480,10.569,-0.28800002,1.47
1679932925326,1112913681680634,10.656,-0.25005,1.51995
1679932925329,1112913684182788,10.540951,-0.171,1.434
1679932925331,1112913686684942,10.500001,-0.21105,1.3960501
1679932925333,1112913689187096,10.593,-0.16095,1.3579501
1679932925336,1112913691689326,10.617001,-0.064950004,1.4580001
1679932925339,1112913694191480,10.500001,-0.24705002,1.3410001
1679932925341,1112913696693639,10.47795,-0.12495001,1.2709501
1679932925343,1112913699195793,10.5379505,-0.034050003,1.3429501
1679932925346,1112913701698178,10.561951,-0.11805001,1.3099501
1679932925349,1112913704200101,10.453951,-0.17505,1.1590501
1679932925351,1112913706702485,10.44495,-0.13005,1.1560501
1679932925356,1112913709204721,10.404,-0.09900001,1.233
1679932925358,1112913711706798,10.390051,-0.060000002,1.2280501
1679932925359,1112913714209029,10.371,-0.03195,1.10895
1679932925361,1112913716711183,10.38,-0.052950002,1.1230501
1679932925365,1112913719213336,10.311001,-0.096,1.2240001
1679932925366,1112913721715721,10.366051,-0.048,1.17795
1679932925369,1112913724217875,10.284,-0.20400001,1.26195
1679932925371,1112913726720029,10.36305,-0.14895001,1.26405
1679932925374,1112913729222173,10.356001,-0.156,1.29795
1679932925376,1112913731724327,10.34895,-0.24195,1.3620001
1679932925379,1112913734226480,10.435051,-0.16800001,1.3740001
1679932925381,1112913736728711,10.43805,-0.132,1.4130001
1679932925383,1112913739231082,10.36095,-0.08205,1.338
1679932925386,1112913741733005,10.44705,-0.13005,1.3480501
1679932925389,1112913744235389,10.392,-0.135,1.3620001
1679932925392,1112913746737543,10.464001,-0.0010500001,1.317
1679932925396,1112913749239697,10.342051,-0.19695,1.30005
1679932925396,1112913751741851,10.320001,-0.04605,1.33605
1679932925398,1112913754244082,10.32495,-0.034050003,1.30305
1679932925401,1112913756746236,10.33905,-0.027,1.353
1679932925403,1112913759248390,10.384951,-0.108,1.317
1679932925406,1112913761750543,10.347,0.045,1.3240501
1679932925408,1112913764252697,10.332001,-0.064950004,1.3099501
1679932925411,1112913766755082,10.26795,-0.010050001,1.25205
1679932925413,1112913769257010,10.29405,0.057000004,1.212
1679932925416,1112913771759471,10.255951,0.08295,1.1920501
1679932925418,1112913774261625,10.240951,0.043050002,1.164
1679932925421,1112913776763779,10.299001,-0.039,1.29495
1679932925423,1112913779265933,10.248,0.079050004,1.16805
1679932925426,1112913781768096,10.276951,0.12195001,1.13505
1679932925430,1112913784270250,10.258051,0.010950001,1.269
1679932925431,1112913786772634,10.2960005,0.016050002,1.2070501
1679932925434,1112913789274788,10.356001,-0.036000002,1.2070501
1679932925436,1112913791776947,10.41405,-0.043950003,1.13205
1679932925439,1112913794279101,10.46205,-0.10605001,1.21395
1679932925441,1112913796781332,10.344001,-0.16305001,1.22595
1679932925444,1112913799283409,10.51395,-0.07005,1.16805
1679932925446,1112913801785889,10.519051,-0.051000003,1.2400501
1679932925449,1112913804288043,10.58895,-0.11805001,1.34595
1679932925451,1112913806790197,10.531051,-0.21405001,1.1880001
1679932925453,1112913809292351,10.6699505,-0.12495001,1.24995
1679932925456,1112913811794520,10.716001,-0.17505,1.29495
1679932925459,1112913814296673,10.726951,-0.20205002,1.3480501
1679932925461,1112913816798827,10.73505,-0.264,1.31505
1679932925464,1112913819301058,10.687051,-0.17295001,1.3480501
1679932925467,1112913821803216,10.854,-0.21405001,1.3579501
1679932925470,1112913824305370,10.833,-0.21105,1.29795
1679932925472,1112913826807524,10.75905,-0.21405001,1.3579501
1679932925474,1112913829309677,10.845,-0.21795002,1.3069501
1679932925476,1112913831812067,10.857,-0.23505001,1.3260001
1679932925479,1112913834314298,10.76805,-0.31695002,1.28805
1679932925481,1112913836816452,10.75605,-0.216,1.2400501
1679932925484,1112913839318606,10.738951,-0.312,1.1880001
1679932925486,1112913841820759,10.73505,-0.28995,1.1560501
1679932925490,1112913844322913,10.716001,-0.22305001,1.1899501
1679932925491,1112913846825067,10.663051,-0.20400001,1.116
1679932925493,1112913849327221,10.555051,-0.33600003,1.1230501
1679932925496,1112913851829596,10.573951,-0.372,1.0870501
1679932925499,1112913854331826,10.596001,-0.22800002,1.09395
1679932925501,1112913856833903,10.60995,-0.3,1.06095
1679932925504,1112913859336134,10.644,-0.27600002,1.092
1679932925508,1112913861838279,10.60995,-0.25395,1.12995
1679932925509,1112913864340433,10.573951,-0.31395,1.21905
1679932925511,1112913866842817,10.59105,-0.28605002,1.14195
1679932925514,1112913869344971,10.67205,-0.3,1.10895
1679932925517,1112913871847105,10.644,-0.324,1.1520001
1679932925521,1112913874349259,10.641001,-0.35505003,1.09695
1679932925522,1112913876851490,10.656,-0.3,1.05795
1679932925525,1112913879353644,10.68,-0.35700002,1.128
1679932925526,1112913881855797,10.59105,-0.44805002,1.0390501
1679932925529,1112913884357937,10.716001,-0.36495003,1.176
1679932925532,1112913886860091,10.60095,-0.312,1.1040001
1679932925535,1112913889362245,10.57695,-0.36195,1.044
1679932925537,1112913891864384,10.62195,-0.28305,1.03005
1679932925539,1112913894366845,10.60995,-0.33600003,1.09905
1679932925542,1112913896868999,10.64805,-0.3,1.00605
1679932925543,1112913899371153,10.629001,-0.29805002,0.93405
1679932925546,1112913901873307,10.60095,-0.24705002,0.9480001
1679932925550,1112913904375485,10.6050005,-0.15900001,0.97905004
1679932925551,1112913906877639,10.608001,-0.16800001,0.89805007
1679932925554,1112913909380023,10.687051,-0.10095,0.94605005
1679932925556,1112913911882177,10.677,-0.18300001,0.8880001
1679932925559,1112913914384346,10.644,-0.10095,0.94095004
1679932925561,1112913916886577,10.593,-0.024,0.98205006
1679932925564,1112913919388654,10.6050005,-0.076950006,0.88605005
1679932925566,1112913921890808,10.498051,-0.07005,0.94095004
1679932925569,1112913924393254,10.62195,0.028050002,0.9480001
1679932925571,1112913926895177,10.64805,0.058950003,0.98595005
1679932925574,1112913929397562,10.65795,0.08805001,0.94995004
1679932925576,1112913931899716,10.536,0.0019500001,0.93405
1679932925580,1112913934401864,10.597951,-0.043950003,0.89805007
1679932925582,1112913936904018,10.519051,-0.01995,0.90300006
1679932925584,1112913939406172,10.519051,-0.03195,0.93795
1679932925586,1112913941908403,10.504951,0.034950003,0.93105006
1679932925589,1112913944410557,10.522051,-0.0010500001,0.9979501
1679932925591,1112913946912716,10.476001,0.03795,1.0180501
1679932925593,1112913949414870,10.519051,0.00705,0.96495
1679932925596,1112913951917023,10.452001,-0.01995,1.0890001
1679932925598,1112913954419408,10.46205,-0.087000005,1.0510501
1679932925601,1112913956921562,10.46895,0.028050002,1.0819501
1679932925604,1112913959423793,10.524,-0.12705001,1.041
1679932925606,1112913961925946,10.48995,-0.076950006,1.09905
1679932925608,1112913964428100,10.46205,-0.096,1.128
1679932925611,1112913966930254,10.452001,-0.15105,1.12995
1679932925613,1112913969432418,10.548,-0.076950006,1.113
1679932925618,1112913971934572,10.52595,-0.19695,1.1370001
1679932925620,1112913974436956,10.548,-0.112950005,1.18005
1679932925622,1112913976939119,10.510051,-0.216,1.0870501
1679932925624,1112913979441273,10.498051,-0.312,1.0489501
1679932925626,1112913981943504,10.569,-0.28800002,1.01505
1679932925629,1112913984445581,10.5070505,-0.30195,1.1010001
1679932925631,1112913986947812,10.548,-0.34500003,0.98595005
1679932925633,1112913989450212,10.561951,-0.34305,1.0489501
1679932925637,1112913991952366,10.57905,-0.30705002,1.04595
1679932925639,1112913994454520,10.516951,-0.32895002,1.14705
1679932925641,1112913996956674,10.6390505,-0.27405003,1.125
1679932925644,1112913999458828,10.569,-0.28995,1.05795
1679932925646,1112914001960982,10.665001,-0.35700002,1.01505
1679932925649,1112914004463212,10.59105,-0.28995,0.97200006
1679932925651,1112914006965366,10.63605,-0.324,0.91695005
1679932925655,1112914009467534,10.584001,-0.25005,1.0180501
1679932925657,1112914011969919,10.63395,-0.15105,1.0180501
1679932925659,1112914014471842,10.549951,-0.135,0.98205006
1679932925661,1112914016974226,10.57905,-0.135,0.99105006
1679932925663,1112914019476380,10.57695,-0.10605001,0.99105006
1679932925666,1112914021978640,10.60995,-0.043950003,1.1010001
1679932925669,1112914024480794,10.543051,-0.064950004,0.89505005
1679932925671,1112914026982948,10.524,-0.01695,1.03005
1679932925673,1112914029485102,10.378051,0.0139500005,0.9670501
1679932925676,1112914031987250,10.453951,-0.079950005,0.82095003
1679932925679,1112914034489404,10.420951,0.052050002,0.90000004
1679932925681,1112914036991789,10.42605,-0.012,1.00995
1679932925683,1112914039494020,10.419001,0.016050002,0.88305
1679932925686,1112914041996097,10.404,0.016050002,0.96000004
1679932925689,1112914044498255,10.464001,0.081,0.80700004
1679932925693,1112914047000486,10.342051,0.112050004,0.95505005
1679932925694,1112914049502640,10.33695,0.055050004,0.91200006
1679932925696,1112914052004794,10.3279505,0.061950002,0.88605005
1679932925699,1112914054507179,10.342051,0.009000001,0.915
1679932925701,1112914057009332,10.40205,0.081,0.90300006
1679932925704,1112914059511486,10.408951,0.07095,1.0129501
1679932925706,1112914062013640,10.40205,-0.063,0.864
1679932925709,1112914064515780,10.41405,-0.063,0.86700004
1679932925711,1112914067017934,10.419001,-0.112950005,0.96195006
1679932925714,1112914069520395,10.4740505,-0.043950003,0.91905004
1679932925716,1112914072022318,10.476001,-0.14205001,0.95505005
1679932925719,1112914074524708,10.48995,-0.216,0.86700004
1679932925722,1112914077026862,10.47105,-0.123,0.82605004
1679932925724,1112914079528785,10.488001,-0.108,0.83805007
1679932925727,1112914082031170,10.510051,-0.171,0.86700004
1679932925730,1112914084533318,10.420951,-0.16095,0.79200006
1679932925732,1112914087035549,10.48305,-0.16305001,0.83805007
1679932925734,1112914089537703,10.42605,-0.22305001,0.82095003
1679932925737,1112914092039857,10.52595,-0.23805001,0.88305
1679932925739,1112914094542025,10.47795,-0.21105,0.855
1679932925742,1112914097044409,10.47105,-0.156,0.79200006
1679932925744,1112914099546332,10.378051,-0.31905,0.864
1679932925747,1112914102048717,10.44495,-0.18300001,0.84495
1679932925749,1112914104550953,10.4740505,-0.24705002,0.85695004
1679932925751,1112914107053107,10.42605,-0.23805001,0.84495
1679932925754,1112914109555261,10.4740505,-0.21795002,0.83100003
1679932925757,1112914112057414,10.407001,-0.16800001,0.89100003
1679932925759,1112914114559544,10.416,-0.19695,0.85200006
1679932925761,1112914117061929,10.488001,-0.13005,0.87405
1679932925764,1112914119564083,10.441951,-0.12495001,0.79200006
1679932925767,1112914122066242,10.416,-0.132,0.78000003
1679932925770,1112914124568395,10.3279505,-0.16305001,0.85005003
1679932925773,1112914127070626,10.428,-0.156,0.8880001
1679932925774,1112914129572703,10.440001,-0.19005,0.83100003
1679932925777,1112914132074934,10.395,-0.20400001,0.85695004
1679932925779,1112914134577299,10.47105,-0.24000001,0.87105006
1679932925782,1112914137079452,10.555051,-0.132,0.85005003
1679932925784,1112914139581606,10.597951,-0.23295002,0.89505005
1679932925787,1112914142083760,10.62195,-0.25905,0.79995006
1679932925789,1112914144585919,10.681951,-0.24195,0.89100003
1679932925791,1112914147088073,10.675051,-0.31695002,0.89100003
1679932925794,1112914149590304,10.644,-0.19500001,0.99105006
1679932925797,1112914152092457,10.75905,-0.21795002,0.915
1679932925799,1112914154594605,10.74195,-0.19500001,0.9979501
1679932925801,1112914157096759,10.732051,-0.13905,0.8880001
1679932925805,1112914159598913,10.732051,-0.171,0.9289501
1679932925807,1112914162101298,10.74705,-0.24705002,0.87600005
1679932925809,1112914164603461,10.774951,-0.08895,1.0210501
1679932925811,1112914167105692,10.726951,-0.16800001,0.88095003
1679932925814,1112914169607846,10.825951,-0.15105,0.88305
1679932925816,1112914172110000,10.761001,-0.16800001,0.9889501
1679932925819,1112914174612168,10.773001,-0.19005,0.9289501
1679932925821,1112914177114322,10.737,-0.07005,0.81405
1679932925824,1112914179616706,10.71105,-0.076950006,0.90705
1679932925827,1112914182118860,10.726951,-0.012,0.771
1679932925829,1112914184621014,10.716001,-0.024,0.94605005
1679932925832,1112914187123144,10.72305,0.010950001,0.83295006
1679932925834,1112914189625298,10.675051,0.105000004,0.84705
1679932925837,1112914192127528,10.681951,0.08295,0.78000003
1679932925839,1112914194629682,10.629001,0.00405,0.83805007
1679932925843,1112914197131855,10.597951,0.12195001,0.71295005
1679932925844,1112914199634009,10.584001,0.08295,0.85200006
1679932925846,1112914202136394,10.548,0.08595,0.73305005
1679932925849,1112914204638317,10.528951,0.064050004,0.67005
1679932925851,1112914207140706,10.548,0.11895001,0.75900006
1679932925854,1112914209642937,10.429951,0.069000006,0.78795004
1679932925858,1112914212145091,10.45695,0.17895001,0.78495
1679932925859,1112914214647245,10.48995,0.076050006,0.73005
1679932925862,1112914217149413,10.45005,0.15495001,0.81195
1679932925864,1112914219651567,10.411051,0.034950003,0.80700004
1679932925867,1112914222153720,10.44495,0.094950005,0.81900007
1679932925870,1112914224656105,10.378051,0.076050006,0.85200006
1679932925872,1112914227158298,10.44495,0.0139500005,0.81900007
1679932925874,1112914229660452,10.453951,-0.0049500004,0.75900006
1679932925877,1112914232162682,10.395,-0.04605,0.69405
1679932925880,1112914234664759,10.44705,-0.04605,0.80205005
1679932925882,1112914237166975,10.420951,-0.108,0.86700004
1679932925884,1112914239669360,10.408951,-0.15405001,0.82605004
1679932925886,1112914242171514,10.408951,-0.16095,0.87405
1679932925892,1112914244673668,10.452001,-0.17805001,0.80895007
1679932925893,1112914247175812,10.45905,-0.09900001,0.89505005
1679932925894,1112914249677966,10.48095,-0.09900001,0.86895007
1679932925898,1112914252180120,10.531051,-0.108,0.81405
1679932925900,1112914254682274,10.620001,-0.048,0.86700004
1679932925902,1112914257184505,10.62705,-0.13005,0.96495
1679932925904,1112914259686649,10.62195,-0.132,1.0200001
1679932925907,1112914262188802,10.60995,-0.112950005,0.94605005
1679932925909,1112914264690956,10.653001,-0.18705001,1.0390501
1679932925911,1112914267193341,10.641001,-0.052950002,0.96195006
1679932925914,1112914269695490,10.651051,-0.04095,1.04595
1679932925918,1112914272197721,10.65795,-0.076950006,1.06095
1679932925921,1112914274699874,10.71105,-0.10605001,1.0510501
1679932925923,1112914277202043,10.75905,0.016050002,1.0009501
1679932925925,1112914279704197,10.78695,-0.075,1.04595
1679932925927,1112914282206351,10.78005,-0.052950002,0.99600005
1679932925931,1112914284708505,10.846951,-0.18,0.96000004
1679932925932,1112914287210659,10.88595,-0.04605,1.041
1679932925934,1112914289713129,10.83495,-0.12495001,1.008
1679932925937,1112914292215206,10.773001,-0.08895,0.90300006
1679932925939,1112914294717360,10.837951,-0.15900001,0.95295006
1679932925942,1112914297219591,10.816051,-0.16095,0.9889501
1679932925944,1112914299721745,10.861951,-0.19005,0.9480001
1679932925947,1112914302223893,10.783051,-0.216,0.984
1679932925949,1112914304726278,10.750951,-0.23805001,0.97905004
1679932925952,1112914307228432,10.76595,-0.17505,0.95505005
1679932925956,1112914309730562,10.762951,-0.28605002,1.03005
1679932925957,1112914312232716,10.773001,-0.27600002,0.94305
1679932925960,1112914314734869,10.78005,-0.28800002,0.95505005
1679932925962,1112914317237023,10.665001,-0.22305001,0.89100003
1679932925964,1112914319739254,10.701,-0.30705002,0.87600005
1679932925967,1112914322241414,10.60995,-0.24705002,0.94305
1679932925970,1112914324743799,10.63605,-0.25395,0.94995004
1679932925972,1112914327245952,10.61505,-0.30900002,0.90705
1679932925976,1112914329747875,10.608001,-0.3,0.88605005
1679932925978,1112914332250274,10.522051,-0.27600002,0.855
1679932925980,1112914334752428,10.608001,-0.32595003,0.89295006
1679932925982,1112914337254659,10.549951,-0.25005,0.92700005
1679932925985,1112914339756813,10.5379505,-0.30900002,0.93795
1679932925987,1112914342258961,10.569,-0.20595,0.97200006
1679932925990,1112914344761115,10.516951,-0.28995,0.83595
1679932925993,1112914347263500,10.564951,-0.24495001,0.91695005
1679932925994,1112914349765423,10.548,-0.24000001,0.93600005
1679932925998,1112914352267813,10.584001,-0.19500001,0.9289501
1679932926000,1112914354770043,10.585951,-0.26595002,1.008
1679932926002,1112914357272197,10.540951,-0.32895002,1.0210501
1679932926004,1112914359774351,10.60095,-0.21105,0.92205006
1679932926007,1112914362276472,10.620001,-0.31905,0.90495
1679932926010,1112914364778626,10.596001,-0.37695003,1.02705
1679932926012,1112914367280780,10.644,-0.42000002,1.00995
1679932926014,1112914369783164,10.677,-0.44805002,0.9580501
1679932926017,1112914372285318,10.644,-0.47700003,0.97395
1679932926024,1112914374787462,10.705951,-0.46305,1.0009501
1679932926025,1112914377289616,10.668,-0.45795003,0.98595005
1679932926025,1112914379791770,10.729951,-0.49395,1.0510501
1679932926027,1112914382294000,10.79205,-0.54705,1.10895
1679932926030,1112914384796371,10.77105,-0.537,0.99405
1679932926032,1112914387298525,10.653001,-0.58500004,0.96000004
1679932926034,1112914389800679,10.726951,-0.61395,1.02495
1679932926037,1112914392302833,10.708051,-0.597,0.99600005
1679932926040,1112914394804961,10.693951,-0.56805,1.00995
1679932926042,1112914397307115,10.749001,-0.58500004,0.90495
1679932926044,1112914399809269,10.726951,-0.573,0.88095003
1679932926047,1112914402311500,10.681951,-0.48195,0.804
1679932926049,1112914404813654,10.687051,-0.57105005,0.73005
1679932926051,1112914407315808,10.78695,-0.48405004,0.78000003
1679932926054,1112914409817962,10.6699505,-0.47205,0.72795004
1679932926059,1112914412320346,10.684051,-0.42195,0.61005
1679932926060,1112914414822274,10.57905,-0.321,0.69900006
1679932926062,1112914417324659,10.63605,-0.32595003,0.71295005
1679932926064,1112914419826890,10.5379505,-0.18495001,0.63900006
1679932926068,1112914422329029,10.564951,-0.216,0.58605003
1679932926070,1112914424831183,10.476001,-0.19500001,0.58605003
1679932926072,1112914427333337,10.488001,-0.123,0.46395
1679932926075,1112914429835491,10.464001,-0.11805001,0.63705003
1679932926077,1112914432337876,10.378051,0.034950003,0.43800002
1679932926079,1112914434840039,10.347,0.058950003,0.43605003
1679932926082,1112914437342192,10.33005,0.08595,0.45495003
1679932926086,1112914439844346,10.335,0.064050004,0.44505003
1679932926087,1112914442346577,10.234051,0.15300001,0.59400004
1679932926089,1112914444848640,10.213051,0.13395001,0.58905005
1679932926091,1112914447350871,10.299001,0.07095,0.591
1679932926094,1112914449853255,10.30395,0.124050006,0.61800003
1679932926098,1112914452355409,10.272,0.064050004,0.675
1679932926100,1112914454857539,10.372951,0.076050006,0.771
1679932926104,1112914457359693,10.371,-0.03195,0.80205005
1679932926106,1112914459861847,10.420951,-0.16095,0.74205005
1679932926108,1112914462363996,10.476001,-0.13005,0.81900007
1679932926110,1112914464866226,10.52595,-0.22995001,0.87600005
1679932926112,1112914467368380,10.545,-0.36195,0.84000003
1679932926114,1112914469870765,10.65795,-0.43395,0.98595005
1679932926117,1112914472372688,10.585951,-0.47505003,0.9670501
1679932926120,1112914474875063,10.701,-0.62295,0.95505005
1679932926122,1112914477377216,10.64805,-0.68805003,1.056
1679932926126,1112914479879370,10.668,-0.76005006,0.99105006
1679932926127,1112914482381601,10.64805,-0.79305005,1.0030501
1679932926130,1112914484883751,10.653001,-0.80805004,0.9480001
1679932926131,1112914487385905,10.651051,-0.80505,1.09905
1679932926134,1112914489888059,10.73505,-0.88905007,1.065
1679932926138,1112914492390443,10.773001,-0.97095007,1.113
1679932926139,1112914494892597,10.729951,-0.87195003,1.02705
1679932926143,1112914497394722,10.705951,-0.91095006,1.092
1679932926144,1112914499896876,10.750951,-0.87900007,1.06095
1679932926147,1112914502399030,10.773001,-0.78105,1.0699501
1679932926149,1112914504901260,10.75605,-0.75495005,1.05795
1679932926152,1112914507403414,10.809001,-0.73305005,0.98205006
1679932926154,1112914509905799,10.716001,-0.642,0.93795
1679932926157,1112914512407953,10.77795,-0.60195005,0.88605005
1679932926160,1112914514910088,10.717951,-0.537,0.87105006
1679932926162,1112914517412241,10.749001,-0.49605003,0.72495
1679932926164,1112914519914395,10.80405,-0.31395,0.78000003
1679932926167,1112914522416549,10.75395,-0.31905,0.75405
1679932926169,1112914524918780,10.644,-0.19500001,0.64605004
1679932926172,1112914527420943,10.681951,-0.10095,0.63405
1679932926175,1112914529923097,10.656,-0.07005,0.582
1679932926177,1112914532425250,10.677,-0.112950005,0.68505
1679932926181,1112914534927418,10.663051,0.0139500005,0.61305004
1679932926182,1112914537429572,10.63395,0.055050004,0.64605004
1679932926184,1112914539932034,10.533001,0.022950001,0.70605004
1679932926187,1112914542434188,10.512,0.069000006,0.66300005
1679932926192,1112914544936332,10.504951,0.022950001,0.70605004
1679932926193,1112914547438486,10.420951,-0.043950003,0.771
1679932926194,1112914549940640,10.428,-0.063,0.73305005
1679932926197,1112914552442794,10.47105,-0.012,0.77595
1679932926199,1112914554945179,10.48305,-0.003,0.85005003
1679932926203,1112914557447327,10.45695,-0.10095,0.89505005
1679932926205,1112914559949481,10.41405,-0.19005,0.80205005
1679932926208,1112914562451635,10.384951,-0.25005,0.924
1679932926210,1112914564953789,10.45695,-0.25395,0.9670501
1679932926212,1112914567456020,10.332001,-0.33600003,0.90705
1679932926214,1112914569958160,10.407001,-0.34995002,0.94605005
1679932926218,1112914572460544,10.342051,-0.432,0.94605005
1679932926221,1112914574962698,10.366051,-0.46800002,0.91695005
1679932926222,1112914577464852,10.38,-0.36495003,0.91200006
1679932926225,1112914579966996,10.27995,-0.44400004,0.85200006
1679932926227,1112914582469150,10.26,-0.43605003,0.87405
1679932926230,1112914584971303,10.31295,-0.60195005,0.86895007
1679932926232,1112914587473534,10.276951,-0.372,0.87105006
1679932926234,1112914589975688,10.335,-0.381,0.855
1679932926237,1112914592477876,10.225051,-0.42705002,0.768
1679932926239,1112914594980030,10.251,-0.384,0.83805007
1679932926242,1112914597482414,10.272,-0.39600003,0.84705
1679932926244,1112914599984568,10.234051,-0.36195,0.82605004
1679932926247,1112914602486712,10.255951,-0.36195,0.86700004
1679932926249,1112914604988943,10.252951,-0.33105,0.80205005
1679932926252,1112914607491097,10.189051,-0.31695002,0.75405
1679932926255,1112914609993251,10.18395,-0.24000001,0.79200006
1679932926259,1112914612495399,10.189051,-0.24000001,0.80700004
1679932926260,1112914614997553,10.203,-0.31905,0.68700004
1679932926262,1112914617499707,10.222051,-0.25395,0.85005003
1679932926264,1112914620002092,10.13595,-0.29295,0.90705
1679932926267,1112914622504246,10.288951,-0.22305001,0.75195
1679932926270,1112914625006409,10.284,-0.31695002,0.9670501
1679932926272,1112914627508640,10.33905,-0.28800002,0.924
1679932926275,1112914630010717,10.255951,-0.30495003,1.0009501
1679932926277,1112914632512948,10.272,-0.32595003,0.98205006
1679932926279,1112914635015333,10.408951,-0.27405003,1.077
1679932926282,1112914637517476,10.38,-0.37395,1.0510501
1679932926284,1112914640019630,10.42605,-0.58500004,1.0890001
1679932926288,1112914642521784,10.378051,-0.50295,1.176
1679932926290,1112914645023938,10.49505,-0.49905002,1.338
1679932926293,1112914647526107,10.510051,-0.573,1.2019501
1679932926295,1112914650028261,10.608001,-0.60195005,1.2070501
1679932926297,1112914652530491,10.656,-0.55605,1.2280501
1679932926299,1112914655032876,10.569,-0.61395,1.2070501
1679932926302,1112914657535030,10.66005,-0.62595004,1.176
1679932926305,1112914660036953,10.67205,-0.70695,1.19505
1679932926308,1112914662539338,10.675051,-0.70905006,1.1899501
1679932926310,1112914665041492,10.729951,-0.609,1.2349501
1679932926312,1112914667543722,10.720051,-0.62595004,1.353
1679932926315,1112914670045876,10.668,-0.64005005,1.34595
1679932926317,1112914672548054,10.663051,-0.58005005,1.38195
1679932926320,1112914675050208,10.687051,-0.56295,1.3240501
1679932926323,1112914677552362,10.62195,-0.64500004,1.2930001
1679932926325,1112914680054525,10.71105,-0.52695,1.338
1679932926328,1112914682556678,10.6699505,-0.597,1.28295
1679932926331,1112914685059140,10.65795,-0.633,1.176
1679932926333,1112914687561217,10.64805,-0.633,1.1400001
1679932926334,1112914690063448,10.50195,-0.52305,1.092
1679932926339,1112914692565626,10.52595,-0.56595004,1.10595
1679932926341,1112914695067779,10.528951,-0.64005005,1.1209501
1679932926344,1112914697569933,10.60995,-0.57495004,1.06095
1679932926346,1112914700072318,10.519051,-0.68295,0.984
1679932926348,1112914702574463,10.569,-0.50295,0.9289501
1679932926350,1112914705076617,10.58895,-0.53895,0.86205006
1679932926352,1112914707578770,10.651051,-0.62595004,0.96195006
1679932926355,1112914710080924,10.5720005,-0.63795,0.97200006
1679932926359,1112914712583068,10.67205,-0.60405004,0.915
1679932926361,1112914715085530,10.704,-0.65895003,0.96195006
1679932926364,1112914717587453,10.72305,-0.65400004,1.0200001
1679932926365,1112914720089837,10.825951,-0.76905006,0.90300006
1679932926369,1112914722592005,10.738951,-0.67800003,0.9889501
1679932926371,1112914725094159,10.729951,-0.68805003,0.95505005
1679932926373,1112914727596313,10.821,-0.717,0.924
1679932926375,1112914730098467,10.73505,-0.74295,0.915
1679932926378,1112914732600698,10.821,-0.81495005,0.9289501
1679932926380,1112914735102870,10.701,-0.83895004,1.0390501
1679932926382,1112914737605024,10.761001,-0.77400005,1.044
1679932926384,1112914740107178,10.687051,-0.94395006,1.077
1679932926389,1112914742609563,10.774951,-0.85605,1.161
1679932926393,1112914745111506,10.6699505,-0.79095006,1.1920501
1679932926395,1112914747613890,10.59105,-0.82695,1.269
1679932926396,1112914750116121,10.4740505,-0.78795004,1.2910501
1679932926398,1112914752618275,10.498051,-0.84405005,1.386
1679932926400,1112914755120429,10.44705,-0.75705004,1.386
1679932926402,1112914757622592,10.465951,-0.72405005,1.3600501
1679932926406,1112914760124746,10.387051,-0.76905006,1.3770001
1679932926409,1112914762626899,10.387051,-0.77895004,1.34595
1679932926410,1112914765129284,10.420951,-0.75000006,1.281
1679932926412,1112914767631438,10.29195,-0.73305005,1.2070501
1679932926414,1112914770133592,10.32495,-0.71895003,1.06095
1679932926418,1112914772635823,10.33905,-0.73305005,0.98595005
1679932926420,1112914775137899,10.372951,-0.72405005,0.94995004
1679932926422,1112914777640029,10.21695,-0.67395,0.80205005
1679932926426,1112914780142491,10.29195,-0.63495004,0.744
1679932926428,1112914782644414,10.33905,-0.70500004,0.76395005
1679932926430,1112914785146799,10.248,-0.66195005,0.63000005
1679932926432,1112914787648971,10.36305,-0.71205,0.58395004
1679932926436,1112914790151202,10.416,-0.597,0.51195
1679932926438,1112914792653356,10.35105,-0.642,0.47400004
1679932926441,1112914795155433,10.50195,-0.55605,0.41595003
1679932926443,1112914797657659,10.465951,-0.55095005,0.41205
1679932926445,1112914800159813,10.486051,-0.56295,0.282
1679932926448,1112914802661966,10.528951,-0.45105,0.321
1679932926450,1112914805164120,10.540951,-0.58005005,0.28005
1679932926452,1112914807666505,10.56,-0.48195,0.30900002
1679932926454,1112914810168673,10.557,-0.56805,0.18900001
1679932926458,1112914812670827,10.52595,-0.50505,0.333
1679932926460,1112914815172980,10.67205,-0.41205,0.26505002
1679932926462,1112914817675134,10.540951,-0.39600003,0.26805001
1679932926464,1112914820177365,10.62705,-0.39795002,0.42105
1679932926468,1112914822679519,10.557,-0.42405003,0.261
1679932926470,1112914825181904,10.512,-0.44400004,0.33
1679932926472,1112914827684057,10.498051,-0.48000002,0.24405001
1679932926474,1112914830186211,10.57695,-0.46500003,0.38805002
1679932926478,1112914832688370,10.48995,-0.35700002,0.40905002
1679932926481,1112914835190524,10.48095,-0.39795002,0.37995002
1679932926482,1112914837692755,10.540951,-0.36900002,0.50505
1679932926484,1112914840194909,10.531051,-0.45105,0.40005
1679932926488,1112914842697063,10.545,-0.45795003,0.52395004
1679932926490,1112914845199217,10.573951,-0.60405004,0.53400004
1679932926492,1112914847701371,10.464001,-0.61800003,0.61305004
1679932926495,1112914850203510,10.453951,-0.73800004,0.65295005
1679932926498,1112914852705664,10.428,-0.68295,0.83295006
1679932926500,1112914855208125,10.423051,-0.786,0.78000003
1679932926502,1112914857710279,10.435051,-0.75495005,0.9289501
1679932926504,1112914860212433,10.366051,-0.84105,0.90000004
1679932926508,1112914862714573,10.423051,-0.91800004,0.94995004
1679932926510,1112914865216727,10.46895,-0.81195,0.97395
1679932926512,1112914867718881,10.384951,-0.83895004,1.0890001
1679932926515,1112914870221265,10.43805,-0.83595,0.99600005
1679932926520,1112914872723438,10.4740505,-0.822,1.0200001
1679932926523,1112914875224515,10.5379505,-0.76005006,1.02705
1679932926523,1112914877725592,10.540951,-0.78105,1.0680001
1679932926526,1112914880229900,10.60095,-0.69495004,1.13505
1679932926528,1112914882732054,10.5379505,-0.59205,1.0390501
1679932926530,1112914885234284,10.584001,-0.71205,1.1590501
1679932926532,1112914887736669,10.668,-0.53205,1.1370001
1679932926534,1112914890238823,10.665001,-0.42405003,1.04595
1679932926538,1112914892740977,10.60095,-0.37695003,1.0129501
1679932926540,1112914895243131,10.61295,-0.333,1.10895
1679932926542,1112914897745308,10.573951,-0.38895002,1.0129501
1679932926544,1112914900247462,10.512,-0.17505,1.10595
1679932926548,1112914902749693,10.4740505,-0.15405001,1.1710501
1679932926550,1112914905251842,10.408951,-0.08400001,1.0200001
1679932926553,1112914907753996,10.36095,-0.135,1.0699501
1679932926556,1112914910256150,10.2960005,-0.0010500001,0.99405
1679932926559,1112914912758303,10.210051,-0.087000005,0.9889501
1679932926560,1112914915260669,10.12395,-0.058050003,1.1659501
1679932926562,1112914917762592,10.09305,-0.18495001,1.0699501
1679932926565,1112914920265054,10.05405,-0.079950005,1.1590501
1679932926569,1112914922767208,10.002001,-0.052950002,1.24995
1679932926570,1112914925269361,9.913051,-0.02205,1.38195
1679932926572,1112914927771515,9.9199505,-0.027,1.5829501
1679932926575,1112914930273669,9.85095,-0.09900001,1.6639501
1679932926578,1112914932775823,9.880051,-0.14205001,1.7500501
1679932926580,1112914935278208,9.93,-0.16800001,1.8730501
1679932926582,1112914937780337,9.86505,-0.087000005,1.9080001
1679932926586,1112914940282491,9.951,-0.19905001,1.9420501
1679932926588,1112914942784722,9.87495,-0.10395,1.9990501
1679932926591,1112914945286876,9.898951,-0.22800002,2.02605
1679932926593,1112914947788962,9.931951,-0.32595003,2.0670002
1679932926595,1112914950291423,10.011001,-0.252,1.9590001
1679932926598,1112914952793577,10.059,-0.23295002,2.09295
1679932926599,1112914955295731,10.062,-0.324,2.08305
1679932926602,1112914957797885,10.12905,-0.31695002,1.8750001
1679932926604,1112914960300039,10.011001,-0.33600003,2.01405
1679932926608,1112914962802193,10.09305,-0.41505003,1.8270001
1679932926610,1112914965304346,10.143001,-0.34305,1.76205
1679932926612,1112914967806577,10.014001,-0.50295,1.6669501
1679932926615,1112914970308712,10.014001,-0.42705002,1.6639501
1679932926618,1112914972811097,9.90795,-0.42705002,1.6210501
1679932926620,1112914975313020,9.86505,-0.45795003,1.56105
1679932926622,1112914977815174,9.870001,-0.50295,1.57095
1679932926625,1112914980317573,9.87705,-0.50295,1.67595
1679932926628,1112914982819804,9.786,-0.43395,1.5469501
1679932926631,1112914985321958,9.82005,-0.47700003,1.6350001
1679932926632,1112914987824112,9.892051,-0.46995002,1.51995
1679932926634,1112914990326275,9.954,-0.45105,1.4680501
1679932926638,1112914992828428,9.87705,-0.41505003,1.4130001
1679932926640,1112914995330582,9.98295,-0.37905002,1.3120501
1679932926642,1112914997832736,10.014001,-0.31695002,1.3120501
1679932926649,1112915000335121,10.083,-0.33600003,1.2930001
1679932926649,1112915002837362,10.12395,-0.28095,1.2040501
1679932926650,1112915005339438,10.207951,-0.25395,1.2280501
1679932926652,1112915007841669,10.227,-0.132,1.06095
1679932926655,1112915010343823,10.284,-0.19695,1.041
1679932926658,1112915012845890,10.21695,-0.12705001,0.9670501
1679932926660,1112915015348352,10.18395,-0.079950005,1.0030501
1679932926662,1112915017850505,10.234051,-0.04605,1.05795
1679932926665,1112915020352659,10.222051,0.022950001,1.0009501
1679932926670,1112915022854827,10.12905,0.045,0.9889501
1679932926671,1112915025356981,10.10505,0.105000004,1.008
1679932926673,1112915027859135,10.1310005,0.093,1.0890001
1679932926675,1112915030361366,10.239,0.18405001,1.09695
1679932926678,1112915032863529,10.2630005,0.19305001,1.14405
1679932926680,1112915035365683,10.344001,0.21705002,1.1400001
1679932926682,1112915037868068,10.395,0.20295002,1.1730001
1679932926685,1112915040370222,10.516951,0.15,1.29795
1679932926688,1112915042872362,10.531051,0.052050002,1.2570001
1679932926690,1112915045374516,10.584001,0.045,1.125
1679932926693,1112915047876746,10.581,-0.034050003,1.21905
1679932926695,1112915050378900,10.699051,-0.024,1.36695
1679932926698,1112915052881053,10.78995,-0.060000002,1.31895
1679932926700,1112915055383207,10.909051,-0.052950002,1.34595
1679932926704,1112915057885361,11.05095,-0.25005,1.3960501
1679932926709,1112915060387482,11.211,-0.19695,1.2910501
1679932926710,1112915062889866,11.191951,-0.18,1.4320501
1679932926711,1112915065392097,11.259001,-0.37395,1.4290501
1679932926712,1112915067894251,11.27595,-0.30195,1.44105
1679932926715,1112915070396328,11.35305,-0.3,1.40295
1679932926719,1112915072898558,11.32905,-0.30900002,1.4059501
1679932926721,1112915075400712,11.392951,-0.432,1.2019501
1679932926723,1112915077902866,11.41695,-0.29805002,1.14405
1679932926725,1112915080405251,11.35995,-0.44595003,1.12995
1679932926728,1112915082907405,11.26395,-0.35505003,1.1370001
1679932926730,1112915085409573,11.167951,-0.28095,1.09395
1679932926732,1112915087911726,11.247001,-0.24195,0.9670501
1679932926734,1112915090413880,11.175,-0.25005,1.0200001
1679932926742,1112915092916111,11.09895,-0.171,1.0699501
1679932926742,1112915095418265,10.902,-0.22995001,1.2
1679932926744,1112915097920419,10.902,-0.13905,1.269
1679932926745,1112915100422573,10.861951,-0.11805001,1.353
1679932926748,1112915102924957,10.75395,-0.14895001,1.3480501
1679932926750,1112915105427111,10.656,-0.21795002,1.3579501
1679932926752,1112915107929352,10.716001,-0.14400001,1.2709501
1679932926757,1112915110431506,10.762951,-0.17805001,1.31505
1679932926759,1112915112933660,10.76805,-0.22305001,1.25205
1679932926760,1112915115435818,10.88805,-0.19695,1.26405
1679932926762,1112915117937972,10.833,-0.27105,1.23105
1679932926766,1112915120440126,11.002951,-0.35295,1.2930001
1679932926768,1112915122942511,10.962001,-0.17505,1.125
1679932926775,1112915125444631,10.9480505,-0.31695002,1.2019501
1679932926775,1112915127946784,11.022,-0.147,1.1370001
1679932926777,1112915130448938,10.830001,-0.19695,1.02495
1679932926778,1112915132951092,10.76595,-0.15900001,1.0320001
1679932926781,1112915135453323,10.693951,-0.22305001,0.92700005
1679932926782,1112915137955726,10.548,-0.079950005,1.00995
1679932926784,1112915140457880,10.61505,-0.036000002,0.88605005
1679932926788,1112915142960034,10.540951,-0.072000004,0.86700004
1679932926790,1112915145462188,10.49295,-0.09900001,0.84705
1679932926792,1112915147964342,10.48095,-0.048,0.87405
1679932926795,1112915150466496,10.57905,-0.10095,0.86895007
1679932926798,1112915152968727,10.573951,-0.12705001,0.84000003
1679932926800,1112915155470880,10.64805,-0.096,0.91005003
1679932926804,1112915157972986,10.713,-0.132,0.97395
1679932926805,1112915160475140,10.62195,-0.14205001,1.197
1679932926808,1112915162977294,10.699051,-0.22995001,1.1590501
1679932926810,1112915165479448,10.704,-0.12495001,1.21605
1679932926815,1112915167981783,10.629001,-0.18,1.25205
1679932926816,1112915170483937,10.651051,-0.27105,1.42005
1679932926819,1112915172986168,10.548,-0.35505003,1.269
1679932926821,1112915175488322,10.573951,-0.393,1.0870501
1679932926822,1112915177990476,10.561951,-0.432,0.9289501
1679932926826,1112915180492596,10.585951,-0.54705,0.93105006
1679932926828,1112915182994749,10.516951,-0.58305,0.80205005
1679932926830,1112915185497134,10.533001,-0.61605,0.68700004
1679932926832,1112915187999288,10.45905,-0.64695,0.57900006
1679932926837,1112915190501414,10.56,-0.60195005,0.43605003
1679932926839,1112915193003568,10.61295,-0.74295,0.36105
1679932926841,1112915195505798,10.729951,-0.63000005,0.294
1679932926842,1112915198007952,10.809001,-0.59205,0.124050006
1679932926845,1112915200510029,10.88595,-0.52695,0.08805001
1679932926848,1112915203012486,10.93305,-0.58500004,-0.08205
1679932926850,1112915205514640,10.9140005,-0.43395,-0.039
1679932926852,1112915208016793,10.93305,-0.36195,-0.20295002
1679932926856,1112915210518947,10.950001,-0.30705002,-0.124050006
1679932926858,1112915213021115,10.864051,-0.25005,-0.31800002
1679932926860,1112915215523269,10.83495,-0.28995,-0.08205
1679932926862,1112915218025500,10.840051,-0.14400001,-0.079050004
1679932926865,1112915220527654,10.857,-0.05595,0.057000004
1679932926868,1112915223029817,10.849951,-0.08895,0.13905
1679932926870,1112915225532202,10.82295,-0.02205,0.20595
1679932926872,1112915228034125,10.76805,-0.00795,0.25605002
1679932926875,1112915230536510,10.854,0.010950001,0.49500003
1679932926879,1112915233038664,10.783051,-0.015000001,0.54105
1679932926880,1112915235540903,10.725,0.0139500005,0.61005
1679932926882,1112915238043057,10.651051,0.07395,0.75405
1679932926885,1112915240545211,10.61295,-0.012,0.83100003
1679932926888,1112915243047365,10.516951,-0.072000004,0.79005
1679932926891,1112915245549524,10.429951,-0.112950005,0.924
1679932926894,1112915248051678,10.435051,-0.09195001,0.90300006
1679932926895,1112915250554062,10.48305,-0.123,0.94605005
1679932926898,1112915253056216,10.272,-0.13905,0.87405
1679932926900,1112915255558452,10.3279505,-0.19905001,0.94095004
1679932926902,1112915258060529,10.15995,-0.17505,0.86895007
1679932926905,1112915260562760,10.086,-0.21105,1.0390501
1679932926908,1112915263064913,10.102051,-0.26205,0.96195006
1679932926910,1112915265567288,9.987,-0.26895002,1.0699501
1679932926913,1112915268069442,10.026,-0.24495001,1.06095
1679932926915,1112915270571596,9.97095,-0.29805002,1.21395
1679932926919,1112915273073764,10.023001,-0.252,1.2910501
1679932926921,1112915275575918,10.00695,-0.31905,1.2240001
1679932926923,1112915278078071,10.033051,-0.34305,1.3579501
1679932926925,1112915280580225,10.098001,-0.30900002,1.338
1679932926928,1112915283082687,10.156951,-0.33105,1.2930001
1679932926933,1112915285584634,10.240951,-0.35295,1.365
1679932926935,1112915288086788,10.21695,-0.30495003,1.33095
1679932926937,1112915290589172,10.36095,-0.26895002,1.3579501
1679932926939,1112915293091326,10.29195,-0.30705002,1.33095
1679932926941,1112915295593273,10.335,-0.252,1.3069501
1679932926943,1112915298095735,10.392,-0.312,1.3290001
1679932926945,1112915300597889,10.383,-0.26895002,1.2430501
1679932926948,1112915303100042,10.45905,-0.21105,1.2280501
1679932926950,1112915305602196,10.399051,-0.22800002,1.2550501
1679932926953,1112915308104355,10.46205,-0.28305,1.0890001
1679932926955,1112915310606509,10.407001,-0.22095,1.353
1679932926959,1112915313108894,10.47795,-0.20400001,1.29795
1679932926960,1112915315611048,10.46895,-0.192,1.2430501
1679932926962,1112915318113201,10.440001,-0.24000001,1.281
1679932926965,1112915320615432,10.46205,-0.16095,1.1880001
1679932926970,1112915323117586,10.46205,-0.16095,1.30005
1679932926972,1112915325619745,10.48095,-0.19905001,1.11105
1679932926973,1112915328121899,10.512,-0.21795002,1.0510501
1679932926976,1112915330624283,10.528951,-0.11100001,1.26195
1679932926979,1112915333126437,10.452001,-0.20895001,1.1659501
1679932926980,1112915335628591,10.555051,-0.15405001,1.2019501
1679932926983,1112915338130769,10.552951,-0.13695,1.1710501
1679932926985,1112915340632923,10.57905,-0.216,1.0320001
1679932926988,1112915343135077,10.656,-0.18705001,1.0489501
1679932926991,1112915345637307,10.584001,-0.20595,1.041
1679932926993,1112915348139730,10.651051,-0.15105,1.04595
1679932926995,1112915350641884,10.656,-0.132,0.89295006
1679932927000,1112915353143807,10.663051,-0.20400001,0.98205006
1679932927002,1112915355646192,10.713,-0.08895,0.9289501
1679932927003,1112915358148345,10.653001,-0.079950005,0.99105006
1679932927007,1112915360650528,10.651051,-0.10605001,0.9480001
1679932927010,1112915363152759,10.59105,-0.096,1.008
1679932927011,1112915365654913,10.61295,-0.108,0.97395
1679932927013,1112915368157067,10.569,-0.063,0.91695005
1679932927015,1112915370659456,10.552951,0.025950002,0.86700004
1679932927018,1112915373161379,10.5379505,0.031050002,0.96195006
1679932927020,1112915375663533,10.567051,-0.04095,0.98205006
1679932927023,1112915378165995,10.435051,0.0019500001,0.87900007
1679932927026,1112915380668144,10.359,-0.027,0.924
1679932927028,1112915383170298,10.395,-0.11805001,0.87405
1679932927030,1112915385672451,10.3279505,0.00405,0.86205006
1679932927033,1112915388174605,10.395,-0.09900001,0.98205006
1679932927035,1112915390676764,10.384951,-0.112950005,0.91005003
1679932927038,1112915393178918,10.308001,-0.12705001,0.96495
1679932927040,1112915395681303,10.2630005,-0.14205001,0.94305
1679932927043,1112915398183456,10.392,-0.108,1.0129501
1679932927045,1112915400685370,10.30605,-0.10095,0.92205006
1679932927048,1112915403187754,10.252951,-0.16800001,1.0849501
1679932927050,1112915405689985,10.29195,-0.17295001,0.97905004
1679932927053,1112915408192139,10.26,-0.16305001,1.0200001
1679932927055,1112915410694293,10.189051,-0.27600002,1.13205
1679932927059,1112915413196456,10.15305,-0.16605,1.1730001
1679932927061,1112915415698610,10.167001,-0.22995001,1.1520001
1679932927063,1112915418200995,10.15305,-0.30195,1.26195
1679932927065,1112915420703149,10.17195,-0.23295002,1.1920501
1679932927069,1112915423205303,10.1650505,-0.17805001,1.25205
1679932927071,1112915425707533,10.227,-0.22995001,1.161
1679932927072,1112915428209687,10.2630005,-0.18300001,1.1899501
1679932927075,1112915430711841,10.177051,-0.21105,1.24995
1679932927078,1112915433214000,10.19295,-0.21405001,1.3219501
1679932927081,1112915435716154,10.225051,-0.22800002,1.2400501
1679932927083,1112915438218538,10.332001,-0.24000001,1.2240001
1679932927085,1112915440720692,10.299001,-0.30900002,1.269
1679932927088,1112915443222836,10.323001,-0.25905,1.2430501
1679932927090,1112915445724990,10.383,-0.28305,1.06095
1679932927093,1112915448227221,10.396951,-0.216,1.164
1679932927095,1112915450729298,10.36305,-0.33105,1.0680001
1679932927102,1112915453231518,10.399051,-0.28095,1.09905
1679932927103,1112915455733903,10.384951,-0.32895002,1.09395
1679932927104,1112915458235826,10.43805,-0.24000001,1.0819501
1679932927105,1112915460738211,10.516951,-0.3,1.1400001
1679932927109,1112915463240389,10.543051,-0.36495003,1.1230501
1679932927110,1112915465742543,10.585951,-0.372,1.02705
1679932927113,1112915468244773,10.56,-0.38895002,1.149
1679932927115,1112915470746927,10.64595,-0.46305,1.12995
1679932927120,1112915473249048,10.668,-0.34500003,1.1400001
1679932927122,1112915475751202,10.644,-0.38595003,1.197
1679932927126,1112915478253356,10.725,-0.37905002,0.99405
1679932927127,1112915480755510,10.729951,-0.36900002,1.1560501
1679932927129,1112915483257894,10.74705,-0.34500003,1.0699501
1679932927130,1112915485760125,10.79895,-0.27600002,1.09695
1679932927133,1112915488262202,10.813951,-0.32595003,1.164
1679932927137,1112915490764433,10.78995,-0.32595003,1.08
1679932927139,1112915493266586,10.74705,-0.27405003,1.0699501
1679932927140,1112915495768740,10.687051,-0.264,0.94095004
1679932927143,1112915498270932,10.737,-0.22095,1.06095
1679932927145,1112915500773317,10.684051,-0.18495001,0.95295006
1679932927149,1112915503275471,10.732051,-0.14895001,1.0030501
1679932927150,1112915505777625,10.620001,-0.17505,0.90300006
1679932927154,1112915508279754,10.585951,-0.18705001,0.97695005
1679932927157,1112915510781908,10.629001,-0.147,0.85200006
1679932927159,1112915513284139,10.498051,-0.19695,0.90300006
1679932927161,1112915515786216,10.452001,-0.15405001,0.84495
1679932927163,1112915518288677,10.41405,-0.21795002,0.74895006
1679932927165,1112915520790812,10.335,-0.11805001,0.81195
1679932927169,1112915523292966,10.287001,-0.18495001,0.79995006
1679932927170,1112915525795120,10.251,-0.264,0.591
1679932927173,1112915528297274,10.12395,-0.33600003,0.675
1679932927175,1112915530799413,10.191001,-0.30195,0.75600004
1679932927178,1112915533301644,10.062,-0.38895002,0.73305005
1679932927180,1112915535803797,10.03995,-0.38595003,0.69405
1679932927183,1112915538305951,10.110001,-0.381,0.63000005
1679932927185,1112915540808336,10.1650505,-0.44400004,0.74700004
1679932927188,1112915543310495,10.155001,-0.40800002,0.70605004
1679932927190,1112915545812418,10.17405,-0.44595003,0.61995006
1679932927194,1112915548314879,10.231951,-0.45795003,0.71595
1679932927195,1112915550817033,10.1959505,-0.45795003,0.62700003
1679932927198,1112915553319192,10.10505,-0.58305,0.68505
1679932927200,1112915555821346,10.16895,-0.52305,0.62505
1679932927203,1112915558323500,10.248,-0.47505003,0.84000003
1679932927205,1112915560825654,10.30095,-0.45600003,0.81900007
1679932927208,1112915563327807,10.239,-0.49095002,0.91005003
1679932927210,1112915565830192,10.30095,-0.46305,0.95505005
1679932927213,1112915568332346,10.243951,-0.36,0.97695005
1679932927215,1112915570834577,10.311001,-0.39795002,1.00995
1679932927218,1112915573336659,10.43295,-0.38895002,0.91200006
1679932927220,1112915575838812,10.33005,-0.31695002,0.89295006
1679932927223,1112915578341043,10.395,-0.21795002,0.79695004
1679932927225,1112915580843428,10.44495,-0.22605,0.8880001
1679932927228,1112915583345553,10.408951,-0.22800002,0.87600005
1679932927231,1112915585847707,10.5070505,-0.15405001,0.95295006
1679932927233,1112915588349860,10.465951,-0.27600002,0.94995004
1679932927235,1112915590852014,10.423051,-0.20205002,0.89295006
1679932927238,1112915593354153,10.52595,-0.123,1.02705
1679932927241,1112915595856307,10.545,-0.17805001,0.984
1679932927243,1112915598358538,10.573951,-0.087000005,0.9580501
1679932927245,1112915600860922,10.564951,-0.264,1.1010001
1679932927248,1112915603362850,10.62705,-0.21795002,0.98205006
1679932927250,1112915605865235,10.68,-0.24495001,1.07295
1679932927253,1112915608367389,10.68,-0.264,1.0890001
1679932927255,1112915610869312,10.641001,-0.30195,0.97395
1679932927258,1112915613371774,10.61505,-0.30705002,0.88305
1679932927260,1112915615873908,10.63395,-0.17505,0.87600005
1679932927262,1112915618376062,10.584001,-0.25695002,0.83100003
1679932927265,1112915620878216,10.519051,-0.24705002,0.82395005
1679932927269,1112915623380346,10.47795,-0.16095,0.69405
1679932927278,1112915625882500,10.498051,-0.08400001,0.83295006
1679932927278,1112915628384884,10.48305,-0.16095,0.69405
1679932927281,1112915630887038,10.48305,-0.043950003,0.79695004
1679932927281,1112915633389192,10.44495,-0.04605,0.78300005
1679932927281,1112915635891394,10.45695,-0.063,0.75195
1679932927282,1112915638393548,10.46895,-0.027,0.76095
1679932927285,1112915640895702,10.42605,0.105000004,0.82395005
1679932927288,1112915643397855,10.40205,0.0019500001,0.9889501
1679932927290,1112915645900274,10.419001,-0.01995,0.82800007
1679932927292,1112915648402428,10.552951,0.025950002,0.92700005
1679932927295,1112915650904582,10.573951,-0.076950006,0.9889501
1679932927298,1112915653406736,10.61295,-0.11100001,0.9889501
1679932927300,1112915655908874,10.597951,-0.11100001,1.0200001
1679932927303,1112915658411105,10.5070505,-0.15900001,1.0320001
1679932927306,1112915660913259,10.531051,-0.31695002,1.212
1679932927309,1112915663415413,10.726951,-0.42000002,1.29495
1679932927311,1112915665917789,10.567051,-0.47205,1.2070501
1679932927314,1112915668419712,10.567051,-0.54195005,1.164
1679932927316,1112915670922096,10.552951,-0.67800003,1.21605
1679932927320,1112915673424250,10.56,-0.76500005,1.03695
1679932927321,1112915675926438,10.569,-0.83595,1.05795
1679932927323,1112915678428669,10.519051,-0.92295,0.92700005
1679932927325,1112915680930823,10.500001,-0.89895004,0.89505005
1679932927329,1112915683432976,10.476001,-0.92505,0.85005003
1679932927330,1112915685935130,10.404,-0.9799501,0.82800007
1679932927334,1112915688437294,10.335,-1.0210501,0.67305005
1679932927336,1112915690939448,10.416,-1.023,0.65595
1679932927342,1112915693441910,10.407001,-1.0350001,0.72495
1679932927343,1112915695944063,10.332001,-0.81195,0.69405
1679932927344,1112915698446154,10.45905,-0.87195003,0.61005
1679932927346,1112915700948385,10.371,-0.89100003,0.74895006
1679932927351,1112915703450539,10.356001,-0.72900003,0.65295005
1679932927352,1112915705952924,10.368,-0.71205,0.46905002
1679932927353,1112915708455077,10.38,-0.62595004,0.57000005
1679932927358,1112915710956982,10.441951,-0.324,0.71295005
1679932927360,1112915713459366,10.423051,-0.44400004,0.55095005
1679932927361,1112915715961520,10.428,-0.381,0.67995006
1679932927364,1112915718463674,10.396951,-0.35700002,0.67305005
1679932927366,1112915720965905,10.528951,-0.19695,0.52695
1679932927368,1112915723468044,10.44705,-0.08205,0.59805006
1679932927372,1112915725970197,10.62195,-0.04095,0.582
1679932927373,1112915728472582,10.581,0.055050004,0.57405
1679932927375,1112915730974505,10.62705,0.07095,0.56205004
1679932927378,1112915733476669,10.665001,-0.039,0.41595003
1679932927383,1112915735979130,10.65795,0.102000006,0.59805006
1679932927384,1112915738481284,10.641001,0.13395001,0.44505003
1679932927385,1112915740983438,10.641001,0.13605,0.36105
1679932927388,1112915743485602,10.64805,0.112050004,0.34005
1679932927391,1112915745987756,10.68,0.261,0.26805001
1679932927393,1112915748489910,10.64805,0.16005,0.35205
1679932927395,1112915750992064,10.569,0.18195,0.40695003
1679932927398,1112915753494462,10.6050005,0.15300001,0.53400004
1679932927400,1112915755996616,10.540951,-0.036000002,0.37995002
1679932927405,1112915758498847,10.555051,-0.00795,0.42405003
1679932927406,1112915761000924,10.573951,-0.072000004,0.44295
1679932927410,1112915763503107,10.596001,-0.052950002,0.591
1679932927410,1112915766005337,10.564951,-0.10395,0.54105
1679932927413,1112915768507722,10.651051,-0.039,0.483
1679932927415,1112915771009876,10.663051,-0.064950004,0.58395004
1679932927421,1112915773511991,10.64595,-0.132,0.531
1679932927422,1112915776014145,10.573951,-0.16095,0.51705
1679932927423,1112915778516298,10.67205,-0.076950006,0.60300004
1679932927426,1112915781018452,10.56,-0.09195001,0.55305004
1679932927428,1112915783520683,10.585951,-0.15105,0.57900006
1679932927432,1112915786022837,10.545,-0.10395,0.68700004
1679932927433,1112915788524991,10.608001,-0.079950005,0.83805007
1679932927435,1112915791027145,10.692,-0.11505,0.81195
1679932927438,1112915793529298,10.744051,-0.076950006,0.79005
1679932927440,1112915796031683,10.6699505,-0.17295001,0.82605004
1679932927443,1112915798533630,10.681951,-0.17295001,0.84000003
1679932927445,1112915801036092,10.737,-0.21105,0.924
1679932927448,1112915803538246,10.81095,-0.216,0.87600005
1679932927453,1112915806040399,10.80405,-0.28995,0.87105006
1679932927453,1112915808542548,10.89795,-0.40995002,0.89505005
1679932927457,1112915811044702,10.8810005,-0.51495004,0.95505005
1679932927459,1112915813546856,10.854,-0.573,0.78495
1679932927461,1112915816049317,10.795051,-0.62805,0.83100003
1679932927463,1112915818551394,10.902,-0.71205,0.80895007
1679932927465,1112915821053548,10.818001,-0.73305005,0.735
1679932927468,1112915823555779,10.762951,-0.74295,0.58905005
1679932927470,1112915826057856,10.813951,-0.82695,0.483
1679932927476,1112915828560068,10.833,-0.77400005,0.53895
1679932927477,1112915831062222,10.833,-0.79995006,0.40005
1679932927480,1112915833564606,10.75395,-0.78105,0.30405003
1679932927481,1112915836066760,10.818001,-0.82005006,0.21300001
1679932927483,1112915838568914,10.795051,-0.76005006,0.17895001
1679932927485,1112915841071063,10.76805,-0.786,0.22695
1679932927488,1112915843573217,10.783051,-0.70905006,0.201
1679932927491,1112915846075370,10.773001,-0.62100005,0.069000006
1679932927495,1112915848577601,10.705951,-0.606,0.055050004
1679932927496,1112915851079760,10.675051,-0.50100005,0.049950004
1679932927498,1112915853582145,10.597951,-0.52500004,0.021000002
1679932927501,1112915856084068,10.58895,-0.39105,-0.04095
1679932927503,1112915858586452,10.585951,-0.34800002,0.061950002
1679932927505,1112915861088606,10.548,-0.324,0.07395
1679932927509,1112915863590827,10.440001,-0.30900002,0.052050002
1679932927511,1112915866092981,10.47795,-0.312,0.109950006
1679932927513,1112915868595135,10.488001,-0.23505001,0.21495001
1679932927515,1112915871097289,10.48095,-0.30705002,0.294
1679932927520,1112915873599452,10.498051,-0.26595002,0.28905
1679932927522,1112915876101606,10.519051,-0.31695002,0.19605
1679932927524,1112915878603760,10.510051,-0.30900002,0.34005
1679932927526,1112915881106145,10.552951,-0.312,0.35700002
1679932927529,1112915883608318,10.59105,-0.38595003,0.342
1679932927532,1112915886110472,10.66005,-0.35700002,0.30105
1679932927533,1112915888612702,10.644,-0.49395,0.40395
1679932927535,1112915891114856,10.668,-0.40800002,0.45900002
1679932927538,1112915893617010,10.62195,-0.46995002,0.61005
1679932927541,1112915896119410,10.737,-0.52305,0.68205005
1679932927543,1112915898621563,10.699051,-0.609,0.63705003
1679932927545,1112915901123717,10.737,-0.62595004,0.72105
1679932927549,1112915903625871,10.708051,-0.52305,0.72105
1679932927550,1112915906128001,10.75905,-0.69705003,0.72795004
1679932927553,1112915908630155,10.644,-0.71400005,0.78000003
1679932927555,1112915911132309,10.761001,-0.67800003,0.73305005
1679932927560,1112915913634539,10.825951,-0.70695,0.71295005
1679932927562,1112915916136924,10.828051,-0.73095006,0.66105
1679932927563,1112915918639078,10.81095,-0.73305005,0.74895006
1679932927566,1112915921141232,10.825951,-0.70695,0.675
1679932927570,1112915923643386,10.857,-0.62805,0.57900006
1679932927572,1112915926145544,10.78695,-0.54705,0.71805006
1679932927573,1112915928647774,10.929001,-0.57795,0.68700004
1679932927575,1112915931149928,10.93095,-0.52005005,0.67995006
1679932927578,1112915933652082,10.878,-0.50505,0.74700004
1679932927582,1112915936154236,10.965,-0.47700003,0.67305005
1679932927583,1112915938656362,10.95705,-0.42405003,0.66105
1679932927586,1112915941158516,10.864051,-0.43905002,0.60105
1679932927588,1112915943660669,10.93095,-0.40005,0.51000005
1679932927591,1112915946163054,10.89795,-0.36495003,0.45705003
1679932927593,1112915948665285,10.878,-0.31905,0.46395
1679932927595,1112915951167395,10.869,-0.39600003,0.38505003
1679932927598,1112915953669626,10.66005,-0.30195,0.35895002
1679932927601,1112915956171779,10.656,-0.29505002,0.31305
1679932927603,1112915958673933,10.68,-0.28305,0.26805001
1679932927608,1112915961176333,10.6699505,-0.28605002,0.14295001
1679932927610,1112915963678487,10.528951,-0.264,0.141
1679932927614,1112915966180641,10.44705,-0.25695002,0.105000004
1679932927615,1112915968682794,10.36305,-0.20205002,0.069000006
1679932927617,1112915971184933,10.288951,-0.27405003,0.045
1679932927619,1112915973687087,10.264951,-0.18705001,0.08595
1679932927621,1112915976189549,10.2960005,-0.28605002,0.177
1679932927623,1112915978691702,10.215,-0.27405003,0.13905
1679932927626,1112915981193631,10.203,-0.312,0.16005
1679932927628,1112915983696015,10.31295,-0.23505001,0.08805001
1679932927630,1112915986198169,10.29195,-0.21795002,0.19800001
1679932927633,1112915988700323,10.30395,-0.12705001,0.12195001
1679932927636,1112915991202472,10.32495,-0.28305,0.11895001
1679932927638,1112915993704703,10.395,-0.23505001,0.21495001
1679932927642,1112915996206856,10.383,-0.19005,0.10005
1679932927644,1112915998709010,10.40205,-0.26895002,0.14805001
1679932927646,1112916001211207,10.441951,-0.13905,0.29205
1679932927649,1112916003713361,10.347,-0.171,0.27495003
1679932927650,1112916006215746,10.35105,-0.10605001,0.30405003
1679932927655,1112916008717899,10.44495,-0.19695,0.34005
1679932927658,1112916011220053,10.416,-0.135,0.43095002
1679932927660,1112916013722198,10.488001,-0.18495001,0.43305
1679932927662,1112916016224352,10.378051,-0.09195001,0.39000002
1679932927664,1112916018726583,10.441951,-0.15405001,0.31800002
1679932927666,1112916021228737,10.399051,-0.18705001,0.47895002
1679932927668,1112916023731130,10.504951,-0.12495001,0.29205
1679932927671,1112916026233284,10.423051,-0.19905001,0.49095002
1679932927674,1112916028735438,10.441951,-0.252,0.36795002
1679932927676,1112916031237592,10.549951,-0.22995001,0.36795002
1679932927678,1112916033739756,10.396951,-0.252,0.49305
1679932927683,1112916036241986,10.567051,-0.333,0.60795003
1679932927685,1112916038744140,10.540951,-0.31695002,0.60300004
1679932927686,1112916041246294,10.59105,-0.42195,0.61800003
1679932927689,1112916043748429,10.581,-0.384,0.642
1679932927691,1112916046250583,10.584001,-0.372,0.57195
1679932927694,1112916048752737,10.510051,-0.432,0.61800003
1679932927696,1112916051255121,10.519051,-0.54705,0.56205004
1679932927698,1112916053757342,10.557,-0.55905,0.56505
1679932927700,1112916056259419,10.62705,-0.49605003,0.52395004
1679932927703,1112916058761650,10.644,-0.40005,0.62505
1679932927706,1112916061263804,10.557,-0.46305,0.522
1679932927709,1112916063765967,10.653001,-0.37695003,0.64905006
1679932927711,1112916066268121,10.504951,-0.29295,0.558
1679932927713,1112916068770506,10.49505,-0.24495001,0.62505
1679932927715,1112916071272660,10.533001,-0.19695,0.56700003
1679932927720,1112916073774828,10.557,-0.112950005,0.735
1679932927722,1112916076276981,10.49505,-0.04605,0.53895
1679932927725,1112916078779135,10.46205,-0.06795,0.42405003
1679932927726,1112916081281289,10.48095,0.022950001,0.23400001
1679932927729,1112916083783760,10.354051,0.010950001,0.22995001
1679932927731,1112916086285683,10.31295,0.016050002,-0.048
1679932927733,1112916088788067,10.213051,0.093,-0.048
1679932927736,1112916091290221,10.12395,-0.060000002,-0.02205
1679932927739,1112916093792375,10.063951,0.10695001,0.031050002
1679932927742,1112916096294510,10.063951,0.079050004,0.097950004
1679932927743,1112916098796741,10.047001,0.12900001,0.10005
1679932927746,1112916101298895,10.063951,0.102000006,0.15795001
1679932927748,1112916103801048,10.030951,0.00705,0.34905002
1679932927751,1112916106303231,9.987,-0.039,0.36105
1679932927753,1112916108805385,9.954,-0.12495001,0.57705003
1679932927757,1112916111307539,9.943951,-0.18,0.67305005
1679932927759,1112916113809708,9.868051,-0.21405001,0.66495
1679932927761,1112916116312093,9.802951,-0.25005,0.771
1679932927763,1112916118814323,9.83895,-0.36495003,0.79200006
1679932927766,1112916121316477,9.83205,-0.47700003,0.768
1679932927769,1112916123818631,9.814951,-0.42705002,0.94605005
1679932927771,1112916126320775,9.754951,-0.61095005,0.91200006
1679932927773,1112916128822929,9.954,-0.609,0.78300005
1679932927776,1112916131325313,9.922951,-0.72405005,0.83805007
1679932927778,1112916133827467,9.97095,-0.606,0.88095003
1679932927782,1112916136329616,10.17405,-0.66195005,0.82800007
1679932927784,1112916138831770,10.179001,-0.69000006,0.81600004
1679932927787,1112916141334001,10.272,-0.726,0.87105006
1679932927789,1112916143836078,10.320001,-0.72105,0.615
1679932927792,1112916146338308,10.332001,-0.69705003,0.70395005
1679932927794,1112916148840693,10.416,-0.64005005,0.75900006
1679932927796,1112916151342847,10.384951,-0.55395,0.55305004
1679932927798,1112916153845001,10.567051,-0.52695,0.53895
1679932927801,1112916156347155,10.561951,-0.48000002,0.462
1679932927803,1112916158849308,10.62705,-0.39105,0.46695003
1679932927806,1112916161351462,10.644,-0.42195,0.49500003
1679932927809,1112916163853693,10.63605,-0.32895002,0.45195
1679932927811,1112916166355847,10.653001,-0.26895002,0.45705003
1679932927813,1112916168858001,10.71105,-0.30900002,0.46395
1679932927815,1112916171360155,10.75395,-0.20400001,0.45195
1679932927819,1112916173862308,10.80195,-0.11100001,0.43605003
1679932927821,1112916176364693,10.870951,-0.20595,0.37095
1679932927823,1112916178866924,10.861951,-0.147,0.36405003
1679932927826,1112916181369001,10.870951,-0.09195001,0.47400004
1679932927830,1112916183871232,10.88595,-0.036000002,0.32295
1679932927832,1112916186373385,10.878,0.040050004,0.26505002
1679932927834,1112916188875529,10.83495,0.045,0.30600002
1679932927836,1112916191377683,10.869,-0.05595,0.342
1679932927838,1112916193879837,10.785001,0.0019500001,0.40905002
1679932927841,1112916196382222,10.809001,0.03795,0.29895002
1679932927843,1112916198884375,10.91205,0.009000001,0.36105
1679932927846,1112916201386539,10.797001,0.016050002,0.34905002
1679932927848,1112916203888693,10.761001,0.043050002,0.24195
1679932927850,1112916206390924,10.651051,-0.027,0.201
1679932927853,1112916208893001,10.629001,0.07095,0.29205
1679932927855,1112916211395462,10.61505,0.069000006,0.20805001
1679932927859,1112916213897626,10.552951,0.01905,0.16695
1679932927860,1112916216399780,10.555051,0.06705,0.18900001
1679932927863,1112916218901934,10.552951,-0.072000004,0.15105
1679932927865,1112916221404088,10.40205,-0.14400001,0.093
1679932927870,1112916223906246,10.34895,-0.11100001,0.13905
1679932927871,1112916226408399,10.399051,-0.14400001,0.186
1679932927873,1112916228910630,10.320001,-0.13005,0.165
1679932927875,1112916231412784,10.378051,-0.10605001,0.177
1679932927878,1112916233914924,10.36305,-0.22800002,0.15300001
1679932927881,1112916236417309,10.275001,-0.23805001,0.17205001
1679932927883,1112916238919232,10.41405,-0.23295002,0.15795001
1679932927886,1112916241421616,10.392,-0.33600003,0.08805001
1679932927889,1112916243923852,10.34895,-0.36495003,0.18900001
1679932927892,1112916246426006,10.332001,-0.36900002,0.26505002
1679932927893,1112916248928160,10.408951,-0.47700003,0.17895001
1679932927899,1112916251430314,10.465951,-0.549,0.15795001
1679932927899,1112916253932467,10.452001,-0.48405004,0.117000006
1679932927901,1112916256434621,10.40205,-0.49095002,0.14295001
1679932927903,1112916258937006,10.32495,-0.51000005,0.07095
1679932927907,1112916261439179,10.420951,-0.40995002,0.076050006
1679932927909,1112916263941410,10.46205,-0.46500003,0.093
1679932927911,1112916266443486,10.567051,-0.47205,0.040050004
1679932927913,1112916268945640,10.543051,-0.35295,0.097950004
1679932927916,1112916271447871,10.62705,-0.38895002,0.10695001
1679932927919,1112916273950020,10.543051,-0.29295,0.094950005
1679932927921,1112916276452405,10.696051,-0.17805001,0.12195001
1679932927926,1112916278954558,10.73505,-0.23505001,0.11505
1679932927926,1112916281456712,10.807051,-0.096,0.012
1679932927929,1112916283958842,10.79895,-0.13005,0.061950002
1679932927931,1112916286460996,10.821,0.00705,0.033
1679932927934,1112916288963150,10.81095,0.016050002,0.13605
1679932927936,1112916291465381,10.89,0.016050002,0.109950006
1679932927939,1112916293967775,10.876051,0.028050002,0.06705
1679932927941,1112916296469698,10.8810005,0.04695,0.13605
1679932927944,1112916298972083,10.893001,0.043050002,0.036000002
1679932927946,1112916301474237,10.864051,0.016050002,0.08595
1679932927949,1112916303976410,10.809001,0.055050004,-0.06705
1679932927951,1112916306478564,10.846951,-0.09195001,0.033
1679932927953,1112916308980794,10.750951,-0.12495001,0.00705
1679932927956,1112916311482948,10.744051,-0.08895,0.03795
1679932927959,1112916313985102,10.720051,-0.079950005,0.00705
1679932927961,1112916316487265,10.693951,-0.08205,0.00705
1679932927963,1112916318989649,10.61295,-0.08895,-0.039
1679932927968,1112916321491803,10.61295,-0.16800001,0.064050004
1679932927969,1112916323993957,10.573951,-0.21105,0.040050004
1679932927973,1112916326496111,10.510051,-0.17805001,0.093
1679932927975,1112916328998265,10.419001,-0.21405001,0.18405001
1679932927976,1112916331500419,10.45905,-0.17805001,0.093
1679932927979,1112916334002880,10.44705,-0.20895001,0.15105
1679932927984,1112916336505005,10.44495,-0.18495001,0.23895001
1679932927985,1112916339006928,10.411051,-0.25695002,0.23400001
1679932927986,1112916341509313,10.40205,-0.20205002,0.23700002
1679932927989,1112916344011467,10.387051,-0.18495001,0.15495001
1679932927993,1112916346513621,10.465951,-0.14895001,0.273
1679932927994,1112916349015750,10.423051,-0.17505,0.22500001
1679932927996,1112916351517981,10.408951,-0.25005,0.16005
1679932927999,1112916354020135,10.46205,-0.13005,0.27705002
1679932928002,1112916356522289,10.45905,-0.12495001,0.342
1679932928004,1112916359024438,10.465951,-0.079950005,0.20595
1679932928006,1112916361526592,10.564951,-0.03195,0.38805002
1679932928009,1112916364028976,10.584001,-0.051000003,0.12195001
1679932928011,1112916366531130,10.524,-0.06795,0.27
1679932928015,1112916369033352,10.573951,-0.060000002,0.16305001
1679932928016,1112916371535506,10.62705,0.00705,0.21795002
1679932928020,1112916374037660,10.72305,0.055050004,0.16305001
1679932928022,1112916376539813,10.668,-0.0010500001,0.17895001
1679932928023,1112916379041967,10.59105,0.126,0.12705001
1679932928026,1112916381544342,10.729951,0.055050004,0.22500001
1679932928029,1112916384046496,10.68,0.064050004,0.08805001
1679932928033,1112916386548650,10.729951,0.124050006,0.117000006
1679932928034,1112916389050803,10.732051,0.069000006,-0.012
1679932928036,1112916391552948,10.67205,0.12900001,0.06705
1679932928039,1112916394055179,10.675051,0.11895001,0.12900001
1679932928042,1112916396557256,10.641001,0.22200002,0.025950002
1679932928044,1112916399059717,10.632001,0.15495001,0.141
1679932928046,1112916401561875,10.668,0.17400001,0.012
1679932928049,1112916404064029,10.584001,0.22005,0.049950004
1679932928051,1112916406566183,10.5379505,0.18405001,0.10005
1679932928053,1112916409068337,10.584001,0.26505002,0.20805001
1679932928057,1112916411570482,10.524,0.094950005,0.23400001
1679932928060,1112916414072713,10.531051,0.17205001,0.18900001
1679932928061,1112916416574866,10.51395,0.07395,0.09105001
1679932928063,1112916419077020,10.486051,0.11400001,0.109950006
1679932928066,1112916421579405,10.46205,0.13800001,0.16695
1679932928069,1112916424081318,10.49505,0.076050006,0.19800001
1679932928071,1112916426583472,10.49505,0.064050004,0.20805001
1679932928075,1112916429085856,10.429951,0.009000001,0.17895001
1679932928076,1112916431588087,10.423051,0.00405,0.18900001
1679932928078,1112916434090251,10.44495,-0.043950003,0.30600002
1679932928082,1112916436592405,10.429951,-0.10605001,0.13905
1679932928084,1112916439094559,10.49295,-0.034050003,0.15795001
1679932928086,1112916441596713,10.45005,0.022950001,0.22005
1679932928088,1112916444098856,10.464001,-0.060000002,0.24405001
1679932928091,1112916446601241,10.452001,-0.08400001,0.26295
1679932928094,1112916449103395,10.584001,-0.052950002,0.21495001
1679932928096,1112916451605626,10.63605,-0.120000005,0.32295
1679932928098,1112916454107703,10.677,-0.13695,0.24900001
1679932928101,1112916456609933,10.693951,-0.10605001,0.20595
1679932928103,1112916459112087,10.67205,-0.08895,0.27495003
1679932928106,1112916461614241,10.689,-0.18,0.24195
1679932928109,1112916464116626,10.744051,-0.26205,0.34905002
1679932928111,1112916466618770,10.813951,-0.10095,0.26805001
1679932928113,1112916469120923,10.76805,-0.15900001,0.22500001
1679932928116,1112916471623077,10.840051,-0.13695,0.294
1679932928119,1112916474125231,10.83495,-0.16605,0.124050006
1679932928121,1112916476627361,10.906951,-0.20595,0.18195
1679932928123,1112916479129823,10.90005,-0.16605,0.23205002
1679932928126,1112916481631746,10.864051,-0.12705001,0.124050006
1679932928129,1112916484133899,10.906951,-0.22605,0.19800001
1679932928132,1112916486636284,10.869,-0.16800001,0.11895001
1679932928134,1112916489138438,10.797001,-0.09900001,0.040050004
1679932928136,1112916491640592,10.849951,-0.027,0.069000006
1679932928138,1112916494142823,10.861951,-0.010050001,0.12705001
1679932928142,1112916496644976,10.840051,-0.10095,0.024
1679932928143,1112916499147140,10.902,-0.024,-0.04605
1679932928146,1112916501649294,10.849951,0.045,-0.01695
1679932928148,1112916504151448,10.74705,-0.06795,-0.10095
1679932928151,1112916506653602,10.807051,0.025950002,0.024
1679932928154,1112916509155986,10.774951,0.076050006,-0.07005
1679932928156,1112916511658154,10.878,0.069000006,-0.14505
1679932928158,1112916514160385,10.813951,0.093,-0.12195001
1679932928161,1112916516662539,10.74705,0.17205001,-0.15
1679932928163,1112916519164693,10.729951,0.093,-0.14505
1679932928166,1112916521666895,10.90005,0.022950001,-0.17895001
1679932928170,1112916524169048,10.77795,0.043050002,-0.13095
1679932928171,1112916526671433,10.761001,0.14595,-0.055050004
1679932928173,1112916529173587,10.79205,-0.043950003,-0.13800001
1679932928176,1112916531675746,10.813951,-0.027,-0.063
1679932928179,1112916534177900,10.785001,0.112050004,-0.165
1679932928181,1112916536680054,10.750951,0.016050002,-0.094050005
1679932928183,1112916539182207,10.774951,0.0019500001,-0.13605
1679932928188,1112916541684366,10.75605,0.049950004,-0.12900001
1679932928190,1112916544186828,10.744051,0.0139500005,-0.079050004
1679932928192,1112916546688982,10.725,-0.075,-0.07005
1679932928194,1112916549191135,10.732051,-0.003,-0.13605
1679932928196,1112916551693294,10.74705,0.009000001,-0.01695
1679932928200,1112916554195448,10.72305,0.061950002,-0.15495001
1679932928201,1112916556697602,10.72305,-0.05595,-0.124050006
1679932928203,1112916559199833,10.67205,0.009000001,-0.048
1679932928209,1112916561701967,10.78995,0.033,-0.079050004
1679932928211,1112916564204121,10.681951,-0.00795,-0.10095
1679932928212,1112916566706505,10.732051,-0.028950002,-0.087000005
1679932928214,1112916569208428,10.684051,0.08805001,-0.075
1679932928216,1112916571710813,10.687051,0.11400001,-0.031050002
1679932928219,1112916574213040,10.732051,0.165,-0.08205
1679932928221,1112916576715117,10.681951,0.11400001,-0.04095
1679932928223,1112916579217347,10.687051,0.117000006,-0.14505
1679932928226,1112916581719501,10.665001,0.009000001,-0.15300001
1679932928229,1112916584221655,10.738951,-0.05595,-0.01695
1679932928233,1112916586723804,10.73505,0.07095,-0.034050003
1679932928235,1112916589225958,10.684051,0.021000002,-0.052950002
1679932928237,1112916591728342,10.65795,-0.04095,-0.039
1679932928239,1112916594230496,10.729951,0.069000006,-0.063
1679932928241,1112916596732659,10.689,0.049950004,0.049950004
1679932928247,1112916599234813,10.675051,-0.06795,-0.010050001
1679932928248,1112916601737044,10.762951,0.016050002,0.097950004
1679932928250,1112916604239174,10.704,0.022950001,0.01905
1679932928252,1112916606741327,10.77795,-0.043950003,0.0019500001
1679932928253,1112916609243712,10.668,-0.108,0.025950002
1679932928256,1112916611745866,10.708051,-0.087000005,0.0019500001
1679932928259,1112916614248020,10.737,0.043050002,0.105000004
1679932928261,1112916616750160,10.75605,-0.07005,0.052050002
1679932928265,1112916619252390,10.74195,0.033,0.17400001
1679932928266,1112916621754544,10.807051,-0.01995,0.016050002
1679932928269,1112916624256708,10.72305,0.021000002,-0.075
1679932928271,1112916626758862,10.870951,-0.135,0.105000004
1679932928274,1112916629261016,10.813951,0.016050002,-0.072000004
1679932928276,1112916631763170,10.878,-0.01995,-0.00795
1679932928278,1112916634265554,10.813951,0.11400001,0.036000002
1679932928282,1112916636767713,10.773001,-0.01995,0.055050004
1679932928284,1112916639269867,10.74195,0.009000001,-0.031050002
1679932928286,1112916641772021,10.750951,-0.051000003,-0.060000002
1679932928289,1112916644274175,10.773001,0.079050004,-0.055050004
1679932928291,1112916646776342,10.693951,0.028050002,-0.04605
1679932928294,1112916649278804,10.716001,0.19605,-0.10305001
1679932928296,1112916651780958,10.68,0.031050002,-0.072000004
1679932928299,1112916654283112,10.561951,0.07395,-0.015000001
1679932928301,1112916656785285,10.6050005,0.124050006,-0.010050001
1679932928304,1112916659287438,10.50195,0.043050002,-0.075
1679932928306,1112916661789592,10.528951,0.031050002,0.0019500001
1679932928309,1112916664291746,10.543051,-0.052950002,0.028050002
1679932928312,1112916666793977,10.48995,0.11400001,-0.027
1679932928314,1112916669296112,10.488001,0.010950001,0.036000002
1679932928316,1112916671798496,10.429951,0.043050002,0.024
1679932928321,1112916674300419,10.453951,0.022950001,0.036000002
1679932928323,1112916676802794,10.392,0.016050002,0.048
1679932928325,1112916679304948,10.347,-0.01995,-0.079050004
1679932928327,1112916681807179,10.29405,0.034950003,-0.072000004
1679932928329,1112916684309333,10.264951,0.022950001,-0.051000003
1679932928331,1112916686811486,10.26,0.045,0.06705
1679932928335,1112916689313606,10.29195,0.117000006,0.031050002
1679932928337,1112916691815760,10.29195,0.052050002,0.033
1679932928339,1112916694317914,10.335,0.13395001,0.061950002
1679932928342,1112916696820299,10.387051,0.03795,0.031050002
1679932928344,1112916699322452,10.429951,0.08805001,0.012
1679932928346,1112916701824606,10.440001,0.079050004,0.13905
1679932928350,1112916704326760,10.512,0.076050006,0.27495003
1679932928351,1112916706828991,10.557,0.022950001,0.261
1679932928354,1112916709331145,10.6050005,0.069000006,0.33495003
1679932928360,1112916711833304,10.569,0.097950004,0.29205
1679932928361,1112916714335688,10.57905,-0.012,0.41595003
1679932928362,1112916716837842,10.62405,-0.027,0.48600003
1679932928364,1112916719339996,10.653001,0.028050002,0.50295
1679932928366,1112916721842136,10.5720005,-0.060000002,0.51705
1679932928369,1112916724344290,10.687051,-0.076950006,0.47895002
1679932928373,1112916726846444,10.699051,-0.08205,0.39000002
1679932928374,1112916729348905,10.57695,-0.123,0.56205004
1679932928377,1112916731850847,10.61505,-0.048,0.46395
1679932928379,1112916734353001,10.552951,-0.028950002,0.37995002
1679932928381,1112916736855386,10.531051,-0.096,0.42105
1679932928384,1112916739357539,10.512,-0.01995,0.39495003
1679932928386,1112916741859693,10.46205,0.076050006,0.41400003
1679932928389,1112916744361861,10.45005,0.0019500001,0.26805001
1679932928392,1112916746864092,10.392,0.022950001,0.36795002
1679932928395,1112916749366246,10.383,0.102000006,0.35895002
1679932928397,1112916751868400,10.344001,0.14295001,0.23700002
1679932928399,1112916754370548,10.368,0.15,0.28005
1679932928402,1112916756872702,10.255951,0.15,0.14295001
1679932928404,1112916759374856,10.332001,0.052050002,0.19800001
1679932928406,1112916761877241,10.284,0.23400001,0.31800002
1679932928409,1112916764379453,10.31805,0.16005,0.26805001
1679932928412,1112916766881606,10.342051,0.17205001,0.31800002
1679932928414,1112916769383683,10.452001,0.16005,0.26505002
1679932928416,1112916771885914,10.428,0.11400001,0.34005
1679932928419,1112916774388073,10.404,0.022950001,0.22200002
1679932928422,1112916776890227,10.399051,0.12195001,0.41205
1679932928424,1112916779392611,10.408951,0.022950001,0.39495003
1679932928427,1112916781894765,10.5379505,0.109950006,0.35700002
1679932928429,1112916784396933,10.510051,0.00705,0.333
1679932928433,1112916786899164,10.49505,0.0019500001,0.30405003
1679932928434,1112916789401241,10.644,-0.043950003,0.28695002
1679932928437,1112916791903395,10.60095,-0.05595,0.39495003
1679932928439,1112916794405847,10.629001,-0.01995,0.28500003
1679932928442,1112916796907770,10.80195,-0.08205,0.42600003
1679932928444,1112916799410155,10.701,-0.07005,0.27705002
1679932928447,1112916801912309,10.749001,-0.063,0.39495003
1679932928449,1112916804414472,10.75905,-0.015000001,0.32295
1679932928452,1112916806916626,10.64805,-0.0010500001,0.32505003
1679932928454,1112916809418856,10.744051,-0.060000002,0.24195
1679932928457,1112916811921010,10.729951,0.028050002,0.16695
1679932928460,1112916814423188,10.701,0.033,0.13605
1679932928461,1112916816925342,10.72305,-0.0010500001,0.18195
1679932928464,1112916819427496,10.63605,0.07095,0.19605
1679932928467,1112916821929880,10.717951,-0.052950002,0.08295
1679932928470,1112916824432029,10.632001,-0.03195,0.036000002
1679932928472,1112916826934183,10.701,0.025950002,0.09105001
1679932928474,1112916829436414,10.675051,-0.0010500001,-0.0049500004
1679932928477,1112916831938568,10.629001,0.028050002,-0.079050004
1679932928479,1112916834440722,10.569,-0.024,-0.14805001
1679932928482,1112916836942890,10.5070505,0.045,-0.13305001
1679932928484,1112916839445044,10.392,0.016050002,-0.09105001
1679932928486,1112916841947429,10.435051,-0.01695,-0.18105
1679932928489,1112916844449583,10.354051,-0.14205001,-0.076950006
1679932928492,1112916846951756,10.411051,0.009000001,-0.15495001
1679932928494,1112916849453909,10.356001,-0.034050003,-0.15495001
1679932928496,1112916851956140,10.31295,0.079050004,-0.16905001
1679932928499,1112916854458294,10.420951,-0.024,-0.072000004
1679932928501,1112916856960477,10.41405,0.07095,-0.060000002
1679932928504,1112916859462862,10.516951,0.124050006,0.0019500001
1679932928509,1112916861965015,10.44705,0.08595,0.033
1679932928510,1112916864467169,10.548,-0.079950005,0.031050002
1679932928512,1112916866969307,10.63395,-0.063,0.064050004
1679932928514,1112916869471461,10.60995,-0.094050005,0.25800002
1679932928516,1112916871973615,10.656,-0.04095,0.28695002
1679932928519,1112916874475846,10.762951,-0.16800001,0.282
1679932928526,1112916876977999,10.821,-0.15405001,0.16995001
1679932928526,1112916879480148,10.82295,-0.132,0.34005
1679932928526,1112916881982533,10.909051,-0.24495001,0.462
1679932928529,1112916884484456,10.93095,-0.20595,0.45705003
1679932928531,1112916886986841,10.96695,-0.26895002,0.46395
1679932928534,1112916889489081,11.058001,-0.321,0.49500003
1679932928536,1112916891991235,11.005051,-0.35505003,0.40395
1679932928539,1112916894493389,11.041051,-0.20205002,0.47100002
1679932928542,1112916896995543,11.11305,-0.27405003,0.23700002
1679932928545,1112916899497711,11.125051,-0.22995001,0.29700002
1679932928547,1112916901999865,11.034,-0.15405001,0.30900002
1679932928550,1112916904502018,11.053051,-0.31695002,0.20295002
1679932928551,1112916907004403,11.07705,-0.17295001,0.20805001
1679932928554,1112916909506557,10.974001,-0.16095,0.21795002
1679932928556,1112916912008692,10.866,-0.09900001,0.048
