system_ts_ms, sensor_ts_ns, gyrX, gyrY, gyrZ
1679932923519,1112911872597650,-0.0284625,-0.0033,-0.0248875
1679932923521,1112911875099808,-0.0284625,-4.125E-4,-0.02695
1679932923522,1112911877601961,-0.030524999,-0.0053625,-0.029975
1679932923524,1112911880104346,-0.0314875,-0.006325,-0.0339625
1679932923527,1112911882606500,-0.0364375,-0.0053625,-0.0358875
1679932923530,1112911885108654,-0.0385,-0.0033,-0.0389125
1679932923539,1112911887610808,-0.041525,-0.006325,-0.039875
1679932923539,1112911890112962,-0.0424875,-0.006325,-0.039875
1679932923539,1112911892615115,-0.046475,-0.0053625,-0.040975
1679932923539,1112911895117577,-0.046475,-0.006325,-0.040975
1679932923541,1112911897619731,-0.0474375,-0.0072875,-0.0389125
1679932923544,1112911900121654,-0.0495,-0.006325,-0.039875
1679932923547,1112911902624038,-0.04455,-0.0053625,-0.039875
1679932923550,1112911905126192,-0.04455,-0.0033,-0.03795
1679932923553,1112911907628346,-0.0455125,-0.0053625,-0.034925
1679932923554,1112911910130500,-0.04455,-0.006325,-0.033
1679932923558,1112911912632731,-0.046475,-0.0053625,-0.029975
1679932923559,1112911915134885,-0.0495,-0.006325,-0.028875
1679932923561,1112911917637039,-0.0485375,-0.0072875,-0.029975
1679932923564,1112911920139212,-0.052525,-0.00935,-0.0279125
1679932923568,1112911922641366,-0.0495,-0.0053625,-0.02695
1679932923570,1112911925143520,-0.0504625,-0.0083875,-0.023924999
1679932923573,1112911927645905,-0.0495,-0.0083875,-0.023924999
1679932923575,1112911930148059,-0.0485375,-0.0103124995,-0.02695
1679932923579,1112911932650289,-0.0534875,-0.0114124995,-0.023924999
1679932923580,1112911935152443,-0.054449998,-0.0114124995,-0.022
1679932923585,1112911937654520,-0.0534875,-0.0083875,-0.0209
1679932923585,1112911940156751,-0.0534875,-0.0072875,-0.0199375
1679932923588,1112911942659148,-0.0565125,-0.0083875,-0.0209
1679932923591,1112911945161302,-0.0565125,-0.0033,-0.018975
1679932923592,1112911947663456,-0.057475,6.875E-4,-0.01595
1679932923595,1112911950165610,-0.05555,0.00165,-0.0149875
1679932923598,1112911952667750,-0.05555,0.0026125,-0.012925
1679932923602,1112911955169904,-0.054449998,0.0077,-0.0149875
1679932923602,1112911957672058,-0.05555,0.01265,-0.0149875
1679932923604,1112911960174288,-0.057475,0.0166375,-0.012925
1679932923608,1112911962676451,-0.0565125,0.0176,-0.01595
1679932923610,1112911965178836,-0.0565125,0.0246125,-0.012925
1679932923612,1112911967680759,-0.054449998,0.0286,-0.012925
1679932923614,1112911970183144,-0.054449998,0.0246125,-0.0119624995
1679932923619,1112911972685273,-0.0534875,0.0276375,-0.0099
1679932923619,1112911975187427,-0.0534875,0.026675,-0.0089375
1679932923622,1112911977689658,-0.0534875,0.0297,-0.0099
1679932923625,1112911980191812,-0.052525,0.0297,-0.0089375
1679932923629,1112911982693947,-0.0474375,0.026675,-0.006875
1679932923631,1112911985196101,-0.043449998,0.0226875,-0.006875
1679932923635,1112911987698254,-0.04455,0.020624999,-0.0059125
1679932923635,1112911990200408,-0.0455125,0.0196625,-0.0028875
1679932923638,1112911992702793,-0.0455125,0.0187,-0.0028875
1679932923640,1112911995204932,-0.0455125,0.0196625,-9.625E-4
1679932923642,1112911997707086,-0.0455125,0.020624999,0.0020625
1679932923645,1112912000209239,-0.0424875,0.0215875,0.0011
1679932923648,1112912002711470,-0.040425,0.02365,0.0011
1679932923653,1112912005213547,-0.040425,0.0215875,0.004125
1679932923653,1112912007716009,-0.035475,0.0215875,0.0050875
1679932923655,1112912010218163,-0.0375375,0.020624999,0.0081124995
1679932923658,1112912012720316,-0.032449998,0.02365,0.0100375
1679932923660,1112912015222461,-0.035475,0.02365,0.0100375
1679932923662,1112912017724615,-0.032449998,0.0226875,0.0070125
1679932923671,1112912020226769,-0.03355,0.020624999,0.0081124995
1679932923672,1112912022728923,-0.030524999,0.031625,0.0070125
1679932923672,1112912025231144,-0.0314875,0.0286,0.0070125
1679932923673,1112912027733297,-0.032449998,0.0286,0.0050875
1679932923675,1112912030235451,-0.030524999,0.031625,0.0020625
1679932923679,1112912032737605,-0.0284625,0.0367125,0.0011
1679932923680,1112912035239788,-0.029424999,0.0356125,0.0020625
1679932923682,1112912037741942,-0.0265375,0.0325875,-9.625E-4
1679932923686,1112912040244403,-0.0284625,0.0356125,-9.625E-4
1679932923688,1112912042746480,-0.0314875,0.0407,-9.625E-4
1679932923689,1112912045248711,-0.0314875,0.042625,-0.0028875
1679932923693,1112912047750865,-0.029424999,0.0407,-0.006875
1679932923695,1112912050253019,-0.029424999,0.0407,-0.0089375
1679932923699,1112912052755173,-0.029424999,0.0446875,-0.0089375
1679932923700,1112912055257557,-0.029424999,0.0466125,-0.011
1679932923704,1112912057759672,-0.030524999,0.0506,-0.0099
1679932923705,1112912060261826,-0.0284625,0.0496375,-0.0099
1679932923709,1112912062763980,-0.0265375,0.0477125,-0.007975
1679932923709,1112912065266211,-0.032449998,0.0466125,-0.0149875
1679932923712,1112912067768364,-0.029424999,0.0435875,-0.012925
1679932923714,1112912070270518,-0.032449998,0.042625,-0.012925
1679932923720,1112912072772672,-0.0314875,0.042625,-0.0149875
1679932923721,1112912075275057,-0.0314875,0.0386375,-0.011
1679932923722,1112912077776980,-0.032449998,0.037675,-0.0119624995
1679932923725,1112912080279163,-0.0314875,0.0306625,-0.0099
1679932923728,1112912082781624,-0.0364375,0.0286,-0.0119624995
1679932923730,1112912085283701,-0.032449998,0.02365,-0.012925
1679932923732,1112912087785932,-0.0275,0.0196625,-0.012925
1679932923736,1112912090288091,-0.0275,0.0166375,-0.01595
1679932923738,1112912092790245,-0.032449998,0.01265,-0.012925
1679932923741,1112912095292399,-0.032449998,0.009625,-0.007975
1679932923742,1112912097794783,-0.032449998,0.0056375,-0.007975
1679932923745,1112912100296956,-0.032449998,0.0026125,-0.011
1679932923748,1112912102799110,-0.03355,6.875E-4,-0.006875
1679932923755,1112912105301264,-0.035475,6.875E-4,-0.00495
1679932923756,1112912107803418,-0.0314875,-0.0033,-0.0059125
1679932923757,1112912110305571,-0.0284625,-0.0044,-0.00495
1679932923759,1112912112807793,-0.0284625,-4.125E-4,-0.0059125
1679932923761,1112912115309947,-0.032449998,-4.125E-4,-0.007975
1679932923762,1112912117812101,-0.030524999,-0.0023375,-0.0089375
1679932923769,1112912120314490,-0.0275,-0.0023375,-0.0099
1679932923769,1112912122816643,-0.0275,-0.001375,-0.006875
1679932923770,1112912125318797,-0.0254375,-0.0044,-0.007975
1679932923772,1112912127820951,-0.02255,-0.001375,-0.0119624995
1679932923775,1112912130323182,-0.02145,-0.001375,-0.011
1679932923780,1112912132825341,-0.02145,6.875E-4,-0.0119624995
1679932923781,1112912135327495,-0.0235125,0.004675,-0.0149875
1679932923786,1112912137829648,-0.024475,0.0026125,-0.0169125
1679932923787,1112912140331802,-0.0254375,0.004675,-0.017875
1679932923788,1112912142833956,-0.0235125,0.0105875,-0.0169125
1679932923790,1112912145336129,-0.0204875,0.015675,-0.017875
1679932923793,1112912147838514,-0.0254375,0.01265,-0.0199375
1679932923795,1112912150340744,-0.0235125,0.009625,-0.018975
1679932923798,1112912152842821,-0.019524999,0.0066,-0.0209
1679932923803,1112912155344975,-0.0204875,0.0066,-0.0209
1679932923804,1112912157847206,-0.0235125,0.0026125,-0.022
1679932923805,1112912160349360,-0.0235125,-0.001375,-0.0209
1679932923808,1112912162851744,-0.024475,-0.001375,-0.0209
1679932923810,1112912165353898,-0.024475,6.875E-4,-0.0199375
1679932923812,1112912167856052,-0.0254375,-0.001375,-0.022
1679932923819,1112912170358206,-0.030524999,-0.0044,-0.0279125
1679932923819,1112912172860360,-0.0295625,-0.0083875,-0.028875
1679932923820,1112912175362519,-0.03355,-0.0103124995,-0.0358875
1679932923823,1112912177864749,-0.03355,-0.0044,-0.03795
1679932923825,1112912180366903,-0.0385,-0.0083875,-0.0358875
1679932923828,1112912182869057,-0.0405625,-0.0143,-0.0339625
1679932923830,1112912185371202,-0.0394625,-0.0143,-0.03795
1679932923835,1112912187873587,-0.0424875,-0.0163625,-0.039875
1679932923836,1112912190375740,-0.0455125,-0.0163625,-0.0389125
1679932923839,1112912192877894,-0.0455125,-0.0193875,-0.0369875
1679932923840,1112912195380125,-0.0455125,-0.02035,-0.0369875
1679932923842,1112912197882274,-0.0474375,-0.0224125,-0.0339625
1679932923845,1112912200384428,-0.046475,-0.017324999,-0.028875
1679932923848,1112912202886582,-0.0474375,-0.0154,-0.028875
1679932923852,1112912205388735,-0.046475,-0.0154,-0.023924999
1679932923854,1112912207890879,-0.0534875,-0.0083875,-0.0199375
1679932923855,1112912210393264,-0.0614625,-4.125E-4,-0.0209
1679932923858,1112912212895418,-0.0614625,0.0056375,-0.022
1679932923860,1112912215397572,-0.0644875,0.004675,-0.023924999
1679932923862,1112912217899726,-0.06545,0.004675,-0.028875
1679932923865,1112912220401894,-0.06545,0.0037125,-0.03795
1679932923870,1112912222904048,-0.063525,0.0037125,-0.045925
1679932923871,1112912225406279,-0.06545,-0.001375,-0.0529375
1679932923873,1112912227908664,-0.06545,-0.0044,-0.055
1679932923875,1112912230410845,-0.0705375,-0.0023375,-0.056925
1679932923878,1112912232912999,-0.0724625,-0.0044,-0.0589875
1679932923880,1112912235415153,-0.0705375,-0.0033,-0.0589875
1679932923885,1112912237917307,-0.0694375,-0.0033,-0.0539
1679932923886,1112912240419461,-0.0705375,-0.017324999,-0.0539
1679932923889,1112912242921692,-0.0694375,-0.0383625,-0.0529375
1679932923892,1112912245423846,-0.0705375,-0.0622875,-0.051975
1679932923893,1112912247925999,-0.0694375,-0.0704,-0.0499125
1679932923895,1112912250428153,-0.06655,-0.0763125,-0.0529375
1679932923898,1112912252930293,-0.0724625,-0.0853875,-0.0589875
1679932923904,1112912255432447,-0.0724625,-0.0884125,-0.062975
1679932923905,1112912257934832,-0.0715,-0.0842875,-0.0699875
1679932923905,1112912260436985,-0.0754875,-0.0793375,-0.073975
1679932923908,1112912262939235,-0.0785125,-0.0763125,-0.0829125
1679932923910,1112912265441389,-0.079475,-0.0683375,-0.088
1679932923912,1112912267943466,-0.0834625,-0.06435,-0.086899996
1679932923915,1112912270445697,-0.0895125,-0.0664125,-0.089925
1679932923919,1112912272947851,-0.0935,-0.06435,-0.0908875
1679932923920,1112912275450235,-0.0955625,-0.0543125,-0.0919875
1679932923922,1112912277952389,-0.0944625,-0.0463375,-0.094875
1679932923925,1112912280454543,-0.0955625,-0.0353375,-0.0939125
1679932923929,1112912282956716,-0.0974875,-0.028324999,-0.0939125
1679932923931,1112912285458870,-0.0974875,-0.02035,-0.0939125
1679932923933,1112912287961023,-0.096525,-0.0154,-0.09295
1679932923935,1112912290463254,-0.096525,-0.012375,-0.0939125
1679932923938,1112912292965655,-0.091437496,-0.0103124995,-0.095975
1679932923941,1112912295467578,-0.090475,-0.0083875,-0.09295
1679932923942,1112912297969732,-0.0925375,-0.001375,-0.0889625
1679932923945,1112912300472116,-0.0935,0.0026125,-0.0889625
1679932923948,1112912302974274,-0.0935,-4.125E-4,-0.0889625
1679932923950,1112912305476197,-0.0935,-0.001375,-0.086899996
1679932923952,1112912307978659,-0.0935,0.0026125,-0.0889625
1679932923955,1112912310480813,-0.091437496,0.0056375,-0.0889625
1679932923959,1112912312982948,-0.0935,0.009625,-0.0889625
1679932923960,1112912315485101,-0.0944625,0.01265,-0.0889625
1679932923963,1112912317987255,-0.0974875,0.0166375,-0.086899996
1679932923967,1112912320489409,-0.09845,0.0187,-0.088
1679932923969,1112912322991794,-0.0955625,0.020624999,-0.0889625
1679932923970,1112912325493948,-0.0974875,0.0226875,-0.088
1679932923973,1112912327996101,-0.0944625,0.0276375,-0.086899996
1679932923975,1112912330498255,-0.0944625,0.0246125,-0.088
1679932923978,1112912333000496,-0.096525,0.0196625,-0.0889625
1679932923980,1112912335502573,-0.0974875,0.0187,-0.0919875
1679932923982,1112912338004804,-0.0944625,0.0116875,-0.089925
1679932923985,1112912340507188,-0.0955625,0.004675,-0.0889625
1679932923988,1112912343009342,-0.0974875,-0.0023375,-0.088
1679932923990,1112912345511486,-0.0974875,-0.0103124995,-0.086899996
1679932923993,1112912348013640,-0.09845,-0.0224125,-0.086899996
1679932923995,1112912350515794,-0.09845,-0.03135,-0.084975
1679932923999,1112912353017948,-0.0974875,-0.0374,-0.0809875
1679932924000,1112912355520168,-0.09955,-0.045375,-0.0749375
1679932924004,1112912358022322,-0.09845,-0.0493625,-0.0749375
1679932924005,1112912360524476,-0.0955625,-0.0573375,-0.0719125
1679932924008,1112912363026630,-0.0955625,-0.0653125,-0.0669625
1679932924010,1112912365529025,-0.0935,-0.0763125,-0.064899996
1679932924013,1112912368031179,-0.0955625,-0.0823625,-0.0589875
1679932924015,1112912370533332,-0.0935,-0.083325,-0.055
1679932924018,1112912373035486,-0.090475,-0.0924,-0.051975
1679932924020,1112912375537640,-0.0925375,-0.0952875,-0.04895
1679932924023,1112912378039799,-0.0935,-0.09735,-0.0449625
1679932924025,1112912380542030,-0.08855,-0.0983125,-0.0449625
1679932924029,1112912383044184,-0.085525,-0.0994125,-0.0429
1679932924030,1112912385546327,-0.0864875,-0.1043625,-0.039875
1679932924032,1112912388048712,-0.0815375,-0.1013375,-0.0389125
1679932924035,1112912390550866,-0.0804375,-0.1023,-0.0369875
1679932924038,1112912393053020,-0.079475,-0.1034,-0.034925
1679932924041,1112912395555184,-0.07755,-0.100375,-0.033
1679932924042,1112912398057414,-0.0705375,-0.0952875,-0.0319
1679932924045,1112912400559568,-0.0705375,-0.0924,-0.033
1679932924048,1112912403061722,-0.063525,-0.0873125,-0.0339625
1679932924052,1112912405563876,-0.06545,-0.0814,-0.034925
1679932924053,1112912408066034,-0.06655,-0.0763125,-0.034925
1679932924055,1112912410568188,-0.06655,-0.069299996,-0.0369875
1679932924058,1112912413070572,-0.0625625,-0.06435,-0.03795
1679932924060,1112912415572726,-0.0625625,-0.0573375,-0.039875
1679932924063,1112912418074880,-0.0614625,-0.050325,-0.040975
1679932924065,1112912420577034,-0.0614625,-0.0463375,-0.0429
1679932924069,1112912423079188,-0.0605,-0.0433125,-0.044
1679932924070,1112912425581418,-0.0565125,-0.045375,-0.0479875
1679932924074,1112912428083534,-0.052525,-0.04235,-0.0479875
1679932924075,1112912430585919,-0.052525,-0.045375,-0.0479875
1679932924080,1112912433088073,-0.057475,-0.050325,-0.04895
1679932924082,1112912435590227,-0.0584375,-0.0523875,-0.0499125
1679932924083,1112912438092380,-0.0614625,-0.0512875,-0.050875
1679932924085,1112912440594529,-0.0614625,-0.0523875,-0.0499125
1679932924089,1112912443096683,-0.0614625,-0.0603625,-0.0479875
1679932924091,1112912445598914,-0.0595375,-0.061325,-0.04895
1679932924093,1112912448101068,-0.057475,-0.0622875,-0.0499125
1679932924095,1112912450603198,-0.0595375,-0.061325,-0.04895
1679932924099,1112912453105351,-0.0584375,-0.0633875,-0.0499125
1679932924100,1112912455607736,-0.057475,-0.0622875,-0.0479875
1679932924102,1112912458109890,-0.0565125,-0.06435,-0.04895
1679932924105,1112912460612054,-0.057475,-0.0664125,-0.04895
1679932924109,1112912463114285,-0.057475,-0.0683375,-0.044
1679932924110,1112912465616438,-0.0584375,-0.0664125,-0.0429
1679932924113,1112912468118592,-0.0595375,-0.0683375,-0.0449625
1679932924117,1112912470620726,-0.057475,-0.0713625,-0.0449625
1679932924120,1112912473122880,-0.05555,-0.07535,-0.0419375
1679932924122,1112912475625034,-0.054449998,-0.0774125,-0.0419375
1679932924125,1112912478127418,-0.0534875,-0.0774125,-0.03795
1679932924126,1112912480629572,-0.052525,-0.0814,-0.0358875
1679932924129,1112912483131726,-0.046475,-0.0814,-0.033
1679932924131,1112912485633880,-0.0474375,-0.0793375,-0.0339625
1679932924133,1112912488136034,-0.0504625,-0.0823625,-0.0339625
1679932924135,1112912490638188,-0.0534875,-0.0814,-0.0319
1679932924138,1112912493140669,-0.0504625,-0.0774125,-0.0339625
1679932924142,1112912495642823,-0.0474375,-0.0743875,-0.033
1679932924145,1112912498144977,-0.0504625,-0.0743875,-0.034925
1679932924145,1112912500647131,-0.054449998,-0.0743875,-0.034925
1679932924148,1112912503149294,-0.0495,-0.072325,-0.0389125
1679932924150,1112912505651448,-0.0485375,-0.0704,-0.039875
1679932924154,1112912508153601,-0.0485375,-0.0683375,-0.0389125
1679932924155,1112912510655832,-0.0474375,-0.069299996,-0.0389125
1679932924159,1112912513158001,-0.0474375,-0.067375,-0.040975
1679932924160,1112912515660155,-0.052525,-0.0683375,-0.040975
1679932924162,1112912518162309,-0.0534875,-0.0704,-0.0419375
1679932924165,1112912520664463,-0.052525,-0.0704,-0.0429
1679932924169,1112912523166847,-0.0504625,-0.0743875,-0.0449625
1679932924170,1112912525669001,-0.0534875,-0.0803,-0.0419375
1679932924173,1112912528171155,-0.0504625,-0.0853875,-0.0389125
1679932924175,1112912530673386,-0.0485375,-0.0853875,-0.040975
1679932924179,1112912533175544,-0.0455125,-0.0853875,-0.044
1679932924180,1112912535677697,-0.0455125,-0.08635,-0.044
1679932924183,1112912538179851,-0.043449998,-0.091299996,-0.045925
1679932924186,1112912540682005,-0.0474375,-0.0963875,-0.044
1679932924192,1112912543184362,-0.052525,-0.09735,-0.0449625
1679932924192,1112912545686516,-0.0504625,-0.1043625,-0.0479875
1679932924193,1112912548188669,-0.0495,-0.1093125,-0.0479875
1679932924195,1112912550690823,-0.0534875,-0.113299996,-0.045925
1679932924198,1112912553192977,-0.05555,-0.1172875,-0.0479875
1679932924200,1112912555695135,-0.0534875,-0.11935,-0.0479875
1679932924203,1112912558197366,-0.0534875,-0.1243,-0.045925
1679932924205,1112912560699750,-0.0495,-0.1293875,-0.051975
1679932924209,1112912563201904,-0.0485375,-0.1324125,-0.0479875
1679932924210,1112912565703842,-0.0534875,-0.1324125,-0.04895
1679932924213,1112912568206227,-0.0565125,-0.1364,-0.045925
1679932924215,1112912570708381,-0.057475,-0.138325,-0.0449625
1679932924219,1112912573210612,-0.05555,-0.1364,-0.045925
1679932924221,1112912575712755,-0.054449998,-0.1403875,-0.045925
1679932924223,1112912578214909,-0.05555,-0.14533749,-0.044
1679932924225,1112912580717063,-0.0534875,-0.14533749,-0.0449625
1679932924230,1112912583219217,-0.052525,-0.149325,-0.0429
1679932924231,1112912585721366,-0.05555,-0.15235,-0.045925
1679932924233,1112912588223520,-0.0565125,-0.1533125,-0.0449625
1679932924237,1112912590725904,-0.05555,-0.15235,-0.0429
1679932924239,1112912593228058,-0.05555,-0.1483625,-0.0429
1679932924241,1112912595730212,-0.0584375,-0.1463,-0.0449625
1679932924242,1112912598232381,-0.0625625,-0.1423125,-0.0449625
1679932924246,1112912600734612,-0.0644875,-0.1364,-0.0449625
1679932924249,1112912603236689,-0.0694375,-0.1343375,-0.0499125
1679932924250,1112912605739150,-0.063525,-0.1282875,-0.050875
1679932924254,1112912608241289,-0.0644875,-0.1243,-0.051975
1679932924256,1112912610743443,-0.063525,-0.1203125,-0.0529375
1679932924259,1112912613245597,-0.0625625,-0.1153625,-0.050875
1679932924260,1112912615747750,-0.0625625,-0.1093125,-0.050875
1679932924263,1112912618249904,-0.0605,-0.1043625,-0.0499125
1679932924267,1112912620752058,-0.0625625,-0.100375,-0.0539
1679932924269,1112912623254289,-0.06655,-0.0933625,-0.0539
1679932924271,1112912625756443,-0.06655,-0.091299996,-0.0529375
1679932924276,1112912628258597,-0.06655,-0.0873125,-0.0539
1679932924277,1112912630760751,-0.0715,-0.0853875,-0.0539
1679932924279,1112912633262879,-0.069575,-0.0823625,-0.0539
1679932924280,1112912635765264,-0.0715,-0.0823625,-0.0559625
1679932924283,1112912638267495,-0.068475,-0.0814,-0.055
1679932924286,1112912640769572,-0.069575,-0.0774125,-0.056925
1679932924289,1112912643271812,-0.0705375,-0.0774125,-0.056925
1679932924292,1112912645773966,-0.0735625,-0.0793375,-0.0529375
1679932924293,1112912648276120,-0.0754875,-0.0763125,-0.055
1679932924295,1112912650778274,-0.07645,-0.072325,-0.0559625
1679932924298,1112912653280663,-0.079475,-0.072325,-0.056925
1679932924300,1112912655782816,-0.079475,-0.07535,-0.055
1679932924304,1112912658284970,-0.080575,-0.0763125,-0.0539
1679932924305,1112912660787124,-0.07755,-0.0803,-0.051975
1679932924309,1112912663289288,-0.07755,-0.0803,-0.055
1679932924310,1112912665791519,-0.079475,-0.0823625,-0.0559625
1679932924313,1112912668293673,-0.080575,-0.0873125,-0.050875
1679932924316,1112912670795827,-0.0834625,-0.0924,-0.051975
1679932924321,1112912673297980,-0.08745,-0.0903375,-0.051975
1679932924322,1112912675800134,-0.08855,-0.094325,-0.04895
1679932924323,1112912678302288,-0.090475,-0.094325,-0.0479875
1679932924326,1112912680804750,-0.0925375,-0.09735,-0.045925
1679932924329,1112912683306827,-0.08855,-0.095425,-0.0449625
1679932924330,1112912685808985,-0.085525,-0.09735,-0.040975
1679932924333,1112912688311216,-0.08745,-0.0994125,-0.039875
1679932924335,1112912690813370,-0.0925375,-0.0983125,-0.0369875
1679932924339,1112912693315524,-0.0925375,-0.1013375,-0.0319
1679932924342,1112912695817909,-0.0955625,-0.1043625,-0.0319
1679932924343,1112912698320062,-0.0925375,-0.111375,-0.0319
1679932924346,1112912700822216,-0.0935,-0.113299996,-0.028875
1679932924349,1112912703324370,-0.0944625,-0.111375,-0.0279125
1679932924350,1112912705826524,-0.0925375,-0.1123375,-0.0279125
1679932924354,1112912708328668,-0.091575,-0.1144,-0.028875
1679932924356,1112912710830822,-0.090475,-0.113299996,-0.0248875
1679932924358,1112912713333052,-0.0925375,-0.1123375,-0.0248875
1679932924361,1112912715835206,-0.0935,-0.1104125,-0.02695
1679932924363,1112912718337591,-0.0925375,-0.111375,-0.0259875
1679932924366,1112912720839755,-0.0955625,-0.111375,-0.02695
1679932924369,1112912723341909,-0.0955625,-0.1093125,-0.02695
1679932924372,1112912725844062,-0.0944625,-0.105325,-0.0279125
1679932924375,1112912728346293,-0.0944625,-0.1023,-0.0279125
1679932924375,1112912730848442,-0.096525,-0.1043625,-0.02695
1679932924381,1112912733350596,-0.09845,-0.1073875,-0.0248875
1679932924381,1112912735852750,-0.102575,-0.10835,-0.0248875
1679932924383,1112912738354904,-0.1065625,-0.113299996,-0.023924999
1679932924386,1112912740857042,-0.107525,-0.117425,-0.0229625
1679932924389,1112912743359196,-0.10945,-0.1183875,-0.0248875
1679932924390,1112912745861581,-0.1115125,-0.116325,-0.0199375
1679932924393,1112912748363812,-0.113575,-0.1144,-0.0209
1679932924396,1112912750865889,-0.11055,-0.1093125,-0.023924999
1679932924399,1112912753368047,-0.1115125,-0.1104125,-0.023924999
1679932924400,1112912755870278,-0.1145375,-0.1104125,-0.0209
1679932924402,1112912758372432,-0.1164625,-0.1123375,-0.0209
1679932924406,1112912760874817,-0.1155,-0.1153625,-0.018975
1679932924409,1112912763376957,-0.1164625,-0.1153625,-0.0199375
1679932924410,1112912765879110,-0.1155,-0.1123375,-0.017875
1679932924414,1112912768381264,-0.118525,-0.111375,-0.0149875
1679932924417,1112912770883418,-0.113575,-0.1104125,-0.0119624995
1679932924419,1112912773385581,-0.1115125,-0.1144,-0.0089375
1679932924421,1112912775887812,-0.113575,-0.1144,-0.0039875
1679932924424,1112912778389966,-0.1145375,-0.1123375,-0.0039875
1679932924426,1112912780892119,-0.1115125,-0.1144,-0.001925
1679932924428,1112912783394292,-0.113575,-0.1093125,0.0
1679932924433,1112912785896677,-0.11055,-0.1104125,0.0011
1679932924433,1112912788398600,-0.1084875,-0.105325,0.003025
1679932924436,1112912790900754,-0.11055,-0.1034,0.004125
1679932924438,1112912793403230,-0.1115125,-0.100375,0.003025
1679932924440,1112912795905384,-0.1145375,-0.09735,0.003025
1679932924443,1112912798407538,-0.11055,-0.0903375,0.0
1679932924445,1112912800909692,-0.1145375,-0.0853875,0.0011
1679932924449,1112912803411855,-0.1164625,-0.083325,0.0020625
1679932924450,1112912805914009,-0.1164625,-0.078375,-0.001925
1679932924454,1112912808416393,-0.12045,-0.0664125,0.0011
1679932924455,1112912810918547,-0.1194875,-0.0633875,-0.0028875
1679932924458,1112912813420692,-0.1194875,-0.062425,-0.00495
1679932924460,1112912815922846,-0.118525,-0.0603625,-0.0059125
1679932924463,1112912818425000,-0.12045,-0.0573375,-0.0059125
1679932924465,1112912820927154,-0.1194875,-0.0573375,-0.00495
1679932924469,1112912823429384,-0.1194875,-0.0583,-0.00495
1679932924470,1112912825931769,-0.1145375,-0.0583,-0.0059125
1679932924474,1112912828433692,-0.1155,-0.062425,-0.0039875
1679932924475,1112912830936077,-0.1164625,-0.061325,-0.0059125
1679932924478,1112912833438231,-0.12155,-0.067375,-0.006875
1679932924480,1112912835940379,-0.1265,-0.0763125,-0.0099
1679932924483,1112912838442533,-0.13145,-0.0803,-0.011
1679932924485,1112912840944764,-0.13255,-0.083325,-0.011
1679932924488,1112912843446918,-0.13653749,-0.084425,-0.0119624995
1679932924491,1112912845949020,-0.140525,-0.0853875,-0.012925
1679932924493,1112912848451174,-0.14355,-0.091299996,-0.012925
1679932924496,1112912850953327,-0.145475,-0.0924,-0.0099
1679932924498,1112912853455481,-0.146575,-0.100375,-0.0089375
1679932924500,1112912855957635,-0.1475375,-0.1093125,-0.0089375
1679932924503,1112912858460006,-0.151525,-0.116325,-0.006875
1679932924505,1112912860962160,-0.1485,-0.1254,-0.0059125
1679932924509,1112912863464390,-0.1555125,-0.133375,-0.001925
1679932924512,1112912865966467,-0.157575,-0.138325,0.0011
1679932924513,1112912868468698,-0.1595,-0.14135,0.003025
1679932924515,1112912870970871,-0.1615625,-0.14739999,0.0070125
1679932924520,1112912873473256,-0.1615625,-0.1533125,0.009075
1679932924522,1112912875975409,-0.162525,-0.160325,0.0100375
1679932924524,1112912878477572,-0.16555,-0.1683,0.014025
1679932924525,1112912880979726,-0.168575,-0.16733749,0.01705
1679932924530,1112912883481880,-0.162525,-0.16733749,0.020075
1679932924531,1112912885984034,-0.1634875,-0.1683,0.020075
1679932924533,1112912888486265,-0.1665125,-0.1733875,0.0240625
1679932924536,1112912890988413,-0.1665125,-0.1764125,0.025024999
1679932924539,1112912893490798,-0.16555,-0.1764125,0.026124999
1679932924540,1112912895992721,-0.1695375,-0.1764125,0.0290125
1679932924543,1112912898495106,-0.1705,-0.171325,0.031075
1679932924545,1112912900997251,-0.1705,-0.1683,0.033
1679932924548,1112912903499174,-0.1714625,-0.1654125,0.031075
1679932924550,1112912906001635,-0.1725625,-0.1643125,0.031075
1679932924554,1112912908503789,-0.1725625,-0.1643125,0.0320375
1679932924555,1112912911005948,-0.17655,-0.1533125,0.031075
1679932924559,1112912913508102,-0.17655,-0.144375,0.031075
1679932924561,1112912916010256,-0.17545,-0.1364,0.031075
1679932924563,1112912918512410,-0.1744875,-0.1293875,0.0320375
1679932924566,1112912921014770,-0.1775125,-0.122375,0.033
1679932924569,1112912923516924,-0.1775125,-0.117425,0.033
1679932924571,1112912926019078,-0.18053749,-0.116325,0.033
1679932924573,1112912928521309,-0.1854875,-0.1123375,0.0341
1679932924575,1112912931023462,-0.184525,-0.105325,0.037125
1679932924578,1112912933525548,-0.184525,-0.0983125,0.0400125
1679932924580,1112912936027779,-0.18645,-0.0924,0.0411125
1679932924584,1112912938530164,-0.1885125,-0.0924,0.0430375
1679932924586,1112912941032318,-0.189475,-0.0884125,0.0490875
1679932924589,1112912943534457,-0.190575,-0.0823625,0.053075
1679932924591,1112912946036611,-0.1934625,-0.0814,0.053075
1679932924593,1112912948538765,-0.1925,-0.0814,0.0600875
1679932924595,1112912951040919,-0.1925,-0.0814,0.0650375
1679932924599,1112912953543150,-0.190575,-0.08635,0.0671
1679932924600,1112912956045304,-0.1885125,-0.08635,0.0741125
1679932924604,1112912958547688,-0.189475,-0.0873125,0.077
1679932924606,1112912961049611,-0.1885125,-0.0924,0.080025
1679932924609,1112912963551986,-0.190575,-0.0983125,0.088
1679932924611,1112912966054140,-0.1925,-0.1023,0.0930875
1679932924613,1112912968556294,-0.1925,-0.10835,0.092125
1679932924616,1112912971058448,-0.1925,-0.111375,0.0930875
1679932924618,1112912973560601,-0.1945625,-0.1144,0.098037496
1679932924620,1112912976062760,-0.1945625,-0.1144,0.1040875
1679932924623,1112912978564991,-0.1934625,-0.11935,0.10505
1679932924627,1112912981067145,-0.1925,-0.122375,0.1071125
1679932924628,1112912983569530,-0.1915375,-0.1243,0.109037496
1679932924630,1112912986071688,-0.1915375,-0.128425,0.11
1679932924633,1112912988573842,-0.189475,-0.1313125,0.1111
1679932924635,1112912991075996,-0.1925,-0.1324125,0.1120625
1679932924638,1112912993578150,-0.1934625,-0.1353,0.1150875
1679932924642,1112912996080381,-0.1945625,-0.1364,0.1150875
1679932924643,1112912998582535,-0.195525,-0.14135,0.114125
1679932924645,1112913001084688,-0.1934625,-0.149325,0.1150875
1679932924649,1112913003586851,-0.1945625,-0.150425,0.1150875
1679932924650,1112913006089005,-0.1964875,-0.1593625,0.1170125
1679932924653,1112913008591159,-0.1945625,-0.1654125,0.119075
1679932924656,1112913011093544,-0.1915375,-0.16733749,0.119075
1679932924659,1112913013595794,-0.189475,-0.1733875,0.121
1679932924661,1112913016097948,-0.1915375,-0.1804,0.120037496
1679932924663,1112913018600025,-0.190575,-0.1843875,0.120037496
1679932924666,1112913021102256,-0.1885125,-0.1863125,0.1230625
1679932924669,1112913023604409,-0.18755,-0.19139999,0.121
1679932924671,1112913026106563,-0.189475,-0.19635,0.121
1679932924674,1112913028608947,-0.18755,-0.1973125,0.121
1679932924676,1112913031111101,-0.189475,-0.1973125,0.122099996
1679932924680,1112913033613251,-0.1885125,-0.2033625,0.1260875
1679932924681,1112913036115405,-0.1885125,-0.20735,0.125125
1679932924683,1112913038617559,-0.18755,-0.2123,0.125125
1679932924686,1112913041119712,-0.190575,-0.2123,0.1280125
1679932924689,1112913043621943,-0.189475,-0.21133749,0.12705
1679932924693,1112913046124318,-0.1885125,-0.21835,0.130075
1679932924694,1112913048626241,-0.190575,-0.2173875,0.1331
1679932924696,1112913051128626,-0.190575,-0.2193125,0.136125
1679932924699,1112913053630779,-0.190575,-0.216425,0.1401125
1679932924701,1112913056132703,-0.189475,-0.216425,0.1401125
1679932924704,1112913058635082,-0.189475,-0.2173875,0.1441
1679932924705,1112913061137313,-0.18755,-0.21133749,0.1480875
1679932924709,1112913063639467,-0.1885125,-0.2094125,0.1500125
1679932924711,1112913066141621,-0.1885125,-0.2063875,0.1500125
1679932924713,1112913068643779,-0.189475,-0.204325,0.14905
1679932924717,1112913071145933,-0.1915375,-0.1973125,0.1530375
1679932924720,1112913073648318,-0.189475,-0.19139999,0.154
1679932924722,1112913076150472,-0.1885125,-0.1843875,0.14905
1679932924724,1112913078652621,-0.190575,-0.183425,0.146025
1679932924726,1112913081154851,-0.190575,-0.1793,0.1450625
1679932924729,1112913083657005,-0.1915375,-0.1764125,0.147125
1679932924730,1112913086159159,-0.1934625,-0.17435,0.1450625
1679932924733,1112913088661313,-0.1925,-0.1694,0.1450625
1679932924736,1112913091163717,-0.1934625,-0.1694,0.1441
1679932924738,1112913093665870,-0.1945625,-0.1643125,0.1420375
1679932924741,1112913096168024,-0.1934625,-0.1694,0.143
1679932924743,1112913098670178,-0.1925,-0.171325,0.1420375
1679932924746,1112913101172342,-0.1915375,-0.1703625,0.1420375
1679932924749,1112913103674573,-0.1915375,-0.171325,0.143
1679932924751,1112913106176650,-0.1925,-0.17435,0.143
1679932924754,1112913108679111,-0.1824625,-0.1733875,0.147125
1679932924755,1112913111181246,-0.1775125,-0.1783375,0.146025
1679932924759,1112913113683400,-0.1775125,-0.1804,0.1441
1679932924761,1112913116185554,-0.1714625,-0.188375,0.1441
1679932924763,1112913118687708,-0.1665125,-0.193325,0.1450625
1679932924767,1112913121189862,-0.1595,-0.19635,0.1450625
1679932924771,1112913123692092,-0.1524875,-0.19635,0.1441
1679932924771,1112913126194246,-0.14355,-0.2013,0.1450625
1679932924773,1112913128696400,-0.1395625,-0.2033625,0.1441
1679932924776,1112913131198554,-0.1274625,-0.2094125,0.1420375
1679932924778,1112913133700708,-0.1255375,-0.2134,0.1401125
1679932924781,1112913136202862,-0.124437496,-0.210375,0.1441
1679932924783,1112913138705246,-0.12045,-0.2083125,0.1441
1679932924786,1112913141207472,-0.11055,-0.210375,0.141075
1679932924788,1112913143709549,-0.11055,-0.2083125,0.1441
1679932924792,1112913146211780,-0.1084875,-0.204325,0.1401125
1679932924793,1112913148713934,-0.104499996,-0.199375,0.13805
1679932924796,1112913151216087,-0.102437496,-0.1973125,0.1401125
1679932924798,1112913153718250,-0.09845,-0.1923625,0.13805
1679932924800,1112913156220635,-0.09845,-0.18535,0.132
1679932924803,1112913158722789,-0.101475,-0.1804,0.1331
1679932924806,1112913161224943,-0.0974875,-0.171325,0.132
1679932924808,1112913163727101,-0.102437496,-0.1654125,0.1291125
1679932924811,1112913166229255,-0.102437496,-0.1533125,0.1260875
1679932924814,1112913168731486,-0.101475,-0.14739999,0.1230625
1679932924816,1112913171233640,-0.104499996,-0.144375,0.119075
1679932924819,1112913173735780,-0.1065625,-0.1403875,0.119075
1679932924821,1112913176238164,-0.1035375,-0.1343375,0.113025
1679932924823,1112913178740318,-0.1035375,-0.1324125,0.109037496
1679932924826,1112913181242472,-0.104499996,-0.1282875,0.1071125
1679932924830,1112913183744645,-0.10945,-0.122375,0.10505
1679932924831,1112913186246799,-0.113437496,-0.1203125,0.1040875
1679932924834,1112913188749030,-0.1155,-0.1214125,0.0961125
1679932924835,1112913191251183,-0.1164625,-0.1203125,0.0950125
1679932924838,1112913193753337,-0.1145375,-0.11935,0.099
1679932924843,1112913196255491,-0.1145375,-0.1203125,0.098037496
1679932924843,1112913198757876,-0.12045,-0.1172875,0.09405
1679932924846,1112913201259799,-0.118525,-0.1183875,0.0930875
1679932924849,1112913203762173,-0.1164625,-0.1183875,0.0930875
1679932924851,1112913206264404,-0.1164625,-0.1203125,0.091025
1679932924855,1112913208766558,-0.112475,-0.1214125,0.0900625
1679932924856,1112913211268712,-0.1145375,-0.1203125,0.0891
1679932924859,1112913213770881,-0.112475,-0.1183875,0.087037496
1679932924861,1112913216273035,-0.1155,-0.1153625,0.086075
1679932924863,1112913218775188,-0.1155,-0.116325,0.086075
1679932924867,1112913221277573,-0.10945,-0.1172875,0.087037496
1679932924870,1112913223779741,-0.1084875,-0.1183875,0.0851125
1679932924871,1112913226281895,-0.1065625,-0.113299996,0.081125
1679932924875,1112913228784049,-0.104499996,-0.1123375,0.0820875
1679932924876,1112913231286202,-0.1054625,-0.111375,0.081125
1679932924879,1112913233788433,-0.107525,-0.1123375,0.0851125
1679932924882,1112913236290823,-0.1065625,-0.116325,0.08305
1679932924884,1112913238792746,-0.1035375,-0.11935,0.08305
1679932924888,1112913241295131,-0.101475,-0.11935,0.081125
1679932924890,1112913243797284,-0.096525,-0.1282875,0.086075
1679932924892,1112913246299438,-0.08855,-0.1324125,0.0891
1679932924893,1112913248801601,-0.08745,-0.13035,0.088
1679932924896,1112913251303755,-0.082499996,-0.133375,0.087037496
1679932924899,1112913253805986,-0.07645,-0.1403875,0.0891
1679932924902,1112913256308370,-0.0694375,-0.144375,0.092125
1679932924905,1112913258810293,-0.063525,-0.1544125,0.0900625
1679932924909,1112913261312447,-0.0605,-0.1623875,0.0900625
1679932924909,1112913263814832,-0.05555,-0.1654125,0.091025
1679932924911,1112913266316986,-0.0584375,-0.171325,0.0891
1679932924914,1112913268819217,-0.0605,-0.1753125,0.086075
1679932924917,1112913271321366,-0.0605,-0.1832875,0.0820875
1679932924919,1112913273823443,-0.0614625,-0.193325,0.08305
1679932924925,1112913276325674,-0.06545,-0.2003375,0.0820875
1679932924925,1112913278828059,-0.06655,-0.2063875,0.08305
1679932924926,1112913281330213,-0.0715,-0.20735,0.0790625
1679932924929,1112913283832393,-0.0754875,-0.21133749,0.077
1679932924931,1112913286334547,-0.07755,-0.2134,0.077
1679932924935,1112913288836701,-0.079475,-0.2193125,0.0760375
1679932924936,1112913291338855,-0.085525,-0.2162875,0.075075
1679932924941,1112913293841049,-0.0804375,-0.2173875,0.0741125
1679932924942,1112913296343203,-0.082499996,-0.215325,0.075075
1679932924943,1112913298845587,-0.08745,-0.215325,0.0730125
1679932924946,1112913301347510,-0.085525,-0.2134,0.070125
1679932924950,1112913303849880,-0.085525,-0.2094125,0.0671
1679932924951,1112913306352034,-0.0834625,-0.2033625,0.066
1679932924955,1112913308854188,-0.085525,-0.19635,0.061049998
1679932924956,1112913311356418,-0.085525,-0.1903,0.061049998
1679932924959,1112913313858572,-0.0864875,-0.1843875,0.0600875
1679932924961,1112913316360726,-0.082499996,-0.1764125,0.059125
1679932924963,1112913318862880,-0.0815375,-0.1683,0.055
1679932924966,1112913321365034,-0.079475,-0.1643125,0.055
1679932924969,1112913323867188,-0.0785125,-0.1593625,0.0570625
1679932924971,1112913326369659,-0.07645,-0.1502875,0.053075
1679932924974,1112913328871736,-0.07645,-0.1434125,0.050049998
1679932924976,1112913331373890,-0.0754875,-0.1373625,0.050049998
1679932924980,1112913333876121,-0.07645,-0.13035,0.047025
1679932924982,1112913336378275,-0.07645,-0.1282875,0.044
1679932924984,1112913338880429,-0.0754875,-0.1254,0.042075
1679932924986,1112913341382582,-0.074525,-0.1214125,0.044
1679932924989,1112913343884967,-0.0735625,-0.1183875,0.042075
1679932924992,1112913346387102,-0.0785125,-0.1172875,0.036025
1679932924993,1112913348889256,-0.0804375,-0.116325,0.0400125
1679932924996,1112913351391410,-0.085525,-0.1172875,0.039049998
1679932924999,1112913353893563,-0.08745,-0.1214125,0.037125
1679932925002,1112913356395765,-0.0895125,-0.1254,0.0380875
1679932925004,1112913358897919,-0.0935,-0.1263625,0.0380875
1679932925008,1112913361400073,-0.0955625,-0.1313125,0.037125
1679932925009,1112913363902457,-0.09845,-0.1353,0.037125
1679932925011,1112913366404611,-0.1035375,-0.1434125,0.037125
1679932925015,1112913368906726,-0.107525,-0.1513875,0.037125
1679932925019,1112913371408880,-0.1084875,-0.1623875,0.036025
1679932925021,1112913373911034,-0.1115125,-0.1683,0.033
1679932925021,1112913376413265,-0.1115125,-0.1753125,0.033
1679932925025,1112913378915419,-0.1194875,-0.182325,0.0341
1679932925026,1112913381417563,-0.1194875,-0.1923625,0.033
1679932925029,1112913383919717,-0.1194875,-0.1942875,0.0341
1679932925031,1112913386421871,-0.1225125,-0.2024,0.0341
1679932925034,1112913388924025,-0.1194875,-0.2094125,0.0341
1679932925036,1112913391426490,-0.1225125,-0.210375,0.0320375
1679932925039,1112913393928644,-0.1255375,-0.2162875,0.0320375
1679932925042,1112913396430721,-0.1265,-0.2123,0.0301125
1679932925044,1112913398932952,-0.124437496,-0.2134,0.031075
1679932925046,1112913401435106,-0.1225125,-0.2173875,0.033
1679932925049,1112913403937260,-0.1265,-0.2173875,0.031075
1679932925051,1112913406439644,-0.124437496,-0.2134,0.026124999
1679932925055,1112913408941798,-0.1255375,-0.21133749,0.0270875
1679932925056,1112913411443928,-0.129525,-0.210375,0.0301125
1679932925059,1112913413946082,-0.1285625,-0.2063875,0.0320375
1679932925061,1112913416448236,-0.129525,-0.2013,0.0301125
1679932925064,1112913418950390,-0.1285625,-0.19635,0.0341
1679932925066,1112913421452620,-0.1255375,-0.1942875,0.033
1679932925069,1112913423954991,-0.12155,-0.1903,0.0320375
1679932925071,1112913426456914,-0.12155,-0.1874125,0.031075
1679932925074,1112913428959299,-0.1164625,-0.1863125,0.0320375
1679932925076,1112913431461453,-0.113437496,-0.1832875,0.0320375
1679932925079,1112913433963611,-0.1145375,-0.18535,0.0341
1679932925081,1112913436465765,-0.1155,-0.1813625,0.031075
1679932925084,1112913438967996,-0.112475,-0.1903,0.0301125
1679932925086,1112913441470150,-0.113437496,-0.1923625,0.0301125
1679932925089,1112913443972308,-0.113437496,-0.193325,0.0341
1679932925092,1112913446474462,-0.118525,-0.199375,0.0380875
1679932925094,1112913448976615,-0.12155,-0.2033625,0.033
1679932925096,1112913451479020,-0.12155,-0.2033625,0.0320375
1679932925099,1112913453980943,-0.1255375,-0.2033625,0.0301125
1679932925101,1112913456483405,-0.1274625,-0.210375,0.033
1679932925104,1112913458985559,-0.1265,-0.2134,0.0320375
1679932925106,1112913461487712,-0.129525,-0.215325,0.0320375
1679932925109,1112913463989919,-0.1274625,-0.2204125,0.031075
1679932925111,1112913466492073,-0.1285625,-0.2253625,0.0301125
1679932925114,1112913468994227,-0.1304875,-0.2314125,0.0301125
1679932925116,1112913471496612,-0.1285625,-0.2343,0.0301125
1679932925120,1112913473998784,-0.129525,-0.2363625,0.0290125
1679932925121,1112913476500938,-0.1285625,-0.2424125,0.02805
1679932925123,1112913479003092,-0.1265,-0.2413125,0.0290125
1679932925126,1112913481505323,-0.1255375,-0.2424125,0.02805
1679932925130,1112913484007384,-0.123475,-0.243375,0.025024999
1679932925132,1112913486509845,-0.12045,-0.237325,0.026124999
1679932925133,1112913489011999,-0.1194875,-0.237325,0.0240625
1679932925137,1112913491514153,-0.112475,-0.2363625,0.0210375
1679932925139,1112913494016307,-0.104499996,-0.232375,0.0191125
1679932925141,1112913496518447,-0.096525,-0.22935,0.013062499
1679932925144,1112913499020601,-0.08855,-0.2193125,0.014025
1679932925146,1112913501522755,-0.0815375,-0.2204125,0.011
1679932925149,1112913504024985,-0.074525,-0.215325,0.009075
1679932925151,1112913506527129,-0.06655,-0.210375,0.00605
1679932925154,1112913509029514,-0.0644875,-0.2094125,0.003025
1679932925156,1112913511531437,-0.0625625,-0.2094125,0.0
1679932925159,1112913514033591,-0.0605,-0.20735,-0.0028875
1679932925161,1112913516535989,-0.06545,-0.2063875,-0.006875
1679932925164,1112913519038220,-0.0705375,-0.2063875,-0.0089375
1679932925167,1112913521540374,-0.0724625,-0.2063875,-0.012925
1679932925172,1112913524042528,-0.0735625,-0.2024,-0.017875
1679932925173,1112913526544716,-0.0785125,-0.20735,-0.0199375
1679932925175,1112913529046870,-0.082499996,-0.2094125,-0.017875
1679932925176,1112913531549023,-0.0864875,-0.2134,-0.017875
1679932925179,1112913534051177,-0.08745,-0.215325,-0.01595
1679932925181,1112913536553562,-0.08855,-0.2233,-0.0119624995
1679932925184,1112913539055750,-0.090475,-0.2253625,-0.0099
1679932925187,1112913541557904,-0.0864875,-0.2272875,-0.00495
1679932925189,1112913544060134,-0.0804375,-0.2343,-0.001925
1679932925192,1112913546562288,-0.07645,-0.2343,0.004125
1679932925194,1112913549064389,-0.0694375,-0.23539999,0.0070125
1679932925196,1112913551566851,-0.0605,-0.2363625,0.00605
1679932925199,1112913554069004,-0.0504625,-0.2382875,0.013062499
1679932925202,1112913556571158,-0.0455125,-0.2424125,0.0231
1679932925206,1112913559073312,-0.03355,-0.2443375,0.0210375
1679932925208,1112913561575466,-0.0254375,-0.2424125,0.026124999
1679932925209,1112913564077620,-0.0185625,-0.248325,0.0290125
1679932925211,1112913566579774,-0.0185625,-0.2443375,0.0270875
1679932925215,1112913569082005,-0.01045,-0.2424125,0.0301125
1679932925216,1112913571584163,-0.0125124995,-0.23539999,0.0301125
1679932925220,1112913574086317,-0.008525,-0.2314125,0.033
1679932925221,1112913576588471,-0.0075625,-0.2303125,0.033
1679932925224,1112913579090856,-0.0094875,-0.2244,0.0320375
1679932925226,1112913581593029,-0.0094875,-0.2244,0.033
1679932925229,1112913584095182,-0.0125124995,-0.21133749,0.033
1679932925231,1112913586597413,-0.01155,-0.204325,0.037125
1679932925235,1112913589099490,-0.01155,-0.2033625,0.031075
1679932925236,1112913591601726,-0.0165,-0.199375,0.031075
1679932925241,1112913594104111,-0.0185625,-0.188375,0.0320375
1679932925243,1112913596606264,-0.0174625,-0.182325,0.0270875
1679932925244,1112913599108418,-0.02145,-0.1793,0.02805
1679932925246,1112913601610567,-0.019524999,-0.1753125,0.026124999
1679932925251,1112913604112721,-0.019524999,-0.1683,0.022
1679932925252,1112913606614875,-0.02145,-0.1623875,0.020075
1679932925254,1112913609117106,-0.02255,-0.1593625,0.0160875
1679932925258,1112913611619254,-0.02145,-0.15235,0.0121
1679932925259,1112913614121639,-0.0235125,-0.14739999,0.0100375
1679932925262,1112913616623562,-0.024475,-0.14533749,0.0070125
1679932925264,1112913619125716,-0.0265375,-0.1423125,0.0020625
1679932925266,1112913621628101,-0.0265375,-0.1403875,-0.0028875
1679932925269,1112913624130235,-0.0265375,-0.1353,-0.00495
1679932925271,1112913626632466,-0.0265375,-0.13035,-0.007975
1679932925275,1112913629134620,-0.0275,-0.1293875,-0.0119624995
1679932925277,1112913631636774,-0.029424999,-0.1254,-0.01595
1679932925280,1112913634138894,-0.032449998,-0.1263625,-0.01595
1679932925281,1112913636641048,-0.0364375,-0.122375,-0.018975
1679932925283,1112913639143201,-0.0385,-0.1254,-0.017875
1679932925288,1112913641645586,-0.0375375,-0.1282875,-0.018975
1679932925289,1112913644147812,-0.040425,-0.1214125,-0.017875
1679932925292,1112913646649889,-0.0424875,-0.1214125,-0.017875
1679932925293,1112913649152120,-0.041525,-0.1203125,-0.0149875
1679932925297,1112913651654273,-0.043449998,-0.1214125,-0.0099
1679932925299,1112913654156427,-0.0424875,-0.116325,-0.006875
1679932925301,1112913656658581,-0.041525,-0.1153625,-0.0059125
1679932925304,1112913659160966,-0.041525,-0.111375,-0.0059125
1679932925307,1112913661663120,-0.0385,-0.1034,-0.00495
1679932925309,1112913664165264,-0.0364375,-0.0994125,-9.625E-4
1679932925311,1112913666667418,-0.029424999,-0.0963875,-9.625E-4
1679932925314,1112913669169572,-0.029424999,-0.0903375,0.0011
1679932925319,1112913671671711,-0.0275,-0.0873125,0.004125
1679932925321,1112913674173942,-0.019524999,-0.0803,0.003025
1679932925323,1112913676676096,-0.018424999,-0.0743875,0.003025
1679932925325,1112913679178480,-0.0165,-0.069299996,0.00605
1679932925327,1112913681680634,-0.0155375,-0.069299996,0.0081124995
1679932925330,1112913684182788,-0.01155,-0.0594,0.0121
1679932925331,1112913686684942,-0.0094875,-0.0523875,0.011
1679932925334,1112913689187096,-0.0125124995,-0.050325,0.009075
1679932925336,1112913691689326,-0.0144375,-0.0473,0.009075
1679932925339,1112913694191480,-0.0144375,-0.04235,0.009075
1679932925342,1112913696693639,-0.01155,-0.04235,0.0070125
1679932925344,1112913699195793,-0.0144375,-0.0383625,0.0070125
1679932925347,1112913701698178,-0.0165,-0.0383625,0.0050875
1679932925349,1112913704200101,-0.019524999,-0.0374,0.0050875
1679932925351,1112913706702490,-0.0204875,-0.0433125,0.003025
1679932925356,1112913709204721,-0.02255,-0.0433125,0.003025
1679932925358,1112913711706798,-0.0275,-0.0444125,0.003025
1679932925360,1112913714209029,-0.0254375,-0.0484,0.003025
1679932925361,1112913716711183,-0.0254375,-0.05335,0.003025
1679932925365,1112913719213336,-0.0254375,-0.0573375,0.003025
1679932925367,1112913721715721,-0.0265375,-0.0622875,0.0050875
1679932925370,1112913724217875,-0.024475,-0.0683375,0.0070125
1679932925372,1112913726720019,-0.0254375,-0.0763125,0.0100375
1679932925374,1112913729222173,-0.0254375,-0.0793375,0.011
1679932925377,1112913731724327,-0.0275,-0.078375,0.014025
1679932925380,1112913734226480,-0.029424999,-0.0873125,0.015125
1679932925382,1112913736728697,-0.0284625,-0.0903375,0.0191125
1679932925384,1112913739231082,-0.0265375,-0.0903375,0.020075
1679932925386,1112913741733005,-0.0254375,-0.091299996,0.020075
1679932925389,1112913744235389,-0.024475,-0.0952875,0.0231
1679932925393,1112913746737543,-0.0235125,-0.0933625,0.0231
1679932925396,1112913749239697,-0.02255,-0.0952875,0.022
1679932925396,1112913751741851,-0.02145,-0.0873125,0.0210375
1679932925399,1112913754244082,-0.0204875,-0.0884125,0.01705
1679932925401,1112913756746236,-0.019524999,-0.0924,0.0210375
1679932925403,1112913759248390,-0.0235125,-0.0952875,0.01705
1679932925406,1112913761750543,-0.0235125,-0.094325,0.0191125
1679932925409,1112913764252697,-0.0235125,-0.0952875,0.0160875
1679932925411,1112913766755082,-0.024475,-0.0994125,0.014025
1679932925414,1112913769257010,-0.0235125,-0.1034,0.0121
1679932925416,1112913771759471,-0.024475,-0.1034,0.0100375
1679932925418,1112913774261625,-0.0284625,-0.10835,0.011
1679932925421,1112913776763779,-0.0314875,-0.1104125,0.0081124995
1679932925423,1112913779265942,-0.0314875,-0.1123375,0.0081124995
1679932925426,1112913781768096,-0.032449998,-0.116325,0.009075
1679932925430,1112913784270250,-0.0364375,-0.1243,0.0081124995
1679932925432,1112913786772634,-0.0394625,-0.127325,0.0070125
1679932925434,1112913789274793,-0.043449998,-0.1343375,0.0100375
1679932925437,1112913791776947,-0.04455,-0.138325,0.0121
1679932925439,1112913794279101,-0.0455125,-0.14533749,0.01705
1679932925441,1112913796781332,-0.046475,-0.144375,0.020075
1679932925444,1112913799283409,-0.04455,-0.14533749,0.022
1679932925447,1112913801785889,-0.0495,-0.1463,0.0231
1679932925449,1112913804288043,-0.0504625,-0.1463,0.025024999
1679932925452,1112913806790197,-0.0455125,-0.1483625,0.02805
1679932925454,1112913809292366,-0.0474375,-0.1502875,0.0301125
1679932925457,1112913811794520,-0.0474375,-0.1463,0.0320375
1679932925459,1112913814296673,-0.0455125,-0.1463,0.0341
1679932925461,1112913816798827,-0.046475,-0.1434125,0.0380875
1679932925464,1112913819301062,-0.0455125,-0.138325,0.037125
1679932925468,1112913821803216,-0.041525,-0.133375,0.033
1679932925470,1112913824305370,-0.043449998,-0.133375,0.033
1679932925472,1112913826807524,-0.040425,-0.1293875,0.033
1679932925474,1112913829309682,-0.0394625,-0.122375,0.0301125
1679932925477,1112913831812067,-0.0394625,-0.1172875,0.02805
1679932925479,1112913834314298,-0.035475,-0.1093125,0.0301125
1679932925481,1112913836816452,-0.03355,-0.1073875,0.02805
1679932925484,1112913839318606,-0.032449998,-0.1023,0.025024999
1679932925487,1112913841820759,-0.0314875,-0.1013375,0.0270875
1679932925490,1112913844322913,-0.03355,-0.0983125,0.0240625
1679932925491,1112913846825067,-0.0314875,-0.0924,0.0231
1679932925494,1112913849327221,-0.029424999,-0.091299996,0.0240625
1679932925497,1112913851829596,-0.0314875,-0.0884125,0.0210375
1679932925499,1112913854331826,-0.030524999,-0.0873125,0.020075
1679932925501,1112913856833903,-0.0284625,-0.0884125,0.0240625
1679932925505,1112913859336134,-0.0275,-0.0873125,0.0240625
1679932925508,1112913861838279,-0.030524999,-0.0873125,0.0210375
1679932925509,1112913864340433,-0.0314875,-0.0903375,0.026124999
1679932925511,1112913866842817,-0.0284625,-0.0853875,0.0270875
1679932925515,1112913869344971,-0.0284625,-0.0823625,0.033
1679932925517,1112913871847105,-0.024475,-0.0803,0.031075
1679932925521,1112913874349259,-0.024475,-0.0803,0.033
1679932925522,1112913876851490,-0.0265375,-0.0763125,0.0411125
1679932925525,1112913879353644,-0.0235125,-0.0763125,0.0430375
1679932925527,1112913881855783,-0.019524999,-0.0763125,0.0430375
1679932925529,1112913884357937,-0.0174625,-0.0704,0.0451
1679932925532,1112913886860091,-0.0155375,-0.0653125,0.048125
1679932925535,1112913889362245,-0.0174625,-0.0622875,0.0521125
1679932925537,1112913891864384,-0.013475,-0.0523875,0.055
1679932925539,1112913894366845,-0.008525,-0.0473,0.0600875
1679932925542,1112913896868999,-0.0045375,-0.0473,0.061049998
1679932925544,1112913899371153,-0.0055,-0.039325,0.0600875
1679932925546,1112913901873307,-0.0064625,-0.0353375,0.0631125
1679932925550,1112913904375485,-0.0045375,-0.0303875,0.0631125
1679932925552,1112913906877639,-0.0015125,-0.028324999,0.064075
1679932925554,1112913909380023,-5.5E-4,-0.0253,0.066
1679932925557,1112913911882177,5.5E-4,-0.02035,0.066
1679932925559,1112913914384346,-0.0034375,-0.0114124995,0.064075
1679932925562,1112913916886577,-0.0034375,-0.012375,0.0650375
1679932925564,1112913919388654,-0.007425,-0.0103124995,0.0620125
1679932925567,1112913921890808,-0.007425,-0.0103124995,0.061049998
1679932925570,1112913924393254,-0.0125124995,-0.00935,0.0631125
1679932925571,1112913926895177,-0.0144375,-0.012375,0.0620125
1679932925574,1112913929397562,-0.0204875,-0.012375,0.059125
1679932925577,1112913931899716,-0.0204875,-0.0182875,0.0561
1679932925580,1112913934401864,-0.0174625,-0.0213125,0.053075
1679932925582,1112913936904018,-0.02145,-0.02035,0.0521125
1679932925584,1112913939406172,-0.0265375,-0.0303875,0.053075
1679932925586,1112913941908403,-0.0254375,-0.0334125,0.050049998
1679932925590,1112913944410557,-0.030524999,-0.0353375,0.0490875
1679932925591,1112913946912716,-0.0314875,-0.0374,0.0451
1679932925593,1112913949414870,-0.032449998,-0.045375,0.0430375
1679932925596,1112913951917023,-0.0314875,-0.0463375,0.0411125
1679932925599,1112913954419408,-0.035475,-0.0512875,0.0411125
1679932925601,1112913956921562,-0.035475,-0.0594,0.039049998
1679932925604,1112913959423793,-0.0385,-0.0664125,0.037125
1679932925606,1112913961925946,-0.0385,-0.0704,0.0341
1679932925609,1112913964428100,-0.0364375,-0.0683375,0.0341
1679932925611,1112913966930264,-0.0375375,-0.0763125,0.0341
1679932925614,1112913969432418,-0.040425,-0.0823625,0.0320375
1679932925618,1112913971934572,-0.0394625,-0.08635,0.031075
1679932925620,1112913974436956,-0.040425,-0.0853875,0.0301125
1679932925622,1112913976939119,-0.0385,-0.0853875,0.031075
1679932925624,1112913979441273,-0.0375375,-0.08635,0.031075
1679932925626,1112913981943504,-0.0375375,-0.0903375,0.031075
1679932925629,1112913984445581,-0.0385,-0.0873125,0.02805
1679932925632,1112913986947812,-0.0385,-0.0823625,0.0270875
1679932925634,1112913989450212,-0.0375375,-0.0803,0.0270875
1679932925637,1112913991952366,-0.03355,-0.0814,0.0301125
1679932925639,1112913994454520,-0.0314875,-0.0763125,0.031075
1679932925641,1112913996956674,-0.0314875,-0.0683375,0.031075
1679932925644,1112913999458828,-0.03355,-0.0683375,0.0320375
1679932925646,1112914001960982,-0.0314875,-0.061325,0.033
1679932925649,1112914004463212,-0.035475,-0.05335,0.031075
1679932925652,1112914006965366,-0.030524999,-0.0463375,0.0301125
1679932925655,1112914009467534,-0.0314875,-0.0363,0.031075
1679932925657,1112914011969919,-0.032449998,-0.028324999,0.0270875
1679932925659,1112914014471842,-0.03355,-0.0182875,0.02805
1679932925661,1112914016974226,-0.030524999,-0.0114124995,0.02805
1679932925663,1112914019476380,-0.029424999,-4.125E-4,0.026124999
1679932925666,1112914021978640,-0.030524999,0.0066,0.026124999
1679932925669,1112914024480794,-0.030524999,0.014712499,0.0231
1679932925671,1112914026982948,-0.0284625,0.020624999,0.022
1679932925675,1112914029485102,-0.029424999,0.0215875,0.022
1679932925677,1112914031987250,-0.0265375,0.0286,0.022
1679932925679,1112914034489404,-0.0265375,0.0325875,0.0240625
1679932925681,1112914036991789,-0.0314875,0.0336875,0.0210375
1679932925684,1112914039494020,-0.032449998,0.0356125,0.020075
1679932925686,1112914041996097,-0.03355,0.0336875,0.01705
1679932925689,1112914044498255,-0.032449998,0.0297,0.014025
1679932925693,1112914047000486,-0.03355,0.0286,0.0121
1679932925694,1112914049502640,-0.0364375,0.0276375,0.011
1679932925696,1112914052004794,-0.0375375,0.0215875,0.011
1679932925699,1112914054507179,-0.0394625,0.0176,0.0100375
1679932925702,1112914057009332,-0.04455,0.0066,0.0081124995
1679932925704,1112914059511486,-0.041525,0.00165,0.0050875
1679932925707,1112914062013626,-0.046475,-0.006325,0.0050875
1679932925710,1112914064515780,-0.0474375,-0.0143,0.003025
1679932925712,1112914067017934,-0.0504625,-0.0253,0.004125
1679932925714,1112914069520395,-0.052525,-0.0303875,0.0050875
1679932925716,1112914072022318,-0.0495,-0.0383625,-0.0039875
1679932925719,1112914074524708,-0.0485375,-0.045375,-0.00495
1679932925722,1112914077026862,-0.052525,-0.0512875,-0.001925
1679932925725,1112914079528785,-0.0534875,-0.05335,-0.00495
1679932925727,1112914082031165,-0.054449998,-0.0594,-0.0059125
1679932925730,1112914084533318,-0.057475,-0.0622875,-0.007975
1679932925732,1112914087035549,-0.0584375,-0.0653125,-0.0119624995
1679932925735,1112914089537703,-0.0605,-0.069299996,-0.0119624995
1679932925737,1112914092039857,-0.062425,-0.0713625,-0.012925
1679932925739,1112914094542025,-0.0644875,-0.0683375,-0.012925
1679932925742,1112914097044409,-0.06655,-0.0683375,-0.0119624995
1679932925745,1112914099546332,-0.0694375,-0.072325,-0.011
1679932925747,1112914102048717,-0.0724625,-0.0743875,-0.012925
1679932925750,1112914104550953,-0.073425,-0.0774125,-0.012925
1679932925752,1112914107053107,-0.07645,-0.0814,-0.0089375
1679932925754,1112914109555261,-0.07645,-0.083325,-0.0059125
1679932925757,1112914112057414,-0.07645,-0.0823625,-0.007975
1679932925759,1112914114559544,-0.0785125,-0.0842875,-0.006875
1679932925762,1112914117061929,-0.0864875,-0.0814,-0.00495
1679932925764,1112914119564083,-0.0864875,-0.0853875,-0.0059125
1679932925768,1112914122066242,-0.08745,-0.08635,-0.0028875
1679932925770,1112914124568395,-0.090475,-0.0823625,-0.001925
1679932925773,1112914127070626,-0.08855,-0.0853875,-9.625E-4
1679932925775,1112914129572703,-0.08855,-0.08635,0.0
1679932925777,1112914132074934,-0.0935,-0.0853875,0.0011
1679932925779,1112914134577299,-0.0944625,-0.08635,0.004125
1679932925782,1112914137079452,-0.0944625,-0.08635,0.0070125
1679932925785,1112914139581606,-0.0974875,-0.0903375,0.009075
1679932925787,1112914142083760,-0.09955,-0.0842875,0.0100375
1679932925790,1112914144585919,-0.096525,-0.0823625,0.01705
1679932925791,1112914147088073,-0.0935,-0.0793375,0.0210375
1679932925794,1112914149590304,-0.090475,-0.0814,0.0240625
1679932925797,1112914152092457,-0.090475,-0.0774125,0.026124999
1679932925799,1112914154594605,-0.091437496,-0.0763125,0.0231
1679932925802,1112914157096759,-0.0944625,-0.07535,0.0231
1679932925806,1112914159598913,-0.0935,-0.0683375,0.025024999
1679932925807,1112914162101298,-0.090475,-0.0594,0.026124999
1679932925810,1112914164603461,-0.090475,-0.0594,0.0231
1679932925811,1112914167105692,-0.0895125,-0.0583,0.0231
1679932925814,1112914169607846,-0.08855,-0.050325,0.0231
1679932925817,1112914172110000,-0.085525,-0.0493625,0.020075
1679932925819,1112914174612168,-0.0815375,-0.0463375,0.01705
1679932925822,1112914177114322,-0.079475,-0.04235,0.0160875
1679932925824,1112914179616706,-0.0785125,-0.0363,0.013062499
1679932925827,1112914182118860,-0.07755,-0.03135,0.0100375
1679932925829,1112914184620990,-0.07645,-0.0292875,0.0100375
1679932925832,1112914187123144,-0.073425,-0.0224125,0.0121
1679932925834,1112914189625298,-0.073425,-0.0163625,0.0100375
1679932925837,1112914192127528,-0.0724625,-0.00935,0.0100375
1679932925839,1112914194629701,-0.0715,-0.00935,0.0100375
1679932925843,1112914197131855,-0.0705375,-0.006325,0.0081124995
1679932925844,1112914199634009,-0.0705375,-4.125E-4,0.0081124995
1679932925847,1112914202136394,-0.0754875,0.004675,0.003025
1679932925850,1112914204638317,-0.07645,0.004675,0.004125
1679932925852,1112914207140706,-0.07645,0.0066,-0.001925
1679932925854,1112914209642937,-0.07755,0.01265,-0.0059125
1679932925858,1112914212145091,-0.0785125,0.01265,-0.001925
1679932925859,1112914214647245,-0.0834625,0.0056375,-0.00495
1679932925862,1112914217149413,-0.08745,0.004675,-0.0089375
1679932925864,1112914219651567,-0.090475,6.875E-4,-0.011
1679932925867,1112914222153720,-0.0935,-0.006325,-0.012925
1679932925870,1112914224656105,-0.0944625,-0.0163625,-0.0119624995
1679932925872,1112914227158298,-0.095425,-0.0253,-0.0119624995
1679932925874,1112914229660452,-0.102437496,-0.0323125,-0.01595
1679932925877,1112914232162682,-0.102437496,-0.0413875,-0.0149875
1679932925881,1112914234664759,-0.104499996,-0.0523875,-0.0119624995
1679932925882,1112914237166975,-0.1035375,-0.0622875,-0.011
1679932925884,1112914239669360,-0.101475,-0.0683375,-0.011
1679932925887,1112914242171514,-0.1035375,-0.072325,-0.006875
1679932925892,1112914244673668,-0.107525,-0.0853875,-0.00495
1679932925893,1112914247175812,-0.112475,-0.091299996,-0.0028875
1679932925894,1112914249677966,-0.1115125,-0.094325,0.0011
1679932925899,1112914252180120,-0.1115125,-0.100375,0.004125
1679932925900,1112914254682274,-0.112475,-0.1043625,0.00605
1679932925902,1112914257184505,-0.113437496,-0.1073875,0.0100375
1679932925904,1112914259686649,-0.112475,-0.10835,0.015125
1679932925907,1112914262188802,-0.112475,-0.1123375,0.014025
1679932925910,1112914264690956,-0.113437496,-0.113299996,0.0210375
1679932925912,1112914267193336,-0.1145375,-0.1144,0.022
1679932925914,1112914269695490,-0.113437496,-0.1153625,0.022
1679932925918,1112914272197721,-0.1145375,-0.116325,0.025024999
1679932925921,1112914274699874,-0.1155,-0.1123375,0.0270875
1679932925923,1112914277202043,-0.1164625,-0.1153625,0.02805
1679932925926,1112914279704197,-0.1164625,-0.1093125,0.0301125
1679932925927,1112914282206351,-0.12045,-0.105325,0.0270875
1679932925931,1112914284708505,-0.12155,-0.1013375,0.02805
1679932925933,1112914287210659,-0.1225125,-0.0963875,0.02805
1679932925935,1112914289713129,-0.1225125,-0.0924,0.026124999
1679932925937,1112914292215206,-0.12045,-0.0903375,0.025024999
1679932925940,1112914294717360,-0.1225125,-0.0823625,0.022
1679932925942,1112914297219591,-0.123475,-0.0763125,0.020075
1679932925945,1112914299721740,-0.124437496,-0.069299996,0.0191125
1679932925947,1112914302223893,-0.124437496,-0.0603625,0.01705
1679932925950,1112914304726278,-0.1274625,-0.045375,0.013062499
1679932925952,1112914307228432,-0.1265,-0.04235,0.0121
1679932925956,1112914309730562,-0.128425,-0.0323125,0.011
1679932925958,1112914312232716,-0.1304875,-0.0193875,0.011
1679932925960,1112914314734869,-0.129525,-0.0154,0.009075
1679932925962,1112914317237023,-0.1304875,-0.012375,0.0081124995
1679932925964,1112914319739254,-0.129525,-0.0053625,0.011
1679932925967,1112914322241414,-0.129525,-0.0023375,0.013062499
1679932925970,1112914324743799,-0.129525,0.00165,0.013062499
1679932925972,1112914327245952,-0.129525,0.0037125,0.013062499
1679932925976,1112914329747875,-0.13145,0.0066,0.015125
1679932925978,1112914332250274,-0.129525,0.004675,0.020075
1679932925980,1112914334752428,-0.123475,0.0066,0.0191125
1679932925982,1112914337254659,-0.1255375,0.0066,0.0240625
1679932925985,1112914339756813,-0.1265,0.004675,0.0270875
1679932925987,1112914342258961,-0.1265,-0.0023375,0.0301125
1679932925990,1112914344761115,-0.1255375,-0.0053625,0.031075
1679932925993,1112914347263500,-0.1274625,-0.0033,0.037125
1679932925994,1112914349765423,-0.1274625,-0.0103124995,0.039049998
1679932925999,1112914352267813,-0.1304875,-0.0143,0.039049998
1679932926000,1112914354770043,-0.129525,-0.0193875,0.0400125
1679932926003,1112914357272197,-0.1255375,-0.0264,0.0411125
1679932926005,1112914359774351,-0.1265,-0.0292875,0.0411125
1679932926007,1112914362276472,-0.1265,-0.0353375,0.042075
1679932926010,1112914364778626,-0.1304875,-0.0413875,0.044
1679932926012,1112914367280780,-0.13145,-0.0383625,0.047025
1679932926015,1112914369783164,-0.1274625,-0.039325,0.0490875
1679932926019,1112914372285308,-0.13145,-0.0444125,0.0490875
1679932926024,1112914374787462,-0.13255,-0.0433125,0.0521125
1679932926025,1112914377289616,-0.1304875,-0.0383625,0.055
1679932926026,1112914379791770,-0.1274625,-0.0323125,0.058025
1679932926027,1112914382293986,-0.1274625,-0.028324999,0.0570625
1679932926031,1112914384796371,-0.129525,-0.0182875,0.0570625
1679932926032,1112914387298525,-0.1304875,-0.0163625,0.059125
1679932926034,1112914389800679,-0.128425,-0.0053625,0.061049998
1679932926037,1112914392302833,-0.123475,0.00165,0.059125
1679932926040,1112914394804961,-0.124437496,0.0116875,0.061049998
1679932926042,1112914397307115,-0.1255375,0.0246125,0.0620125
1679932926045,1112914399809269,-0.12045,0.0356125,0.0631125
1679932926047,1112914402311500,-0.1164625,0.042625,0.066
1679932926049,1112914404813654,-0.1155,0.048675,0.069025
1679932926051,1112914407315808,-0.1115125,0.0616,0.069025
1679932926054,1112914409817962,-0.107525,0.070675,0.069025
1679932926059,1112914412320346,-0.107525,0.073699996,0.070125
1679932926061,1112914414822274,-0.1054625,0.0836,0.0710875
1679932926062,1112914417324659,-0.106425,0.0886875,0.0710875
1679932926065,1112914419826890,-0.106425,0.092675,0.0671
1679932926068,1112914422329029,-0.104499996,0.0946,0.0631125
1679932926071,1112914424831183,-0.107525,0.093637496,0.061049998
1679932926072,1112914427333337,-0.1084875,0.093637496,0.061049998
1679932926075,1112914429835491,-0.106425,0.0826375,0.055
1679932926077,1112914432337876,-0.1084875,0.0726,0.053075
1679932926079,1112914434840039,-0.1145375,0.0627,0.0490875
1679932926082,1112914437342192,-0.1155,0.048675,0.044
1679932926086,1112914439844346,-0.12155,0.034649998,0.042075
1679932926087,1112914442346577,-0.12045,0.015675,0.039049998
1679932926089,1112914444848640,-0.124437496,-0.0023375,0.033
1679932926092,1112914447350871,-0.13255,-0.0253,0.02805
1679932926095,1112914449853255,-0.1375,-0.04235,0.026124999
1679932926098,1112914452355409,-0.1414875,-0.061325,0.022
1679932926100,1112914454857539,-0.1464375,-0.0814,0.022
1679932926105,1112914457359693,-0.1475375,-0.0983125,0.020075
1679932926106,1112914459861847,-0.151525,-0.1203125,0.0160875
1679932926108,1112914462363996,-0.15455,-0.1364,0.013062499
1679932926110,1112914464866226,-0.1574375,-0.15235,0.014025
1679932926112,1112914467368380,-0.1595,-0.1623875,0.0160875
1679932926114,1112914469870765,-0.15853749,-0.1683,0.015125
1679932926117,1112914472372688,-0.1555125,-0.1793,0.0121
1679932926120,1112914474875063,-0.1574375,-0.182325,0.0191125
1679932926122,1112914477377216,-0.156475,-0.1793,0.015125
1679932926126,1112914479879370,-0.1555125,-0.1783375,0.0121
1679932926127,1112914482381601,-0.1524875,-0.1764125,0.01705
1679932926130,1112914484883751,-0.151525,-0.1654125,0.0240625
1679932926132,1112914487385905,-0.1494625,-0.1573,0.0240625
1679932926134,1112914489888059,-0.145475,-0.14533749,0.026124999
1679932926139,1112914492390443,-0.1414875,-0.1282875,0.031075
1679932926140,1112914494892568,-0.13653749,-0.1172875,0.0341
1679932926143,1112914497394722,-0.13653749,-0.1023,0.039049998
1679932926144,1112914499896876,-0.1335125,-0.0842875,0.044
1679932926147,1112914502399030,-0.1274625,-0.0664125,0.048125
1679932926149,1112914504901260,-0.12155,-0.0433125,0.053075
1679932926152,1112914507403414,-0.118525,-0.0273625,0.059125
1679932926155,1112914509905799,-0.112475,-0.0103124995,0.0631125
1679932926158,1112914512407953,-0.10945,0.009625,0.070125
1679932926160,1112914514910088,-0.107525,0.0286,0.070125
1679932926162,1112914517412241,-0.106425,0.0446875,0.07205
1679932926165,1112914519914395,-0.102437496,0.059675,0.0730125
1679932926167,1112914522416549,-0.09955,0.0716375,0.0741125
1679932926170,1112914524918780,-0.09955,0.0847,0.0741125
1679932926172,1112914527420943,-0.102437496,0.093637496,0.0710875
1679932926175,1112914529923097,-0.102437496,0.103675,0.066
1679932926177,1112914532425250,-0.102437496,0.11165,0.0631125
1679932926181,1112914534927418,-0.104499996,0.114675,0.058025
1679932926183,1112914537429572,-0.106425,0.1137125,0.053075
1679932926184,1112914539932034,-0.10945,0.1056,0.047025
1679932926187,1112914542434188,-0.1145375,0.1056,0.0430375
1679932926192,1112914544936332,-0.1145375,0.0996875,0.0400125
1679932926193,1112914547438486,-0.118525,0.0875875,0.0341
1679932926194,1112914549940640,-0.12155,0.081675,0.0320375
1679932926197,1112914552442794,-0.124437496,0.073699996,0.0301125
1679932926200,1112914554945179,-0.1225125,0.0627,0.0270875
1679932926204,1112914557447327,-0.12045,0.0545875,0.022
1679932926205,1112914559949481,-0.12045,0.0477125,0.0210375
1679932926208,1112914562451635,-0.12045,0.0367125,0.020075
1679932926210,1112914564953789,-0.118525,0.0246125,0.0160875
1679932926212,1112914567456020,-0.1145375,0.026675,0.013062499
1679932926214,1112914569958160,-0.113437496,0.0166375,0.0100375
1679932926218,1112914572460544,-0.11055,0.01265,0.0081124995
1679932926221,1112914574962698,-0.1084875,0.01265,0.00605
1679932926223,1112914577464852,-0.104499996,0.0026125,0.0050875
1679932926225,1112914579966996,-0.09845,0.0066,0.00605
1679932926228,1112914582469150,-0.09955,0.0056375,0.0020625
1679932926230,1112914584971303,-0.0974875,0.009625,0.0020625
1679932926232,1112914587473534,-0.096525,0.0105875,0.00605
1679932926235,1112914589975722,-0.0974875,0.0056375,0.00605
1679932926237,1112914592477876,-0.096525,0.0116875,0.0070125
1679932926240,1112914594980030,-0.095425,0.014712499,0.009075
1679932926242,1112914597482414,-0.096525,0.0166375,0.011
1679932926245,1112914599984568,-0.0974875,0.015675,0.015125
1679932926247,1112914602486712,-0.09955,0.01265,0.01705
1679932926250,1112914604988943,-0.101475,0.015675,0.01705
1679932926252,1112914607491097,-0.09845,0.014712499,0.020075
1679932926256,1112914609993251,-0.09955,0.01265,0.0210375
1679932926259,1112914612495399,-0.104499996,0.01265,0.020075
1679932926260,1112914614997553,-0.1084875,0.0077,0.01705
1679932926262,1112914617499707,-0.10945,0.0037125,0.0191125
1679932926265,1112914620002092,-0.10945,-4.125E-4,0.0210375
1679932926267,1112914622504246,-0.1145375,-0.0044,0.022
1679932926270,1112914625006409,-0.12155,-0.0103124995,0.0210375
1679932926272,1112914627508640,-0.123475,-0.0163625,0.0210375
1679932926275,1112914630010717,-0.1255375,-0.0193875,0.0231
1679932926277,1112914632512948,-0.128425,-0.0264,0.0210375
1679932926280,1112914635015333,-0.129525,-0.03135,0.0191125
1679932926282,1112914637517476,-0.13255,-0.0383625,0.020075
1679932926285,1112914640019630,-0.1384625,-0.045375,0.01705
1679932926288,1112914642521784,-0.139425,-0.0473,0.01705
1679932926291,1112914645023938,-0.1384625,-0.0493625,0.0210375
1679932926293,1112914647526107,-0.13255,-0.0523875,0.022
1679932926295,1112914650028261,-0.1304875,-0.0512875,0.0210375
1679932926297,1112914652530491,-0.13145,-0.0512875,0.0210375
1679932926299,1112914655032876,-0.1274625,-0.0463375,0.022
1679932926302,1112914657535030,-0.1265,-0.04235,0.0231
1679932926306,1112914660036953,-0.123475,-0.0433125,0.0231
1679932926309,1112914662539338,-0.124437496,-0.034375,0.020075
1679932926311,1112914665041492,-0.12045,-0.02035,0.0210375
1679932926313,1112914667543722,-0.118525,-0.012375,0.01705
1679932926315,1112914670045900,-0.1145375,6.875E-4,0.014025
1679932926318,1112914672548054,-0.1115125,0.0166375,0.0121
1679932926321,1112914675050208,-0.1115125,0.0286,0.0070125
1679932926323,1112914677552362,-0.10945,0.0386375,0.0020625
1679932926325,1112914680054525,-0.101475,0.0545875,0.0011
1679932926328,1112914682556678,-0.09845,0.0697125,-0.001925
1679932926331,1112914685059140,-0.096525,0.081675,-0.0059125
1679932926333,1112914687561217,-0.0925375,0.092675,-0.007975
1679932926335,1112914690063472,-0.091437496,0.1016125,-0.007975
1679932926340,1112914692565626,-0.090475,0.1076625,-0.0059125
1679932926343,1112914695067779,-0.0895125,0.114675,-0.0028875
1679932926345,1112914697569933,-0.0895125,0.12265,-0.0039875
1679932926347,1112914700072309,-0.0895125,0.1287,-0.00495
1679932926349,1112914702574463,-0.0944625,0.13365,-0.0028875
1679932926350,1112914705076617,-0.096525,0.136675,0.0011
1679932926353,1112914707578770,-0.101475,0.1397,0.0050875
1679932926355,1112914710080914,-0.1035375,0.1406625,0.0050875
1679932926361,1112914712583068,-0.1054625,0.13859999,0.0081124995
1679932926361,1112914715085530,-0.10945,0.1425875,0.011
1679932926364,1112914717587453,-0.113437496,0.1486375,0.011
1679932926365,1112914720089837,-0.1194875,0.1486375,0.0121
1679932926370,1112914722592005,-0.1225125,0.152625,0.014025
1679932926371,1112914725094159,-0.1304875,0.1546875,0.013062499
1679932926373,1112914727596313,-0.1304875,0.1566125,0.0100375
1679932926375,1112914730098467,-0.1384625,0.1566125,0.011
1679932926379,1112914732600698,-0.1445125,0.158675,0.013062499
1679932926381,1112914735102870,-0.1475375,0.1606,0.013062499
1679932926383,1112914737605024,-0.15345,0.163625,0.009075
1679932926385,1112914740107178,-0.1574375,0.1606,0.013062499
1679932926391,1112914742609563,-0.162525,0.1596375,0.013062499
1679932926393,1112914745111506,-0.16445,0.1606,0.009075
1679932926395,1112914747613890,-0.16445,0.1645875,0.014025
1679932926397,1112914750116121,-0.16445,0.163625,0.014025
1679932926399,1112914752618275,-0.16445,0.16665,0.015125
1679932926400,1112914755120429,-0.162525,0.1645875,0.0160875
1679932926402,1112914757622592,-0.15455,0.1645875,0.01705
1679932926406,1112914760124746,-0.139425,0.163625,0.01705
1679932926409,1112914762626899,-0.129525,0.158675,0.01705
1679932926411,1112914765129284,-0.1194875,0.1606,0.0191125
1679932926412,1112914767631438,-0.1084875,0.1606,0.015125
1679932926415,1112914770133592,-0.096525,0.158675,0.0121
1679932926418,1112914772635823,-0.08745,0.1535875,0.011
1679932926420,1112914775137899,-0.0815375,0.1535875,0.0081124995
1679932926422,1112914777640029,-0.073425,0.1507,0.004125
1679932926426,1112914780142491,-0.0705375,0.1496,0.0
1679932926429,1112914782644414,-0.06655,0.1496,-0.0028875
1679932926430,1112914785146799,-0.063525,0.1436875,-0.0059125
1679932926432,1112914787648971,-0.063525,0.1346125,-0.0089375
1679932926437,1112914790151202,-0.0614625,0.1276,-0.011
1679932926439,1112914792653356,-0.0644875,0.1205875,-0.01595
1679932926442,1112914795155433,-0.0614625,0.1095875,-0.017875
1679932926444,1112914797657659,-0.05555,0.10065,-0.0229625
1679932926445,1112914800159813,-0.05555,0.0847,-0.0248875
1679932926448,1112914802661966,-0.0534875,0.0726,-0.033
1679932926450,1112914805164120,-0.054449998,0.0616,-0.0389125
1679932926452,1112914807666505,-0.0495,0.0477125,-0.0449625
1679932926455,1112914810168673,-0.0455125,0.0367125,-0.0539
1679932926459,1112914812670827,-0.0455125,0.0276375,-0.062975
1679932926461,1112914815172980,-0.040425,0.0116875,-0.0699875
1679932926462,1112914817675134,-0.0385,-0.0023375,-0.077
1679932926465,1112914820177365,-0.0375375,-0.0133375,-0.088
1679932926468,1112914822679519,-0.03355,-0.0253,-0.095975
1679932926470,1112914825181904,-0.029424999,-0.0413875,-0.1049125
1679932926472,1112914827684057,-0.0235125,-0.0543125,-0.1109625
1679932926475,1112914830186216,-0.0235125,-0.0653125,-0.122925
1679932926479,1112914832688370,-0.02145,-0.0793375,-0.1329625
1679932926481,1112914835190524,-0.019524999,-0.0952875,-0.1379125
1679932926483,1112914837692755,-0.018424999,-0.1023,-0.144925
1679932926485,1112914840194910,-0.0144375,-0.1123375,-0.1529
1679932926488,1112914842697063,-0.0125124995,-0.1214125,-0.15895
1679932926490,1112914845199217,-0.01155,-0.1282875,-0.1659625
1679932926492,1112914847701371,-0.0125124995,-0.13035,-0.16499999
1679932926495,1112914850203510,-0.01045,-0.1313125,-0.166925
1679932926499,1112914852705664,-0.008525,-0.1313125,-0.1678875
1679932926500,1112914855208125,-0.0045375,-0.11935,-0.16499999
1679932926502,1112914857710279,5.5E-4,-0.1172875,-0.16499999
1679932926505,1112914860212433,0.003575,-0.1144,-0.1579875
1679932926508,1112914862714573,0.01155,-0.1013375,-0.150975
1679932926510,1112914865216727,0.0185625,-0.0963875,-0.14795
1679932926512,1112914867718881,0.025575,-0.091299996,-0.14093749
1679932926515,1112914870221265,0.035475,-0.0793375,-0.132
1679932926521,1112914872723438,0.0394625,-0.069299996,-0.127875
1679932926523,1112914875224515,0.046475,-0.0603625,-0.1189375
1679932926523,1112914877725592,0.05555,-0.0523875,-0.111925
1679932926527,1112914880229900,0.06545,-0.0383625,-0.108899996
1679932926529,1112914882732054,0.0735625,-0.0273625,-0.1029875
1679932926530,1112914885234284,0.07645,-0.017324999,-0.1049125
1679932926533,1112914887736669,0.0845625,-0.0114124995,-0.10395
1679932926535,1112914890238823,0.0944625,-0.0044,-0.1018875
1679932926538,1112914892740977,0.096525,-0.001375,-0.1029875
1679932926541,1112914895243155,0.1054625,0.004675,-0.106975
1679932926543,1112914897745308,0.1054625,0.0056375,-0.111925
1679932926545,1112914900247462,0.11055,0.009625,-0.1159125
1679932926548,1112914902749693,0.112475,0.009625,-0.117975
1679932926552,1112914905251842,0.1145375,0.0066,-0.1238875
1679932926553,1112914907753996,0.1145375,0.004675,-0.1238875
1679932926556,1112914910256150,0.112475,0.00165,-0.12595
1679932926559,1112914912758303,0.1164625,-0.0114124995,-0.12595
1679932926560,1112914915260669,0.12045,-0.02035,-0.12595
1679932926563,1112914917762592,0.124575,-0.0374,-0.122925
1679932926565,1112914920265054,0.129525,-0.05335,-0.1219625
1679932926570,1112914922767208,0.1285625,-0.0633875,-0.121
1679932926571,1112914925269361,0.1285625,-0.078375,-0.1189375
1679932926573,1112914927771515,0.13255,-0.0842875,-0.117975
1679932926575,1112914930273669,0.135575,-0.091299996,-0.117975
1679932926579,1112914932775823,0.140525,-0.0994125,-0.1128875
1679932926580,1112914935278208,0.145475,-0.1043625,-0.1079375
1679932926582,1112914937780337,0.1505625,-0.10835,-0.11
1679932926586,1112914940282491,0.1524875,-0.113299996,-0.10395
1679932926589,1112914942784722,0.157575,-0.113299996,-0.1029875
1679932926591,1112914945286876,0.1665125,-0.10835,-0.1029875
1679932926594,1112914947788962,0.167475,-0.100375,-0.100925
1679932926595,1112914950291423,0.1725625,-0.0933625,-0.095975
1679932926598,1112914952793577,0.1815,-0.0823625,-0.099
1679932926600,1112914955295731,0.18645,-0.067375,-0.099
1679932926602,1112914957797885,0.190575,-0.0484,-0.100925
1679932926605,1112914960300039,0.195525,-0.03135,-0.1029875
1679932926609,1112914962802193,0.2035,-0.00935,-0.1049125
1679932926610,1112914965304346,0.2055625,0.0056375,-0.1109625
1679932926613,1112914967806577,0.2105125,0.026675,-0.1109625
1679932926615,1112914970308712,0.2105125,0.0477125,-0.1159125
1679932926618,1112914972811097,0.2105125,0.0616,-0.1159125
1679932926620,1112914975313020,0.20955,0.0807125,-0.117975
1679932926622,1112914977815174,0.212575,0.097625,-0.121
1679932926625,1112914980317573,0.2154625,0.1126125,-0.1189375
1679932926628,1112914982819804,0.2145,0.125675,-0.11495
1679932926631,1112914985321958,0.2145,0.1376375,-0.1079375
1679932926632,1112914987824112,0.217525,0.1486375,-0.1018875
1679932926635,1112914990326275,0.21945,0.1596375,-0.094875
1679932926639,1112914992828428,0.21945,0.1687125,-0.0889625
1679932926640,1112914995330582,0.22055,0.1727,-0.08195
1679932926643,1112914997832736,0.22247499,0.17765,-0.0759
1679932926649,1112915000335131,0.223575,0.17765,-0.0699875
1679932926649,1112915002837362,0.223575,0.1727,-0.061875
1679932926650,1112915005339438,0.223575,0.1716,-0.055
1679932926653,1112915007841669,0.22247499,0.1706375,-0.055
1679932926655,1112915010343823,0.217525,0.1656875,-0.0539
1679932926658,1112915012845890,0.211475,0.1507,-0.0499125
1679932926660,1112915015348352,0.2044625,0.13859999,-0.0479875
1679932926662,1112915017850505,0.19745,0.1205875,-0.0449625
1679932926665,1112915020352673,0.1934625,0.1016125,-0.0449625
1679932926670,1112915022854827,0.1885125,0.073699996,-0.039875
1679932926671,1112915025356981,0.17847499,0.0477125,-0.0369875
1679932926673,1112915027859135,0.1744875,0.0196625,-0.034925
1679932926675,1112915030361366,0.1695375,-0.0114124995,-0.029975
1679932926679,1112915032863529,0.167475,-0.0383625,-0.0279125
1679932926680,1112915035365683,0.162525,-0.067375,-0.022
1679932926683,1112915037868068,0.156475,-0.0983125,-0.0199375
1679932926685,1112915040370222,0.1524875,-0.1263625,-0.0149875
1679932926689,1112915042872362,0.1494625,-0.1544125,-0.006875
1679932926690,1112915045374516,0.14355,-0.1753125,-0.0039875
1679932926693,1112915047876746,0.14245,-0.193325,0.0011
1679932926695,1112915050378900,0.1414875,-0.2143625,0.0050875
1679932926698,1112915052881053,0.1384625,-0.2253625,0.011
1679932926700,1112915055383207,0.135575,-0.232375,0.0210375
1679932926704,1112915057885361,0.134475,-0.2413125,0.026124999
1679932926709,1112915060387482,0.1335125,-0.2363625,0.031075
1679932926710,1112915062889866,0.13145,-0.2363625,0.037125
1679932926711,1112915065392097,0.124575,-0.2343,0.039049998
1679932926713,1112915067894251,0.1225125,-0.2204125,0.0400125
1679932926715,1112915070396328,0.1225125,-0.210375,0.0430375
1679932926720,1112915072898558,0.1175625,-0.199375,0.044
1679932926721,1112915075400712,0.12155,-0.177375,0.0451
1679932926723,1112915077902866,0.123475,-0.1593625,0.047025
1679932926725,1112915080405251,0.1194875,-0.14533749,0.048125
1679932926728,1112915082907405,0.1164625,-0.1243,0.0490875
1679932926730,1112915085409573,0.1115125,-0.0994125,0.0451
1679932926732,1112915087911726,0.1005125,-0.0774125,0.0451
1679932926735,1112915090413880,0.0895125,-0.0473,0.0451
1679932926742,1112915092916111,0.0785125,-0.0224125,0.0411125
1679932926742,1112915095418265,0.069575,-0.0023375,0.0411125
1679932926744,1112915097920419,0.0614625,0.0166375,0.042075
1679932926745,1112915100422573,0.0565125,0.0246125,0.0411125
1679932926748,1112915102924957,0.0515625,0.0325875,0.0430375
1679932926750,1112915105427111,0.046475,0.0336875,0.0451
1679932926752,1112915107929352,0.0485375,0.0286,0.053075
1679932926757,1112915110431506,0.0534875,0.0286,0.061049998
1679932926760,1112915112933660,0.0565125,0.031625,0.0650375
1679932926760,1112915115435818,0.0565125,0.0297,0.07205
1679932926763,1112915117937972,0.057475,0.0435875,0.078099996
1679932926767,1112915120440126,0.0625625,0.0556875,0.077
1679932926768,1112915122942511,0.0644875,0.0686125,0.0730125
1679932926775,1112915125444631,0.058575,0.086625,0.069025
1679932926775,1112915127946784,0.0605,0.1027125,0.064075
1679932926777,1112915130448938,0.0625625,0.1126125,0.0561
1679932926778,1112915132951092,0.057475,0.115637496,0.0451
1679932926781,1112915135453323,0.058575,0.1076625,0.0380875
1679932926783,1112915137955726,0.0534875,0.104637496,0.0320375
1679932926785,1112915140457880,0.0495,0.0985875,0.02805
1679932926788,1112915142960034,0.043449998,0.0886875,0.026124999
1679932926791,1112915145462188,0.0394625,0.0807125,0.026124999
1679932926792,1112915147964342,0.0385,0.0666875,0.0290125
1679932926795,1112915150466496,0.0375375,0.056649998,0.0320375
1679932926799,1112915152968727,0.0345125,0.0517,0.0320375
1679932926800,1112915155470880,0.035475,0.0446875,0.036025
1679932926804,1112915157972986,0.0314875,0.0356125,0.0380875
1679932926805,1112915160475140,0.0284625,0.0306625,0.0341
1679932926808,1112915162977294,0.0314875,0.0325875,0.0320375
1679932926810,1112915165479448,0.032449998,0.0336875,0.031075
1679932926816,1112915167981783,0.0394625,0.031625,0.0320375
1679932926816,1112915170483937,0.052525,0.0306625,0.0341
1679932926819,1112915172986168,0.06545,0.0226875,0.0320375
1679932926821,1112915175488322,0.0754875,0.0215875,0.0341
1679932926822,1112915177990476,0.090475,0.020624999,0.037125
1679932926826,1112915180492596,0.1054625,0.020624999,0.039049998
1679932926829,1112915182994749,0.1194875,0.0246125,0.042075
1679932926830,1112915185497134,0.1335125,0.031625,0.048125
1679932926833,1112915187999288,0.1395625,0.037675,0.050049998
1679932926837,1112915190501414,0.1485,0.042625,0.0570625
1679932926839,1112915193003568,0.157575,0.0506,0.061049998
1679932926841,1112915195505798,0.162525,0.0606375,0.066
1679932926843,1112915198007952,0.168575,0.0765875,0.069025
1679932926845,1112915200510029,0.1695375,0.086625,0.07205
1679932926849,1112915203012486,0.167475,0.095699996,0.075075
1679932926850,1112915205514640,0.162525,0.1056,0.0760375
1679932926853,1112915208016793,0.156475,0.1067,0.07205
1679932926856,1112915210518947,0.1505625,0.11165,0.070125
1679932926859,1112915213021115,0.14245,0.1166,0.064075
1679932926860,1112915215523269,0.135575,0.1126125,0.058025
1679932926862,1112915218025500,0.1255375,0.1095875,0.053075
1679932926865,1112915220527654,0.112475,0.104637496,0.047025
1679932926869,1112915223029817,0.102575,0.10065,0.0430375
1679932926871,1112915225532202,0.0925375,0.0946,0.0380875
1679932926873,1112915228034125,0.085525,0.0906125,0.033
1679932926875,1112915230536510,0.07755,0.0875875,0.025024999
1679932926879,1112915233038673,0.0754875,0.0856625,0.01705
1679932926880,1112915235540903,0.0705375,0.0826375,0.0100375
1679932926883,1112915238043057,0.0705375,0.0807125,0.0011
1679932926885,1112915240545211,0.068475,0.075625,-0.007975
1679932926889,1112915243047370,0.06655,0.073699996,-0.01595
1679932926891,1112915245549524,0.06655,0.070675,-0.0229625
1679932926894,1112915248051678,0.06655,0.06765,-0.0319
1679932926895,1112915250554062,0.06545,0.0636625,-0.03795
1679932926898,1112915253056221,0.069575,0.0556875,-0.0419375
1679932926900,1112915255558452,0.0705375,0.0506,-0.044
1679932926903,1112915258060529,0.069575,0.0435875,-0.04895
1679932926905,1112915260562760,0.069575,0.0356125,-0.0499125
1679932926909,1112915263064903,0.068475,0.020624999,-0.045925
1679932926910,1112915265567288,0.0705375,0.0105875,-0.040975
1679932926913,1112915268069442,0.06655,-4.125E-4,-0.0339625
1679932926915,1112915270571596,0.069575,-0.0103124995,-0.0259875
1679932926920,1112915273073764,0.074525,-0.0224125,-0.0209
1679932926921,1112915275575918,0.0724625,-0.0353375,-0.0149875
1679932926923,1112915278078071,0.0754875,-0.0433125,-0.0059125
1679932926925,1112915280580225,0.082499996,-0.05335,0.0011
1679932926929,1112915283082687,0.085525,-0.06435,0.0070125
1679932926934,1112915285584634,0.0895125,-0.07535,0.011
1679932926935,1112915288086788,0.0955625,-0.0814,0.020075
1679932926937,1112915290589172,0.1005125,-0.0873125,0.015125
1679932926939,1112915293091326,0.104499996,-0.0884125,0.025024999
1679932926942,1112915295593273,0.1035375,-0.0884125,0.026124999
1679932926943,1112915298095735,0.1035375,-0.0873125,0.0240625
1679932926945,1112915300597889,0.104499996,-0.08635,0.025024999
1679932926948,1112915303100042,0.1054625,-0.0814,0.0210375
1679932926950,1112915305602201,0.1054625,-0.078375,0.0191125
1679932926953,1112915308104355,0.104499996,-0.072325,0.020075
1679932926956,1112915310606509,0.096525,-0.0653125,0.020075
1679932926959,1112915313108894,0.0925375,-0.061325,0.0191125
1679932926960,1112915315611048,0.0925375,-0.05335,0.0191125
1679932926963,1112915318113201,0.090475,-0.0473,0.01705
1679932926965,1112915320615432,0.0845625,-0.0444125,0.0160875
1679932926970,1112915323117586,0.085525,-0.0433125,0.0191125
1679932926972,1112915325619745,0.082499996,-0.039325,0.020075
1679932926974,1112915328121899,0.0785125,-0.0334125,0.020075
1679932926976,1112915330624283,0.07755,-0.0303875,0.020075
1679932926979,1112915333126437,0.07755,-0.0303875,0.0231
1679932926981,1112915335628591,0.07755,-0.03135,0.0240625
1679932926983,1112915338130769,0.0735625,-0.0253,0.0231
1679932926986,1112915340632923,0.0735625,-0.0243375,0.0210375
1679932926989,1112915343135077,0.0735625,-0.0273625,0.022
1679932926992,1112915345637307,0.0705375,-0.0224125,0.0240625
1679932926993,1112915348139730,0.0705375,-0.0213125,0.025024999
1679932926995,1112915350641884,0.0705375,-0.0182875,0.0270875
1679932927000,1112915353143807,0.0705375,-0.0163625,0.025024999
1679932927002,1112915355646192,0.069575,-0.0163625,0.0231
1679932927004,1112915358148374,0.068475,-0.012375,0.022
1679932927008,1112915360650528,0.06655,-0.0103124995,0.0191125
1679932927010,1112915363152759,0.06655,-0.0083875,0.0160875
1679932927012,1112915365654913,0.0625625,-0.0083875,0.01705
1679932927013,1112915368157072,0.0644875,-0.0083875,0.014025
1679932927015,1112915370659456,0.0625625,-0.0083875,0.011
1679932927019,1112915373161379,0.0614625,-0.0072875,0.0100375
1679932927021,1112915375663533,0.0595375,-0.0083875,0.0070125
1679932927024,1112915378165990,0.057475,-0.012375,0.0081124995
1679932927026,1112915380668144,0.057475,-0.012375,0.009075
1679932927029,1112915383170298,0.0595375,-0.0182875,0.0081124995
1679932927030,1112915385672451,0.057475,-0.0253,0.0100375
1679932927033,1112915388174605,0.05555,-0.0273625,0.0121
1679932927035,1112915390676764,0.0565125,-0.028324999,0.014025
1679932927039,1112915393178918,0.054449998,-0.034375,0.015125
1679932927041,1112915395681303,0.0534875,-0.0383625,0.0191125
1679932927044,1112915398183456,0.054449998,-0.039325,0.0210375
1679932927045,1112915400685370,0.05555,-0.04235,0.0231
1679932927049,1112915403187754,0.05555,-0.0444125,0.0240625
1679932927051,1112915405689985,0.054449998,-0.045375,0.026124999
1679932927053,1112915408192139,0.0534875,-0.0473,0.02805
1679932927055,1112915410694303,0.05555,-0.0512875,0.0290125
1679932927059,1112915413196456,0.057475,-0.0512875,0.037125
1679932927061,1112915415698610,0.0565125,-0.0543125,0.037125
1679932927063,1112915418200995,0.06545,-0.061325,0.0411125
1679932927065,1112915420703149,0.0675125,-0.06435,0.0460625
1679932927069,1112915423205303,0.06545,-0.069299996,0.048125
1679932927071,1112915425707533,0.068475,-0.078375,0.050049998
1679932927073,1112915428209687,0.069575,-0.0814,0.0570625
1679932927076,1112915430711846,0.0715,-0.0884125,0.0600875
1679932927078,1112915433214000,0.0754875,-0.094325,0.0631125
1679932927081,1112915435716154,0.07755,-0.0963875,0.0730125
1679932927083,1112915438218538,0.079475,-0.1034,0.0710875
1679932927086,1112915440720692,0.082499996,-0.10835,0.0760375
1679932927088,1112915443222836,0.0815375,-0.10835,0.078099996
1679932927091,1112915445724990,0.0754875,-0.113299996,0.078099996
1679932927094,1112915448227221,0.07645,-0.1172875,0.081125
1679932927095,1112915450729298,0.079475,-0.11935,0.0820875
1679932927102,1112915453231518,0.0815375,-0.122375,0.086075
1679932927103,1112915455733903,0.07645,-0.1254,0.0851125
1679932927104,1112915458235826,0.074525,-0.122375,0.081125
1679932927105,1112915460738211,0.0724625,-0.1214125,0.086075
1679932927109,1112915463240389,0.068475,-0.1214125,0.088
1679932927110,1112915465742543,0.069575,-0.116325,0.092125
1679932927113,1112915468244773,0.069575,-0.113299996,0.092125
1679932927115,1112915470746927,0.0625625,-0.1104125,0.091025
1679932927120,1112915473249048,0.0614625,-0.1073875,0.0900625
1679932927122,1112915475751202,0.0595375,-0.0983125,0.092125
1679932927127,1112915478253356,0.0595375,-0.0963875,0.091025
1679932927128,1112915480755510,0.0595375,-0.0884125,0.0930875
1679932927129,1112915483257894,0.058575,-0.078375,0.0900625
1679932927131,1112915485760125,0.0605,-0.069299996,0.0891
1679932927133,1112915488262202,0.0625625,-0.0622875,0.088
1679932927138,1112915490764433,0.0644875,-0.0484,0.087037496
1679932927139,1112915493266586,0.0644875,-0.0374,0.0820875
1679932927141,1112915495768778,0.068475,-0.028324999,0.0730125
1679932927143,1112915498270932,0.0705375,-0.0154,0.0730125
1679932927146,1112915500773317,0.0705375,-0.0072875,0.07205
1679932927149,1112915503275471,0.0705375,0.0026125,0.0650375
1679932927150,1112915505777625,0.0724625,0.0116875,0.0620125
1679932927155,1112915508279754,0.0724625,0.020624999,0.058025
1679932927158,1112915510781908,0.068475,0.02365,0.055
1679932927159,1112915513284139,0.068475,0.026675,0.0540375
1679932927161,1112915515786216,0.0735625,0.02365,0.048125
1679932927163,1112915518288677,0.0724625,0.0215875,0.0451
1679932927166,1112915520790812,0.069575,0.0196625,0.0430375
1679932927169,1112915523292966,0.069575,0.0077,0.0411125
1679932927171,1112915525795120,0.069575,6.875E-4,0.039049998
1679932927173,1112915528297274,0.068475,-0.00935,0.0380875
1679932927175,1112915530799413,0.069575,-0.0273625,0.036025
1679932927179,1112915533301644,0.069575,-0.04235,0.037125
1679932927180,1112915535803797,0.0715,-0.0573375,0.0341
1679932927183,1112915538305951,0.0715,-0.0713625,0.036025
1679932927185,1112915540808341,0.068475,-0.0853875,0.0400125
1679932927189,1112915543310495,0.068475,-0.105325,0.039049998
1679932927190,1112915545812418,0.068475,-0.1243,0.0341
1679932927194,1112915548314879,0.06655,-0.1403875,0.039049998
1679932927195,1112915550817033,0.0644875,-0.155375,0.0400125
1679932927199,1112915553319192,0.0625625,-0.1683,0.0380875
1679932927200,1112915555821346,0.0605,-0.182325,0.037125
1679932927203,1112915558323500,0.0605,-0.1923625,0.036025
1679932927205,1112915560825654,0.0625625,-0.199375,0.036025
1679932927209,1112915563327807,0.0675125,-0.2063875,0.031075
1679932927210,1112915565830192,0.068475,-0.2094125,0.02805
1679932927213,1112915568332346,0.0715,-0.2063875,0.02805
1679932927216,1112915570834577,0.07645,-0.2063875,0.026124999
1679932927219,1112915573336659,0.0834625,-0.2013,0.0240625
1679932927220,1112915575838812,0.08745,-0.2003375,0.0191125
1679932927223,1112915578341043,0.090475,-0.1984125,0.0210375
1679932927226,1112915580843428,0.0935,-0.19635,0.020075
1679932927229,1112915583345553,0.1005125,-0.1874125,0.0210375
1679932927231,1112915585847707,0.0935,-0.1804,0.020075
1679932927233,1112915588349860,0.090475,-0.1813625,0.020075
1679932927235,1112915590852014,0.0895125,-0.171325,0.0240625
1679932927239,1112915593354153,0.0895125,-0.1703625,0.0231
1679932927242,1112915595856307,0.0864875,-0.16733749,0.0301125
1679932927243,1112915598358538,0.085525,-0.16733749,0.031075
1679932927246,1112915600860922,0.0864875,-0.1654125,0.0320375
1679932927249,1112915603362850,0.0895125,-0.1593625,0.0341
1679932927251,1112915605865235,0.0895125,-0.155375,0.036025
1679932927253,1112915608367389,0.0935,-0.1483625,0.033
1679932927256,1112915610869312,0.0935,-0.14533749,0.0290125
1679932927259,1112915613371755,0.0944625,-0.14135,0.025024999
1679932927260,1112915615873908,0.09845,-0.1403875,0.022
1679932927263,1112915618376062,0.1005125,-0.1353,0.01705
1679932927265,1112915620878216,0.1065625,-0.1373625,0.014025
1679932927270,1112915623380346,0.10945,-0.1343375,0.0100375
1679932927278,1112915625882500,0.1084875,-0.1353,0.009075
1679932927281,1112915628384884,0.107525,-0.14135,0.0070125
1679932927281,1112915630887038,0.1084875,-0.1463,0.0070125
1679932927281,1112915633389192,0.1084875,-0.1434125,0.009075
1679932927281,1112915635891394,0.1005125,-0.14135,0.0121
1679932927283,1112915638393548,0.096525,-0.1463,0.011
1679932927285,1112915640895702,0.096525,-0.1463,0.0121
1679932927289,1112915643397855,0.0925375,-0.15235,0.020075
1679932927290,1112915645900274,0.0895125,-0.1544125,0.020075
1679932927293,1112915648402428,0.0845625,-0.1544125,0.0210375
1679932927295,1112915650904582,0.085525,-0.1573,0.022
1679932927298,1112915653406736,0.0845625,-0.160325,0.0231
1679932927300,1112915655908874,0.0834625,-0.1544125,0.0191125
1679932927303,1112915658411105,0.08745,-0.1513875,0.0160875
1679932927306,1112915660913259,0.0864875,-0.14533749,0.011
1679932927309,1112915663415413,0.08855,-0.14135,0.004125
1679932927311,1112915665917789,0.090475,-0.1423125,0.0
1679932927314,1112915668419712,0.0935,-0.133375,-0.0089375
1679932927316,1112915670922096,0.09955,-0.127325,-0.017875
1679932927320,1112915673424250,0.1054625,-0.1282875,-0.0259875
1679932927321,1112915675926438,0.1155,-0.1243,-0.0339625
1679932927323,1112915678428669,0.118525,-0.1203125,-0.0449625
1679932927326,1112915680930823,0.1225125,-0.116325,-0.0559625
1679932927329,1112915683432976,0.1274625,-0.116325,-0.062975
1679932927330,1112915685935130,0.1265,-0.113299996,-0.067925
1679932927334,1112915688437294,0.13145,-0.105325,-0.07095
1679932927336,1112915690939448,0.1335125,-0.1023,-0.072875
1679932927342,1112915693441910,0.13145,-0.100375,-0.073975
1679932927343,1112915695944063,0.129525,-0.0933625,-0.0749375
1679932927344,1112915698446154,0.13145,-0.0903375,-0.072875
1679932927346,1112915700948385,0.1255375,-0.0842875,-0.073975
1679932927352,1112915703450539,0.1265,-0.0774125,-0.077
1679932927352,1112915705952924,0.1255375,-0.07535,-0.072875
1679932927353,1112915708455077,0.124437496,-0.0683375,-0.067925
1679932927358,1112915710956982,0.124437496,-0.0653125,-0.067925
1679932927360,1112915713459366,0.118525,-0.0633875,-0.064899996
1679932927361,1112915715961520,0.1175625,-0.0603625,-0.0609125
1679932927364,1112915718463674,0.1194875,-0.0573375,-0.0589875
1679932927366,1112915720965905,0.118525,-0.0554125,-0.0539
1679932927369,1112915723468044,0.1164625,-0.0512875,-0.051975
1679932927373,1112915725970197,0.1194875,-0.045375,-0.045925
1679932927373,1112915728472582,0.1145375,-0.0484,-0.040975
1679932927376,1112915730974505,0.112475,-0.0493625,-0.039875
1679932927379,1112915733476669,0.1145375,-0.0473,-0.039875
1679932927383,1112915735979130,0.112475,-0.0463375,-0.0389125
1679932927384,1112915738481284,0.1145375,-0.050325,-0.040975
1679932927385,1112915740983438,0.112475,-0.0583,-0.040975
1679932927389,1112915743485602,0.1054625,-0.0633875,-0.0419375
1679932927391,1112915745987756,0.1054625,-0.0664125,-0.044
1679932927393,1112915748489910,0.102437496,-0.0704,-0.0479875
1679932927395,1112915750992064,0.0955625,-0.0814,-0.04895
1679932927399,1112915753494462,0.091437496,-0.0924,-0.0529375
1679932927401,1112915755996616,0.091437496,-0.0994125,-0.0529375
1679932927405,1112915758498847,0.08745,-0.111375,-0.055
1679932927406,1112915761000924,0.0845625,-0.1203125,-0.056925
1679932927410,1112915763503107,0.085525,-0.133375,-0.0559625
1679932927411,1112915766005337,0.0864875,-0.1434125,-0.0578875
1679932927413,1112915768507722,0.08745,-0.155375,-0.0578875
1679932927416,1112915771009876,0.082499996,-0.166375,-0.0539
1679932927422,1112915773511991,0.082499996,-0.1753125,-0.0539
1679932927422,1112915776014145,0.0834625,-0.1832875,-0.050875
1679932927423,1112915778516298,0.07755,-0.1903,-0.04895
1679932927426,1112915781018452,0.082499996,-0.1942875,-0.0499125
1679932927429,1112915783520683,0.085525,-0.19635,-0.045925
1679932927432,1112915786022837,0.0845625,-0.2033625,-0.0419375
1679932927433,1112915788524991,0.0815375,-0.2003375,-0.044
1679932927436,1112915791027145,0.079475,-0.2013,-0.0419375
1679932927439,1112915793529298,0.079475,-0.2013,-0.039875
1679932927442,1112915796031683,0.074525,-0.2033625,-0.03795
1679932927443,1112915798533630,0.0754875,-0.1953875,-0.0389125
1679932927446,1112915801036092,0.0785125,-0.193325,-0.0389125
1679932927449,1112915803538246,0.079475,-0.1923625,-0.03795
1679932927453,1112915806040399,0.0845625,-0.1863125,-0.03795
1679932927454,1112915808542548,0.0895125,-0.1793,-0.03795
1679932927457,1112915811044702,0.0955625,-0.1683,-0.0369875
1679932927459,1112915813546856,0.101475,-0.1612875,-0.040975
1679932927461,1112915816049317,0.1115125,-0.1573,-0.0429
1679932927463,1112915818551394,0.1164625,-0.14533749,-0.0419375
1679932927466,1112915821053548,0.124437496,-0.1282875,-0.0389125
1679932927469,1112915823555779,0.134475,-0.113299996,-0.034925
1679932927471,1112915826057856,0.1384625,-0.09735,-0.033
1679932927477,1112915828560068,0.1414875,-0.0814,-0.029975
1679932927477,1112915831062222,0.1485,-0.067375,-0.0279125
1679932927480,1112915833564606,0.1494625,-0.05335,-0.023924999
1679932927481,1112915836066760,0.1524875,-0.0374,-0.0209
1679932927483,1112915838568914,0.1524875,-0.0243375,-0.018975
1679932927486,1112915841071063,0.1505625,-0.0133375,-0.01595
1679932927489,1112915843573217,0.1494625,0.0026125,-0.012925
1679932927492,1112915846075370,0.1485,0.004675,-0.01595
1679932927495,1112915848577601,0.1445125,0.01265,-0.01595
1679932927497,1112915851079760,0.1395625,0.02365,-0.0169125
1679932927499,1112915853582145,0.13653749,0.026675,-0.017875
1679932927501,1112915856084068,0.13145,0.0286,-0.018975
1679932927503,1112915858586452,0.1255375,0.0276375,-0.0209
1679932927506,1112915861088606,0.1225125,0.02365,-0.0199375
1679932927509,1112915863590827,0.1175625,0.01265,-0.018975
1679932927511,1112915866092981,0.112475,6.875E-4,-0.018975
1679932927513,1112915868595135,0.1084875,-0.0083875,-0.0169125
1679932927516,1112915871097289,0.1054625,-0.0154,-0.01595
1679932927520,1112915873599452,0.1035375,-0.0264,-0.0149875
1679932927523,1112915876101606,0.1005125,-0.0433125,-0.011
1679932927525,1112915878603760,0.09955,-0.0523875,-0.006875
1679932927526,1112915881106145,0.101475,-0.0633875,-0.0039875
1679932927529,1112915883608318,0.09955,-0.0793375,0.0
1679932927533,1112915886110472,0.0944625,-0.0884125,0.0050875
1679932927534,1112915888612702,0.0935,-0.0952875,0.009075
1679932927536,1112915891114856,0.08855,-0.0994125,0.013062499
1679932927539,1112915893617025,0.0815375,-0.1023,0.0160875
1679932927542,1112915896119410,0.0754875,-0.1013375,0.0191125
1679932927543,1112915898621563,0.0724625,-0.09735,0.0210375
1679932927546,1112915901123717,0.06655,-0.100375,0.0240625
1679932927549,1112915903625871,0.0644875,-0.0994125,0.0231
1679932927551,1112915906128001,0.0644875,-0.0933625,0.022
1679932927553,1112915908630155,0.0644875,-0.091299996,0.0231
1679932927557,1112915911132309,0.0644875,-0.0884125,0.026124999
1679932927561,1112915913634539,0.0644875,-0.083325,0.0301125
1679932927562,1112915916136924,0.06655,-0.0793375,0.0320375
1679932927564,1112915918639078,0.06545,-0.0713625,0.0320375
1679932927566,1112915921141232,0.0694375,-0.0633875,0.036025
1679932927570,1112915923643386,0.0735625,-0.0523875,0.0411125
1679932927572,1112915926145544,0.0705375,-0.0383625,0.042075
1679932927574,1112915928647774,0.0705375,-0.0292875,0.044
1679932927576,1112915931149928,0.0754875,-0.012375,0.0460625
1679932927578,1112915933652082,0.07645,0.00165,0.047025
1679932927582,1112915936154236,0.079475,0.0116875,0.048125
1679932927583,1112915938656362,0.0845625,0.0286,0.047025
1679932927587,1112915941158516,0.0864875,0.048675,0.0451
1679932927588,1112915943660669,0.0935,0.0606375,0.039049998
1679932927591,1112915946163054,0.0955625,0.0765875,0.0380875
1679932927593,1112915948665318,0.091437496,0.08965,0.031075
1679932927596,1112915951167395,0.096525,0.1076625,0.025024999
1679932927598,1112915953669626,0.101475,0.1205875,0.0191125
1679932927601,1112915956171779,0.104499996,0.1376375,0.0121
1679932927603,1112915958673948,0.1065625,0.147675,0.004125
1679932927611,1112915961176333,0.1084875,0.1596375,-0.001925
1679932927611,1112915963678487,0.10945,0.1645875,-0.011
1679932927614,1112915966180641,0.10945,0.169675,-0.017875
1679932927615,1112915968682794,0.1065625,0.1706375,-0.0199375
1679932927617,1112915971184933,0.09955,0.169675,-0.022
1679932927619,1112915973687087,0.0955625,0.163625,-0.0229625
1679932927621,1112915976189549,0.096525,0.1566125,-0.023924999
1679932927623,1112915978691702,0.090475,0.14465,-0.023924999
1679932927627,1112915981193631,0.08745,0.13365,-0.0209
1679932927629,1112915983696015,0.0864875,0.1205875,-0.0169125
1679932927631,1112915986198169,0.0864875,0.104637496,-0.01595
1679932927633,1112915988700323,0.085525,0.092675,-0.01595
1679932927636,1112915991202472,0.085525,0.0776875,-0.012925
1679932927639,1112915993704703,0.085525,0.0636625,-0.0119624995
1679932927642,1112915996206856,0.0845625,0.0477125,-0.01595
1679932927645,1112915998709010,0.082499996,0.0367125,-0.018975
1679932927646,1112916001211207,0.0815375,0.0276375,-0.018975
1679932927649,1112916003713361,0.07755,0.0116875,-0.02695
1679932927651,1112916006215746,0.0735625,-4.125E-4,-0.0339625
1679932927655,1112916008717899,0.0705375,-0.0133375,-0.0358875
1679932927659,1112916011220044,0.0715,-0.02035,-0.044
1679932927661,1112916013722198,0.068475,-0.0353375,-0.045925
1679932927662,1112916016224352,0.068475,-0.0484,-0.050875
1679932927664,1112916018726583,0.0675125,-0.0554125,-0.0559625
1679932927666,1112916021228737,0.06545,-0.067375,-0.0578875
1679932927669,1112916023731130,0.0644875,-0.0774125,-0.05995
1679932927671,1112916026233284,0.0625625,-0.0853875,-0.062975
1679932927674,1112916028735438,0.0644875,-0.0933625,-0.064899996
1679932927676,1112916031237592,0.0605,-0.0983125,-0.064899996
1679932927679,1112916033739756,0.05555,-0.094325,-0.064899996
1679932927684,1112916036241986,0.0515625,-0.09735,-0.062975
1679932927685,1112916038744140,0.0565125,-0.0924,-0.064899996
1679932927687,1112916041246294,0.05555,-0.0903375,-0.064899996
1679932927689,1112916043748429,0.057475,-0.0823625,-0.062975
1679932927691,1112916046250583,0.0595375,-0.0793375,-0.0609125
1679932927694,1112916048752737,0.0625625,-0.0814,-0.05995
1679932927696,1112916051255121,0.06655,-0.0793375,-0.056925
1679932927699,1112916053757342,0.0715,-0.072325,-0.051975
1679932927701,1112916056259419,0.0724625,-0.0633875,-0.051975
1679932927703,1112916058761650,0.0715,-0.05335,-0.050875
1679932927706,1112916061263804,0.0754875,-0.050325,-0.0449625
1679932927710,1112916063765967,0.07645,-0.0433125,-0.0429
1679932927711,1112916066268121,0.079475,-0.0363,-0.0419375
1679932927713,1112916068770506,0.0815375,-0.0303875,-0.0419375
1679932927716,1112916071272660,0.0864875,-0.0213125,-0.0429
1679932927720,1112916073774828,0.08855,-0.012375,-0.045925
1679932927723,1112916076276981,0.091437496,-0.0044,-0.051975
1679932927725,1112916078779135,0.1005125,6.875E-4,-0.0578875
1679932927727,1112916081281289,0.1084875,0.004675,-0.064899996
1679932927729,1112916083783760,0.1145375,6.875E-4,-0.067925
1679932927731,1112916086285683,0.1194875,-0.0103124995,-0.0719125
1679932927734,1112916088788067,0.1175625,-0.017324999,-0.072875
1679932927736,1112916091290221,0.11055,-0.028324999,-0.0699875
1679932927739,1112916093792375,0.102437496,-0.0413875,-0.066
1679932927742,1112916096294510,0.0895125,-0.0473,-0.0669625
1679932927744,1112916098796741,0.074525,-0.0573375,-0.062975
1679932927746,1112916101298895,0.068475,-0.0704,-0.056925
1679932927749,1112916103801077,0.0584375,-0.0853875,-0.061875
1679932927751,1112916106303231,0.0485375,-0.1023,-0.05995
1679932927754,1112916108805385,0.043449998,-0.1203125,-0.0609125
1679932927757,1112916111307539,0.043449998,-0.144375,-0.064899996
1679932927760,1112916113809708,0.041525,-0.16335,-0.067925
1679932927761,1112916116312093,0.041525,-0.182325,-0.0669625
1679932927763,1112916118814323,0.0405625,-0.204325,-0.067925
1679932927766,1112916121316477,0.0405625,-0.2283875,-0.0688875
1679932927769,1112916123818631,0.0455125,-0.2424125,-0.0699875
1679932927771,1112916126320775,0.043449998,-0.259325,-0.05995
1679932927773,1112916128822929,0.046475,-0.276375,-0.055
1679932927776,1112916131325313,0.052525,-0.287375,-0.0499125
1679932927779,1112916133827467,0.0534875,-0.29741248,-0.0429
1679932927782,1112916136329616,0.0605,-0.3014,-0.03795
1679932927784,1112916138831770,0.06655,-0.30635,-0.029975
1679932927787,1112916141334001,0.0724625,-0.30635,-0.0248875
1679932927789,1112916143836078,0.07755,-0.3023625,-0.0209
1679932927792,1112916146338308,0.0815375,-0.292325,-0.017875
1679932927794,1112916148840693,0.0815375,-0.281325,-0.0099
1679932927796,1112916151342847,0.0834625,-0.270325,-0.006875
1679932927799,1112916153845001,0.0785125,-0.2602875,-0.007975
1679932927801,1112916156347155,0.07755,-0.2464,-0.00495
1679932927803,1112916158849308,0.0724625,-0.2272875,-0.0028875
1679932927806,1112916161351462,0.068475,-0.215325,-9.625E-4
1679932927809,1112916163853693,0.0625625,-0.2013,0.004125
1679932927811,1112916166355847,0.05555,-0.19139999,0.0020625
1679932927814,1112916168858001,0.0534875,-0.1783375,0.003025
1679932927816,1112916171360155,0.0495,-0.1612875,0.0100375
1679932927819,1112916173862308,0.041525,-0.15235,0.009075
1679932927822,1112916176364693,0.0375375,-0.1423125,0.011
1679932927824,1112916178866924,0.03355,-0.1313125,0.013062499
1679932927826,1112916181369001,0.025575,-0.122375,0.0121
1679932927831,1112916183871232,0.024475,-0.10835,0.0081124995
1679932927832,1112916186373385,0.013475,-0.0952875,0.003025
1679932927834,1112916188875529,0.0125124995,-0.0903375,0.0011
1679932927836,1112916191377683,0.0125124995,-0.083325,-0.0059125
1679932927839,1112916193879837,0.0075625,-0.072325,-0.0119624995
1679932927841,1112916196382222,-0.0015125,-0.0664125,-0.018975
1679932927843,1112916198884375,-0.0064625,-0.061325,-0.0229625
1679932927846,1112916201386539,-0.008525,-0.0543125,-0.02695
1679932927848,1112916203888693,-0.0125124995,-0.045375,-0.0339625
1679932927851,1112916206390924,-0.0165,-0.0413875,-0.0419375
1679932927853,1112916208893001,-0.0174625,-0.0444125,-0.0449625
1679932927855,1112916211395462,-0.0165,-0.04235,-0.04895
1679932927859,1112916213897626,-0.0155375,-0.0413875,-0.051975
1679932927861,1112916216399780,-0.0155375,-0.0433125,-0.055
1679932927864,1112916218901934,-0.018424999,-0.0444125,-0.055
1679932927866,1112916221404088,-0.019524999,-0.045375,-0.056925
1679932927870,1112916223906246,-0.0235125,-0.050325,-0.0559625
1679932927872,1112916226408399,-0.024475,-0.0554125,-0.0589875
1679932927873,1112916228910630,-0.0275,-0.0554125,-0.0578875
1679932927876,1112916231412770,-0.0284625,-0.0603625,-0.056925
1679932927879,1112916233914924,-0.029424999,-0.061325,-0.0578875
1679932927881,1112916236417309,-0.030524999,-0.06435,-0.05995
1679932927884,1112916238919232,-0.035475,-0.0743875,-0.056925
1679932927886,1112916241421621,-0.0375375,-0.0713625,-0.0589875
1679932927889,1112916243923852,-0.0385,-0.0743875,-0.0578875
1679932927892,1112916246426006,-0.0385,-0.0793375,-0.055
1679932927895,1112916248928160,-0.035475,-0.08635,-0.056925
1679932927899,1112916251430314,-0.035475,-0.0903375,-0.050875
1679932927899,1112916253932467,-0.0314875,-0.094325,-0.0499125
1679932927901,1112916256434621,-0.0284625,-0.1023,-0.0449625
1679932927903,1112916258937006,-0.0284625,-0.105325,-0.039875
1679932927907,1112916261439179,-0.0265375,-0.1093125,-0.03795
1679932927910,1112916263941410,-0.02255,-0.113299996,-0.033
1679932927911,1112916266443486,-0.0204875,-0.116325,-0.028875
1679932927913,1112916268945640,-0.0204875,-0.11935,-0.0229625
1679932927916,1112916271447871,-0.018424999,-0.11935,-0.018975
1679932927919,1112916273950020,-0.0165,-0.1183875,-0.01595
1679932927922,1112916276452405,-0.0174625,-0.1144,-0.011
1679932927926,1112916278954558,-0.0155375,-0.116325,-0.0089375
1679932927926,1112916281456712,-0.0144375,-0.116325,-0.007975
1679932927929,1112916283958842,-0.0174625,-0.111375,-0.0089375
1679932927931,1112916286460996,-0.0165,-0.1043625,-0.007975
1679932927934,1112916288963150,-0.0235125,-0.09735,-0.0089375
1679932927936,1112916291465381,-0.0265375,-0.0963875,-0.011
1679932927939,1112916293967775,-0.0275,-0.0924,-0.0199375
1679932927941,1112916296469698,-0.029424999,-0.0853875,-0.0248875
1679932927945,1112916298972083,-0.03355,-0.0774125,-0.029975
1679932927946,1112916301474237,-0.040425,-0.069299996,-0.0358875
1679932927949,1112916303976410,-0.0424875,-0.069299996,-0.044
1679932927951,1112916306478564,-0.0424875,-0.06435,-0.0499125
1679932927954,1112916308980794,-0.0485375,-0.0583,-0.0609125
1679932927956,1112916311482948,-0.05555,-0.0554125,-0.066
1679932927959,1112916313985111,-0.0595375,-0.0523875,-0.07095
1679932927961,1112916316487265,-0.0595375,-0.050325,-0.0759
1679932927963,1112916318989649,-0.0605,-0.0473,-0.083875
1679932927968,1112916321491803,-0.06545,-0.0463375,-0.088
1679932927969,1112916323993957,-0.06655,-0.0433125,-0.0919875
1679932927973,1112916326496111,-0.0715,-0.0374,-0.094875
1679932927975,1112916328998265,-0.068475,-0.034375,-0.0939125
1679932927976,1112916331500419,-0.0715,-0.0334125,-0.094875
1679932927979,1112916334002880,-0.07645,-0.034375,-0.095975
1679932927984,1112916336505005,-0.07755,-0.0323125,-0.094875
1679932927985,1112916339006928,-0.0724625,-0.0323125,-0.0908875
1679932927986,1112916341509313,-0.073425,-0.0334125,-0.089925
1679932927989,1112916344011467,-0.0705375,-0.0363,-0.0859375
1679932927993,1112916346513597,-0.06655,-0.0334125,-0.078925
1679932927994,1112916349015750,-0.0644875,-0.0323125,-0.0759
1679932927996,1112916351517981,-0.0644875,-0.03135,-0.0688875
1679932927999,1112916354020135,-0.0595375,-0.03135,-0.061875
1679932928003,1112916356522289,-0.057475,-0.0363,-0.0559625
1679932928004,1112916359024438,-0.054449998,-0.039325,-0.0499125
1679932928006,1112916361526592,-0.0495,-0.034375,-0.0449625
1679932928009,1112916364028976,-0.0455125,-0.03135,-0.0369875
1679932928011,1112916366531130,-0.040425,-0.0334125,-0.0339625
1679932928015,1112916369033352,-0.0394625,-0.03135,-0.033
1679932928016,1112916371535506,-0.040425,-0.0334125,-0.028875
1679932928020,1112916374037660,-0.03355,-0.034375,-0.0259875
1679932928022,1112916376539813,-0.035475,-0.0363,-0.0248875
1679932928025,1112916379041967,-0.032449998,-0.034375,-0.0259875
1679932928026,1112916381544342,-0.029424999,-0.03135,-0.0259875
1679932928029,1112916384046496,-0.030524999,-0.0363,-0.0259875
1679932928033,1112916386548650,-0.0314875,-0.0363,-0.023924999
1679932928035,1112916389050803,-0.035475,-0.0363,-0.0279125
1679932928037,1112916391552948,-0.0314875,-0.0433125,-0.029975
1679932928039,1112916394055179,-0.03355,-0.0484,-0.0319
1679932928042,1112916396557256,-0.0394625,-0.0493625,-0.0369875
1679932928045,1112916399059717,-0.040425,-0.0523875,-0.039875
1679932928047,1112916401561875,-0.04455,-0.0523875,-0.0429
1679932928049,1112916404064029,-0.0495,-0.05335,-0.0479875
1679932928051,1112916406566183,-0.0534875,-0.0523875,-0.0529375
1679932928053,1112916409068337,-0.05555,-0.0554125,-0.0559625
1679932928057,1112916411570482,-0.0584375,-0.0583,-0.0578875
1679932928061,1112916414072713,-0.062425,-0.0583,-0.064899996
1679932928062,1112916416574866,-0.068475,-0.0603625,-0.0688875
1679932928064,1112916419077020,-0.0715,-0.0594,-0.072875
1679932928066,1112916421579405,-0.073425,-0.0603625,-0.072875
1679932928069,1112916424081318,-0.0754875,-0.061325,-0.0759
1679932928071,1112916426583472,-0.079475,-0.0633875,-0.0779625
1679932928075,1112916429085856,-0.082499996,-0.061325,-0.08195
1679932928077,1112916431588087,-0.085525,-0.061325,-0.083875
1679932928079,1112916434090251,-0.085525,-0.06435,-0.083875
1679932928083,1112916436592405,-0.08855,-0.06435,-0.0829125
1679932928084,1112916439094559,-0.0925375,-0.0653125,-0.08195
1679932928086,1112916441596713,-0.0925375,-0.0594,-0.078925
1679932928089,1112916444098856,-0.0944625,-0.0603625,-0.077
1679932928091,1112916446601241,-0.0944625,-0.0594,-0.073975
1679932928095,1112916449103395,-0.0974875,-0.0554125,-0.0699875
1679932928096,1112916451605626,-0.102437496,-0.0554125,-0.0669625
1679932928099,1112916454107703,-0.09955,-0.0594,-0.061875
1679932928101,1112916456609933,-0.09845,-0.0554125,-0.0578875
1679932928103,1112916459112087,-0.102437496,-0.0554125,-0.0559625
1679932928106,1112916461614241,-0.101475,-0.0512875,-0.051975
1679932928109,1112916464116616,-0.0974875,-0.0512875,-0.045925
1679932928111,1112916466618770,-0.095425,-0.0512875,-0.0429
1679932928114,1112916469120923,-0.091437496,-0.045375,-0.039875
1679932928116,1112916471623077,-0.08745,-0.04235,-0.0358875
1679932928119,1112916474125207,-0.08745,-0.0413875,-0.034925
1679932928121,1112916476627361,-0.0834625,-0.0383625,-0.034925
1679932928124,1112916479129823,-0.0785125,-0.0292875,-0.0339625
1679932928126,1112916481631746,-0.0785125,-0.0243375,-0.0319
1679932928129,1112916484133899,-0.079475,-0.0193875,-0.029975
1679932928132,1112916486636284,-0.07645,-0.0083875,-0.034925
1679932928134,1112916489138438,-0.074525,-0.0044,-0.0369875
1679932928136,1112916491640592,-0.073425,-0.0023375,-0.034925
1679932928139,1112916494142823,-0.0724625,0.0037125,-0.0369875
1679932928143,1112916496644976,-0.0724625,0.0116875,-0.03795
1679932928144,1112916499147140,-0.068475,0.013612499,-0.0389125
1679932928146,1112916501649294,-0.0705375,0.020624999,-0.040975
1679932928149,1112916504151448,-0.0715,0.02365,-0.0419375
1679932928151,1112916506653602,-0.0715,0.0286,-0.045925
1679932928154,1112916509156000,-0.0705375,0.0325875,-0.045925
1679932928156,1112916511658154,-0.0724625,0.0336875,-0.0499125
1679932928159,1112916514160385,-0.0724625,0.0367125,-0.045925
1679932928162,1112916516662539,-0.073425,0.034649998,-0.045925
1679932928164,1112916519164741,-0.07645,0.037675,-0.051975
1679932928166,1112916521666895,-0.07645,0.037675,-0.050875
1679932928170,1112916524169048,-0.079475,0.0367125,-0.0499125
1679932928171,1112916526671433,-0.0754875,0.0356125,-0.0479875
1679932928175,1112916529173587,-0.0785125,0.0367125,-0.0449625
1679932928176,1112916531675746,-0.079475,0.037675,-0.045925
1679932928179,1112916534177900,-0.0785125,0.0336875,-0.0479875
1679932928181,1112916536680054,-0.0785125,0.034649998,-0.045925
1679932928184,1112916539182207,-0.0785125,0.034649998,-0.0429
1679932928189,1112916541684366,-0.07645,0.0306625,-0.0419375
1679932928190,1112916544186828,-0.0754875,0.0306625,-0.0429
1679932928193,1112916546688982,-0.0754875,0.0325875,-0.0419375
1679932928194,1112916549191135,-0.074525,0.0297,-0.0389125
1679932928197,1112916551693294,-0.074525,0.0306625,-0.0369875
1679932928200,1112916554195448,-0.073425,0.0306625,-0.0358875
1679932928202,1112916556697602,-0.073425,0.0286,-0.0358875
1679932928204,1112916559199833,-0.0724625,0.031625,-0.0358875
1679932928209,1112916561701967,-0.0694375,0.0306625,-0.034925
1679932928211,1112916564204121,-0.0715,0.026675,-0.034925
1679932928212,1112916566706505,-0.0705375,0.0297,-0.034925
1679932928214,1112916569208428,-0.068475,0.026675,-0.033
1679932928216,1112916571710813,-0.0694375,0.0226875,-0.033
1679932928219,1112916574213040,-0.06655,0.0166375,-0.033
1679932928221,1112916576715117,-0.0705375,0.0166375,-0.0319
1679932928225,1112916579217347,-0.0705375,0.009625,-0.029975
1679932928227,1112916581719501,-0.0715,0.0066,-0.028875
1679932928229,1112916584221650,-0.0715,0.009625,-0.0339625
1679932928234,1112916586723804,-0.0705375,0.0037125,-0.029975
1679932928235,1112916589225958,-0.0724625,6.875E-4,-0.0248875
1679932928237,1112916591728342,-0.0715,-0.0053625,-0.0279125
1679932928239,1112916594230505,-0.0715,-0.006325,-0.0279125
1679932928242,1112916596732659,-0.0715,-0.00935,-0.0248875
1679932928248,1112916599234813,-0.0694375,-0.0083875,-0.0248875
1679932928249,1112916601737044,-0.0705375,-0.0103124995,-0.0229625
1679932928251,1112916604239174,-0.06655,-0.0114124995,-0.0209
1679932928252,1112916606741327,-0.068475,-0.00935,-0.0209
1679932928254,1112916609243712,-0.06545,-0.0114124995,-0.018975
1679932928256,1112916611745866,-0.062425,-0.006325,-0.0169125
1679932928260,1112916614248020,-0.0595375,-0.0053625,-0.012925
1679932928261,1112916616750160,-0.0565125,-0.0033,-0.011
1679932928265,1112916619252390,-0.0534875,-4.125E-4,-0.0089375
1679932928267,1112916621754544,-0.0485375,0.0037125,-0.006875
1679932928270,1112916624256708,-0.0485375,0.0077,-0.001925
1679932928272,1112916626758862,-0.0455125,0.015675,-0.0028875
1679932928274,1112916629261016,-0.0424875,0.0226875,-0.0028875
1679932928276,1112916631763170,-0.0394625,0.0246125,-0.0039875
1679932928279,1112916634265554,-0.0375375,0.0286,-0.0028875
1679932928283,1112916636767713,-0.0385,0.031625,-0.001925
1679932928284,1112916639269867,-0.03355,0.0336875,-0.0039875
1679932928286,1112916641772021,-0.0314875,0.0386375,-0.007975
1679932928290,1112916644274175,-0.0314875,0.034649998,-0.0089375
1679932928292,1112916646776342,-0.035475,0.036575,-0.0149875
1679932928295,1112916649278804,-0.036575,0.0325875,-0.017875
1679932928297,1112916651780958,-0.032449998,0.0325875,-0.018975
1679932928299,1112916654283112,-0.0314875,0.0276375,-0.0199375
1679932928301,1112916656785285,-0.036575,0.0215875,-0.0229625
1679932928304,1112916659287438,-0.03355,0.014575,-0.0259875
1679932928306,1112916661789592,-0.032449998,0.0066,-0.0259875
1679932928309,1112916664291746,-0.0375375,0.00165,-0.0259875
1679932928312,1112916666793958,-0.0375375,-0.00935,-0.0279125
1679932928314,1112916669296112,-0.0385,-0.017324999,-0.028875
1679932928317,1112916671798496,-0.0385,-0.0303875,-0.028875
1679932928321,1112916674300419,-0.0375375,-0.0353375,-0.028875
1679932928323,1112916676802794,-0.0375375,-0.0473,-0.0259875
1679932928325,1112916679304948,-0.0394625,-0.0573375,-0.0248875
1679932928327,1112916681807179,-0.0405625,-0.0594,-0.023924999
1679932928329,1112916684309333,-0.0394625,-0.0683375,-0.0209
1679932928331,1112916686811486,-0.0375375,-0.0823625,-0.0209
1679932928335,1112916689313606,-0.041525,-0.0853875,-0.022
1679932928337,1112916691815760,-0.046475,-0.08635,-0.0119624995
1679932928339,1112916694317914,-0.0485375,-0.091299996,-0.0099
1679932928343,1112916696820299,-0.0534875,-0.095425,-0.0089375
1679932928344,1112916699322452,-0.0595375,-0.100375,-0.0059125
1679932928346,1112916701824606,-0.063525,-0.105325,-0.0028875
1679932928350,1112916704326760,-0.0644875,-0.105325,0.0
1679932928351,1112916706828991,-0.06655,-0.100375,-0.001925
1679932928354,1112916709331150,-0.068475,-0.1023,0.0020625
1679932928360,1112916711833304,-0.0705375,-0.100375,0.00605
1679932928361,1112916714335688,-0.0735625,-0.094325,0.0050875
1679932928362,1112916716837842,-0.0735625,-0.091299996,0.0070125
1679932928364,1112916719339996,-0.0735625,-0.0873125,0.0070125
1679932928367,1112916721842136,-0.069575,-0.0823625,0.0070125
1679932928369,1112916724344290,-0.06655,-0.072325,0.00605
1679932928373,1112916726846444,-0.0625625,-0.072325,0.0050875
1679932928376,1112916729348905,-0.0605,-0.0653125,0.003025
1679932928377,1112916731850847,-0.052525,-0.0594,0.0011
1679932928379,1112916734353001,-0.052525,-0.0523875,0.003025
1679932928381,1112916736855386,-0.0504625,-0.0493625,0.0020625
1679932928384,1112916739357539,-0.0485375,-0.0433125,0.0
1679932928386,1112916741859707,-0.0455125,-0.039325,-0.00495
1679932928389,1112916744361861,-0.041525,-0.034375,-0.006875
1679932928392,1112916746864092,-0.041525,-0.034375,-0.0089375
1679932928395,1112916749366246,-0.0405625,-0.0363,-0.0099
1679932928397,1112916751868400,-0.041525,-0.034375,-0.0089375
1679932928399,1112916754370548,-0.047575,-0.0334125,-0.011
1679932928403,1112916756872702,-0.047575,-0.0363,-0.0099
1679932928404,1112916759374856,-0.0495,-0.039325,-0.011
1679932928406,1112916761877222,-0.0504625,-0.04235,-0.0119624995
1679932928409,1112916764379453,-0.0534875,-0.045375,-0.0119624995
1679932928412,1112916766881606,-0.0565125,-0.0444125,-0.011
1679932928414,1112916769383683,-0.0595375,-0.050325,-0.0119624995
1679932928417,1112916771885914,-0.06545,-0.0543125,-0.012925
1679932928419,1112916774388073,-0.068475,-0.0573375,-0.0089375
1679932928422,1112916776890227,-0.0705375,-0.0583,-0.007975
1679932928425,1112916779392611,-0.069575,-0.062425,-0.0099
1679932928427,1112916781894765,-0.0705375,-0.0633875,-0.006875
1679932928430,1112916784396933,-0.0705375,-0.0633875,-0.006875
1679932928433,1112916786899164,-0.0705375,-0.06435,-0.006875
1679932928434,1112916789401241,-0.0724625,-0.0633875,-0.0059125
1679932928437,1112916791903395,-0.0724625,-0.06435,-0.007975
1679932928440,1112916794405847,-0.069575,-0.0633875,-0.006875
1679932928442,1112916796907770,-0.0724625,-0.0583,-0.0089375
1679932928444,1112916799410155,-0.069575,-0.0543125,-0.0099
1679932928447,1112916801912309,-0.06545,-0.0493625,-0.0119624995
1679932928450,1112916804414472,-0.06655,-0.0413875,-0.0119624995
1679932928452,1112916806916626,-0.0644875,-0.0353375,-0.0149875
1679932928454,1112916809418856,-0.0644875,-0.0273625,-0.01595
1679932928457,1112916811921010,-0.063525,-0.0224125,-0.018975
