system_ts_ms, sensor_ts_ns, gyrX, gyrY, gyrZ
1679992607376,1172595726176308,-0.578325,0.2688125,-0.3146
1679992607376,1172595728678231,-0.534325,0.2277,-0.300575
1679992607376,1172595731180077,-0.4943125,0.18975,-0.284625
1679992607378,1172595733681933,-0.4544375,0.1478125,-0.2666125
1679992607381,1172595736183702,-0.408375,0.11275,-0.2495625
1679992607384,1172595738685625,-0.3603875,0.071775,-0.2325125
1679992607394,1172595741187471,-0.309375,0.021724999,-0.2135375
1679992607394,1172595743689317,-0.260425,-0.021175,-0.1936
1679992607394,1172595746191163,-0.2124375,-0.07425,-0.17655
1679992607394,1172595748693009,-0.160325,-0.131175,-0.1595
1679992607397,1172595751194856,-0.1123375,-0.186175,-0.14355
1679992607398,1172595753696933,-0.0653125,-0.2402125,-0.130625
1679992607401,1172595756198751,-0.0154,-0.2932875,-0.1166
1679992607404,1172595758700366,0.031625,-0.346225,-0.1035375
1679992607406,1172595761202212,0.0735625,-0.4002625,-0.0875875
1679992607408,1172595763704289,0.114675,-0.4492125,-0.0735625
1679992607412,1172595766206116,0.1486375,-0.4983,-0.069575
1679992607414,1172595768707963,0.1786125,-0.54821247,-0.0595375
1679992607416,1172595771209809,0.201575,-0.59125,-0.053625
1679992607418,1172595773711655,0.22165,-0.6252125,-0.0495
1679992607421,1172595776213492,0.2376,-0.648175,-0.0435875
1679992607424,1172595778715338,0.2446125,-0.66522497,-0.0345125
1679992607426,1172595781217261,0.2506625,-0.6743,-0.0265375
1679992607428,1172595783719030,0.2495625,-0.66728747,-0.0176
1679992607430,1172595786220877,0.2415875,-0.660275,-0.009625
1679992607433,1172595788722804,0.2316875,-0.6422625,4.125E-4
1679992607435,1172595791224650,0.2195875,-0.6182,0.012375
1679992607439,1172595793726419,0.202675,-0.59125,0.023375
1679992607441,1172595796228251,0.1846625,-0.55825,0.034375
1679992607444,1172595798730097,0.1645875,-0.5182375,0.0484
1679992607446,1172595801232021,0.1425875,-0.478225,0.0633875
1679992607450,1172595803733867,0.1285625,-0.4412375,0.07645
1679992607455,1172595806235718,0.115637496,-0.406175,0.08745
1679992607455,1172595808737564,0.102575,-0.3762,0.095425
1679992607456,1172595811239410,0.091575,-0.3452625,0.104499996
1679992607458,1172595813741487,0.0845625,-0.31625,0.112475
1679992607461,1172595816243102,0.075625,-0.291225,0.1164625
1679992607464,1172595818744915,0.0716375,-0.2673,0.117425
1679992607466,1172595821246992,0.0716375,-0.24419999,0.1155
1679992607468,1172595823748838,0.070675,-0.2212375,0.1155
1679992607471,1172595826250453,0.069575,-0.1992375,0.112475
1679992607474,1172595828752530,0.069575,-0.1782,0.1084875
1679992607476,1172595831254362,0.069575,-0.1632125,0.1034
1679992607479,1172595833756208,0.0735625,-0.1463,0.0944625
1679992607481,1172595836258055,0.0746625,-0.1342,0.090475
1679992607483,1172595838759901,0.0735625,-0.1252625,0.079475
1679992607489,1172595841261761,0.0776875,-0.11825,0.0715
1679992607490,1172595843763607,0.07865,-0.11825,0.0605
1679992607493,1172595846265530,0.0765875,-0.1172875,0.0523875
1679992607494,1172595848767376,0.0726,-0.113299996,0.0413875
1679992607496,1172595851269222,0.0716375,-0.1161875,0.034375
1679992607498,1172595853771088,0.064625,-0.115225,0.0254375
1679992607501,1172595856272934,0.058575,-0.1082125,0.0174625
1679992607506,1172595858774780,0.0515625,-0.10725,0.0144375
1679992607507,1172595861276626,0.0446875,-0.100237496,0.0055
1679992607508,1172595863778458,0.0336875,-0.087175,0.002475
1679992607510,1172595866280304,0.0226875,-0.0782375,-0.003575
1679992607514,1172595868782381,0.0116875,-0.069299996,-0.008525
1679992607516,1172595871284227,-0.001375,-0.0611875,-0.0105875
1679992607518,1172595873785843,-0.012375,-0.0512875,-0.0176
1679992607521,1172595876287684,-0.0193875,-0.0372625,-0.020624999
1679992607525,1172595878789530,-0.0264,-0.0312125,-0.0215875
1679992607526,1172595881291607,-0.0334125,-0.0242,-0.0275
1679992607529,1172595883793453,-0.0383625,-0.015262499,-0.0295625
1679992607530,1172595886295275,-0.0413875,-0.010175,-0.031625
1679992607534,1172595888797122,-0.04235,-0.0042625,-0.0345125
1679992607538,1172595891298968,-0.0444125,0.0017875,-0.0385
1679992607538,1172595893800814,-0.04235,0.0037125,-0.041525
1679992607541,1172595896302660,-0.0383625,0.0067375,-0.0455125
1679992607544,1172595898804506,-0.0364375,0.005775,-0.052525
1679992607548,1172595901306429,-0.0303875,0.0017875,-0.05555
1679992607549,1172595903808275,-0.0273625,-0.0012375,-0.0605
1679992607550,1172595906310122,-0.023375,-0.0072875,-0.0655875
1679992607556,1172595908811958,-0.0163625,-0.0143,-0.06655
1679992607556,1172595911313727,-0.0144375,-0.021175,-0.0715
1679992607559,1172595913815573,-0.0083875,-0.0262625,-0.074525
1679992607562,1172595916317405,-4.125E-4,-0.0372625,-0.07755
1679992607565,1172595918819559,0.00165,-0.0422125,-0.0785125
1679992607566,1172595921321175,0.0075625,-0.0501875,-0.082499996
1679992607569,1172595923823021,0.01265,-0.054175,-0.085525
1679992607572,1172595926324867,0.0166375,-0.0532125,-0.086625
1679992607573,1172595928826713,0.02365,-0.055275,-0.0815375
1679992607576,1172595931328559,0.0276375,-0.0592625,-0.080575
1679992607579,1172595933830405,0.031625,-0.055275,-0.0836
1679992607582,1172595936332482,0.0356125,-0.0512875,-0.082499996
1679992607584,1172595938834313,0.0386375,-0.054175,-0.080575
1679992607587,1172595941336160,0.0396,-0.0592625,-0.080575
1679992607589,1172595943837775,0.0416625,-0.0583,-0.0785125
1679992607591,1172595946339852,0.0446875,-0.055275,-0.0765875
1679992607593,1172595948841698,0.0496375,-0.0611875,-0.07755
1679992607596,1172595951343530,0.0496375,-0.0622875,-0.07755
1679992607599,1172595953845376,0.0515625,-0.0583,-0.075625
1679992607602,1172595956347223,0.0526625,-0.0512875,-0.074525
1679992607605,1172595958849069,0.0526625,-0.0512875,-0.0735625
1679992607607,1172595961350901,0.056649998,-0.0462,-0.0705375
1679992607609,1172595963852824,0.0526625,-0.0391875,-0.069575
1679992607611,1172595966354670,0.0506,-0.033275,-0.0686125
1679992607614,1172595968856516,0.0556875,-0.027224999,-0.06655
1679992607616,1172595971358376,0.053625,-0.022275,-0.064625
1679992607618,1172595973860223,0.0526625,-0.0202125,-0.0625625
1679992607622,1172595976362069,0.0496375,-0.0132,-0.0605
1679992607625,1172595978863838,0.0466125,-0.0092124995,-0.058575
1679992607626,1172595981365761,0.0496375,-0.0072875,-0.0545875
1679992607629,1172595983867847,0.0515625,-2.75E-4,-0.0495
1679992607631,1172595986369693,0.0496375,0.0017875,-0.0455125
1679992607633,1172595988871309,0.0506,0.00275,-0.042625
1679992607637,1172595991373184,0.0515625,0.0048125,-0.0405625
1679992607640,1172595993875030,0.0506,0.0097624995,-0.0375375
1679992607642,1172595996376876,0.0435875,0.010725,-0.036575
1679992607644,1172595998878722,0.0396,0.0158125,-0.0345125
1679992607647,1172596001380799,0.034649998,0.014712499,-0.031625
1679992607649,1172596003882655,0.0295625,0.0207625,-0.0286
1679992607651,1172596006384501,0.02365,0.022824999,-0.031625
1679992607655,1172596008886348,0.0166375,0.027775,-0.025575
1679992607658,1172596011388194,0.015675,0.0347875,-0.0246125
1679992607660,1172596013890045,0.009625,0.038775,-0.019524999
1679992607661,1172596016391891,0.0075625,0.0427625,-0.019524999
1679992607664,1172596018893814,0.0066,0.0457875,-0.0176
1679992607667,1172596021395660,0.004675,0.04675,-0.0176
1679992607669,1172596023897502,0.003575,0.0477125,-0.0125124995
1679992607673,1172596026399271,0.003575,0.0488125,-0.01155
1679992607675,1172596028901117,0.004675,0.0488125,-0.0075625
1679992607676,1172596031403040,0.0075625,0.0457875,-0.0045375
1679992607678,1172596033904900,0.0086624995,0.038775,-0.003575
1679992607682,1172596036406746,0.01265,0.0407,-0.0026125
1679992607684,1172596038908592,0.013612499,0.0367125,-0.0015125
1679992607689,1172596041410439,0.0196625,0.0308,-0.0015125
1679992607691,1172596043912304,0.0226875,0.022824999,-0.0026125
1679992607691,1172596046414150,0.0286,0.014712499,-0.0015125
1679992607694,1172596048915996,0.034649998,0.0037125,0.002475
1679992607696,1172596051417842,0.0396,-0.005225,0.002475
1679992607699,1172596053919929,0.045649998,-0.0182875,0.002475
1679992607701,1172596056421775,0.0526625,-0.03025,0.0034375
1679992607705,1172596058923622,0.0576125,-0.0342375,0.0055
1679992607707,1172596061425468,0.058575,-0.049225,0.0044
1679992607710,1172596063927309,0.0655875,-0.06325,0.0064625
1679992607714,1172596066429155,0.069575,-0.069299996,0.0083875
1679992607715,1172596068931001,0.0686125,-0.0721875,0.0094875
1679992607717,1172596071432924,0.0765875,-0.07425,0.0154
1679992607721,1172596073934688,0.07865,-0.0752125,0.0165
1679992607723,1172596076436535,0.07865,-0.0782375,0.0174625
1679992607724,1172596078938381,0.07865,-0.0803,0.023375
1679992607726,1172596081440304,0.081675,-0.077275,0.0264
1679992607729,1172596083942150,0.0856625,-0.076175,0.0303875
1679992607731,1172596086444001,0.0886875,-0.077275,0.029424999
1679992607733,1172596088945847,0.08965,-0.066275,0.0334125
1679992607736,1172596091447694,0.08965,-0.0622875,0.0394625
1679992607739,1172596093949540,0.0906125,-0.0512875,0.040425
1679992607741,1172596096451395,0.093637496,-0.0422125,0.046475
1679992607744,1172596098953241,0.0955625,-0.0363,0.0504625
1679992607746,1172596101455318,0.0946,-0.0312125,0.0554125
1679992607750,1172596103957164,0.0946,-0.021175,0.0605
1679992607755,1172596106459010,0.0955625,-0.0122375,0.0605
1679992607755,1172596108960856,0.0955625,-0.0103124995,0.06545
1679992607756,1172596111462703,0.0955625,-0.0042625,0.0675125
1679992607758,1172596113964549,0.0925375,0.0037125,0.0724625
1679992607761,1172596116466395,0.0946,0.0116875,0.079475
1679992607764,1172596118968256,0.0955625,0.0268125,0.0834625
1679992607766,1172596121470102,0.0955625,0.03575,0.0884125
1679992607769,1172596123971948,0.0955625,0.0488125,0.0944625
1679992607771,1172596126473795,0.1016125,0.071775,0.1034
1679992607774,1172596128975641,0.1076625,0.0886875,0.1104125
1679992607776,1172596131477487,0.1145375,0.10175,0.1214125
1679992607779,1172596133979333,0.1236125,0.1216875,0.128425
1679992607781,1172596136481256,0.13365,0.12979999,0.1364
1679992607784,1172596138983097,0.141625,0.13475,0.1434125
1679992607787,1172596141484943,0.15853749,0.137775,0.1544125
1679992607789,1172596143986790,0.174625,0.1387375,0.1634875
1679992607792,1172596146488636,0.1956625,0.1337875,0.1694
1679992607794,1172596148990482,0.212575,0.1258125,0.17545
1679992607796,1172596151492337,0.2355375,0.1106875,0.1815
1679992607802,1172596153994414,0.2616625,0.0928125,0.183425
1679992607802,1172596156496260,0.2855875,0.0697125,0.1885125
1679992607803,1172596158998106,0.3075875,0.0446875,0.1885125
1679992607807,1172596161499962,0.3375625,0.014712499,0.1934625
1679992607809,1172596164001809,0.36355,-0.0171875,0.1925
1679992607811,1172596166503424,0.388575,-0.0543125,0.1964875
1679992607814,1172596169005270,0.416625,-0.0902,0.1953875
1679992607816,1172596171507347,0.4395875,-0.121275,0.1984125
1679992607818,1172596174009294,0.46461248,-0.159225,0.2184875
1679992607822,1172596176511063,0.4885375,-0.1942875,0.23539999
1679992607826,1172596179012910,0.5126,-0.2481875,0.2534125
1679992607828,1172596181514761,0.52854997,-0.3141875,0.2684
1679992607829,1172596184016607,0.537625,-0.390225,0.2734875
1679992607832,1172596186518453,0.5495875,-0.4723125,0.2844875
1679992607834,1172596189020376,0.553575,-0.5622375,0.28545
1679992607836,1172596191522222,0.553575,-0.6562875,0.2765125
1679992607839,1172596194024087,0.553575,-0.748275,0.2534125
1679992607842,1172596196525934,0.5495875,-0.84328747,0.2204125
1679992607844,1172596199027780,0.5526125,-0.9343125,0.1764125
1679992607846,1172596201529626,0.5545375,-1.023275,0.13145
1679992607848,1172596204031462,0.5586625,-1.1092125,0.0814
1679992607852,1172596206533308,0.5676,-1.1983125,0.0334125
1679992607853,1172596209035154,0.5806625,-1.2931875,-0.0094875
1679992607856,1172596211537001,0.592625,-1.40525,-0.05555
1679992607858,1172596214038833,0.5996375,-1.5332625,-0.1035375
1679992607863,1172596216540679,0.6136625,-1.6603125,-0.151525
1679992607866,1172596219042756,0.6296125,-1.7752625,-0.190575
1679992607867,1172596221544602,0.6556,-1.8712375,-0.2105125
1679992607869,1172596224046434,0.6906625,-1.9751875,-0.2275625
1679992607871,1172596226548280,0.729575,-2.0992124,-0.2365
1679992607874,1172596229050126,0.7836125,-2.2391875,-0.2325125
1679992607876,1172596231551973,0.850575,-2.39525,-0.2226125
1679992607878,1172596234053819,0.9216625,-2.568225,-0.2035
1679992607882,1172596236555751,1.0146124,-2.7632,-0.1815
1679992607883,1172596239057597,1.125575,-2.9742625,-0.1555125
1679992607886,1172596241559443,1.2486374,-3.2082875,-0.1346125
1679992607888,1172596244061289,1.3905375,-3.4601874,-0.1145375
1679992607892,1172596246563126,1.5505875,-3.7382126,-0.0955625
1679992607894,1172596249064973,1.72865,-4.0403,-0.082499996
1679992607896,1172596251566742,1.92665,-4.3483,-0.0726
1679992607900,1172596254068665,2.13455,-4.66125,-0.06655
1679992607902,1172596256570534,2.3585374,-4.983275,-0.0705375
1679992607905,1172596259072380,2.5895374,-5.2982874,-0.0845625
1679992607907,1172596261574226,2.8226,-5.6062875,-0.1056
1679992607908,1172596264076073,3.05965,-5.90425,-0.1425875
1679992607912,1172596266577919,3.2965624,-6.17925,-0.190575
1679992607914,1172596269079765,3.5366375,-6.413275,-0.2495625
1679992607917,1172596271581842,3.7725875,-6.6042624,-0.3216125
1679992607919,1172596274083688,3.99465,-6.770225,-0.4035625
1679992607922,1172596276585534,4.20365,-6.9062123,-0.5025625
1679992607924,1172596279087399,4.3946376,-7.0283127,-0.6205375
1679992607926,1172596281589246,4.5626626,-7.132262,-0.74855
1679992607929,1172596284091092,4.7015376,-7.2172375,-0.8795875
1679992607933,1172596286592938,4.8245997,-7.2622,-1.0186
1679992607935,1172596289094861,4.91755,-7.2703123,-1.163525
1679992607938,1172596291596707,4.9896,-7.2732,-1.3085876
1679992607939,1172596294098553,5.0375876,-7.2732,-1.4525499
1679992607942,1172596296600399,5.05065,-7.2732,-1.592525
1679992607945,1172596299102178,5.03965,-7.2622,-1.72755
1679992607947,1172596301604024,5.00555,-7.2413,-1.8525375
1679992607949,1172596304105947,4.942575,-7.2142124,-1.9646
1679992607952,1172596306608024,4.86255,-7.1753,-2.05755
1679992607954,1172596309109639,4.76465,-7.1191998,-2.131525
1679992607956,1172596311611485,4.6376,-7.0571876,-2.1945
1679992607958,1172596314113332,4.49955,-6.9812875,-2.236575
1679992607962,1172596316615178,4.3445873,-6.8882,-2.2605
1679992607964,1172596319117024,4.1826124,-6.7802625,-2.2726
1679992607966,1172596321618866,4.0096374,-6.6592627,-2.2695749
1679992607968,1172596324120943,3.8285499,-6.5181875,-2.258575
1679992607972,1172596326622789,3.6496625,-6.36625,-2.2375374
1679992607975,1172596329124635,3.46665,-6.2082624,-2.203575
1679992607977,1172596331626485,3.2806125,-6.0572877,-2.1615
1679992607979,1172596334128332,3.0985625,-5.896275,-2.1065
1679992607982,1172596336630178,2.91665,-5.7222,-2.0405
1679992607984,1172596339132101,2.726625,-5.555275,-1.9674875
1679992607986,1172596341633947,2.5386624,-5.3752875,-1.8836125
1679992607988,1172596344135688,2.3505626,-5.1822376,-1.7886
1679992607992,1172596346637611,2.1626,-4.983275,-1.6865749
1679992607996,1172596349139457,1.97065,-4.768225,-1.5835875
1679992608000,1172596351641227,1.7785625,-4.5392876,-1.4845876
1679992608000,1172596354143150,1.5866125,-4.3052626,-1.3855875
1679992608002,1172596356644996,1.3965875,-4.0662875,-1.28755
1679992608004,1172596359147073,1.21055,-3.822225,-1.1935
1679992608006,1172596361648688,1.0275375,-3.5712874,-1.1005499
1679992608008,1172596364150506,0.8545625,-3.3132,-1.0146124
1679992608013,1172596366652353,0.68365,-3.0531874,-0.9315625
1679992608015,1172596369154199,0.51755,-2.7952375,-0.8545625
1679992608017,1172596371656276,0.3565375,-2.5482874,-0.7805875
1679992608019,1172596374158107,0.20955,-2.3051875,-0.7055125
1679992608022,1172596376659953,0.0716375,-2.0752876,-0.635525
1679992608024,1172596379161799,-0.0444125,-1.8572125,-0.5746125
1679992608026,1172596381663645,-0.1494625,-1.666225,-0.5196125
1679992608029,1172596384165471,-0.238425,-1.4911875,-0.4714875
1679992608032,1172596386667318,-0.3004375,-1.3382875,-0.437525
1679992608034,1172596389169241,-0.33935,-1.215225,-0.4096125
1679992608036,1172596391671087,-0.364375,-1.1182874,-0.3916
1679992608038,1172596394172933,-0.37235,-1.0443125,-0.37661248
1679992608042,1172596396674793,-0.364375,-0.9933,-0.366575
1679992608044,1172596399176562,-0.348425,-0.97625,-0.360525
1679992608046,1172596401678409,-0.3213375,-0.9783125,-0.3565375
1679992608050,1172596404180327,-0.2814625,-1.0071875,-0.3565375
1679992608053,1172596406682404,-0.2393875,-1.0632875,-0.3586
1679992608054,1172596409184019,-0.18933749,-1.1462,-0.36355
1679992608056,1172596411685865,-0.13145,-1.2452,-0.3705625
1679992608058,1172596414187711,-0.0683375,-1.36125,-0.37454998
1679992608062,1172596416689798,-4.125E-4,-1.4942125,-0.3806
1679992608064,1172596419191414,0.06655,-1.6302,-0.3916
1679992608066,1172596421693260,0.13653749,-1.7703125,-0.4015
1679992608069,1172596424195337,0.2146375,-1.9152375,-0.4125
1679992608072,1172596426697149,0.2855875,-2.0563126,-0.4255625
1679992608074,1172596429198995,0.361625,-2.189275,-0.44055
1679992608076,1172596431700841,0.432575,-2.3142624,-0.4565
1679992608078,1172596434202687,0.5006375,-2.42825,-0.4665375
1679992608082,1172596436704524,0.564575,-2.524225,-0.4796
1679992608084,1172596439206371,0.6205375,-2.6173124,-0.4855125
1679992608087,1172596441708294,0.674575,-2.68125,-0.487575
1679992608089,1172596444210140,0.7225625,-2.7132876,-0.4824875
1679992608092,1172596446711981,0.757625,-2.7212625,-0.4745125
1679992608094,1172596449213827,0.79254997,-2.7042124,-0.46254998
1679992608096,1172596451715673,0.81565,-2.6662624,-0.4455
1679992608099,1172596454217520,0.8276125,-2.6063125,-0.4246
1679992608102,1172596456719270,0.8306375,-2.5293124,-0.4026
1679992608104,1172596459221193,0.8206,-2.4402125,-0.3795
1679992608106,1172596461723270,0.806575,-2.34025,-0.349525
1679992608108,1172596464225116,0.78155,-2.24125,-0.327525
1679992608113,1172596466726726,0.7546,-2.139225,-0.305525
1679992608114,1172596469228572,0.72765,-2.0392625,-0.2875125
1679992608116,1172596471730649,0.7005625,-1.9402624,-0.2805
1679992608119,1172596474232496,0.67553747,-1.8492374,-0.2765125
1679992608122,1172596476734356,0.652575,-1.760275,-0.2765125
1679992608125,1172596479236202,0.6326375,-1.6671875,-0.289575
1679992608127,1172596481738048,0.608575,-1.5712125,-0.2935625
1679992608129,1172596484239894,0.592625,-1.468225,-0.2985125
1679992608133,1172596486741725,0.581625,-1.364275,-0.300575
1679992608134,1172596489243648,0.5685625,-1.2632124,-0.3045625
1679992608136,1172596491745495,0.5545375,-1.149225,-0.3135
1679992608139,1172596494247341,0.5465625,-1.0302875,-0.3216125
1679992608142,1172596496749110,0.5416125,-0.9142375,-0.333575
1679992608145,1172596499250952,0.542575,-0.7981875,-0.3436125
1679992608146,1172596501752875,0.5465625,-0.6832375,-0.3595625
1679992608148,1172596504254721,0.5495875,-0.5823125,-0.3755125
1679992608152,1172596506756568,0.5586625,-0.4972,-0.3905
1679992608154,1172596509258409,0.5655375,-0.434225,-0.4065875
1679992608156,1172596511760255,0.5746125,-0.4002625,-0.4246
1679992608159,1172596514262101,0.5825875,-0.39421248,-0.4384875
1679992608164,1172596516763947,0.586575,-0.4021875,-0.4555375
1679992608166,1172596519265774,0.59565,-0.4222625,-0.4745125
1679992608167,1172596521767621,0.5996375,-0.456225,-0.492525
1679992608169,1172596524269697,0.603625,-0.4833125,-0.5135625
1679992608172,1172596526771544,0.614625,-0.511225,-0.5335
1679992608174,1172596529273390,0.625625,-0.5273125,-0.5495875
1679992608176,1172596531775236,0.63855,-0.5341875,-0.5594875
1679992608178,1172596534277082,0.6576625,-0.528275,-0.5715875
1679992608182,1172596536778928,0.67553747,-0.517275,-0.5765375
1679992608184,1172596539280783,0.6956125,-0.50325,-0.5786
1679992608186,1172596541782707,0.71555,-0.48125,-0.5746125
1679992608189,1172596544284553,0.7415375,-0.4552625,-0.5665
1679992608192,1172596546786399,0.768625,-0.423225,-0.5555
1679992608194,1172596549288245,0.7965375,-0.3972375,-0.5416125
1679992608196,1172596551790096,0.8306375,-0.36519998,-0.531575
1679992608200,1172596554291942,0.8666625,-0.3322,-0.5225
1679992608203,1172596556793788,0.9046125,-0.2963125,-0.51755
1679992608204,1172596559295635,0.944625,-0.2701875,-0.5115
1679992608206,1172596561797712,0.9856,-0.2343,-0.4995375
1679992608208,1172596564299327,1.0186,-0.1552375,-0.481525
1679992608212,1172596566801404,1.03455,-0.0182875,-0.4576
1679992608214,1172596569303250,1.0316625,0.120725,-0.4365625
1679992608217,1172596571804870,1.021625,0.1958,-0.41854998
1679992608219,1172596574306717,1.0066375,0.1997875,-0.4054875
1679992608223,1172596576808563,0.9835375,0.1637625,-0.4035625
1679992608225,1172596579310640,0.960575,0.117699996,-0.4015
1679992608226,1172596581812486,0.9326625,0.065725,-0.4005375
1679992608229,1172596584314337,0.8985625,0.0287375,-0.3925625
1679992608232,1172596586816183,0.8655625,0.0067375,-0.388575
1679992608234,1172596589318029,0.82362497,0.0037125,-0.3845875
1679992608238,1172596591819889,0.7836125,0.0187,-0.37661248
1679992608240,1172596594321736,0.7475875,0.043725,-0.371525
1679992608243,1172596596823659,0.707575,0.0708125,-0.36355
1679992608245,1172596599325505,0.6736125,0.0968,-0.36355
1679992608247,1172596601827351,0.6406125,0.11275,-0.366575
1679992608250,1172596604329192,0.6076125,0.1057375,-0.3724875
1679992608252,1172596606831038,0.5735125,0.087725,-0.377575
1679992608254,1172596609333115,0.5456,0.071775,-0.3795
1679992608256,1172596611834961,0.5196125,0.071775,-0.382525
1679992608259,1172596614336818,0.4976125,0.0807125,-0.3806
1679992608262,1172596616838433,0.47753748,0.087725,-0.3795
1679992608264,1172596619340279,0.4585625,0.0867625,-0.377575
1679992608266,1172596621842125,0.4475625,0.0697125,-0.377575
1679992608268,1172596624344202,0.437525,0.0347875,-0.3815625
1679992608272,1172596626846057,0.43559998,-0.0033,-0.388575
1679992608275,1172596629347904,0.43353748,-0.0363,-0.4015
1679992608277,1172596631849750,0.4346375,-0.060225,-0.4136
1679992608279,1172596634351596,0.4346375,-0.088275,-0.4255625
1679992608282,1172596636853438,0.4395875,-0.1142625,-0.4384875
1679992608283,1172596639355284,0.4445375,-0.12925,-0.448525
1679992608286,1172596641857207,0.4475625,-0.12925,-0.4505875
1679992608288,1172596644359053,0.4555375,-0.110275,-0.448525
1679992608293,1172596646860890,0.4676375,-0.0782375,-0.437525
1679992608294,1172596649362736,0.487575,-0.041249998,-0.4175875
1679992608297,1172596651864582,0.52854997,-0.0072875,-0.388575
1679992608299,1172596654366428,0.5715875,0.0187,-0.3515875
1679992608302,1172596656868274,0.619575,0.0308,-0.3036
1679992608305,1172596659370125,0.6675625,0.032725,-0.2514875
1679992608307,1172596661872202,0.7165125,0.0297,-0.2006125
1679992608309,1172596664374048,0.762575,0.0287375,-0.1496
1679992608314,1172596666875890,0.801625,0.0347875,-0.1016125
1679992608315,1172596669377736,0.8375125,0.0407,-0.058575
1679992608317,1172596671879351,0.8625375,0.0567875,-0.0246125
1679992608319,1172596674381197,0.889625,0.076725,0.0044
1679992608324,1172596676883274,0.9205625,0.103675,0.0275
1679992608325,1172596679385202,0.955625,0.12979999,0.0474375
1679992608326,1172596681886972,0.9846375,0.1527625,0.062425
1679992608329,1172596684388818,1.0146124,0.1727,0.07645
1679992608332,1172596686890664,1.0396374,0.1848,0.08745
1679992608333,1172596689392620,1.070575,0.1876875,0.0974875
1679992608336,1172596691894389,1.1005499,0.18975,0.112475
1679992608339,1172596694396235,1.125575,0.18975,0.1265
1679992608342,1172596696898158,1.1455125,0.19373749,0.1384625
1679992608345,1172596699400020,1.1675125,0.197725,0.156475
1679992608347,1172596701901866,1.186625,0.2057,0.1764125
1679992608350,1172596704403712,1.202575,0.2107875,0.1925
1679992608353,1172596706905558,1.218525,0.21573749,0.211475
1679992608354,1172596709407404,1.2365375,0.2206875,0.2283875
1679992608356,1172596711909245,1.2456125,0.2206875,0.2484625
1679992608358,1172596714411322,1.252625,0.2187625,0.2644125
1679992608362,1172596716913169,1.2665125,0.2267375,0.2814625
1679992608364,1172596719415015,1.274625,0.22275,0.2985125
1679992608366,1172596721916871,1.2786125,0.21573749,0.3174875
1679992608369,1172596724418717,1.2835625,0.202675,0.337425
1679992608372,1172596726920563,1.252625,0.17379999,0.3465
1679992608373,1172596729422409,1.191575,0.1287,0.3575
1679992608376,1172596731924312,1.1435875,0.0757625,0.3865125
1679992608379,1172596734426082,1.1136125,0.032725,0.4244625
1679992608382,1172596736927928,1.0855625,-2.75E-4,0.469425
1679992608385,1172596739429774,1.0696125,-0.0253,0.5185125
1679992608388,1172596741931712,1.05655,-0.0391875,0.5754375
1679992608389,1172596744433558,1.0506375,-0.0391875,0.629475
1679992608392,1172596746935404,1.0506375,-0.0323125,0.6875
1679992608394,1172596749437251,1.0555875,-0.0242,0.7484125
1679992608396,1172596751939097,1.064525,-0.0132,0.8034125
1679992608399,1172596754440943,1.076625,0.0037125,0.8525
1679992608402,1172596756942789,1.0846,0.027775,0.8944375
1679992608404,1172596759444635,1.092575,0.0528,0.9274375
1679992608406,1172596761946712,1.1026125,0.073699996,0.953425
1679992608408,1172596764448563,1.1125125,0.0858,0.975425
1679992608412,1172596766950409,1.12255,0.0996875,0.9884875
1679992608414,1172596769452256,1.1316249,0.114675,1.0014125
1679992608416,1172596771954102,1.14455,0.13475,1.0124125
1679992608419,1172596774455952,1.15555,0.158675,1.025475
1679992608422,1172596776957798,1.164625,0.19167499,1.0374374
1679992608426,1172596779459644,1.175625,0.2277,1.0454125
1679992608428,1172596781961567,1.1875875,0.263725,1.0533875
1679992608429,1172596784463423,1.202575,0.29273748,1.052425
1679992608432,1172596786965270,1.213575,0.3306875,1.0423875
1679992608434,1172596789467039,1.2285625,0.3697375,1.03345
1679992608436,1172596791968885,1.2386,0.4027375,1.0154375
1679992608439,1172596794470731,1.2495999,0.4277625,0.99549997
1679992608443,1172596796972668,1.25455,0.461725,0.9824375
1679992608445,1172596799474514,1.2615625,0.4917,0.9684125
1679992608447,1172596801976361,1.263625,0.5137,0.9433875
1679992608449,1172596804478207,1.262525,0.53075,0.926475
1679992608452,1172596806980082,1.262525,0.5457375,0.9145125
1679992608454,1172596809481928,1.262525,0.554675,0.893475
1679992608456,1172596811983774,1.263625,0.56374997,0.8745
1679992608459,1172596814485851,1.2615625,0.571725,0.8595125
1679992608464,1172596816987678,1.2596375,0.5757125,0.8424625
1679992608467,1172596819489524,1.2596375,0.5907,0.8294
1679992608468,1172596821991371,1.2585375,0.610775,0.8113875
1679992608470,1172596824493217,1.2585375,0.6347,0.794475
1679992608473,1172596826995063,1.25455,0.6697625,0.7825125
1679992608475,1172596829496909,1.252625,0.70867497,0.7654625
1679992608476,1172596831998832,1.2585375,0.7458,0.7464875
1679992608479,1172596834500678,1.2596375,0.7797625,0.73039997
1679992608482,1172596837002525,1.2615625,0.8146875,0.7104625
1679992608484,1172596839504371,1.26555,0.852775,0.6903875
1679992608487,1172596842006231,1.26555,0.8916875,0.67347497
1679992608489,1172596844508000,1.2695374,0.9246875,0.6534
1679992608492,1172596847009923,1.274625,0.9548,0.6395125
1679992608494,1172596849512000,1.2775126,0.9757,0.6274125
1679992608496,1172596852013875,1.2885125,0.978725,0.618475
1679992608500,1172596854515491,1.3006124,0.95975,0.61448747
1679992608503,1172596857017337,1.3146375,0.91574997,0.6133875
1679992608505,1172596859519414,1.3305875,0.8597875,0.61448747
1679992608508,1172596862021255,1.3446125,0.7887,0.6164125
1679992608509,1172596864523101,1.3545125,0.7117,0.6164125
1679992608512,1172596867024947,1.3635875,0.62975,0.618475
1679992608514,1172596869526793,1.367575,0.5537125,0.623425
1679992608517,1172596872028640,1.3666124,0.4846875,0.6243875
1679992608519,1172596874530491,1.3586375,0.4268,0.62645
1679992608522,1172596877032337,1.3465375,0.3837625,0.6254875
1679992608524,1172596879534260,1.3345749,0.35475,0.6204
1679992608527,1172596882036106,1.3245375,0.3388,0.6114625
1679992608529,1172596884537952,1.3146375,0.3306875,0.6023875
1679992608532,1172596887039798,1.3105125,0.3196875,0.5944125
1679992608534,1172596889541645,1.312575,0.313775,0.5885
1679992608538,1172596892043491,1.3156,0.3047,0.58547497
1679992608540,1172596894545322,1.3305875,0.301675,0.5885
1679992608543,1172596897047399,1.3446125,0.3007125,0.596475
1679992608545,1172596899549245,1.362625,0.301675,0.607475
1679992608547,1172596902051091,1.3806375,0.3117125,0.6215
1679992608549,1172596904552937,1.39755,0.3157,0.6334625
1679992608552,1172596907054587,1.4155625,0.3207875,0.6444625
1679992608554,1172596909556664,1.4315125,0.3267,0.6584875
1679992608556,1172596912058510,1.4466375,0.3306875,0.6754
1679992608559,1172596914560433,1.4576375,0.3317875,0.69245
1679992608562,1172596917062183,1.4595625,0.3377,0.711425
1679992608564,1172596919564029,1.4535125,0.346775,0.73039997
1679992608566,1172596922065875,1.444575,0.351725,0.75845
1679992608569,1172596924567798,1.43055,0.3557125,0.7854
1679992608572,1172596927069563,1.4125375,0.3597,0.8124875
1679992608575,1172596929571409,1.3925999,0.362725,0.8443875
1679992608577,1172596932073332,1.3655125,0.36781248,0.8734
1679992608579,1172596934575178,1.3366375,0.3697375,0.898425
1679992608582,1172596937077024,1.30955,0.3777125,0.9244125
1679992608585,1172596939578856,1.2826,0.38279998,0.9504
1679992608587,1172596942080703,1.2555125,0.3777125,0.96745
1679992608589,1172596944582549,1.2395625,0.3636875,0.9854625
1679992608592,1172596947084404,1.2276,0.3477375,1.003475
1679992608595,1172596949586481,1.2166,0.33275,1.019425
1679992608596,1172596952088327,1.2126125,0.312675,1.03345
1679992608599,1172596954590173,1.208625,0.3037375,1.0505
1679992608602,1172596957092019,1.2095875,0.2957625,1.0674125
1679992608604,1172596959593852,1.2175624,0.28875,1.0844625
1679992608606,1172596962095698,1.2225125,0.2866875,1.0964249
1679992608609,1172596964597544,1.229525,0.2847625,1.113475
1679992608613,1172596967099452,1.2445124,0.2827,1.1274999
1679992608615,1172596969601298,1.2606,0.2767875,1.1374
1679992608617,1172596972103144,1.2786125,0.2677125,1.1495
1679992608620,1172596974604990,1.29855,0.25575,1.1644875
1679992608624,1172596977106837,1.318625,0.2358125,1.179475
1679992608625,1172596979608654,1.3376,0.208725,1.19845
1679992608627,1172596982110500,1.35355,0.1727,1.2144
1679992608629,1172596984612346,1.3655125,0.1357125,1.2354375
1679992608632,1172596987114423,1.3765125,0.0996875,1.256475
1679992608634,1172596989616269,1.3905375,0.059675,1.2733876
1679992608636,1172596992118135,1.3996125,0.014712499,1.289475
1679992608639,1172596994619751,1.4146,-0.0391875,1.3094125
1679992608643,1172596997121828,1.433575,-0.0922625,1.3283875
1679992608645,1172596999623674,1.4476,-0.1452,1.3475
1679992608647,1172597002125500,1.4625875,-0.192225,1.3644125
1679992608650,1172597004627346,1.4755125,-0.2371875,1.3794
1679992608653,1172597007129192,1.4906375,-0.28325,1.3894374
1679992608655,1172597009631038,1.4925625,-0.3262875,1.399475
1679992608657,1172597012132885,1.493525,-0.3592875,1.4034625
1679992608659,1172597014634799,1.4865125,-0.38225,1.4053875
1679992608663,1172597017136645,1.4785374,-0.4032875,1.4053875
1679992608665,1172597019638491,1.461625,-0.4241875,1.404425
1679992608667,1172597022140260,1.4466375,-0.4422,1.404425
1679992608669,1172597024642101,1.43055,-0.4613125,1.4053875
1679992608672,1172597027144024,1.4125375,-0.4802875,1.4084125
1679992608674,1172597029645871,1.3925999,-0.500225,1.4095125
1679992608676,1172597032147717,1.3696375,-0.522225,1.4114375
1679992608679,1172597034649534,1.345575,-0.54821247,1.4135
1679992608682,1172597037151611,1.3245375,-0.578325,1.4163874
1679992608684,1172597039653457,1.301575,-0.6012875,1.4144624
1679992608688,1172597042155072,1.2765499,-0.6232875,1.4124
1679992608689,1172597044656914,1.2596375,-0.6452875,1.415425
1679992608692,1172597047158760,1.246575,-0.66728747,1.4163874
1679992608694,1172597049660914,1.235575,-0.69025,1.4163874
1679992608696,1172597052162683,1.2225125,-0.7022125,1.4135
1679992608699,1172597054664529,1.218525,-0.7183,1.4135
1679992608703,1172597057166394,1.2145375,-0.7293,1.4163874
1679992608705,1172597059668240,1.2126125,-0.737275,1.4194125
1679992608706,1172597062170086,1.2145375,-0.7442875,1.4224375
1679992608709,1172597064671933,1.218525,-0.748275,1.4234
1679992608712,1172597067173861,1.2225125,-0.75528747,1.4234
1679992608714,1172597069675707,1.2255375,-0.764225,1.4284875
1679992608716,1172597072177553,1.230625,-0.7733,1.42945
1679992608720,1172597074679399,1.2335125,-0.7772875,1.4254625
1679992608723,1172597077181235,1.2386,-0.7803125,1.4224375
1679992608726,1172597079683081,1.2395625,-0.7882875,1.4194125
1679992608727,1172597082184928,1.246575,-0.797225,1.4163874
1679992608729,1172597084687005,1.2486374,-0.8052,1.4095125
1679992608732,1172597087188866,1.2456125,-0.8063,1.4034625
1679992608734,1172597089690712,1.235575,-0.808225,1.3974125
1679992608736,1172597092192558,1.229525,-0.808225,1.3915
1679992608739,1172597094694404,1.218525,-0.8042375,1.3903999
1679992608743,1172597097196254,1.202575,-0.80025,1.3805
1679992608745,1172597099698101,1.191575,-0.7953,1.3723875
1679992608747,1172597102200024,1.175625,-0.7902125,1.3684
1679992608749,1172597104701870,1.1625625,-0.7772875,1.360425
1679992608752,1172597107203716,1.1455125,-0.776325,1.3514875
1679992608754,1172597109705577,1.1295625,-0.77825,1.3393875
1679992608756,1172597112207423,1.1125125,-0.7792125,1.3314124
1679992608759,1172597114709269,1.098625,-0.7792125,1.31945
1679992608764,1172597117211039,1.0846,-0.78223747,1.3014375
1679992608766,1172597119712952,1.064525,-0.78925,1.2874125
1679992608767,1172597122215029,1.0506375,-0.7962625,1.2714624
1679992608769,1172597124716875,1.0296,-0.8063,1.2555125
1679992608772,1172597127218490,1.004575,-0.81125,1.2403874
1679992608774,1172597129720336,0.9835375,-0.81221247,1.2214125
1679992608777,1172597132222394,0.960575,-0.825275,1.206425
1679992608779,1172597134724240,0.94063747,-0.84122497,1.1895125
1679992608783,1172597137226087,0.916575,-0.858275,1.1743875
1679992608785,1172597139727933,0.889625,-0.8732625,1.1584375
1679992608786,1172597142229789,0.8646,-0.8822,1.1413875
1679992608789,1172597144731635,0.8375125,-0.891275,1.1235125
1679992608793,1172597147233481,0.8045125,-0.90021247,1.1114125
1679992608794,1172597149735404,0.773575,-0.91025,1.0984875
1679992608797,1172597152237246,0.745525,-0.9222125,1.0784125
1679992608801,1172597154739092,0.7176125,-0.9362375,1.0604
1679992608803,1172597157240938,0.696575,-0.9532875,1.041425
1679992608805,1172597159742784,0.674575,-0.9662125,1.019425
1679992608807,1172597162244630,0.6546375,-0.97625,0.9944
1679992608809,1172597164746485,0.6375875,-0.9783125,0.970475
1679992608812,1172597167248562,0.6216375,-0.9783125,0.9444875
1679992608814,1172597169750408,0.613525,-0.9702,0.920425
1679992608816,1172597172252275,0.608575,-0.95823747,0.8954
1679992608819,1172597174754121,0.603625,-0.9502625,0.8694125
1679992608823,1172597177255967,0.602525,-0.9392625,0.8424625
1679992608825,1172597179757582,0.602525,-0.9222125,0.81743747
1679992608827,1172597182259428,0.6006,-0.9062625,0.79048747
1679992608829,1172597184761577,0.6015625,-0.8932,0.76147497
1679992608832,1172597187263423,0.597575,-0.874225,0.7343875
1679992608834,1172597189765193,0.5955125,-0.8463125,0.7044125
1679992608838,1172597192267029,0.58753747,-0.8283,0.6765
1679992608840,1172597194768952,0.5735125,-0.8063,0.6444625
1679992608843,1172597197270798,0.5526125,-0.78429997,0.61448747
1679992608846,1172597199772567,0.531575,-0.7602375,0.5845125
1679992608848,1172597202274490,0.5055875,-0.737275,0.552475
1679992608850,1172597204776366,0.4756125,-0.715275,0.5214
1679992608853,1172597207278212,0.4466,-0.69629997,0.4874375
1679992608854,1172597209780058,0.416625,-0.6782875,0.45045
1679992608857,1172597212281904,0.3845875,-0.66728747,0.414425
1679992608859,1172597214783760,0.35255,-0.6562875,0.3784
1679992608863,1172597217285606,0.3246375,-0.64625,0.34045
1679992608865,1172597219787683,0.29755,-0.6373125,0.30745
1679992608867,1172597222289529,0.2715625,-0.6303,0.277475
1679992608869,1172597224791347,0.2476375,-0.6282375,0.24447499
1679992608872,1172597227293193,0.22659999,-0.6193,0.2134
1679992608876,1172597229795039,0.2085875,-0.6182,0.1885125
1679992608877,1172597232296885,0.1945625,-0.616275,0.1665125
1679992608879,1172597234798731,0.1755875,-0.6122875,0.1445125
1679992608882,1172597237300607,0.1566125,-0.6122875,0.1225125
1679992608884,1172597239802530,0.140525,-0.6072,0.1034
1679992608887,1172597242304377,0.1225125,-0.6062375,0.091437496
1679992608889,1172597244806223,0.104637496,-0.6072,0.0785125
1679992608892,1172597247308049,0.085525,-0.6083,0.0675125
1679992608894,1172597249809895,0.06655,-0.6092625,0.0594
1679992608897,1172597252311741,0.0515625,-0.6122875,0.0534875
1679992608899,1172597254813587,0.0325875,-0.6153125,0.0495
1679992608903,1172597257315650,0.013612499,-0.621225,0.0484
1679992608905,1172597259817497,-0.0064625,-0.6193,0.0474375
1679992608906,1172597262319112,-0.0254375,-0.621225,0.046475
1679992608909,1172597264820958,-0.0474375,-0.622325,0.0495
1679992608914,1172597267323021,-0.0664125,-0.627275,0.0504625
1679992608915,1172597269824867,-0.0804375,-0.633325,0.0484
1679992608918,1172597272326713,-0.09845,-0.6422625,0.054449998
1679992608919,1172597274828559,-0.1164625,-0.654225,0.0584375
1679992608923,1172597277330391,-0.1354375,-0.6593125,0.062425
1679992608924,1172597279832237,-0.1524875,-0.671275,0.0675125
1679992608927,1172597282334083,-0.166375,-0.6782875,0.0743875
1679992608929,1172597284836006,-0.1813625,-0.687225,0.082499996
1679992608933,1172597287337847,-0.1904375,-0.693275,0.0884125
1679992608935,1172597289839693,-0.19745,-0.699325,0.1005125
1679992608937,1172597292341540,-0.205425,-0.7082625,0.1115125
1679992608940,1172597294843386,-0.2094125,-0.7162375,0.1214125
1679992608944,1172597297345237,-0.2074875,-0.7222875,0.1364
1679992608946,1172597299847083,-0.2063875,-0.7302625,0.150425
1679992608948,1172597302349160,-0.2033625,-0.7332875,0.161425
1679992608951,1172597304850775,-0.194425,-0.731225,0.1764125
1679992608954,1172597307352852,-0.1874125,-0.7302625,0.1925
1679992608955,1172597309854698,-0.177375,-0.7282,0.20845
1679992608957,1172597312356545,-0.1703625,-0.72325,0.2283875
1679992608959,1172597314858391,-0.1593625,-0.710325,0.2484625
1679992608964,1172597317360237,-0.1494625,-0.7062,0.2704625
1679992608964,1172597319862179,-0.1414875,-0.7002875,0.2915
1679992608967,1172597322364025,-0.1373625,-0.6912125,0.3144625
1679992608969,1172597324865794,-0.1354375,-0.6802125,0.337425
1679992608972,1172597327367717,-0.1304875,-0.6722375,0.3685
1679992608974,1172597329869564,-0.1304875,-0.6582125,0.3944875
1679992608977,1172597332371396,-0.1324125,-0.6472125,0.420475
1679992608980,1172597334873165,-0.1403875,-0.63827497,0.45045
1679992608983,1172597337375011,-0.145475,-0.6292,0.4774
1679992608985,1172597339876934,-0.1544125,-0.6252125,0.5044875
1679992608988,1172597342378780,-0.1654125,-0.6142125,0.52745
1679992608990,1172597344880627,-0.1794375,-0.6062375,0.54945
1679992608993,1172597347382473,-0.2014375,-0.6043125,0.5704875
1679992608995,1172597349884319,-0.21945,-0.600325,0.5874
1679992608997,1172597352386160,-0.23539999,-0.5962,0.6065125
1679992608999,1172597354888006,-0.25245,-0.594275,0.6224625
1679992609002,1172597357390083,-0.2693625,-0.59125,0.6353875
1679992609004,1172597359891929,-0.282425,-0.5922125,0.6474875
1679992609007,1172597362393775,-0.29741248,-0.5922125,0.6615125
1679992609009,1172597364895617,-0.310475,-0.594275,0.6765
1679992609013,1172597367397463,-0.3234,-0.599225,0.6854375
1679992609015,1172597369899309,-0.3353625,-0.6043125,0.6974
1679992609017,1172597372401141,-0.3444375,-0.6092625,0.711425
1679992609019,1172597374903064,-0.3524125,-0.6182,0.7205
1679992609024,1172597377404910,-0.353375,-0.627275,0.7324625
1679992609027,1172597379906757,-0.3603875,-0.6292,0.7464875
1679992609031,1172597382408588,-0.36245,-0.6292,0.7574875
1679992609032,1172597384910434,-0.36245,-0.633325,0.7704125
1679992609034,1172597387412280,-0.3634125,-0.632225,0.78045
1679992609036,1172597389914126,-0.3603875,-0.6263125,0.7964
1679992609037,1172597392416203,-0.3573625,-0.6153125,0.810425
1679992609041,1172597394918044,-0.354475,-0.60225,0.8234875
1679992609043,1172597397419890,-0.3504875,-0.5823125,0.838475
1679992609045,1172597399921737,-0.342375,-0.5652625,0.85745
1679992609047,1172597402423660,-0.3364625,-0.545325,0.8754625
1679992609050,1172597404925395,-0.32945,-0.523325,0.8925125
1679992609053,1172597407427241,-0.3224375,-0.4943125,0.90543747
1679992609055,1172597409929164,-0.315425,-0.4742375,0.920425
1679992609057,1172597412431010,-0.309375,-0.44825,0.93445
1679992609060,1172597414932780,-0.3053875,-0.424325,0.9405
1679992609065,1172597417434645,-0.3014,-0.4052125,0.9475125
1679992609066,1172597419936568,-0.29741248,-0.3843125,0.9515
1679992609069,1172597422438645,-0.288475,-0.363275,0.9515
1679992609071,1172597424940269,-0.282425,-0.3403125,0.948475
1679992609073,1172597427442115,-0.2814625,-0.319275,0.9433875
1679992609075,1172597429943961,-0.2803625,-0.3042875,0.931425
1679992609077,1172597432445808,-0.277475,-0.2853125,0.920425
1679992609080,1172597434947654,-0.2723875,-0.2712875,0.9084625
1679992609083,1172597437449500,-0.2684,-0.253275,0.8914125
1679992609086,1172597439951577,-0.2684,-0.2402125,0.8734
1679992609087,1172597442453423,-0.2644125,-0.22825,0.8514
1679992609090,1172597444955269,-0.265375,-0.21725,0.827475
1679992609093,1172597447457139,-0.2644125,-0.20927499,0.80245
1679992609096,1172597449958985,-0.265375,-0.204325,0.7734375
1679992609097,1172597452460832,-0.2704625,-0.2013,0.7434625
1679992609101,1172597454962678,-0.27445,-0.1973125,0.7123875
1679992609105,1172597457464630,-0.2814625,-0.204325,0.6774625
1679992609106,1172597459966476,-0.2904,-0.2022625,0.6494125
1679992609108,1172597462468322,-0.304425,-0.2102375,0.6175125
1679992609111,1172597464970168,-0.3144625,-0.214225,0.58341247
1679992609114,1172597467472029,-0.3273875,-0.2182125,0.5515125
1679992609116,1172597469973876,-0.342375,-0.2242625,0.5214
1679992609118,1172597472475722,-0.3584625,-0.2292125,0.491425
1679992609121,1172597474977799,-0.37345,-0.2352625,0.4684625
1679992609123,1172597477479659,-0.3884375,-0.237325,0.4464625
1679992609125,1172597479981505,-0.4013625,-0.2402125,0.42845
1679992609128,1172597482483351,-0.4164875,-0.242275,0.4125
1679992609130,1172597484985197,-0.42845,-0.2432375,0.40039998
1679992609136,1172597487487039,-0.441375,-0.2512125,0.38747498
1679992609137,1172597489988885,-0.45045,-0.2523125,0.37345
1679992609139,1172597492490808,-0.4593875,-0.2542375,0.365475
1679992609141,1172597494992654,-0.469425,-0.2563,0.3554375
1679992609146,1172597497494500,-0.47341248,-0.26221249,0.3465
1679992609147,1172597499996269,-0.4774,-0.2712875,0.34141248
1679992609148,1172597502498192,-0.4783625,-0.2743125,0.3344
1679992609150,1172597505000039,-0.474375,-0.2743125,0.3304125
1679992609153,1172597507501885,-0.469425,-0.275275,0.3284875
1679992609155,1172597510003717,-0.4624125,-0.270325,0.326425
1679992609158,1172597512505794,-0.447425,-0.269225,0.321475
1679992609160,1172597515007640,-0.4334,-0.2662,0.3194125
1679992609163,1172597517509486,-0.4123625,-0.259325,0.3174875
1679992609165,1172597520011121,-0.392425,-0.26221249,0.315425
1679992609168,1172597522512967,-0.370425,-0.2602875,0.3144625
1679992609171,1172597525015044,-0.3463625,-0.253275,0.3114375
1679992609174,1172597527516890,-0.321475,-0.2542375,0.3114375
1679992609176,1172597530018736,-0.29645,-0.258225,0.315425
1679992609178,1172597532520582,-0.2684,-0.26427498,0.31239998
1679992609180,1172597535022428,-0.2424125,-0.2743125,0.3114375
1679992609184,1172597537524274,-0.2124375,-0.2783,0.3095125
1679992609187,1172597540026198,-0.1854875,-0.2842125,0.30745
1679992609188,1172597542528054,-0.1593625,-0.2872375,0.30745
1679992609190,1172597545029900,-0.1354375,-0.291225,0.30745
1679992609193,1172597547531746,-0.112475,-0.29425,0.3095125
1679992609195,1172597550033592,-0.0933625,-0.291225,0.3095125
1679992609198,1172597552535442,-0.0743875,-0.292325,0.3114375
1679992609200,1172597555037288,-0.057475,-0.29425,0.310475
1679992609203,1172597557539365,-0.0424875,-0.291225,0.3114375
1679992609205,1172597560041212,-0.0273625,-0.2952125,0.3135
1679992609208,1172597562543068,-0.0193875,-0.2952125,0.3135
1679992609213,1172597565044914,-0.0053625,-0.297275,0.315425
1679992609215,1172597567546529,0.0026125,-0.3042875,0.31239998
1679992609216,1172597570048606,0.0105875,-0.3113,0.3095125
1679992609218,1172597572550471,0.009625,-0.3113,0.3084125
1679992609220,1172597575052394,0.0105875,-0.314325,0.3064875
1679992609224,1172597577554164,0.01155,-0.313225,0.3025
1679992609225,1172597580056010,0.009625,-0.3172125,0.3053875
1679992609227,1172597582557933,5.5E-4,-0.3152875,0.3053875
1679992609231,1172597585059760,-0.0064625,-0.3183125,0.3014
1679992609233,1172597587561529,-0.012375,-0.3232625,0.29947498
1679992609235,1172597590063375,-0.0224125,-0.31625,0.2985125
1679992609237,1172597592565299,-0.0364375,-0.3172125,0.29741248
1679992609240,1172597595067366,-0.0484,-0.314325,0.2943875
1679992609244,1172597597568982,-0.0584375,-0.3152875,0.2954875
1679992609249,1172597600070828,-0.0713625,-0.314325,0.2924625
1679992609257,1172597602572674,-0.0864875,-0.3102,0.2904
1679992609258,1172597605074756,-0.0924,-0.3073125,0.282425
1679992609258,1172597607576372,-0.0963875,-0.3012625,0.2784375
1679992609259,1172597610078448,-0.0994125,-0.2992,0.2734875
1679992609259,1172597612580295,-0.102437496,-0.29425,0.2704625
1679992609260,1172597615082141,-0.0963875,-0.28325,0.26345
1679992609263,1172597617583963,-0.0884125,-0.2762375,0.25547498
1679992609265,1172597620085809,-0.0774125,-0.269225,0.2514875
1679992609267,1172597622587655,-0.0614625,-0.26221249,0.2454375
1679992609270,1172597625089501,-0.0484,-0.25025,0.2365
1679992609273,1172597627591400,-0.0394625,-0.2453,0.2294875
1679992609275,1172597630093247,-0.024475,-0.2343,0.2184875
1679992609277,1172597632595093,-0.0154,-0.2233,0.2044625
1679992609280,1172597635096939,-0.01045,-0.2112,0.1934625
1679992609282,1172597637598775,0.0015125,-0.2022625,0.1824625
1679992609284,1172597640100621,0.009625,-0.193325,0.1684375
1679992609289,1172597642602467,0.0166375,-0.182325,0.1485
1679992609290,1172597645104544,0.0235125,-0.1753125,0.13145
1679992609293,1172597647606367,0.0265375,-0.1662375,0.1115125
1679992609295,1172597650108213,0.031625,-0.16225,0.0935
1679992609297,1172597652610059,0.0356125,-0.154275,0.073425
1679992609299,1172597655111905,0.041525,-0.148225,0.0554125
1679992609303,1172597657613818,0.0435875,-0.143275,0.0314875
1679992609305,1172597660115664,0.053625,-0.1353,0.0144375
1679992609307,1172597662617510,0.058575,-0.1243,-0.008525
1679992609310,1172597665119357,0.0606375,-0.111237496,-0.0325875
1679992609313,1172597667621203,0.0655875,-0.104225,-0.0545875
1679992609314,1172597670122972,0.0705375,-0.0972125,-0.080575
1679992609318,1172597672624895,0.0705375,-0.094325,-0.1016125
1679992609319,1172597675126972,0.069575,-0.088275,-0.1225125
1679992609324,1172597677628587,0.074525,-0.091299996,-0.1445125
1679992609326,1172597680130449,0.075625,-0.091299996,-0.16555
1679992609328,1172597682632525,0.0735625,-0.0922625,-0.184525
1679992609330,1172597685134372,0.069575,-0.094325,-0.2046
1679992609332,1172597687635987,0.06655,-0.100237496,-0.22659999
1679992609334,1172597690137833,0.0576125,-0.100237496,-0.24255
1679992609342,1172597692639876,0.0455125,-0.110275,-0.26455
1679992609342,1172597695141799,0.0405625,-0.121275,-0.28861248
1679992609344,1172597697643568,0.0295625,-0.1243,-0.3075875
1679992609345,1172597700145415,0.01155,-0.12925,-0.327525
1679992609348,1172597702647251,-4.125E-4,-0.1302125,-0.34155
1679992609350,1172597705149174,-0.0174625,-0.1313125,-0.3586
1679992609352,1172597707650943,-0.0303875,-0.12925,-0.3724875
1679992609355,1172597710152866,-0.0474375,-0.1302125,-0.38555
1679992609357,1172597712654943,-0.068475,-0.132275,-0.39655
1679992609360,1172597715156539,-0.0774125,-0.12925,-0.4136
1679992609364,1172597717658386,-0.0944625,-0.1282875,-0.426525
1679992609366,1172597720160232,-0.106425,-0.12925,-0.43559998
1679992609368,1172597722662078,-0.111375,-0.12925,-0.44055
1679992609370,1172597725163919,-0.124437496,-0.1282875,-0.454575
1679992609373,1172597727665996,-0.1354375,-0.1342,-0.4585625
1679992609375,1172597730167842,-0.139425,-0.1362625,-0.46461248
1679992609377,1172597732669688,-0.14245,-0.1362625,-0.47355
1679992609379,1172597735171535,-0.1524875,-0.1412125,-0.4756125
1679992609384,1172597737673391,-0.156475,-0.1412125,-0.4785
1679992609385,1172597740175237,-0.1593625,-0.1442375,-0.4756125
1679992609387,1172597742677083,-0.161425,-0.149325,-0.4785
1679992609389,1172597745178986,-0.1654125,-0.1502875,-0.4796
1679992609392,1172597747680832,-0.1744875,-0.149325,-0.4745125
1679992609396,1172597750182678,-0.1733875,-0.149325,-0.470525
1679992609397,1172597752684525,-0.1804,-0.1472625,-0.4714875
1679992609401,1172597755186385,-0.1854875,-0.1423125,-0.465575
1679992609404,1172597757688231,-0.194425,-0.14025,-0.459525
1679992609405,1172597760190077,-0.2044625,-0.1332375,-0.4536125
1679992609407,1172597762692154,-0.2074875,-0.1313125,-0.4455
1679992609409,1172597765194000,-0.2143625,-0.1243,-0.4345
1679992609413,1172597767695832,-0.2184875,-0.11825,-0.4246
1679992609415,1172597770197678,-0.2184875,-0.111237496,-0.4125
1679992609417,1172597772699525,-0.2173875,-0.1012,-0.3986125
1679992609420,1172597775201371,-0.2154625,-0.0902,-0.3876125
1679992609423,1172597777703221,-0.2074875,-0.0812625,-0.3724875
1679992609425,1172597780205144,-0.199375,-0.072325,-0.3645125
1679992609427,1172597782706990,-0.1904375,-0.066275,-0.3565375
1679992609429,1172597785208836,-0.172425,-0.055275,-0.3485625
1679992609433,1172597787710682,-0.1593625,-0.044275,-0.34155
1679992609435,1172597790212452,-0.144375,-0.0363,-0.3345375
1679992609439,1172597792714375,-0.1274625,-0.027224999,-0.3355
1679992609440,1172597795216221,-0.1194875,-0.0242,-0.338525
1679992609443,1172597797718067,-0.1104125,-0.017324999,-0.3345375
1679992609445,1172597800219928,-0.09845,-0.0092124995,-0.3355
1679992609447,1172597802721774,-0.08745,-0.005225,-0.3394875
1679992609449,1172597805223621,-0.0804375,0.00275,-0.3436125
1679992609452,1172597807725467,-0.0774125,0.0067375,-0.3485625
1679992609455,1172597810227544,-0.0804375,0.0187,-0.35255
1679992609457,1172597812729385,-0.0853875,0.0287375,-0.3586
1679992609460,1172597815231231,-0.091437496,0.038775,-0.366575
1679992609464,1172597817733077,-0.101475,0.0477125,-0.37454998
1679992609465,1172597820234923,-0.1084875,0.059675,-0.38555
1679992609467,1172597822736764,-0.123475,0.0677875,-0.3986125
1679992609470,1172597825238611,-0.1364,0.076725,-0.4145625
1679992609472,1172597827740534,-0.1524875,0.087725,-0.4246
1679992609476,1172597830242380,-0.1684375,0.0947375,-0.437525
1679992609478,1172597832744221,-0.1874125,0.10175,-0.4494875
1679992609480,1172597835246067,-0.2074875,0.1067,-0.46048748
1679992609482,1172597837747913,-0.2234375,0.1167375,-0.470525
1679992609485,1172597840249760,-0.238425,0.12375,-0.4855125
1679992609487,1172597842751606,-0.2534125,0.1337875,-0.4965125
1679992609489,1172597845253683,-0.271425,0.1387375,-0.5086125
1679992609493,1172597847755529,-0.282425,0.1436875,-0.5236
1679992609494,1172597850257375,-0.293425,0.148775,-0.5335
1679992609497,1172597852759221,-0.3034625,0.1527625,-0.547525
1679992609500,1172597855261067,-0.3084125,0.153725,-0.5545375
1679992609503,1172597857762913,-0.315425,0.159775,-0.56155
1679992609505,1172597860264760,-0.321475,0.1617,-0.5665
1679992609507,1172597862766683,-0.3224375,0.164725,-0.5676
1679992609510,1172597865268549,-0.326425,0.1667875,-0.5676
1679992609514,1172597867770395,-0.326425,0.170775,-0.5665
1679992609516,1172597870272241,-0.321475,0.175725,-0.5625125
1679992609518,1172597872774087,-0.320375,0.180675,-0.5555
1679992609519,1172597875275933,-0.31845,0.186725,-0.55055
1679992609523,1172597877777794,-0.31239998,0.19373749,-0.542575
1679992609525,1172597880279871,-0.310475,0.19373749,-0.5374875
1679992609527,1172597882781717,-0.30745,0.20075,-0.5335
1679992609530,1172597885283563,-0.3034625,0.2047375,-0.52648747
1679992609533,1172597887785419,-0.3004375,0.2057,-0.525525
1679992609535,1172597890287265,-0.3004375,0.2047375,-0.5225
1679992609537,1172597892789111,-0.298375,0.2017125,-0.5185125
1679992609540,1172597895290958,-0.298375,0.2047375,-0.514525
1679992609544,1172597897792900,-0.298375,0.2107875,-0.514525
1679992609546,1172597900294746,-0.3023625,0.2127125,-0.5135625
1679992609548,1172597902796592,-0.29741248,0.21175,-0.5115
1679992609551,1172597905298428,-0.298375,0.2068,-0.5115
1679992609554,1172597907800197,-0.2924625,0.203775,-0.5075125
1679992609556,1172597910302120,-0.287375,0.2017125,-0.503525
1679992609557,1172597912803967,-0.2844875,0.1947,-0.5044875
1679992609560,1172597915305813,-0.2734875,0.186725,-0.5044875
1679992609563,1172597917807664,-0.2674375,0.1797125,-0.5044875
1679992609565,1172597920309741,-0.2583625,0.17173749,-0.5016
1679992609568,1172597922811356,-0.2534125,0.16775,-0.5016
1679992609570,1172597925313202,-0.2514875,0.164725,-0.5025625
1679992609573,1172597927815288,-0.2454375,0.15675,-0.4995375
1679992609575,1172597930317211,-0.2404875,0.148775,-0.4976125
1679992609577,1172597932818981,-0.2374625,0.142725,-0.4965125
1679992609580,1172597935320827,-0.2363625,0.1357125,-0.4906
1679992609583,1172597937822702,-0.2314125,0.12375,-0.4855125
1679992609585,1172597940324548,-0.2294875,0.114675,-0.4805625
1679992609589,1172597942826394,-0.22247499,0.1067,-0.4686
1679992609590,1172597945328317,-0.22247499,0.095699996,-0.46254998
1679992609593,1172597947830163,-0.2184875,0.0858,-0.4536125
1679992609596,1172597950332015,-0.2124375,0.0757625,-0.4426125
1679992609597,1172597952833861,-0.2074875,0.0666875,-0.4305125
1679992609600,1172597955335707,-0.2044625,0.0556875,-0.4175875
1679992609604,1172597957837553,-0.199375,0.0517,-0.4026
1679992609605,1172597960339409,-0.194425,0.0457875,-0.3876125
1679992609607,1172597962841486,-0.189475,0.037675,-0.37454998
1679992609610,1172597965343332,-0.1843875,0.0297,-0.3586
1679992609613,1172597967845179,-0.1764125,0.02475,-0.3394875
1679992609615,1172597970346991,-0.1764125,0.014712499,-0.322575
1679992609618,1172597972848837,-0.1703625,0.004675,-0.305525
1679992609620,1172597975350683,-0.16445,-0.0042625,-0.2875125
1679992609623,1172597977852529,-0.1634875,-0.016224999,-0.2745875
1679992609627,1172597980354476,-0.1544125,-0.0253,-0.256575
1679992609629,1172597982856322,-0.1464375,-0.0342375,-0.2415875
1679992609630,1172597985358169,-0.139425,-0.050325,-0.228525
1679992609633,1172597987860015,-0.1384625,-0.0572,-0.2116125
1679992609635,1172597990361861,-0.1293875,-0.0653125,-0.1936
1679992609637,1172597992863721,-0.1214125,-0.072325,-0.1786125
1679992609640,1172597995365567,-0.1104125,-0.0803,-0.15853749
1679992609643,1172597997867644,-0.101475,-0.0873125,-0.13859999
1679992609646,1172598000369490,-0.0924,-0.091299996,-0.1175625
1679992609648,1172598002871355,-0.0774125,-0.100237496,-0.0946
1679992609650,1172598005373202,-0.0694375,-0.111237496,-0.07755
1679992609653,1172598007875048,-0.0584375,-0.115225,-0.05555
1679992609654,1172598010376894,-0.0493625,-0.121275,-0.0356125
1679992609657,1172598012878740,-0.046475,-0.126225,-0.0176
1679992609660,1172598015380586,-0.0444125,-0.1342,0.0015125
1679992609665,1172598017882509,-0.0374,-0.138325,0.0174625
1679992609666,1172598020384355,-0.035475,-0.1412125,0.0345125
1679992609668,1172598022886202,-0.032449998,-0.1463,0.0495
1679992609670,1172598025388048,-0.0364375,-0.148225,0.0633875
1679992609673,1172598027889894,-0.0374,-0.149325,0.079475
1679992609675,1172598030391740,-0.0424875,-0.1533125,0.0924
1679992609677,1172598032893586,-0.045375,-0.149325,0.1073875
1679992609680,1172598035395663,-0.045375,-0.149325,0.12045
1679992609683,1172598037897509,-0.0493625,-0.154275,0.1354375
1679992609686,1172598040399356,-0.0534875,-0.154275,0.1464375
1679992609688,1172598042901202,-0.0523875,-0.160325,0.156475
1679992609690,1172598045403044,-0.0603625,-0.159225,0.16445
1679992609692,1172598047904890,-0.0633875,-0.160325,0.1714625
1679992609695,1172598050406736,-0.068475,-0.165275,0.1733875
1679992609698,1172598052908659,-0.0724625,-0.1683,0.1733875
1679992609701,1172598055410490,-0.0853875,-0.170225,0.172425
1679992609704,1172598057912260,-0.0924,-0.1753125,0.1665125
1679992609706,1172598060414106,-0.101475,-0.176275,0.161425
1679992609708,1172598062916029,-0.1084875,-0.1772375,0.156475
1679992609710,1172598065417875,-0.1183875,-0.1753125,0.1544125
1679992609714,1172598067919707,-0.1274625,-0.17325,0.1524875
1679992609715,1172598070421553,-0.139425,-0.171325,0.1485
1679992609718,1172598072923400,-0.1483625,-0.1683,0.1494625
1679992609720,1172598075425246,-0.155375,-0.1672,0.1464375
1679992609723,1172598077927101,-0.1593625,-0.1662375,0.1464375
1679992609725,1172598080429178,-0.161425,-0.1573,0.1485
1679992609727,1172598082931024,-0.1623875,-0.1533125,0.1464375
1679992609730,1172598085432870,-0.1694,-0.1522125,0.1494625
1679992609733,1172598087934721,-0.166375,-0.1423125,0.1524875
1679992609735,1172598090436567,-0.1684375,-0.1442375,0.1494625
1679992609739,1172598092938414,-0.1694,-0.143275,0.1494625
1679992609741,1172598095440260,-0.1684375,-0.1332375,0.1485
1679992609745,1172598097942159,-0.1733875,-0.1313125,0.145475
1679992609746,1172598100444005,-0.1733875,-0.1252625,0.1434125
1679992609748,1172598102945851,-0.1744875,-0.11825,0.1384625
1679992609750,1172598105447697,-0.17545,-0.111237496,0.1354375
1679992609753,1172598107949543,-0.1813625,-0.104225,0.1304875
1679992609755,1172598110451380,-0.1813625,-0.099275,0.123475
1679992609757,1172598112953226,-0.1824625,-0.094325,0.1194875
1679992609760,1172598115455072,-0.1794375,-0.0812625,0.1164625
1679992609763,1172598117957149,-0.17847499,-0.0763125,0.10945
1679992609765,1172598120458991,-0.1804,-0.0682,0.1073875
1679992609768,1172598122960837,-0.1813625,-0.055275,0.0994125
1679992609770,1172598125462683,-0.1854875,-0.049225,0.090475
1679992609773,1172598127964530,-0.1854875,-0.0352,0.0834625
1679992609776,1172598130466366,-0.1854875,-0.0213125,0.0704
1679992609778,1172598132968212,-0.189475,-0.0143,0.0584375
1679992609780,1172598135470135,-0.1934625,-0.0042625,0.0455125
1679992609783,1172598137971981,-0.1923625,0.0037125,0.032449998
1679992609785,1172598140473827,-0.1934625,0.005775,0.0193875
1679992609787,1172598142975707,-0.2044625,0.01375,0.0064625
1679992609790,1172598145477554,-0.2044625,0.015675,-0.0055
1679992609793,1172598147979400,-0.2063875,0.0177375,-0.0204875
1679992609795,1172598150481246,-0.20845,0.0207625,-0.0356125
1679992609798,1172598152983294,-0.205425,0.0207625,-0.052525
1679992609800,1172598155485140,-0.205425,0.021724999,-0.0655875
1679992609803,1172598157986986,-0.205425,0.021724999,-0.080575
1679992609805,1172598160488832,-0.1964875,0.0187,-0.0955625
1679992609808,1172598162990663,-0.1934625,0.01375,-0.1084875
1679992609810,1172598165492510,-0.1904375,0.014712499,-0.1194875
1679992609815,1172598167994356,-0.188375,0.01375,-0.1335125
1679992609816,1172598170496279,-0.1874125,0.0116875,-0.1456125
1679992609818,1172598172998125,-0.189475,0.0077,-0.1595
1679992609820,1172598175499971,-0.194425,0.005775,-0.1665125
1679992609824,1172598178001817,-0.19745,0.010725,-0.1744875
1679992609825,1172598180503663,-0.205425,0.0077,-0.1854875
1679992609827,1172598183005510,-0.2143625,0.005775,-0.1915375
1679992609830,1172598185507366,-0.2253625,0.005775,-0.1936
1679992609834,1172598188009212,-0.2393875,0.0037125,-0.2035
1679992609837,1172598190511289,-0.249425,0.0017875,-0.2085875
1679992609838,1172598193013135,-0.2644125,0.0037125,-0.20955
1679992609840,1172598195514750,-0.2794,0.004675,-0.20955
1679992609844,1172598198016827,-0.29645,0.004675,-0.2116125
1679992609846,1172598200518750,-0.31239998,0.004675,-0.2135375
1679992609848,1172598203020597,-0.326425,0.005775,-0.2074875
1679992609851,1172598205522351,-0.3394875,0.0077,-0.2035
1679992609854,1172598208024197,-0.3454,0.0127875,-0.19855
1679992609856,1172598210526120,-0.3524125,0.014712499,-0.1975875
1679992609858,1172598213027966,-0.3554375,0.0187,-0.1915375
1679992609860,1172598215529735,-0.354475,0.021724999,-0.1854875
1679992609864,1172598218031659,-0.353375,0.0207625,-0.1815
1679992609865,1172598220533736,-0.3504875,0.0226875,-0.173525
1679992609867,1172598223035582,-0.342375,0.0226875,-0.1705
1679992609872,1172598225537197,-0.3364625,0.0226875,-0.1705
1679992609876,1172598228039043,-0.3254625,0.0308,-0.168575
1679992609876,1172598230541130,-0.309375,0.0308,-0.1615625
1679992609877,1172598233042746,-0.293425,0.0336875,-0.1555125
1679992609881,1172598235544822,-0.2803625,0.038775,-0.15455
1679992609883,1172598238046669,-0.26345,0.0446875,-0.1505625
1679992609886,1172598240548568,-0.2454375,0.048675,-0.1425875
1679992609889,1172598243050337,-0.2244,0.0477125,-0.1395625
1679992609890,1172598245552183,-0.205425,0.0507375,-0.135575
1679992609893,1172598248054029,-0.1874125,0.0517,-0.1304875
1679992609895,1172598250555933,-0.1714625,0.0517,-0.1255375
1679992609897,1172598253057780,-0.156475,0.0528,-0.1285625
1679992609900,1172598255559626,-0.1434125,0.0537625,-0.1304875
1679992609903,1172598258061472,-0.133375,0.0556875,-0.1304875
1679992609905,1172598260563549,-0.123475,0.05775,-0.1335125
1679992609907,1172598263065164,-0.1183875,0.0567875,-0.13653749
1679992609910,1172598265567010,-0.113437496,0.0617375,-0.1395625
1679992609913,1172598268068856,-0.112475,0.0638,-0.1414875
1679992609915,1172598270571010,-0.112475,0.0617375,-0.1456125
1679992609918,1172598273072794,-0.1104125,0.0617375,-0.1505625
1679992609920,1172598275574640,-0.1084875,0.05775,-0.1524875
1679992609923,1172598278076486,-0.10945,0.054725,-0.1615625
1679992609927,1172598280578313,-0.1054625,0.049775,-0.16555
1679992609928,1172598283080159,-0.1034,0.043725,-0.1705
1679992609930,1172598285582005,-0.1034,0.0397375,-0.1744875
1679992609933,1172598288083928,-0.1034,0.0347875,-0.1815
1679992609935,1172598290585775,-0.101475,0.0317625,-0.184525
1679992609938,1172598293087611,-0.0994125,0.0287375,-0.1915375
1679992609940,1172598295589457,-0.102437496,0.02475,-0.1915375
1679992609944,1172598298091303,-0.101475,0.0237875,-0.1925
1679992609946,1172598300593149,-0.101475,0.021724999,-0.1945625
1679992609948,1172598303095019,-0.101475,0.0187,-0.1936
1679992609950,1172598305597096,-0.1054625,0.01375,-0.1885125
1679992609953,1172598308098942,-0.106425,0.0127875,-0.1865875
1679992609955,1172598310600789,-0.1073875,0.010725,-0.18259999
1679992609958,1172598313102630,-0.113437496,0.0097624995,-0.1775125
1679992609960,1172598315604476,-0.1194875,0.0097624995,-0.1725625
1679992609964,1172598318106322,-0.122375,0.016775,-0.1634875
1679992609966,1172598320608245,-0.128425,0.0187,-0.1555125
1679992609968,1172598323110096,-0.1373625,0.0127875,-0.151525
1679992609970,1172598325611943,-0.139425,0.0177375,-0.1445125
1679992609973,1172598328113789,-0.1414875,0.0198,-0.13653749
1679992609975,1172598330615635,-0.1524875,0.021724999,-0.1276
1679992609978,1172598333117496,-0.1544125,0.021724999,-0.1205875
1679992609980,1172598335619573,-0.155375,0.0207625,-0.1155
1679992609983,1172598338121419,-0.156475,0.027775,-0.11055
1679992609985,1172598340623265,-0.156475,0.0297,-0.1035375
1679992609987,1172598343125111,-0.1584,0.0297,-0.0925375
1679992609990,1172598345626948,-0.15345,0.0297,-0.0875875
1679992609993,1172598348128563,-0.1494625,0.0347875,-0.085525
1679992609996,1172598350630640,-0.14245,0.0367125,-0.0815375
1679992609997,1172598353132563,-0.1373625,0.0427625,-0.07755
1679992610001,1172598355634394,-0.1293875,0.043725,-0.0765875
1679992610004,1172598358136163,-0.123475,0.0457875,-0.07755
1679992610006,1172598360638086,-0.1104125,0.0446875,-0.0765875
1679992610007,1172598363139933,-0.101475,0.0457875,-0.0785125
1679992610010,1172598365641779,-0.091437496,0.0457875,-0.0815375
1679992610013,1172598368143548,-0.0823625,0.0477125,-0.082499996
1679992610015,1172598370645471,-0.073425,0.043725,-0.085525
1679992610018,1172598373147548,-0.06545,0.04675,-0.0875875
1679992610020,1172598375649394,-0.057475,0.0556875,-0.0906125
1679992610024,1172598378151015,-0.0534875,0.05775,-0.0946
1679992610025,1172598380653092,-0.0474375,0.0567875,-0.1005125
1679992610028,1172598383154938,-0.043449998,0.065725,-0.1065625
1679992610031,1172598385656784,-0.0383625,0.06875,-0.1115125
1679992610033,1172598388158630,-0.0374,0.06875,-0.1194875
1679992610035,1172598390660553,-0.0374,0.0727375,-0.1236125
1679992610039,1172598393162399,-0.0374,0.0776875,-0.1315875
1679992610041,1172598395664168,-0.0364375,0.0787875,-0.1375
1679992610044,1172598398166015,-0.0383625,0.0837375,-0.1425875
1679992610047,1172598400667938,-0.043449998,0.087725,-0.151525
1679992610049,1172598403169784,-0.0474375,0.0886875,-0.1555125
1679992610051,1172598405671630,-0.0504625,0.095699996,-0.15853749
1679992610054,1172598408173476,-0.056375,0.1007875,-0.1615625
1679992610055,1172598410675567,-0.0603625,0.10175,-0.1634875
1679992610057,1172598413177413,-0.0633875,0.1067,-0.1676125
1679992610060,1172598415679029,-0.0664125,0.109725,-0.1695375
1679992610064,1172598418180875,-0.0664125,0.1137125,-0.1695375
1679992610065,1172598420682976,-0.0664125,0.115775,-0.1695375
1679992610068,1172598423184899,-0.0644875,0.109725,-0.1725625
1679992610070,1172598425686668,-0.062425,0.104775,-0.1725625
1679992610073,1172598428188591,-0.0603625,0.1007875,-0.1705
1679992610076,1172598430690448,-0.0584375,0.0977625,-0.1716
1679992610079,1172598433192294,-0.057475,0.0968,-0.173525
1679992610080,1172598435694064,-0.0554125,0.0968,-0.173525
1679992610083,1172598438195910,-0.0594,0.095699996,-0.1755875
1679992610085,1172598440698064,-0.0594,0.0968,-0.173525
1679992610088,1172598443199891,-0.0614625,0.0996875,-0.1705
1679992610090,1172598445701506,-0.062425,0.0996875,-0.1676125
1679992610093,1172598448203352,-0.0633875,0.095699996,-0.16555
1679992610095,1172598450705429,-0.0644875,0.093775,-0.1606
1679992610098,1172598453207064,-0.0644875,0.0897875,-0.157575
1679992610100,1172598455709141,-0.068475,0.09075,-0.1555125
1679992610103,1172598458210987,-0.0664125,0.0886875,-0.1496
1679992610105,1172598460712833,-0.0644875,0.0947375,-0.14355
1679992610108,1172598463214693,-0.06545,0.0968,-0.1425875
1679992610110,1172598465716539,-0.068475,0.098725,-0.1375
1679992610114,1172598468218385,-0.0594,0.1007875,-0.1304875
1679992610116,1172598470720309,-0.0554125,0.103675,-0.1255375
1679992610119,1172598473222107,-0.054449998,0.1027125,-0.1236125
1679992610120,1172598475723953,-0.0484,0.114675,-0.1175625
1679992610123,1172598478225799,-0.0444125,0.115775,-0.1095875
1679992610125,1172598480727645,-0.0383625,0.1188,-0.1065625
1679992610128,1172598483229491,-0.0303875,0.1167375,-0.1035375
1679992610130,1172598485731343,-0.0254375,0.1167375,-0.0974875
1679992610133,1172598488233419,-0.0264,0.115775,-0.0955625
1679992610135,1172598490735266,-0.0224125,0.1167375,-0.0906125
1679992610138,1172598493237112,-0.018424999,0.117699996,-0.0836
1679992610140,1172598495738972,-0.0114124995,0.1167375,-0.082499996
1679992610144,1172598498240818,-0.007425,0.114675,-0.0735625
1679992610146,1172598500742664,-0.0064625,0.1106875,-0.06655
1679992610148,1172598503244510,0.0015125,0.11275,-0.0625625
1679992610152,1172598505746414,0.0075625,0.114675,-0.058575
1679992610154,1172598508248261,0.0105875,0.1137125,-0.0534875
1679992610156,1172598510750107,0.013612499,0.1137125,-0.0515625
1679992610158,1172598513251953,0.013612499,0.117699996,-0.0485375
1679992610160,1172598515753799,0.0155375,0.1197625,-0.0455125
1679992610163,1172598518255669,0.0166375,0.1197625,-0.0455125
1679992610165,1172598520757515,0.013612499,0.1197625,-0.047575
1679992610168,1172598523259592,0.0125124995,0.1167375,-0.0455125
1679992610170,1172598525761439,0.01155,0.1188,-0.0506
1679992610173,1172598528263300,0.008525,0.1216875,-0.0515625
1679992610175,1172598530765146,0.0056375,0.126775,-0.0534875
1679992610177,1172598533266992,-4.125E-4,0.131725,-0.0565125
1679992610181,1172598535768838,-0.001375,0.1326875,-0.0625625
1679992610185,1172598538270674,-0.0044,0.1357125,-0.0705375
1679992610186,1172598540772597,-0.01045,0.136675,-0.074525
1679992610189,1172598543274444,-0.0083875,0.13475,-0.0815375
1679992610191,1172598545776290,-0.0114124995,0.136675,-0.085525
1679992610195,1172598548278126,-0.0094875,0.13475,-0.091575
1679992610196,1172598550779972,-0.0064625,0.136675,-0.09955
1679992610198,1172598553281818,-0.0034375,0.1326875,-0.1084875
1679992610201,1172598555783664,-4.125E-4,0.12979999,-0.1145375
1679992610203,1172598558285741,0.0026125,0.1307625,-0.1225125
1679992610206,1172598560787592,0.0066,0.131725,-0.1276
1679992610208,1172598563289439,0.0155375,0.12773749,-0.1335125
1679992610211,1172598565791285,0.020624999,0.1216875,-0.13859999
1679992610213,1172598568293131,0.0265375,0.120725,-0.1414875
1679992610215,1172598570794977,0.0295625,0.1216875,-0.14355
1679992610218,1172598573296828,0.0386375,0.120725,-0.1445125
1679992610220,1172598575798751,0.04455,0.1167375,-0.1425875
1679992610224,1172598578300598,0.0455125,0.117699996,-0.1425875
1679992610227,1172598580802449,0.0506,0.1197625,-0.1425875
1679992610229,1172598583304295,0.0545875,0.1227875,-0.1395625
1679992610230,1172598585806141,0.0515625,0.1216875,-0.1375
1679992610233,1172598588308218,0.0515625,0.120725,-0.13255
1679992610235,1172598590810064,0.0545875,0.1197625,-0.1304875
1679992610238,1172598593311674,0.0496375,0.1227875,-0.124575
1679992610241,1172598595813521,0.0485375,0.12375,-0.1205875
1679992610243,1172598598315598,0.0455125,0.125675,-0.118525
1679992610245,1172598600817444,0.042625,0.125675,-0.1126125
1679992610248,1172598603319069,0.0396,0.1197625,-0.1065625
1679992610250,1172598605821146,0.036575,0.12375,-0.102575
1679992610253,1172598608323069,0.0314875,0.125675,-0.0946
1679992610255,1172598610824838,0.0286,0.1227875,-0.0864875
1679992610258,1172598613326694,0.0295625,0.12375,-0.080575
1679992610260,1172598615828617,0.0265375,0.1227875,-0.0735625
1679992610265,1172598618330463,0.0275,0.1227875,-0.0705375
1679992610267,1172598620832232,0.0265375,0.1216875,-0.0576125
1679992610268,1172598623334141,0.0246125,0.120725,-0.047575
1679992610270,1172598625836218,0.025575,0.1216875,-0.0396
1679992610273,1172598628338064,0.0286,0.12375,-0.0286
1679992610275,1172598630839680,0.0286,0.1227875,-0.019524999
1679992610278,1172598633341526,0.03355,0.1227875,-0.0094875
1679992610280,1172598635843593,0.0345125,0.120725,-0.0015125
1679992610283,1172598638345439,0.0385,0.1188,0.0064625
1679992610285,1172598640847285,0.04455,0.1188,0.0154
1679992610288,1172598643349131,0.0506,0.115775,0.024475
1679992610290,1172598645851088,0.0576125,0.1117875,0.0303875
1679992610293,1172598648352934,0.0625625,0.1137125,0.040425
1679992610295,1172598650854704,0.0675125,0.115775,0.0474375
1679992610298,1172598653356550,0.074525,0.115775,0.0554125
1679992610302,1172598655858458,0.0765875,0.1188,0.0594
1679992610305,1172598658360535,0.082499996,0.114675,0.0664125
1679992610307,1172598660862150,0.0845625,0.1167375,0.0743875
1679992610308,1172598663363996,0.0875875,0.115775,0.0804375
1679992610310,1172598665866073,0.0906125,0.117699996,0.0853875
1679992610313,1172598668367933,0.0925375,0.1197625,0.091437496
1679992610315,1172598670869549,0.0946,0.125675,0.09845
1679992610318,1172598673371626,0.0985875,0.125675,0.1034
1679992610320,1172598675873549,0.102575,0.1167375,0.106425
1679992610323,1172598678375328,0.1095875,0.120725,0.1115125
1679992610325,1172598680877174,0.1115125,0.1167375,0.1144
1679992610328,1172598683379097,0.1194875,0.11275,0.113437496
1679992610330,1172598685880943,0.1236125,0.11275,0.1144
1679992610333,1172598688382713,0.1265,0.1117875,0.1164625
1679992610336,1172598690884622,0.129525,0.1067,0.112475
1679992610339,1172598693386468,0.13255,0.1067,0.1115125
1679992610341,1172598695888545,0.135575,0.0996875,0.112475
1679992610345,1172598698390159,0.1375,0.0968,0.10945
1679992610347,1172598700892005,0.13859999,0.0968,0.104499996
1679992610349,1172598703394082,0.1414875,0.0897875,0.1054625
1679992610351,1172598705895929,0.1414875,0.0858,0.1005125
1679992610353,1172598708397544,0.1395625,0.0847,0.0974875
1679992610355,1172598710899395,0.140525,0.082775,0.095425
1679992610358,1172598713401549,0.1375,0.081675,0.0924
1679992610360,1172598715903395,0.1346125,0.0776875,0.090475
1679992610363,1172598718405164,0.13255,0.071775,0.0834625
1679992610365,1172598720907121,0.1276,0.0697125,0.0853875
1679992610368,1172598723408968,0.1236125,0.065725,0.0853875
1679992610370,1172598725910814,0.1194875,0.0627,0.0814
1679992610373,1172598728412660,0.1145375,0.05775,0.082499996
1679992610376,1172598730914511,0.1115125,0.060775,0.079475
1679992610378,1172598733416357,0.107525,0.05775,0.0853875
1679992610380,1172598735918203,0.09955,0.054725,0.0814
1679992610384,1172598738420050,0.091575,0.049775,0.079475
1679992610386,1172598740922126,0.0864875,0.0477125,0.0804375
1679992610388,1172598743423958,0.074525,0.0427625,0.0804375
1679992610391,1172598745925804,0.0675125,0.0427625,0.079475
1679992610393,1172598748427727,0.058575,0.0397375,0.0774125
1679992610396,1172598750929496,0.0455125,0.0336875,0.0743875
1679992610398,1172598753431333,0.036575,0.0226875,0.073425
1679992610401,1172598755933179,0.025575,0.0187,0.073425
1679992610403,1172598758435102,0.0176,0.0177375,0.0704
1679992610405,1172598760936949,0.0066,0.015675,0.06545
1679992610408,1172598763438795,-0.0064625,0.0097624995,0.0644875
1679992610412,1172598765940641,-0.0114124995,0.005775,0.0605
1679992610414,1172598768442487,-0.02145,0.004675,0.0605
1679992610416,1172598770944333,-0.0284625,0.0037125,0.0554125
1679992610418,1172598773446158,-0.0394625,0.0017875,0.0523875
1679992610420,1172598775948005,-0.0455125,6.875E-4,0.0523875
1679992610424,1172598778450082,-0.054449998,-2.75E-4,0.0484
1679992610426,1172598780951928,-0.057475,-2.75E-4,0.0424875
1679992610429,1172598783453784,-0.0614625,-2.75E-4,0.0424875
1679992610430,1172598785955630,-0.0644875,-2.75E-4,0.040425
1679992610433,1172598788457476,-0.06545,0.00275,0.040425
1679992610435,1172598790959322,-0.068475,-2.75E-4,0.040425
1679992610438,1172598793461173,-0.0644875,-0.0022,0.0424875
1679992610441,1172598795963097,-0.0594,0.0017875,0.0444125
1679992610445,1172598798464943,-0.0534875,6.875E-4,0.0455125
1679992610446,1172598800966789,-0.0444125,-2.75E-4,0.0474375
1679992610448,1172598803468635,-0.0364375,-2.75E-4,0.0455125
1679992610452,1172598805970481,-0.0235125,-0.0022,0.046475
1679992610455,1172598808472327,-0.0125124995,0.0037125,0.0495
1679992610456,1172598810974174,-0.0015125,0.0077,0.0504625
1679992610458,1172598813476250,0.0125124995,0.0097624995,0.0504625
1679992610460,1172598815978178,0.025575,0.010725,0.0523875
1679992610464,1172598818479947,0.0385,0.0077,0.0534875
1679992610466,1172598820981793,0.0495,0.0067375,0.0554125
1679992610468,1172598823483639,0.0605,0.0077,0.0554125
1679992610470,1172598825985500,0.0754875,0.0037125,0.0534875
1679992610473,1172598828487346,0.0836,0.00275,0.0534875
1679992610475,1172598830989270,0.0925375,0.0017875,0.0523875
1679992610478,1172598833491116,0.1016125,0.0017875,0.0523875
1679992610481,1172598835992948,0.11055,-0.0022,0.0565125
1679992610483,1172598838494794,0.118525,-0.0042625,0.057475
1679992610486,1172598840996640,0.1276,-0.0012375,0.0565125
1679992610490,1172598843498486,0.1346125,-0.0042625,0.057475
1679992610491,1172598846000341,0.1395625,-0.0042625,0.0594
1679992610493,1172598848502418,0.1456125,-0.006325,0.0605
1679992610497,1172598851004265,0.15455,-0.0072875,0.062425
1679992610499,1172598853506111,0.1615625,-0.0072875,0.0594
1679992610500,1172598856007957,0.1665125,-0.0092124995,0.0644875
1679992610504,1172598858509880,0.1695375,-0.011275,0.0664125
1679992610505,1172598861011726,0.1705,-0.0143,0.0675125
1679992610507,1172598863513572,0.1705,-0.0143,0.0704
1679992610510,1172598866015418,0.1755875,-0.0202125,0.0754875
1679992610513,1172598868517251,0.1775125,-0.0202125,0.0774125
1679992610515,1172598871019097,0.1786125,-0.0253,0.0804375
1679992610518,1172598873520943,0.18259999,-0.0262625,0.0864875
1679992610520,1172598876022789,0.184525,-0.028324999,0.091437496
1679992610523,1172598878524870,0.184525,-0.0292875,0.0963875
1679992610527,1172598881026716,0.1885125,-0.0292875,0.1005125
1679992610529,1172598883528562,0.1885125,-0.0292875,0.10945
1679992610531,1172598886030408,0.1915375,-0.0292875,0.1144
1679992610533,1172598888532241,0.1945625,-0.03025,0.1214125
1679992610535,1172598891034087,0.1945625,-0.028324999,0.128425
1679992610538,1172598893535933,0.1945625,-0.0312125,0.1354375
1679992610541,1172598896037851,0.195525,-0.033275,0.139425
1679992610544,1172598898539697,0.1975875,-0.0352,0.1445125
1679992610546,1172598901041543,0.19855,-0.038225,0.1524875
1679992610548,1172598903543390,0.2006125,-0.038225,0.156475
1679992610550,1172598906045236,0.1975875,-0.039325,0.156475
1679992610553,1172598908547097,0.1915375,-0.039325,0.1584
1679992610556,1172598911048943,0.18755,-0.0452375,0.1584
1679992610558,1172598913551020,0.1865875,-0.0482625,0.1604625
1679992610560,1172598916052866,0.1835625,-0.052249998,0.1574375
1679992610564,1172598918554707,0.18053749,-0.0532125,0.1574375
1679992610566,1172598921056553,0.1786125,-0.061325,0.1584
1679992610568,1172598923558400,0.173525,-0.06325,0.1555125
1679992610570,1172598926060246,0.168575,-0.0653125,0.1524875
1679992610573,1172598928562092,0.162525,-0.0642125,0.1524875
1679992610575,1172598931064000,0.157575,-0.0622875,0.14739999
1679992610578,1172598933565846,0.1496,-0.0653125,0.14739999
1679992610581,1172598936067692,0.1425875,-0.0622875,0.145475
1679992610584,1172598938569538,0.13859999,-0.0653125,0.1445125
1679992610585,1172598941071390,0.1335125,-0.066275,0.14739999
1679992610588,1172598943573236,0.124575,-0.066275,0.14739999
1679992610590,1172598946075082,0.1194875,-0.0682,0.14739999
1679992610593,1172598948577159,0.1225125,-0.069299996,0.14739999
1679992610596,1172598951079005,0.1166,-0.071225,0.1485
1679992610598,1172598953580856,0.1115125,-0.072325,0.1485
1679992610602,1172598956082702,0.11055,-0.072325,0.14739999
1679992610604,1172598958584549,0.1095875,-0.072325,0.150425
1679992610606,1172598961086385,0.1084875,-0.07425,0.1524875
1679992610608,1172598963588231,0.1016125,-0.0792,0.1544125
1679992610611,1172598966090154,0.09955,-0.071225,0.1574375
1679992610613,1172598968592000,0.0955625,-0.07425,0.1555125
1679992610615,1172598971093846,0.08855,-0.072325,0.156475
1679992610618,1172598973595707,0.0796125,-0.0702625,0.1584
1679992610620,1172598976097554,0.0715,-0.072325,0.1574375
1679992610624,1172598978599400,0.0655875,-0.07425,0.1584
1679992610626,1172598981101246,0.058575,-0.077275,0.1574375
1679992610629,1172598983603308,0.0495,-0.0752125,0.1524875
1679992610631,1172598986105154,0.04455,-0.0782375,0.1544125
1679992610633,1172598988607000,0.0356125,-0.0782375,0.15345
1679992610635,1172598991108846,0.0246125,-0.0782375,0.1494625
1679992610639,1172598993610462,0.0176,-0.077275,0.14739999
1679992610642,1172598996112616,0.01155,-0.0803,0.14245
1679992610645,1172598998614462,0.0045375,-0.082225,0.1403875
1679992610647,1172599001116308,0.0015125,-0.07425,0.1375
1679992610649,1172599003618077,-0.0015125,-0.0752125,0.1304875
1679992610652,1172599006120000,-0.0044,-0.0763125,0.1254
1679992610654,1172599008621846,-0.0083875,-0.0763125,0.1225125
1679992610656,1172599011123692,-0.01045,-0.0803,0.1194875
1679992610658,1172599013625769,-0.0114124995,-0.083325,0.1164625
1679992610661,1172599016127626,-0.01045,-0.0922625,0.1164625
1679992610664,1172599018629472,-0.01045,-0.0902,0.113437496
1679992610666,1172599021131318,-0.01045,-0.0922625,0.112475
1679992610668,1172599023633164,-0.007425,-0.0902,0.1115125
1679992610671,1172599026135014,-0.0055,-0.091299996,0.1115125
1679992610673,1172599028636860,-0.0034375,-0.0873125,0.113437496
1679992610677,1172599031138783,-4.125E-4,-0.083325,0.1164625
1679992610679,1172599033640630,0.0045375,-0.091299996,0.1214125
1679992610680,1172599036142476,0.0075625,-0.091299996,0.1225125
1679992610683,1172599038644342,0.0125124995,-0.0873125,0.1254
1679992610685,1172599041146188,0.0176,-0.0922625,0.1304875
1679992610688,1172599043648034,0.0185625,-0.0902,0.13145
1679992610691,1172599046149880,0.0215875,-0.0873125,0.1335125
1679992610693,1172599048651957,0.0246125,-0.094325,0.1364
1679992610696,1172599051153803,0.0204875,-0.099275,0.1364
1679992610698,1172599053655650,0.019524999,-0.0972125,0.1375
1679992610701,1172599056157496,0.019524999,-0.0972125,0.1354375
1679992610704,1172599058659322,0.0176,-0.099275,0.1384625
1679992610706,1172599061161168,0.0125124995,-0.105325,0.1403875
1679992610708,1172599063663014,0.0105875,-0.1093125,0.1434125
1679992610712,1172599066164937,0.0094875,-0.105325,0.145475
1679992610715,1172599068666784,0.0105875,-0.1082125,0.1464375
1679992610716,1172599071168630,0.0094875,-0.110275,0.1464375
1679992610719,1172599073670476,0.0125124995,-0.110275,0.1494625
1679992610722,1172599076172322,0.019524999,-0.1122,0.1485
1679992610724,1172599078674168,0.0215875,-0.111237496,0.14739999
1679992610726,1172599081176014,0.025575,-0.104225,0.1464375
1679992610729,1172599083678091,0.0265375,-0.10725,0.1434125
1679992610731,1172599086179937,0.0356125,-0.1082125,0.145475
1679992610733,1172599088681813,0.0375375,-0.105325,0.1434125
1679992610735,1172599091183659,0.041525,-0.1032625,0.1403875
1679992610738,1172599093685505,0.041525,-0.099275,0.1364
1679992610741,1172599096187351,0.0466125,-0.1012,0.1335125
1679992610744,1172599098689207,0.0506,-0.099275,0.1335125
1679992610746,1172599101191130,0.052525,-0.099275,0.1304875
1679992610748,1172599103692976,0.0545875,-0.094325,0.128425
1679992610752,1172599106194823,0.0576125,-0.0952875,0.1293875
1679992610755,1172599108696669,0.058575,-0.094325,0.1254
1679992610757,1172599111198515,0.0616,-0.091299996,0.124437496
1679992610758,1172599113700361,0.06655,-0.088275,0.123475
1679992610761,1172599116202207,0.0686125,-0.08525,0.12045
1679992610763,1172599118704284,0.069575,-0.0862125,0.117425
1679992610766,1172599121205880,0.0705375,-0.083325,0.117425
1679992610768,1172599123707726,0.0705375,-0.083325,0.1155
1679992610771,1172599126209803,0.069575,-0.083325,0.113437496
1679992610773,1172599128711418,0.0686125,-0.0842875,0.1104125
1679992610775,1172599131213510,0.0644875,-0.0873125,0.1104125
1679992610779,1172599133715433,0.058575,-0.0873125,0.1104125
1679992610781,1172599136217279,0.0565125,-0.0922625,0.1054625
1679992610784,1172599138719048,0.0565125,-0.093225,0.0994125
1679992610786,1172599141220871,0.0545875,-0.094325,0.0974875
1679992610789,1172599143722794,0.0534875,-0.0902,0.0935
1679992610792,1172599146224640,0.0565125,-0.093225,0.0895125
1679992610794,1172599148726486,0.05555,-0.0952875,0.08745
1679992610796,1172599151228332,0.0576125,-0.093225,0.0864875
1679992610798,1172599153730437,0.0595375,-0.0902,0.0864875
1679992610801,1172599156232283,0.0605,-0.0862125,0.0814
1679992610804,1172599158733899,0.0595375,-0.093225,0.079475
1679992610806,1172599161235976,0.0644875,-0.0972125,0.079475
1679992610808,1172599163737803,0.06655,-0.09625,0.0754875
1679992610811,1172599166239726,0.0675125,-0.0983125,0.073425
1679992610814,1172599168741495,0.0675125,-0.0972125,0.0715
1679992610816,1172599171243418,0.0655875,-0.100237496,0.06545
1679992610818,1172599173745279,0.06655,-0.1023,0.0644875
1679992610821,1172599176247049,0.0655875,-0.1023,0.0594
1679992610826,1172599178748895,0.0655875,-0.1012,0.054449998
1679992610827,1172599181250818,0.0644875,-0.104225,0.0523875
1679992610829,1172599183752871,0.06655,-0.10725,0.0484
1679992610831,1172599186254486,0.0655875,-0.104225,0.0474375
1679992610834,1172599188756563,0.0644875,-0.1023,0.046475
1679992610836,1172599191258409,0.069575,-0.1012,0.0413875
1679992610838,1172599193760255,0.069575,-0.1012,0.040425
1679992610841,1172599196261856,0.0705375,-0.099275,0.040425
1679992610844,1172599198763933,0.0715,-0.1012,0.0394625
1679992610846,1172599201265856,0.0796125,-0.100237496,0.0374
1679992610848,1172599203767702,0.085525,-0.09625,0.0385
1679992610851,1172599206269471,0.0895125,-0.0983125,0.0385
1679992610853,1172599208771366,0.0935,-0.0972125,0.0334125
1679992610856,1172599211273212,0.0955625,-0.0972125,0.0345125
1679992610858,1172599213775059,0.1035375,-0.0922625,0.0374
1679992610861,1172599216276828,0.1056,-0.093225,0.0334125
1679992610865,1172599218778982,0.1084875,-0.0873125,0.0334125
1679992610867,1172599221280828,0.11055,-0.088275,0.0334125
1679992610869,1172599223782443,0.11055,-0.091299996,0.032449998
1679992610871,1172599226284534,0.1095875,-0.093225,0.032449998
1679992610874,1172599228786380,0.11055,-0.093225,0.0303875
1679992610875,1172599231288226,0.1115125,-0.0922625,0.029424999
1679992610879,1172599233789842,0.1084875,-0.0952875,0.0284625
1679992610881,1172599236291996,0.107525,-0.0952875,0.0275
1679992610883,1172599238793842,0.1065625,-0.0952875,0.0275
1679992610886,1172599241295688,0.1016125,-0.0922625,0.0314875
1679992610888,1172599243797534,0.1005125,-0.09625,0.0284625
1679992610891,1172599246299380,0.0985875,-0.0952875,0.0303875
1679992610893,1172599248801226,0.0925375,-0.094325,0.032449998
1679992610896,1172599251303073,0.0925375,-0.0972125,0.0345125
1679992610899,1172599253805150,0.0906125,-0.099275,0.0374
1679992610902,1172599256306996,0.08855,-0.0983125,0.0394625
1679992610906,1172599258808611,0.08855,-0.1032625,0.0394625
1679992610907,1172599261310457,0.0864875,-0.105325,0.040425
1679992610909,1172599263812534,0.0875875,-0.1093125,0.0394625
1679992610912,1172599266314453,0.0925375,-0.110275,0.0424875
1679992610914,1172599268816223,0.0955625,-0.110275,0.043449998
1679992610916,1172599271318146,0.09955,-0.1172875,0.0455125
1679992610918,1172599273819992,0.1065625,-0.115225,0.0474375
1679992610921,1172599276321838,0.1084875,-0.1172875,0.0484
1679992610924,1172599278823612,0.11055,-0.116325,0.0504625
1679992610926,1172599281325535,0.1155,-0.115225,0.0534875
1679992610928,1172599283827612,0.1166,-0.113299996,0.0554125
1679992610931,1172599286329228,0.118525,-0.110275,0.0565125
1679992610933,1172599288831074,0.1194875,-0.1023,0.0584375
1679992610936,1172599291333151,0.1205875,-0.0983125,0.0584375
1679992610940,1172599293834997,0.1225125,-0.0972125,0.0594
1679992610943,1172599296336612,0.1255375,-0.09625,0.0594
1679992610945,1172599298838458,0.1236125,-0.0952875,0.0594
1679992610947,1172599301340612,0.12155,-0.0983125,0.0565125
1679992610949,1172599303842458,0.1205875,-0.100237496,0.054449998
1679992610952,1172599306344228,0.1194875,-0.0952875,0.0484
1679992610954,1172599308846151,0.1155,-0.094325,0.0444125
1679992610956,1172599311348025,0.1095875,-0.094325,0.0424875
1679992610958,1172599313849871,0.1065625,-0.0902,0.0385
1679992610961,1172599316351717,0.1005125,-0.091299996,0.0374
1679992610964,1172599318853794,0.0935,-0.0952875,0.032449998
1679992610966,1172599321355607,0.082499996,-0.0952875,0.029424999
1679992610968,1172599323857453,0.0726,-0.093225,0.0254375
1679992610971,1172599326359300,0.0655875,-0.09625,0.0235125
1679992610974,1172599328861146,0.0534875,-0.0983125,0.0193875
1679992610977,1172599331363011,0.0455125,-0.1012,0.0144375
1679992610979,1172599333864626,0.0375375,-0.0983125,0.01045
1679992610981,1172599336366780,0.025575,-0.09625,0.0083875
1679992610984,1172599338868626,0.0185625,-0.0983125,0.0094875
1679992610986,1172599341370472,0.0105875,-0.099275,0.0094875
1679992610988,1172599343872208,0.0075625,-0.0952875,0.0094875
1679992610991,1172599346374131,0.0026125,-0.0952875,0.0055
1679992610994,1172599348875977,0.0045375,-0.093225,0.0044
1679992610996,1172599351377823,0.0055,-0.0922625,0.0034375
1679992610998,1172599353879689,0.008525,-0.0902,0.002475
1679992611001,1172599356381766,0.0125124995,-0.0873125,0.0055
1679992611003,1172599358883612,0.0215875,-0.08525,0.0064625
1679992611006,1172599361385459,0.0246125,-0.083325,0.002475
1679992611008,1172599363887324,0.0275,-0.083325,4.125E-4
1679992611011,1172599366389170,0.0345125,-0.0803,4.125E-4
1679992611015,1172599368891016,0.0435875,-0.0782375,0.002475
1679992611017,1172599371392862,0.0495,-0.0803,0.0034375
1679992611018,1172599373894785,0.0545875,-0.0763125,0.0034375
1679992611021,1172599376396645,0.0616,-0.0752125,0.007425
1679992611024,1172599378898492,0.06655,-0.0752125,0.007425
1679992611026,1172599381400338,0.0726,-0.0752125,0.0083875
1679992611028,1172599383902184,0.0754875,-0.07425,0.0083875
1679992611031,1172599386404030,0.0796125,-0.069299996,0.0094875
1679992611034,1172599388906107,0.0815375,-0.0653125,0.0114124995
1679992611036,1172599391407722,0.07755,-0.0642125,0.0114124995
1679992611039,1172599393909559,0.07755,-0.06325,0.013475
1679992611042,1172599396411405,0.0735625,-0.060225,0.0125124995
1679992611045,1172599398913482,0.0675125,-0.0532125,0.013475
1679992611047,1172599401415328,0.06655,-0.049225,0.0224125
1679992611049,1172599403917174,0.0595375,-0.050325,0.0193875
1679992611054,1172599406419020,0.0545875,-0.044275,0.0224125
1679992611056,1172599408920943,0.052525,-0.0363,0.0275
1679992611057,1172599411422712,0.0455125,-0.0292875,0.0275
1679992611059,1172599413924559,0.0435875,-0.0253,0.0264
1679992611061,1172599416426391,0.041525,-0.022275,0.029424999
1679992611064,1172599418928545,0.0405625,-0.017324999,0.0314875
1679992611066,1172599421430160,0.0375375,-0.0103124995,0.0334125
1679992611068,1172599423932006,0.0356125,-0.005225,0.0334125
1679992611071,1172599426434069,0.0345125,-0.0022,0.0364375
1679992611074,1172599428935915,0.0295625,-2.75E-4,0.0385
1679992611076,1172599431437531,0.0314875,6.875E-4,0.0345125
1679992611078,1172599433939377,0.0345125,0.0067375,0.032449998
1679992611081,1172599436441507,0.0325875,0.005775,0.0303875
1679992611084,1172599438943276,0.0295625,0.0077,0.0264
1679992611086,1172599441445122,0.0275,0.01375,0.0254375
1679992611090,1172599443947045,0.0246125,0.0177375,0.0235125
1679992611093,1172599446448875,0.02255,0.0207625,0.0174625
1679992611094,1172599448950645,0.02255,0.0226875,0.013475
1679992611097,1172599451452491,0.0246125,0.026675,0.007425
1679992611101,1172599453954414,0.019524999,0.0347875,0.002475
1679992611109,1172599456456486,0.0185625,0.0397375,-5.5E-4
1679992611110,1172599458958101,0.0165,0.0427625,-0.0066
1679992611111,1172599461460178,0.0125124995,0.0457875,-0.0105875
1679992611112,1172599463962024,0.0155375,0.048675,-0.0165
1679992611112,1172599466463870,0.013612499,0.0537625,-0.0215875
1679992611114,1172599468965501,0.0125124995,0.0537625,-0.0286
1679992611116,1172599471467578,0.0125124995,0.054725,-0.0325875
1679992611120,1172599473969501,0.01155,0.0567875,-0.0375375
1679992611123,1172599476471332,0.01155,0.05775,-0.0405625
1679992611126,1172599478973101,0.01155,0.0638,-0.0424875
1679992611127,1172599481475024,0.01155,0.0638,-0.047575
1679992611129,1172599483976870,0.0105875,0.065725,-0.052525
1679992611131,1172599486478717,0.0105875,0.0677875,-0.0545875
1679992611134,1172599488980592,0.01155,0.0677875,-0.0576125
1679992611136,1172599491482669,0.0075625,0.0677875,-0.0616
1679992611138,1172599493984515,0.0094875,0.070675,-0.0616
1679992611141,1172599496486361,0.0105875,0.070675,-0.0605
1679992611145,1172599498988193,0.013612499,0.070675,-0.0625625
1679992611146,1172599501490039,0.0165,0.06875,-0.0625625
1679992611149,1172599503991885,0.0185625,0.06875,-0.0644875
1679992611152,1172599506493732,0.0204875,0.0647625,-0.0625625
1679992611154,1172599508995655,0.0235125,0.0647625,-0.0625625
1679992611156,1172599511497515,0.0275,0.060775,-0.0595375
1679992611158,1172599513999361,0.0325875,0.059675,-0.058575
1679992611162,1172599516501207,0.0314875,0.0556875,-0.0595375
1679992611165,1172599519003053,0.0325875,0.0507375,-0.0595375
1679992611167,1172599521504904,0.0314875,0.0507375,-0.0565125
1679992611168,1172599524006981,0.0295625,0.0528,-0.0534875
1679992611171,1172599526508828,0.0286,0.0517,-0.052525
1679992611173,1172599529010674,0.0286,0.048675,-0.0506
1679992611176,1172599531512289,0.0235125,0.049775,-0.0506
1679992611178,1172599534014371,0.0204875,0.0477125,-0.047575
1679992611181,1172599536516294,0.013612499,0.0446875,-0.0435875
1679992611184,1172599539018140,0.008525,0.0407,-0.041525
1679992611186,1172599541519986,0.003575,0.038775,-0.041525
1679992611189,1172599544021842,-4.125E-4,0.0336875,-0.0405625
1679992611192,1172599546523688,-0.007425,0.0297,-0.0385
1679992611194,1172599549025534,-0.013475,0.0308,-0.036575
1679992611196,1172599551527380,-0.0174625,0.026675,-0.0375375
1679992611199,1172599554029217,-0.0204875,0.014712499,-0.0375375
1679992611203,1172599556531294,-0.0235125,0.0097624995,-0.03355
1679992611205,1172599559032910,-0.024475,0.005775,-0.03355
1679992611207,1172599561534986,-0.0254375,0.0017875,-0.0325875
1679992611208,1172599564036861,-0.0303875,-0.006325,-0.03355
1679992611211,1172599566538707,-0.0303875,-0.0122375,-0.0325875
1679992611213,1172599569040553,-0.0314875,-0.0182875,-0.0275
1679992611216,1172599571542399,-0.0364375,-0.0213125,-0.0275
1679992611218,1172599574044322,-0.0394625,-0.027224999,-0.0265375
1679992611222,1172599576546168,-0.0444125,-0.0292875,-0.0265375
1679992611224,1172599579048015,-0.0495,-0.0342375,-0.02255
1679992611226,1172599581549861,-0.0565125,-0.0363,-0.02255
1679992611229,1172599584051707,-0.0614625,-0.0422125,-0.0204875
1679992611232,1172599586553563,-0.0633875,-0.0473,-0.0176
1679992611234,1172599589055409,-0.0704,-0.0482625,-0.0176
1679992611236,1172599591557486,-0.0754875,-0.0532125,-0.014575
1679992611240,1172599594059332,-0.079475,-0.0583,-0.0094875
1679992611243,1172599596561178,-0.0853875,-0.0572,-0.008525
1679992611245,1172599599063025,-0.08745,-0.0592625,-0.0055
1679992611247,1172599601564871,-0.091437496,-0.061325,-0.003575
1679992611249,1172599604066717,-0.0924,-0.06325,-0.0045375
1679992611252,1172599606568601,-0.095425,-0.066275,-5.5E-4
1679992611254,1172599609070524,-0.09845,-0.072325,-0.0015125
1679992611256,1172599611572370,-0.102437496,-0.077275,-0.0026125
1679992611258,1172599614074216,-0.09845,-0.082225,4.125E-4
1679992611262,1172599616576078,-0.09845,-0.08525,-5.5E-4
1679992611264,1172599619077924,-0.102437496,-0.083325,-0.0015125
1679992611267,1172599621579770,-0.1035375,-0.0903375,-0.0015125
1679992611271,1172599624081616,-0.1065625,-0.093225,0.0015125
1679992611272,1172599626583697,-0.1065625,-0.094325,0.0044
1679992611274,1172599629085543,-0.104499996,-0.0922625,0.0055
1679992611277,1172599631587389,-0.102437496,-0.093225,0.0083875
1679992611280,1172599634089235,-0.104499996,-0.093225,0.0083875
1679992611282,1172599636591082,-0.1035375,-0.093225,0.0114124995
1679992611284,1172599639092905,-0.104499996,-0.093225,0.0154
1679992611286,1172599641594751,-0.1054625,-0.088275,0.0165
1679992611288,1172599644096674,-0.1065625,-0.0862125,0.0165
1679992611292,1172599646598501,-0.11055,-0.0812625,0.0154
1679992611294,1172599649100347,-0.112475,-0.0842875,0.0165
1679992611296,1172599651602194,-0.112475,-0.0812625,0.0165
1679992611298,1172599654104040,-0.1145375,-0.0812625,0.0114124995
1679992611302,1172599656605886,-0.12045,-0.083325,0.0064625
1679992611305,1172599659107939,-0.123475,-0.082225,0.002475
1679992611306,1172599661609785,-0.1274625,-0.0873125,-0.0055
1679992611308,1172599664111400,-0.1335125,-0.091299996,-0.014575
1679992611312,1172599666613477,-0.13653749,-0.088275,-0.02255
1679992611315,1172599669115332,-0.1384625,-0.0842875,-0.0325875
1679992611317,1172599671617179,-0.1445125,-0.0803,-0.04455
1679992611319,1172599674119102,-0.14355,-0.0752125,-0.0565125
1679992611322,1172599676620948,-0.145475,-0.072325,-0.0705375
1679992611323,1172599679122794,-0.1464375,-0.0642125,-0.0815375
1679992611326,1172599681624645,-0.1494625,-0.0532125,-0.091575
1679992611330,1172599684126491,-0.1524875,-0.0422125,-0.102575
1679992611332,1172599686628337,-0.15345,-0.0312125,-0.118525
1679992611334,1172599689130184,-0.15345,-0.0182875,-0.13859999
1679992611336,1172599691632252,-0.1574375,-0.0072875,-0.1524875
1679992611339,1172599694134098,-0.15455,-0.0012375,-0.173525
1679992611342,1172599696635944,-0.1524875,0.005775,-0.2006125
1679992611346,1172599699137790,-0.15345,0.01375,-0.22453749
1679992611347,1172599701639612,-0.1494625,0.015675,-0.250525
1679992611349,1172599704141458,-0.1464375,0.015675,-0.2745875
1679992611353,1172599706643305,-0.1485,0.0196625,-0.3025
1679992611355,1172599709145228,-0.1485,0.0187,-0.327525
1679992611357,1172599711647069,-0.145475,0.0226875,-0.3515875
1679992611359,1172599714148915,-0.14355,0.027775,-0.37661248
1679992611363,1172599716650761,-0.14355,0.026675,-0.4015
1679992611364,1172599719152607,-0.14355,0.0287375,-0.42061248
1679992611366,1172599721654453,-0.14355,0.0347875,-0.437525
1679992611369,1172599724156290,-0.145475,0.038775,-0.4525125
1679992611372,1172599726658366,-0.1475375,0.043725,-0.4675
1679992611374,1172599729160213,-0.1485,0.0457875,-0.4796
1679992611377,1172599731662059,-0.1485,0.0517,-0.4915625
1679992611379,1172599734163886,-0.1524875,0.0556875,-0.4934875
1679992611382,1172599736665732,-0.15455,0.059675,-0.5005
1679992611384,1172599739167578,-0.15455,0.0627,-0.5005
1679992611386,1172599741669424,-0.151525,0.070675,-0.5016
1679992611390,1172599744171334,-0.1485,0.07975,-0.498575
1679992611393,1172599746673180,-0.1494625,0.092675,-0.4965125
1679992611394,1172599749175026,-0.14245,0.103675,-0.4906
1679992611396,1172599751676872,-0.1335125,0.1137125,-0.487575
1679992611399,1172599754178718,-0.1265,0.12375,-0.481525
1679992611402,1172599756680549,-0.1164625,0.1406625,-0.476575
1679992611404,1172599759182395,-0.107525,0.15675,-0.47355
1679992611406,1172599761684472,-0.101475,0.1687125,-0.4745125
1679992611408,1172599764186319,-0.0935,0.1827375,-0.47355
1679992611412,1172599766688151,-0.085525,0.19167499,-0.4756125
1679992611414,1172599769189997,-0.0724625,0.203775,-0.4796
1679992611416,1172599771691843,-0.063525,0.2217875,-0.481525
1679992611419,1172599774193689,-0.0614625,0.241725,-0.4796
1679992611422,1172599776695535,-0.0595375,0.2646875,-0.4805625
1679992611425,1172599779197458,-0.0595375,0.285725,-0.4745125
1679992611428,1172599781699305,-0.057475,0.3037375,-0.4714875
1679992611429,1172599784201151,-0.057475,0.3257375,-0.4675
1679992611432,1172599786702992,-0.0595375,0.3386625,-0.4576
1679992611434,1172599789204838,-0.0584375,0.3496625,-0.4475625
1679992611436,1172599791706915,-0.057475,0.3537875,-0.4395875
1679992611439,1172599794208761,-0.0625625,0.3606625,-0.437525
1679992611442,1172599796710621,-0.06655,0.37675,-0.43559998
1679992611445,1172599799212468,-0.0724625,0.395725,-0.43559998
1679992611447,1172599801714314,-0.0815375,0.4186875,-0.4345
1679992611449,1172599804216160,-0.1035375,0.4596625,-0.437525
1679992611452,1172599806718006,-0.1255375,0.50875,-0.43559998
1679992611454,1172599809219944,-0.151525,0.5586625,-0.42955
1679992611456,1172599811721790,-0.17545,0.610775,-0.4225375
1679992611459,1172599814223636,-0.19745,0.6587625,-0.4145625
1679992611462,1172599816725483,-0.2215125,0.70675,-0.4015
1679992611466,1172599819227367,-0.2365,0.752675,-0.3916
1679992611468,1172599821729213,-0.2475,0.797775,-0.3795
1679992611470,1172599824231059,-0.261525,0.840675,-0.3675375
1679992611472,1172599826733136,-0.2674375,0.8787625,-0.355575
1679992611474,1172599829234982,-0.2715625,0.9197375,-0.349525
1679992611476,1172599831736828,-0.2734875,0.9766625,-0.3394875
1679992611480,1172599834238674,-0.27555,1.049675,-0.3245
1679992611482,1172599836740521,-0.2704625,1.1297,-0.3125375
1679992611484,1172599839242367,-0.2715625,1.2106875,-0.2926
1679992611487,1172599841744213,-0.261525,1.28975,-0.2734875
1679992611489,1172599844246136,-0.24447499,1.3536875,-0.2525875
1679992611493,1172599846747982,-0.228525,1.3987875,-0.2305875
1679992611494,1172599849250059,-0.20845,1.4276625,-0.2116125
1679992611496,1172599851751664,-0.1854875,1.4377,-0.1964875
1679992611499,1172599854253511,-0.162525,1.435775,-0.1865875
1679992611504,1172599856755357,-0.140525,1.4276625,-0.1815
1679992611506,1172599859257434,-0.124437496,1.41075,-0.1854875
1679992611507,1172599861759266,-0.10945,1.3836625,-0.1975875
1679992611509,1172599864261112,-0.096525,1.352725,-0.2184875
1679992611512,1172599866763035,-0.0815375,1.3047374,-0.24255
1679992611514,1172599869264881,-0.06655,1.242725,-0.2745875
1679992611516,1172599871766651,-0.057475,1.17975,-0.3125375
1679992611519,1172599874268598,-0.0485375,1.116775,-0.3504875
1679992611522,1172599876770444,-0.046475,1.0637,-0.3865125
1679992611524,1172599879272521,-0.0424875,1.022725,-0.4255625
1679992611526,1172599881774136,-0.0385,0.994675,-0.4585625
1679992611529,1172599884276203,-0.035475,0.97267497,-0.4866125
1679992611532,1172599886778049,-0.0284625,0.9417375,-0.5126
1679992611534,1172599889279665,-0.02255,0.91368747,-0.5335
1679992611536,1172599891781741,-0.013475,0.8916875,-0.5526125
1679992611540,1172599894283588,-0.0045375,0.8806875,-0.5676
1679992611543,1172599896785511,0.0034375,0.8767,-0.580525
1679992611546,1172599899287280,0.01155,0.88577497,-0.59455
1679992611548,1172599901789203,0.02255,0.912725,-0.5924875
1679992611549,1172599904291049,0.03355,0.9587875,-0.5825875
1679992611552,1172599906792905,0.0424875,1.0096625,-0.564575
1679992611554,1172599909294675,0.0515625,1.0767624,-0.5355625
1679992611556,1172599911796598,0.0644875,1.1457875,-0.498575
1679992611559,1172599914298675,0.07645,1.2197624,-0.4555375
1679992611563,1172599916800521,0.0925375,1.30075,-0.4065875
1679992611564,1172599919302367,0.107525,1.3817375,-0.3535125
1679992611566,1172599921803982,0.1225125,1.4537874,-0.300575
1679992611569,1172599924305828,0.1375,1.5217125,-0.25753748
1679992611572,1172599926808010,0.15345,1.577675,-0.2226125
1679992611574,1172599929309780,0.1714625,1.6247,-0.1975875
1679992611578,1172599931811626,0.1915375,1.6597625,-0.184525
1679992611579,1172599934313549,0.20955,1.6897374,-0.184525
1679992611582,1172599936815423,0.2325125,1.710775,-0.1925
1679992611585,1172599939317192,0.26345,1.731675,-0.20253749
1679992611587,1172599941819115,0.2894375,1.7507875,-0.206525
1679992611590,1172599944321192,0.3174875,1.7667375,-0.1915375
1679992611592,1172599946822803,0.3474625,1.7677,-0.1375
1679992611594,1172599949324880,0.4024625,1.7496874,-0.0506
1679992611597,1172599951826726,0.486475,1.726725,0.0504625
1679992611599,1172599954328572,0.58547497,1.7166874,0.1623875
1679992611603,1172599956830193,0.701525,1.68575,0.2734875
1679992611604,1172599959332270,0.8435625,1.6407875,0.3724875
1679992611606,1172599961834193,0.9994875,1.6017375,0.4565
1679992611608,1172599964336039,1.15555,1.5626875,0.5214
1679992611612,1172599966837824,1.3055625,1.5277625,0.5644375
1679992611615,1172599969339747,1.4455374,1.5046625,0.5924875
1679992611617,1172599971841593,1.56145,1.5107125,0.6094
1679992611619,1172599974343439,1.652475,1.5387625,0.6215
1679992611622,1172599976845285,1.7125624,1.5747875,0.623425
1679992611624,1172599979347362,1.7404749,1.6267625,0.6224625
1679992611626,1172599981849208,1.7455624,1.6757125,0.61242497
1679992611629,1172599984351054,1.73855,1.7117375,0.59345
1679992611632,1172599986852901,1.7474875,1.753675,0.5775
1679992611634,1172599989354727,1.757525,1.7697625,0.5735125
1679992611636,1172599991856573,1.7615125,1.737725,0.552475
1679992611639,1172599994358419,1.7444625,1.6787375,0.5143875
1679992611643,1172599996860338,1.7144874,1.6237375,0.4514125
1679992611646,1172599999362184,1.6775,1.5687375,0.3564
1679992611647,1172600001864031,1.6295125,1.5197875,0.2325125
1679992611649,1172600004365877,1.5684625,1.4887125,0.0864875
1679992611654,1172600006867742,1.5035625,1.4697375,-0.0875875
1679992611656,1172600009369588,1.44155,1.4636875,-0.2844875
1679992611657,1172600011871434,1.37555,1.4557124,-0.4906
1679992611659,1172600014373511,1.31945,1.446775,-0.70248747
1679992611663,1172600016875357,1.2695374,1.4386625,-0.921525
1679992611664,1172600019377198,1.2335125,1.4317875,-1.1345125
1679992611667,1172600021879045,1.2005125,1.4267,-1.3376
1679992611670,1172600024380891,1.1815375,1.4196875,-1.5356
1679992611672,1172600026882737,1.1715,1.4086875,-1.719575
1679992611674,1172600029384583,1.168475,1.4047,-1.8946124
1679992611676,1172600031886443,1.1705375,1.4056625,-2.0615375
1679992611679,1172600034388366,1.179475,1.3927375,-2.2165
1679992611682,1172600036890212,1.19955,1.37775,-2.3634875
1679992611684,1172600039392059,1.218525,1.35575,-2.494525
1679992611686,1172600041894122,1.2375,1.3237125,-2.6164875
1679992611690,1172600044395737,1.2604625,1.2887875,-2.7236
1679992611693,1172600046897583,1.284525,1.2667875,-2.8015625
1679992611695,1172600049399429,1.2255375,1.418725,-2.6536124
1679992611697,1172600051901506,1.0715375,1.677775,-2.24455
1679992611699,1172600054403371,0.92455,1.8137625,-1.7785625
1679992611702,1172600056905218,0.81345,1.8227,-1.2555125
1679992611705,1172600059407064,0.7214625,1.787775,-0.7546
1679992611707,1172600061908987,0.63855,1.6977125,-0.3405875
1679992611709,1172600064410846,0.5465625,1.5406874,-0.0325875
1679992611712,1172600066912692,0.4525125,1.335675,0.18645
1679992611714,1172600069414538,0.3685,1.0927125,0.3273875
1679992611718,1172600071916384,0.3064875,0.846725,0.4244625
1679992611719,1172600074418213,0.272525,0.6417125,0.480425
1679992611722,1172600076920059,0.2674375,0.5047625,0.48839998
1679992611724,1172600079422136,0.2655125,0.467775,0.49445
1679992611728,1172600081923982,0.26455,0.5097125,0.5094375
1679992611730,1172600084425828,0.2564375,0.604725,0.52442497
1679992611732,1172600086927697,0.2435125,0.7327375,0.541475
1679992611734,1172600089429543,0.228525,0.8617125,0.552475
1679992611736,1172600091931389,0.2074875,0.9876625,0.5555
1679992611739,1172600094433313,0.1824625,1.093675,0.5434
1679992611743,1172600096935154,0.15345,1.165725,0.5143875
1679992611746,1172600099437000,0.129525,1.1966625,0.469425
1679992611748,1172600101938846,0.1054625,1.198725,0.403425
1679992611752,1172600104440923,0.079475,1.1867625,0.3114375
1679992611752,1172600106942525,0.0485375,1.160775,0.211475
1679992611754,1172600109444371,0.008525,1.1446875,0.0864875
1679992611756,1172600111946448,-0.035475,1.1397375,-0.0495
1679992611759,1172600114448295,-0.0815375,1.1317625,-0.1896125
1679992611762,1172600116950141,-0.124575,1.1097625,-0.3425125
1679992611765,1172600119452072,-0.1304875,1.02465,-0.536525
1679992611767,1172600121953918,-0.107525,0.94269997,-0.7436
1679992611769,1172600124455687,-0.104499996,0.9246875,-0.93555
1679992611772,1172600126957626,-0.1274625,0.9317,-1.1534874
1679992611774,1172600129459472,-0.173525,0.9307375,-1.4146
1679992611776,1172600131961319,-0.2264625,0.91368747,-1.6655375
1679992611779,1172600134463165,-0.27445,0.896775,-1.88155
1679992611782,1172600136965242,-0.2585,0.851675,-1.8915875
1679992611784,1172600139467073,-0.13255,0.8397125,-1.6746125
1679992611786,1172600141968919,0.0345125,0.906675,-1.4295875
1679992611790,1172600144470765,0.2014375,0.97473747,-1.2365375
1679992611792,1172600146972592,0.359425,0.9576875,-1.1125125
1679992611794,1172600149474438,0.5204375,0.8666625,-1.026575
1679992611797,1172600151976362,0.678425,0.76065,-0.9486125
1679992611799,1172600154478208,0.822525,0.6667375,-0.872575
1679992611804,1172600156980073,0.9365125,0.6037625,-0.80355
1679992611805,1172600159481919,1.0214875,0.576675,-0.756525
1679992611808,1172600161983765,1.0945,0.54065,-0.7805875
1679992611809,1172600164485611,1.1455125,0.5157625,-0.84755
1679992611813,1172600166987458,1.17645,0.5267625,-0.9285375
1679992611815,1172600169489534,1.1895125,0.5467,-1.0186
1679992611817,1172600171991381,1.196525,0.5597625,-1.1215875
1679992611819,1172600174493227,1.18855,0.571725,-1.224575
1679992611823,1172600176995073,1.1724625,0.5707625,-1.323575
1679992611825,1172600179496886,1.162425,0.533775,-1.4476
1679992611827,1172600181998732,1.151425,0.483725,-1.5895
1679992611829,1172600184500578,1.1345125,0.45374998,-1.7254875
1679992611832,1172600187002502,1.102475,0.4376625,-1.8425
1679992611834,1172600189504348,1.052425,0.4327125,-1.9295375
1679992611836,1172600192006194,0.986425,0.4217125,-1.9795874
1679992611841,1172600194508040,0.9164375,0.3856875,-2.0365124
1679992611844,1172600197010117,0.8485125,0.33467498,-2.0865624
1679992611846,1172600199511963,0.772475,0.28875,-2.1146126
1679992611847,1172600202013790,0.70454997,0.2607,-2.1225874
1679992611849,1172600204515636,0.6325,0.24475,-2.115575
1679992611854,1172600207017483,0.5594875,0.225775,-2.1055374
1679992611855,1172600209519329,0.4904625,0.21175,-2.0845
1679992611856,1172600212021175,0.420475,0.18975,-2.0425625
1679992611859,1172600214523093,0.3575,0.1766875,-1.9905875
1679992611862,1172600217024939,0.29755,0.16775,-1.9454875
1679992611869,1172600219526785,0.249425,0.1656875,-1.9025875
1679992611870,1172600222028631,0.206525,0.1626625,-1.8605125
1679992611870,1172600224530449,0.1854875,0.1607375,-1.82655
1679992611872,1172600227032295,0.1714625,0.159775,-1.796575
1679992611874,1172600229534141,0.1695375,0.159775,-1.7835125
1679992611878,1172600232035987,0.17655,0.16665,-1.7846125
1679992611879,1172600234538069,0.17847499,0.186725,-1.7985
1679992611882,1172600237039915,0.1824625,0.2047375,-1.8216
1679992611884,1172600239541761,0.1815,0.2206875,-1.8495125
1679992611887,1172600242043607,0.183425,0.2187625,-1.8995625
1679992611889,1172600244545454,0.194425,0.1956625,-1.9595125
1679992611892,1172600247047309,0.20047499,0.169675,-2.021525
1679992611894,1172600249549155,0.1695375,0.175725,-2.076525
1679992611896,1172600252051078,0.106425,0.1727,-2.126575
1679992611899,1172600254552924,0.040425,0.158675,-2.1725
1679992611902,1172600257054992,-0.0235125,0.12265,-2.22255
1679992611905,1172600259556608,-0.0815375,0.0867625,-2.2785125
1679992611907,1172600262058454,-0.13255,0.0556875,-2.340525
1679992611909,1172600264560300,-0.1714625,0.037675,-2.4046
1679992611912,1172600267062141,-0.206525,0.03575,-2.4655125
1679992611915,1172600269564218,-0.2365,0.0306625,-2.5284874
1679992611918,1172600272066141,-0.24653749,0.0116875,-2.5904999
1679992611920,1172600274567987,-0.2404875,-0.0042625,-2.6415124
1679992611922,1172600277069751,-0.2135375,-0.03025,-2.6805625
1679992611924,1172600279571598,-0.1815,-0.050325,-2.7126
1679992611927,1172600282073521,-0.1634875,-0.0543125,-2.7435374
1679992611929,1172600284575367,-0.1595,-0.0543125,-2.769525
1679992611932,1172600287077189,-0.1714625,-0.069299996,-2.78355
1679992611934,1172600289579266,-0.1964875,-0.0812625,-2.7875376
1679992611936,1172600292081112,-0.223575,-0.10725,-2.7845125
1679992611939,1172600294582958,-0.24653749,-0.1243,-2.75055
1679992611942,1172600297084804,-0.2704625,-0.14135,-2.7075124
1679992611946,1172600299586632,-0.2935625,-0.1463,-2.6646125
1679992611947,1172600302088478,-0.3205125,-0.14135,-2.6246
1679992611949,1172600304590401,-0.3425125,-0.143275,-2.5925624
1679992611953,1172600307092228,-0.3595625,-0.1573,-2.5625875
1679992611955,1172600309594074,-0.36245,-0.1552375,-2.5365999
1679992611957,1172600312095920,-0.360525,-0.16225,-2.511575
1679992611959,1172600314597766,-0.3584625,-0.1573,-2.489575
1679992611963,1172600317099613,-0.3645125,-0.1442375,-2.4695
1679992611965,1172600319601478,-0.3705625,-0.1472625,-2.4495625
1679992611967,1172600322103324,-0.36355,-0.1502875,-2.4415874
1679992611972,1172600324605401,-0.36355,-0.1442375,-2.43155
1679992611975,1172600327107247,-0.376475,-0.1362625,-2.4305875
1679992611975,1172600329608862,-0.376475,-0.132275,-2.43155
1679992611977,1172600332110920,-0.3834875,-0.12925,-2.4355376
1679992611979,1172600334612843,-0.3905,-0.1313125,-2.4465375
1679992611983,1172600337114690,-0.3975125,-0.132275,-2.4605625
1679992611985,1172600339616536,-0.4035625,-0.1362625,-2.472525
1679992611986,1172600342118396,-0.4054875,-0.138325,-2.4855876
1679992611991,1172600344620242,-0.4005375,-0.1533125,-2.5015376
1679992611993,1172600347122088,-0.393525,-0.14533749,-2.5174875
1679992611995,1172600349623934,-0.4125,-0.1123375,-2.5295875
1679992611997,1172600352126011,-0.4345,-0.0842875,-2.533575
1679992611999,1172600354627871,-0.454575,-0.07535,-2.5295875
1679992612006,1172600357129718,-0.464475,-0.077275,-2.5245
1679992612007,1172600359631564,-0.4695625,-0.072325,-2.5216124
1679992612007,1172600362133410,-0.453475,-0.07535,-2.5235374
1679992612010,1172600364635275,-0.3795,-0.113299996,-2.54155
1679992612012,1172600367137121,-0.311575,0.0187,-2.5284874
1679992612014,1172600369639044,-0.2624875,0.1837,-2.4486
1679992612017,1172600372140890,-0.2184875,0.252725,-2.340525
1679992612019,1172600374642742,-0.1824625,0.27665,-2.2155375
1679992612023,1172600377144588,-0.1615625,0.2827,-2.0915124
1679992612025,1172600379646434,-0.1414875,0.2866875,-1.9674875
1679992612028,1172600382148280,-0.13255,0.2787125,-1.8616124
1679992612030,1172600384650126,-0.1304875,0.2607,-1.7765
1679992612033,1172600387152203,-0.13653749,0.2347125,-1.7076125
1679992612034,1172600389654049,-0.1475375,0.2206875,-1.6515125
1679992612037,1172600392155896,-0.16555,0.2176625,-1.6126
1679992612039,1172600394657742,-0.19745,0.22275,-1.5835875
1679992612043,1172600397159588,-0.228525,0.2286625,-1.5635124
1679992612045,1172600399661434,-0.256575,0.22275,-1.559525
1679992612047,1172600402163280,-0.278575,0.2176625,-1.565575
1679992612050,1172600404665434,-0.30153748,0.214775,-1.57355
1679992612052,1172600407167049,-0.31955,0.2206875,-1.5785
1679992612054,1172600409668896,-0.3375625,0.2237125,-1.592525
1679992612057,1172600412170973,-0.3465,0.22275,-1.6115
1679992612059,1172600414672819,-0.35255,0.2167,-1.63955
1679992612063,1172600417174444,-0.3584625,0.203775,-1.669525
1679992612066,1172600419676521,-0.3675375,0.1857625,-1.6966125
1679992612068,1172600422178444,-0.37454998,0.164725,-1.7215
1679992612070,1172600424680290,-0.3804625,0.137775,-1.752575
1679992612073,1172600427182136,-0.3815625,0.104775,-1.79355
1679992612074,1172600429683996,-0.3834875,0.07865,-1.8255875
1679992612076,1172600432185842,-0.38555,0.073699996,-1.8525375
1679992612079,1172600434687611,-0.38555,0.0627,-1.895575
1679992612082,1172600437189534,-0.3795,0.04675,-1.9325625
1679992612084,1172600439691593,-0.3795,0.0196625,-1.9646
1679992612087,1172600442193439,-0.3815625,-0.0072875,-1.9976
1679992612089,1172600444695285,-0.376475,-0.028324999,-2.0306
1679992612092,1172600447197131,-0.3685,-0.0473,-2.0455875
1679992612094,1172600449698973,-0.3584625,-0.06435,-2.0535624
1679992612096,1172600452200819,-0.344575,-0.07425,-2.0554874
1679992612099,1172600454702665,-0.333575,-0.07425,-2.0475125
1679992612105,1172600457204520,-0.31955,-0.069299996,-2.0455875
1679992612107,1172600459705482,-0.305525,-0.072325,-2.0416
1679992612107,1172600462206443,-0.29645,-0.0683375,-2.0285375
1679992612109,1172600464710059,-0.2935625,-0.071225,-2.0224874
1679992612113,1172600467211982,-0.294525,-0.0803,-2.0145125
1679992612114,1172600469714059,-0.3045625,-0.08635,-2.021525
1679992612117,1172600472215910,-0.31845,-0.09625,-2.0306
1679992612119,1172600474717525,-0.3315125,-0.0983125,-2.038575
1679992612123,1172600477219602,-0.3474625,-0.099275,-2.0425625
1679992612124,1172600479721448,-0.36355,-0.082225,-2.0376124
1679992612126,1172600482223294,-0.3724875,-0.071225,-2.0175376
1679992612129,1172600484725170,-0.3815625,-0.0573375,-1.9965
1679992612132,1172600487227093,-0.38953748,-0.0363,-1.966525
1679992612134,1172600489728939,-0.39655,-0.01925,-1.9316
1679992612137,1172600492230694,-0.4024625,-0.005225,-1.8895249
1679992612140,1172600494732617,-0.404525,0.004675,-1.8445625
1679992612144,1172600497234463,-0.4015,0.0196625,-1.7985
1679992612146,1172600499736309,-0.38953748,0.0367125,-1.73855
1679992612148,1172600502238156,-0.38445,0.060775,-1.6905625
1679992612150,1172600504740232,-0.3865125,0.07865,-1.6484874
1679992612153,1172600507242079,-0.3795,0.0886875,-1.6025625
1679992612154,1172600509743925,-0.3804625,0.103675,-1.55155
1679992612157,1172600512245771,-0.3724875,0.117699996,-1.49655
1679992612160,1172600514747602,-0.365475,0.1287,-1.4366
1679992612163,1172600517249448,-0.3675375,0.136675,-1.3715625
1679992612164,1172600519751294,-0.3694625,0.1527625,-1.3135375
1679992612167,1172600522253218,-0.37345,0.1687125,-1.2615625
1679992612170,1172600524755078,-0.3795,0.1837,-1.2175624
1679992612173,1172600527256924,-0.3815625,0.19373749,-1.1815375
1679992612174,1172600529758770,-0.38555,0.203775,-1.1585749
1679992612178,1172600532260616,-0.3914625,0.21065,-1.1534874
1679992612180,1172600534762453,-0.3914625,0.2096875,-1.163525
1679992612184,1172600537264299,-0.393525,0.2047375,-1.1705375
1679992612185,1172600539766376,-0.388575,0.18865,-1.1495
1679992612187,1172600542268223,-0.3914625,0.16775,-1.103575
1679992612190,1172600544770069,-0.4015,0.147675,-1.08955
1679992612192,1172600547271939,-0.4145625,0.120725,-1.1185625
1679992612194,1172600549773862,-0.4195125,0.0886875,-1.1686125
1679992612197,1172600552275631,-0.4145625,0.087725,-1.2335125
1679992612199,1172600554777477,-0.4115375,0.0847,-1.3085876
1679992612202,1172600557279621,-0.398475,0.08965,-1.378575
1679992612204,1172600559781237,-0.3785375,0.10065,-1.4245
1679992612207,1172600562283083,-0.3645125,0.115775,-1.4535125
1679992612209,1172600564785160,-0.355575,0.12265,-1.4876125
1679992612212,1172600567287006,-0.344575,0.1186625,-1.5175875
1679992612216,1172600569788621,-0.3265625,0.12265,-1.5246
1679992612217,1172600572290467,-0.2704625,0.158675,-1.4735875
1679992612219,1172600574792621,-0.24653749,0.153725,-1.4625875
1679992612223,1172600577294453,-0.20955,0.131725,-1.4586
1679992612225,1172600579796223,-0.179575,0.1027125,-1.4436125
1679992612227,1172600582298146,-0.145475,0.0776875,-1.4375625
1679992612229,1172600584799992,-0.12155,0.0617375,-1.433575
1679992612232,1172600587301838,-0.1035375,0.05775,-1.4375625
1679992612234,1172600589803905,-0.085525,0.06765,-1.4586
1679992612237,1172600592305751,-0.0724625,0.081675,-1.4806
1679992612240,1172600594807367,-0.0605,0.0947375,-1.5026
1679992612243,1172600597309443,-0.047575,0.1027125,-1.5225375
1679992612244,1172600599811256,-0.0405625,0.0947375,-1.543575
1679992612247,1172600602312871,-0.0394625,0.081675,-1.5585625
1679992612249,1172600604814948,-0.04455,0.06875,-1.5805625
1679992612254,1172600607316871,-0.0375375,0.0636625,-1.6015999
1679992612256,1172600609818732,-0.035475,0.0556875,-1.6055875
1679992612257,1172600612320578,-0.0444125,0.048675,-1.6196125
1679992612259,1172600614822425,-0.0504625,0.0526625,-1.6225
1679992612263,1172600617324271,-0.0664125,0.04675,-1.6185125
1679992612266,1172600619826117,-0.096525,0.0367125,-1.6325375
1679992612267,1172600622328194,-0.128425,0.02475,-1.6416125
1679992612269,1172600624830040,-0.15853749,0.015675,-1.6385875
1679992612273,1172600627331886,-0.1854875,0.0127875,-1.6185125
1679992612275,1172600629833732,-0.205425,0.015675,-1.6015999
1679992612277,1172600632335568,-0.2255,0.0017875,-1.5835875
1679992612279,1172600634837415,-0.2404875,-0.016224999,-1.5725875
1679992612282,1172600637339261,-0.2484625,-0.0262625,-1.5475625
1679992612284,1172600639841184,-0.260425,-0.0312125,-1.5125
1679992612287,1172600642343035,-0.27445,-0.0253,-1.460525
1679992612291,1172600644844881,-0.2754125,-0.0133375,-1.4025
1679992612293,1172600647346727,-0.2564375,0.0017875,-1.3585
1679992612295,1172600649848573,-0.22453749,0.01375,-1.3266
1679992612297,1172600652350420,-0.1934625,0.0207625,-1.290575
1679992612299,1172600654852252,-0.156475,0.0407,-1.25455
1679992612303,1172600657354329,-0.112475,0.060775,-1.21055
1679992612305,1172600659856175,-0.08745,0.071775,-1.1466125
1679992612307,1172600662358021,-0.073425,0.076725,-1.114575
1679992612309,1172600664859876,-0.057475,0.087725,-1.075525
1679992612313,1172600667361722,-0.043449998,0.1067,-1.0165375
1679992612315,1172600669863569,-0.0424875,0.1287,-0.9535625
1679992612317,1172600672365415,-0.0485375,0.1447875,-0.8855
1679992612319,1172600674867329,-0.0554125,0.1516625,-0.8135875
1679992612322,1172600677369175,-0.057475,0.1617,-0.7506125
1679992612324,1172600679871021,-0.0455125,0.17173749,-0.6945125
1679992612328,1172600682372867,-0.032449998,0.1797125,-0.6474875
1679992612330,1172600684874953,-0.0254375,0.1857625,-0.6034875
1679992612333,1172600687376799,-0.018424999,0.2066625,-0.5655375
1679992612334,1172600689878415,-0.013475,0.2316875,-0.53061247
1679992612338,1172600692380492,-0.0155375,0.2497,-0.4976125
1679992612340,1172600694882415,-0.019524999,0.2717,-0.46461248
1679992612344,1172600697384252,-0.0254375,0.3007125,-0.4305125
