system_ts_ms, sensor_ts_ns, accX, accY, accZ
1679930613545,1110601901139978,-2.8129501,4.7140503,8.028001
1679930613548,1110601903642113,-2.74095,4.67595,8.0119505
1679930613550,1110601906144036,-2.7120001,4.64505,8.13
1679930613552,1110601908646190,-2.7460501,4.62795,8.002951
1679930613555,1110601911148344,-2.7580502,4.64505,8.0449505
1679930613557,1110601913650406,-2.703,4.6330504,8.083051
1679930613568,1110601916152636,-2.70495,4.6810503,8.083051
1679930613568,1110601918654713,-2.70495,4.635,8.109
1679930613568,1110601921156867,-2.832,4.51305,8.17905
1679930613569,1110601923659050,-2.76705,4.57305,8.095051
1679930613572,1110601926160973,-2.80605,4.6210504,8.005051
1679930613573,1110601928663127,-2.8630502,4.563,8.073
1679930613578,1110601931165204,-2.87295,4.5370502,7.9990506
1679930613578,1110601933667416,-2.9020503,4.5990005,7.9440002
1679930613580,1110601936169493,-2.9640002,4.63005,7.8409505
1679930613582,1110601938671646,-2.91105,4.6420503,7.8910503
1679930613585,1110601941173569,-2.8849502,4.683,7.9219503
1679930613588,1110601943675723,-3.00495,4.6980004,7.89795
1679930613590,1110601946177877,-2.93805,4.69995,7.86495
1679930613594,1110601948680031,-2.9520001,4.5799503,7.965
1679930613595,1110601951182185,-2.9950502,4.59495,7.8600006
1679930613598,1110601953684262,-2.9899502,4.57095,8.01
1679930613600,1110601956186416,-3.00195,4.635,7.9009504
1679930613602,1110601958688570,-2.9970002,4.602,7.93905
1679930613607,1110601961190493,-2.97795,4.59705,7.9129505
1679930613610,1110601963692631,-2.9260502,4.5990005,7.8409505
1679930613611,1110601966194785,-2.9520001,4.58505,7.9080005
1679930613612,1110601968696939,-2.94,4.58295,7.8859506
1679930613615,1110601971199016,-2.9610002,4.5990005,8.005051
1679930613618,1110601973701170,-2.9280002,4.64505,7.93905
1679930613620,1110601976203329,-2.93805,4.57095,7.86705
1679930613623,1110601978705252,-2.904,4.5589504,7.8790503
1679930613627,1110601981207406,-2.87295,4.6519504,7.8150005
1679930613628,1110601983709560,-2.87295,4.4940004,7.8960004
1679930613630,1110601986211713,-2.832,4.58505,7.79505
1679930613633,1110601988713790,-2.90595,4.54395,7.8529506
1679930613635,1110601991215944,-2.9569502,4.4940004,7.9270506
1679930613638,1110601993718098,-2.94,4.539,7.8220506
1679930613640,1110601996220040,-2.8300502,4.563,7.8739505
1679930613645,1110601998722425,-2.9569502,4.6069503,7.8460503
1679930613646,1110602001224348,-2.8849502,4.5919504,7.9459505
1679930613648,1110602003726502,-2.8510501,4.6590004,7.9579506
1679930613650,1110602006228632,-2.91105,4.6420503,7.8889503
1679930613653,1110602008730708,-2.8630502,4.51305,7.9300504
1679930613655,1110602011232862,-2.83905,4.539,7.8889503
1679930613661,1110602013734785,-2.7889502,4.49205,7.9630504
1679930613662,1110602016237161,-2.7550502,4.59495,8.023951
1679930613663,1110602018739084,-2.7630002,4.57095,8.061001
1679930613665,1110602021241238,-2.7600002,4.53,7.99695
1679930613668,1110602023743392,-2.799,4.57095,7.9890003
1679930613670,1110602026245464,-2.7870002,4.4890504,7.93695
1679930613673,1110602028747618,-2.6479502,4.5469503,7.9680004
1679930613677,1110602031249541,-2.76495,4.51095,8.064
1679930613678,1110602033751925,-2.775,4.5370502,8.05395
1679930613682,1110602036254079,-2.69805,4.49205,7.9510503
1679930613684,1110602038756002,-2.63595,4.635,7.9800005
1679930613685,1110602041258156,-2.7840002,4.57305,8.11905
1679930613688,1110602043760233,-2.7270002,4.5540004,7.9870505
1679930613690,1110602046262387,-2.7270002,4.58295,7.9890003
1679930613695,1110602048764536,-2.80095,4.662,7.90605
1679930613696,1110602051266690,-2.8129501,4.58505,8.016001
1679930613698,1110602053768843,-2.74095,4.6540504,8.02095
1679930613701,1110602056270767,-2.8200002,4.61595,8.029051
1679930613703,1110602058772920,-2.7870002,4.58505,8.148001
1679930613705,1110602061274997,-2.811,4.68795,8.064
1679930613708,1110602063777151,-2.7940502,4.635,8.06595
1679930613712,1110602066279305,-2.8249502,4.59,8.03505
1679930613713,1110602068781459,-2.832,4.61805,8.05395
1679930613715,1110602071283618,-2.8579502,4.59,7.99695
1679930613719,1110602073785541,-2.7889502,4.58505,7.99695
1679930613722,1110602076287695,-2.91405,4.6140003,7.9560003
1679930613724,1110602078789772,-2.8870502,4.551,8.083051
1679930613728,1110602081292012,-2.9260502,4.70505,8.001
1679930613730,1110602083794166,-2.90895,4.6420503,7.9609504
1679930613731,1110602086296243,-2.8990502,4.71705,8.017051
1679930613733,1110602088798397,-2.868,4.61595,7.9579506
1679930613735,1110602091300320,-2.8870502,4.6519504,8.059051
1679930613738,1110602093802368,-2.9299502,4.57305,8.052
1679930613740,1110602096304522,-2.90895,4.5799503,8.088
1679930613744,1110602098806753,-2.83695,4.662,8.02095
1679930613745,1110602101308906,-2.9350502,4.6260004,7.9339504
1679930613748,1110602103811002,-2.8540502,4.5919504,7.9939504
1679930613751,1110602106312925,-2.86995,4.6540504,8.002951
1679930613753,1110602108815310,-2.9230502,4.6590004,7.93695
1679930613757,1110602111317464,-2.8819501,4.6140003,7.965
1679930613760,1110602113819387,-2.8540502,4.6260004,8.0119505
1679930613761,1110602116321464,-2.88,4.6090503,8.00895
1679930613763,1110602118823618,-2.8230002,4.66905,7.93905
1679930613765,1110602121325772,-2.80095,4.5919504,8.03295
1679930613768,1110602123827709,-2.8129501,4.635,8.064
1679930613771,1110602126330093,-2.808,4.58295,7.89795
1679930613773,1110602128832016,-2.7910502,4.59705,8.095051
1679930613777,1110602131334170,-2.8849502,4.61595,7.9219503
1679930613778,1110602133836247,-2.8560002,4.623,8.0119505
1679930613781,1110602136338396,-2.8300502,4.67805,8.023951
1679930613783,1110602138840550,-2.86995,4.5469503,7.8820505
1679930613786,1110602141342473,-2.799,4.58295,8.073
1679930613788,1110602143844858,-2.8300502,4.63005,8.04195
1679930613790,1110602146346786,-2.832,4.635,8.016001
1679930613794,1110602148848940,-2.7,4.58295,7.99695
1679930613796,1110602151351093,-2.76705,4.5610504,8.023951
1679930613798,1110602153853170,-2.7630002,4.62795,7.977
1679930613800,1110602156355324,-2.80095,4.578,8.0119505
1679930613803,1110602158857478,-2.7600002,4.6210504,8.149051
1679930613805,1110602161359632,-2.799,4.5469503,8.002951
1679930613808,1110602163861555,-2.7510002,4.563,8.02305
1679930613811,1110602166363685,-2.811,4.51305,8.101951
1679930613813,1110602168865839,-2.772,4.551,7.9870505
1679930613815,1110602171367916,-2.8249502,4.566,7.977
1679930613818,1110602173870069,-2.8489501,4.5540004,7.93695
1679930613820,1110602176372218,-2.8969502,4.57095,8.04705
1679930613823,1110602178874372,-2.799,4.5490503,8.0119505
1679930613827,1110602181376295,-2.8660502,4.5750003,8.101951
1679930613828,1110602183878449,-2.8609502,4.4940004,8.028001
1679930613832,1110602186380598,-2.87295,4.5469503,8.06595
1679930613833,1110602188882675,-2.8990502,4.49595,8.016001
1679930613835,1110602191384906,-2.7439501,4.48395,8.089951
1679930613838,1110602193886983,-2.8630502,4.4599504,7.9800005
1679930613840,1110602196389136,-2.9490001,4.59,7.9249506
1679930613843,1110602198891281,-2.9299502,4.5370502,7.977
1679930613845,1110602201393204,-2.9020503,4.45095,8.001
1679930613848,1110602203895358,-2.91405,4.59,8.064
1679930613851,1110602206397435,-2.9590502,4.563,7.9249506
1679930613853,1110602208899666,-2.8579502,4.48395,7.9939504
1679930613855,1110602211401743,-2.97795,4.44105,7.9579506
1679930613858,1110602213903897,-2.904,4.5370502,7.9150505
1679930613861,1110602216406051,-2.904,4.578,7.89795
1679930613863,1110602218907969,-2.9590502,4.6140003,8.05395
1679930613865,1110602221410123,-2.94495,4.578,7.9099503
1679930613869,1110602223912199,-2.90895,4.5150003,7.9249506
1679930613872,1110602226414430,-2.976,4.5750003,7.9150505
1679930613874,1110602228916517,-2.87295,4.59,7.9129505
1679930613876,1110602231418671,-2.8990502,4.6140003,7.9200006
1679930613878,1110602233920825,-2.9569502,4.59705,7.8289504
1679930613880,1110602236422748,-2.94,4.5370502,7.8859506
1679930613883,1110602238924902,-2.8969502,4.5799503,7.8820505
1679930613885,1110602241427051,-2.9569502,4.5490503,7.8910503
1679930613888,1110602243929205,-2.973,4.6399503,7.8409505
1679930613890,1110602246431358,-2.9659503,4.602,7.8120003
1679930613894,1110602248933435,-2.868,4.6980004,7.8790503
1679930613895,1110602251435589,-2.8969502,4.662,7.77405
1679930613898,1110602253937526,-2.9610002,4.5469503,7.8240004
1679930613900,1110602256439680,-2.9020503,4.58295,7.7760005
1679930613903,1110602258941834,-2.9970002,4.6210504,7.9819503
1679930613907,1110602261443983,-2.98305,4.74795,7.8360004
1679930613910,1110602263946137,-2.9640002,4.65,7.9729505
1679930613911,1110602266448214,-2.91105,4.58295,8.01
1679930613913,1110602268950367,-2.9260502,4.7260504,7.77405
1679930613915,1110602271452290,-2.98095,4.578,7.8460503
1679930613919,1110602273954444,-2.8819501,4.638,7.93695
1679930613922,1110602276456598,-2.96895,4.65,7.80705
1679930613924,1110602278958752,-3.00195,4.662,7.86705
1679930613928,1110602281460906,-2.9490001,4.65705,7.8859506
1679930613928,1110602283962983,-2.8939502,4.54395,7.9099503
1679930613930,1110602286465137,-2.91105,4.6090503,7.9200006
1679930613934,1110602288967060,-2.9020503,4.67805,7.8169503
1679930613935,1110602291469444,-2.9329503,4.65705,7.9440002
1679930613938,1110602293971598,-2.9970002,4.61805,7.8619504
1679930613940,1110602296473492,-2.8540502,4.638,7.93905
1679930613944,1110602298975646,-2.9590502,4.578,7.9270506
1679930613946,1110602301477723,-2.8150501,4.5799503,7.9440002
1679930613948,1110602303979877,-2.8230002,4.55595,7.9270506
1679930613951,1110602306481815,-2.90595,4.6330504,8.00895
1679930613953,1110602308984200,-2.811,4.5270004,7.9680004
1679930613956,1110602311486354,-2.8660502,4.57305,7.96995
1679930613958,1110602313988277,-2.8969502,4.5150003,7.9680004
1679930613961,1110602316490401,-2.8819501,4.60395,7.9219503
1679930613963,1110602318992478,-2.8150501,4.57305,7.8889503
1679930613966,1110602321494632,-2.904,4.53195,7.8480005
1679930613968,1110602323996786,-2.9209502,4.539,7.96995
1679930613971,1110602326498921,-2.83695,4.602,8.02095
1679930613973,1110602329001075,-2.9160001,4.4890504,7.9099503
1679930613975,1110602331502998,-2.976,4.4770503,7.8739505
1679930613978,1110602334005152,-2.9260502,4.53195,7.9099503
1679930613982,1110602336507310,-2.9179502,4.5490503,7.83405
1679930613984,1110602339009387,-3.0240002,4.53,7.8360004
1679930613985,1110602341511540,-2.835,4.51305,7.9459505
1679930613988,1110602344013694,-2.8819501,4.58295,7.8889503
1679930613991,1110602346515848,-2.9280002,4.66905,8.002951
1679930613994,1110602349017786,-2.87295,4.58295,7.9870505
1679930613997,1110602351520171,-2.90895,4.5990005,8.00895
1679930613998,1110602354022094,-2.91105,4.53195,8.06805
1679930614002,1110602356524248,-2.8849502,4.58295,7.96995
1679930614003,1110602359026354,-2.9230502,4.59,7.8600006
1679930614005,1110602361528507,-2.9539502,4.6140003,7.9009504
1679930614008,1110602364030431,-2.9640002,4.551,7.9300504
1679930614011,1110602366532584,-2.8579502,4.5349503,8.017051
1679930614013,1110602369034738,-2.97795,4.6330504,7.89795
1679930614015,1110602371536906,-2.9299502,4.5919504,7.8510003
1679930614020,1110602374039060,-2.9329503,4.5990005,7.9489503
1679930614022,1110602376541137,-2.88,4.59,7.8790503
1679930614023,1110602379043310,-2.91105,4.59,7.9180503
1679930614025,1110602381545233,-2.9329503,4.5199504,7.9420505
1679930614028,1110602384047387,-2.9929502,4.6519504,7.8430505
1679930614031,1110602386549541,-2.976,4.5990005,7.9609504
1679930614033,1110602389051694,-2.904,4.635,8.028001
1679930614035,1110602391553853,-2.87805,4.6540504,7.9459505
1679930614038,1110602394055930,-2.976,4.58505,7.93905
1679930614041,1110602396558084,-2.904,4.635,7.93695
1679930614043,1110602399060007,-2.8579502,4.59705,8.029051
1679930614045,1110602401562382,-2.9260502,4.6470003,7.9030504
1679930614048,1110602404064536,-2.8939502,4.6210504,8.02095
1679930614051,1110602406566459,-2.9179502,4.5750003,8.0119505
1679930614053,1110602409068613,-2.8249502,4.623,8.187
1679930614057,1110602411570685,-2.88,4.635,7.9080005
1679930614059,1110602414072839,-2.9299502,4.61805,7.9990506
1679930614061,1110602416574762,-2.83695,4.72095,8.064
1679930614063,1110602419077147,-2.844,4.6420503,8.049001
1679930614065,1110602421579301,-2.8540502,4.72905,7.9560003
1679930614068,1110602424081223,-2.83695,4.6519504,8.016001
1679930614071,1110602426583377,-2.7630002,4.566,7.965
1679930614073,1110602429085454,-2.80605,4.65,8.04195
1679930614075,1110602431587608,-2.98095,4.5469503,7.965
1679930614078,1110602434089766,-2.9329503,4.49595,8.016001
1679930614081,1110602436591920,-2.8660502,4.65,7.9579506
1679930614083,1110602439094074,-2.9569502,4.5750003,7.9219503
1679930614085,1110602441595997,-2.9590502,4.5919504,7.8739505
1679930614088,1110602444098151,-2.9329503,4.5589504,7.8700504
1679930614090,1110602446600233,-2.9880002,4.6090503,7.9800005
1679930614094,1110602449102387,-3.00195,4.611,7.9030504
1679930614096,1110602451604618,-3.00705,4.59,7.932
1679930614098,1110602454106695,-2.9899502,4.635,7.9819503
1679930614100,1110602456608862,-3.0640502,4.6860003,8.016001
1679930614103,1110602459110785,-2.9329503,4.623,7.8960004
1679930614106,1110602461612939,-2.94495,4.57305,7.9270506
1679930614108,1110602464115016,-2.87295,4.59,7.965
1679930614110,1110602466617170,-2.9970002,4.6930504,8.061001
1679930614113,1110602469119401,-2.9850001,4.6140003,8.052
1679930614115,1110602471621478,-2.9350502,4.62795,7.9630504
1679930614118,1110602474123632,-2.94,4.6590004,7.9510503
1679930614121,1110602476625575,-2.976,4.623,7.9510503
1679930614123,1110602479127729,-2.90895,4.6069503,7.9200006
1679930614125,1110602481629806,-2.832,4.563,7.8790503
1679930614128,1110602484132036,-2.98095,4.6540504,7.9200006
1679930614132,1110602486634204,-3.01395,4.5919504,8.00895
1679930614134,1110602489136281,-2.9640002,4.5540004,7.8820505
1679930614136,1110602491638435,-3.04305,4.5349503,8.005051
1679930614138,1110602494140358,-2.94195,4.563,7.9150505
1679930614140,1110602496642531,-3.0210001,4.61595,7.9270506
1679930614143,1110602499144685,-2.90895,4.5370502,8.0449505
1679930614146,1110602501646839,-2.90595,4.5610504,7.9990506
1679930614148,1110602504148992,-3.0289502,4.5079503,7.9489503
1679930614151,1110602506651093,-2.9899502,4.6140003,7.9180503
1679930614153,1110602509153247,-2.9970002,4.611,7.9560003
1679930614156,1110602511655170,-2.9590502,4.539,7.9150505
1679930614158,1110602514157324,-3.012,4.58295,7.9819503
1679930614161,1110602516659478,-3.072,4.5990005,7.9729505
1679930614163,1110602519161656,-3.0690002,4.49595,7.9099503
1679930614166,1110602521663810,-3.0190501,4.563,7.9219503
1679930614170,1110602524165887,-2.9880002,4.59,7.9849505
1679930614176,1110602526668031,-2.904,4.4749503,8.02305
1679930614177,1110602529169955,-2.9260502,4.57305,8.089951
1679930614177,1110602531672108,-2.86995,4.57095,7.932
1679930614178,1110602534174493,-2.94195,4.55595,8.017051
1679930614181,1110602536676416,-2.8939502,4.59,8.06595
1679930614183,1110602539178545,-2.88,4.57095,7.89795
1679930614185,1110602541680622,-2.9329503,4.602,7.9939504
1679930614188,1110602544182776,-2.87505,4.5469503,8.052
1679930614191,1110602546684930,-2.9329503,4.5990005,8.061001
1679930614193,1110602549186843,-2.87295,4.6210504,8.0449505
1679930614195,1110602551689227,-2.87805,4.5990005,8.1
1679930614198,1110602554191150,-2.87295,4.61805,8.03295
1679930614201,1110602556693304,-2.9610002,4.566,8.071051
1679930614203,1110602559195376,-2.96895,4.5540004,7.977
1679930614207,1110602561697530,-2.8150501,4.53,8.04195
1679930614210,1110602564199684,-2.9329503,4.59,7.9579506
1679930614211,1110602566701838,-2.87505,4.578,7.9080005
1679930614213,1110602569203761,-2.844,4.6540504,8.028001
1679930614216,1110602571705920,-2.9659503,4.59495,7.9579506
1679930614218,1110602574208074,-2.9160001,4.6420503,8.001
1679930614221,1110602576710150,-2.9280002,4.5540004,7.9300504
1679930614223,1110602579212304,-2.8990502,4.6090503,7.9609504
1679930614225,1110602581714477,-2.8900502,4.58295,8.017051
1679930614228,1110602584216631,-2.8819501,4.5919504,8.04
1679930614231,1110602586718554,-2.9160001,4.6930504,7.93905
1679930614233,1110602589220708,-2.8819501,4.551,8.00895
1679930614236,1110602591722848,-2.90595,4.64505,7.9800005
1679930614238,1110602594225002,-3.03795,4.5420003,8.02305
1679930614241,1110602596727079,-2.9299502,4.5370502,8.16705
1679930614245,1110602599229256,-2.9179502,4.6639504,8.005051
1679930614246,1110602601731410,-2.9350502,4.6210504,7.9560003
1679930614248,1110602604233564,-2.9590502,4.5370502,8.04195
1679930614251,1110602606735487,-2.96895,4.539,7.965
1679930614253,1110602609237641,-2.8939502,4.6330504,7.8550506
1679930614255,1110602611739790,-2.8969502,4.623,7.9270506
1679930614258,1110602614241944,-2.976,4.5370502,7.8619504
1679930614261,1110602616744021,-2.9230502,4.5610504,7.9249506
1679930614263,1110602619246175,-2.9299502,4.55595,7.8510003
1679930614265,1110602621748098,-2.9950502,4.5870004,8.083051
1679930614268,1110602624250241,-2.976,4.51095,7.9129505
1679930614271,1110602626752318,-2.9350502,4.6260004,8.0449505
1679930614273,1110602629254549,-3.04305,4.5040503,7.8960004
1679930614276,1110602631756703,-3.0000002,4.5370502,8.06595
1679930614278,1110602634258790,-2.98095,4.566,8.0119505
1679930614282,1110602636760944,-2.97795,4.6420503,7.99695
1679930614284,1110602639263098,-2.9950502,4.5750003,8.017051
1679930614286,1110602641765021,-2.8990502,4.53,8.01
1679930614288,1110602644267160,-2.904,4.49895,7.965
1679930614291,1110602646769313,-2.9569502,4.5370502,7.8529506
1679930614293,1110602649271467,-2.9160001,4.43895,7.9579506
1679930614295,1110602651773621,-2.868,4.5349503,8.08005
1679930614298,1110602654275698,-2.8870502,4.5610504,8.04
1679930614301,1110602656777852,-2.9539502,4.39605,8.02095
1679930614303,1110602659279775,-2.9329503,4.4359503,8.04
1679930614306,1110602661782160,-2.8870502,4.4440503,8.04
1679930614308,1110602664284069,-2.83695,4.4700003,7.8240004
1679930614311,1110602666786223,-2.8249502,4.42005,7.9249506
1679930614313,1110602669288300,-2.835,4.4479504,8.029051
1679930614316,1110602671790453,-2.7580502,4.40805,8.05605
1679930614320,1110602674292366,-2.7630002,4.434,8.071051
1679930614323,1110602676794751,-2.7480001,4.42695,7.99695
1679930614325,1110602679296905,-2.8579502,4.4770503,7.9849505
1679930614327,1110602681799059,-2.87295,4.47195,7.9180503
1679930614329,1110602684300982,-2.8150501,4.5150003,7.96995
1679930614331,1110602686803030,-2.80605,4.46505,7.99695
1679930614333,1110602689305184,-2.8510501,4.4940004,7.9489503
1679930614335,1110602691807337,-2.9569502,4.4770503,7.93695
1679930614338,1110602694309491,-2.8939502,4.54395,7.9939504
1679930614341,1110602696811645,-2.8900502,4.5589504,8.00895
1679930614343,1110602699313568,-2.88,4.518,8.016001
1679930614346,1110602701815722,-2.93805,4.4869504,8.121
1679930614348,1110602704317799,-2.799,4.5040503,8.112
1679930614351,1110602706819953,-2.91405,4.551,8.04
1679930614353,1110602709322132,-2.8540502,4.49205,8.023951
1679930614357,1110602711824286,-2.8270502,4.43205,8.03295
1679930614361,1110602714326439,-2.8660502,4.518,8.05605
1679930614362,1110602716828598,-2.94705,4.4599504,8.023951
1679930614363,1110602719330521,-2.9970002,4.4869504,7.9579506
1679930614366,1110602721832598,-2.97795,4.52295,7.9630504
1679930614369,1110602724334752,-2.9950502,4.47195,7.9300504
1679930614372,1110602726836983,-2.9929502,4.40805,7.9849505
1679930614374,1110602729339065,-2.9329503,4.4770503,7.93695
1679930614376,1110602731841219,-2.8510501,4.43205,7.9750504
1679930614378,1110602734343142,-2.83695,4.4479504,7.9630504
1679930614381,1110602736845296,-2.93805,4.4149504,7.8220506
1679930614384,1110602739347440,-2.97795,4.42695,7.9440002
1679930614386,1110602741849516,-2.9590502,4.4749503,7.8550506
1679930614388,1110602744351747,-2.9350502,4.386,7.9420505
1679930614391,1110602746853824,-3.0210001,4.5079503,7.8960004
1679930614395,1110602749355993,-3.0190501,4.47195,7.8960004
1679930614396,1110602751857916,-3.0210001,4.3570504,7.9459505
1679930614398,1110602754360070,-3.012,4.446,7.8600006
1679930614401,1110602756862224,-3.0259502,4.50105,7.7830505
1679930614403,1110602759364301,-3.0690002,4.51305,7.83405
1679930614406,1110602761866541,-3.04305,4.5370502,7.77405
1679930614408,1110602764368617,-3.0859501,4.5370502,7.9440002
1679930614411,1110602766870771,-3.0600002,4.53,7.965
1679930614413,1110602769372694,-3.0930002,4.59,7.8240004
1679930614416,1110602771874839,-3.0000002,4.5750003,7.9870505
1679930614418,1110602774376993,-3.0640502,4.5870004,7.9579506
1679930614421,1110602776879378,-3.0310502,4.5679502,7.9249506
1679930614424,1110602779381301,-2.97105,4.59705,7.8960004
1679930614426,1110602781883368,-3.1000502,4.60395,7.9129505
1679930614429,1110602784385522,-3.0169501,4.602,7.9849505
1679930614433,1110602786887675,-3.1240501,4.6330504,7.9579506
1679930614434,1110602789389598,-3.0289502,4.61595,8.005051
1679930614436,1110602791891733,-3.072,4.64505,7.93905
1679930614438,1110602794393887,-3.07395,4.6540504,8.059051
1679930614441,1110602796896041,-3.14295,4.5870004,8.071051
1679930614443,1110602799398118,-3.108,4.5679502,8.142
1679930614446,1110602801900281,-3.0880501,4.566,8.097
1679930614450,1110602804402435,-3.0979502,4.57305,8.191051
1679930614451,1110602806904589,-3.1030502,4.53,8.089951
1679930614453,1110602809406742,-3.11205,4.59705,8.016001
1679930614456,1110602811908665,-3.1960502,4.53195,8.088
1679930614459,1110602814410805,-3.081,4.518,8.109
1679930614461,1110602816912882,-3.0690002,4.49205,8.0779505
1679930614464,1110602819415036,-3.0499501,4.5420003,7.9920006
1679930614466,1110602821917190,-3.045,4.578,8.113951
1679930614471,1110602824419339,-3.081,4.4869504,8.134951
1679930614473,1110602826921493,-3.072,4.53195,8.023951
1679930614475,1110602829423416,-3.0499501,4.5079503,8.028001
1679930614476,1110602831925585,-3.0190501,4.4599504,8.089951
1679930614479,1110602834427662,-3.1360502,4.57305,8.0119505
1679930614481,1110602836929892,-3.0690002,4.46505,8.148001
1679930614484,1110602839432046,-3.081,4.5750003,8.052
1679930614486,1110602841934123,-3.0360003,4.46295,8.088
1679930614489,1110602844436276,-3.081,4.53,8.028001
1679930614491,1110602846938199,-3.07905,4.4869504,8.064
1679930614494,1110602849440353,-3.0240002,4.518,8.02095
1679930614496,1110602851942430,-3.0600002,4.39605,7.8940506
1679930614500,1110602854444666,-3.0169501,4.4820004,8.073
1679930614501,1110602856946819,-3.10995,4.5540004,8.029051
1679930614503,1110602859448896,-3.01395,4.49895,8.029051
1679930614508,1110602861951050,-3.081,4.6140003,8.071051
1679930614510,1110602864452959,-3.0499501,4.5079503,7.99695
1679930614512,1110602866955113,-3.084,4.6069503,8.05395
1679930614513,1110602869457190,-3.0930002,4.5610504,8.17905
1679930614516,1110602871959421,-3.072,4.5349503,8.085
1679930614519,1110602874461575,-2.9160001,4.5150003,8.06805
1679930614521,1110602876963627,-3.012,4.5919504,8.089951
1679930614523,1110602879465780,-2.9970002,4.458,8.095051
1679930614526,1110602881967704,-3.0499501,4.5079503,8.023951
1679930614529,1110602884469857,-3.0979502,4.54395,8.0449505
1679930614531,1110602886972242,-3.0600002,4.5610504,8.133
1679930614533,1110602889474155,-3.01395,4.52295,8.06595
1679930614536,1110602891976309,-3.009,4.401,8.122951
1679930614539,1110602894478386,-3.0690002,4.4560504,7.9560003
1679930614541,1110602896980540,-2.97105,4.5370502,8.112
1679930614545,1110602899482468,-2.976,4.52295,8.08005
1679930614546,1110602901984622,-3.1200001,4.48395,8.005051
1679930614549,1110602904487006,-3.07905,4.49205,8.0119505
1679930614552,1110602906988929,-3.0360003,4.4940004,8.03295
1679930614554,1110602909491078,-3.0670502,4.506,8.101951
1679930614556,1110602911993155,-3.072,4.5270004,7.96995
1679930614559,1110602914495309,-3.0930002,4.48005,8.073
1679930614561,1110602916997232,-3.1050003,4.46805,7.9990506
1679930614563,1110602919499598,-3.0930002,4.5150003,8.095051
1679930614566,1110602922001752,-3.1750503,4.4869504,7.9030504
1679930614570,1110602924503675,-3.1990502,4.4890504,8.076
1679930614572,1110602927005829,-3.1939502,4.5199504,8.121
1679930614573,1110602929507900,-3.2340002,4.46805,7.9750504
1679930614576,1110602932010054,-3.2730002,4.5370502,8.05605
1679930614579,1110602934512208,-3.1750503,4.48395,8.017051
1679930614582,1110602937014362,-3.2370002,4.4149504,7.9920006
1679930614585,1110602939516530,-3.1669502,4.4820004,7.9080005
1679930614586,1110602942018453,-3.153,4.49205,7.9819503
1679930614590,1110602944520607,-3.04305,4.401,8.049001
1679930614591,1110602947022684,-3.0619502,4.4479504,7.8820505
1679930614593,1110602949524838,-3.0190501,4.413,7.93905
1679930614596,1110602952027001,-3.072,4.3770003,8.049001
1679930614601,1110602954529155,-3.0499501,4.3890004,8.073
1679930614602,1110602957031309,-3.07905,4.36905,8.005051
1679930614604,1110602959533232,-3.012,4.3980002,7.9800005
1679930614606,1110602962035391,-3.0000002,4.3170004,8.01
1679930614610,1110602964537468,-2.9610002,4.3980002,8.059051
1679930614612,1110602967039622,-2.94195,4.48395,8.061001
1679930614614,1110602969541853,-2.93805,4.293,7.9489503
1679930614616,1110602972043915,-2.98305,4.4149504,8.0119505
1679930614621,1110602974546068,-2.98305,4.46505,8.148001
1679930614623,1110602977047991,-2.976,4.4890504,8.092051
1679930614624,1110602979550145,-2.973,4.3380003,8.059051
1679930614626,1110602982052333,-2.8969502,4.40805,8.035951
1679930614630,1110602984554410,-2.904,4.36695,8.085
1679930614631,1110602987056641,-2.9350502,4.45095,7.93695
1679930614635,1110602989558718,-2.8939502,4.4050503,8.05605
1679930614637,1110602992060872,-2.94195,4.43205,8.02305
1679930614640,1110602994562795,-2.9929502,4.36905,8.167951
1679930614641,1110602997064949,-2.976,4.3770003,8.128051
1679930614643,1110602999567102,-3.00705,4.257,8.04705
1679930614646,1110603002069179,-2.9299502,4.4029503,8.076
1679930614652,1110603004571400,-3.01395,4.3770003,8.052
1679930614654,1110603007073477,-3.0210001,4.3770003,8.11905
1679930614655,1110603009575631,-2.9610002,4.3429503,8.049001
1679930614658,1110603012077771,-2.9230502,4.3500004,8.113951
1679930614661,1110603014579694,-3.0360003,4.281,8.11905
1679930614662,1110603017081848,-2.90895,4.3240504,8.19795
1679930614664,1110603019584002,-3.072,4.39605,8.30595
1679930614667,1110603022086079,-3.0619502,4.362,8.161051
1679930614670,1110603024588227,-3.0499501,4.2829504,8.239051
1679930614672,1110603027090381,-3.108,4.3000503,8.233951
1679930614675,1110603029592535,-3.1390502,4.3099504,8.23095
1679930614677,1110603032094458,-3.0190501,4.302,8.215051
1679930614680,1110603034596612,-3.1050003,4.34805,8.203051
1679930614682,1110603037098727,-3.1030502,4.3099504,8.187
1679930614684,1110603039600804,-3.11505,4.1800504,8.32695
1679930614686,1110603042102958,-3.1579502,4.1680503,8.337001
1679930614690,1110603044604881,-3.0880501,4.15605,8.358001
1679930614692,1110603047107276,-3.14805,4.09905,8.28195
1679930614695,1110603049609430,-3.18705,4.104,8.193001
1679930614697,1110603052111353,-3.1000502,4.12995,8.215051
1679930614700,1110603054613507,-3.07605,4.13205,8.32995
1679930614702,1110603057115603,-3.045,4.0630503,8.33205
1679930614704,1110603059617757,-3.0169501,4.053,8.35095
1679930614706,1110603062119680,-2.98305,4.1130004,8.241
1679930614712,1110603064622036,-3.0499501,4.0740004,8.21895
1679930614713,1110603067124189,-2.98095,4.08705,8.272051
1679930614714,1110603069626113,-3.0000002,4.0279503,8.245951
1679930614719,1110603072128266,-2.91105,4.005,8.272051
1679930614721,1110603074630343,-2.91105,4.0410004,8.278951
1679930614723,1110603077132511,-2.8870502,4.09905,8.229
1679930614725,1110603079634665,-2.8489501,4.056,8.148001
1679930614727,1110603082136819,-2.811,3.9379501,8.262
1679930614730,1110603084638973,-2.835,4.06995,8.278951
1679930614733,1110603087140901,-2.772,4.0339503,8.245951
1679930614735,1110603089643055,-2.808,3.96705,8.298
1679930614736,1110603092145132,-2.7439501,4.0009503,8.32995
1679930614740,1110603094647285,-2.80305,3.96495,8.370001
1679930614742,1110603097149516,-2.736,4.065,8.302951
1679930614744,1110603099651608,-2.76705,3.9739501,8.32695
1679930614747,1110603102153762,-2.7630002,4.0129504,8.33205
1679930614751,1110603104655685,-2.8150501,3.9930003,8.298
1679930614752,1110603107157839,-2.808,4.0020003,8.3220005
1679930614754,1110603109659916,-2.91105,4.0080004,8.19795
1679930614757,1110603112162070,-2.8200002,4.0630503,8.28405
1679930614760,1110603114664301,-2.844,3.9910502,8.277
1679930614762,1110603117166377,-2.8540502,4.00995,8.158951
1679930614764,1110603119668531,-2.90595,3.9220502,8.298
1679930614768,1110603122170454,-2.9160001,3.8779502,8.245951
1679930614772,1110603124672608,-2.94495,3.9,8.20005
1679930614773,1110603127174762,-2.8819501,3.936,8.17905
1679930614775,1110603129676930,-2.9929502,3.9139502,8.193001
1679930614778,1110603132179084,-3.00495,3.9190502,8.191051
1679930614781,1110603134681161,-2.9610002,3.8689501,8.122951
1679930614782,1110603137183315,-3.03795,3.80205,8.13
1679930614784,1110603139685238,-2.96895,3.8140502,8.128051
1679930614787,1110603142187391,-2.9179502,3.7489502,8.14005
1679930614791,1110603144689545,-2.8870502,3.8449502,8.029051
1679930614792,1110603147191699,-3.009,3.86595,8.11905
1679930614794,1110603149693853,-2.98305,3.795,8.133
1679930614799,1110603152195920,-2.98095,3.76095,8.19495
1679930614800,1110603154698074,-2.9020503,3.759,8.23095
1679930614802,1110603157199997,-2.87805,3.7800002,8.122951
1679930614804,1110603159702151,-2.8660502,3.7800002,8.1
1679930614808,1110603162204535,-2.97105,3.8449502,8.095051
1679930614810,1110603164706458,-2.8459501,3.8520002,8.049001
1679930614813,1110603167208612,-2.9610002,3.8070002,8.0449505
1679930614814,1110603169710689,-2.97795,3.9960003,7.9800005
1679930614816,1110603172212843,-2.97105,3.9930003,7.9180503
1679930614820,1110603174715007,-3.00195,3.9720001,7.9560003
1679930614821,1110603177216930,-3.0259502,4.0020003,8.089951
1679930614824,1110603179719315,-3.1200001,4.077,8.104051
1679930614826,1110603182221238,-3.0859501,4.1659503,8.095051
1679930614830,1110603184723392,-3.0979502,4.1130004,8.0779505
1679930614831,1110603187225479,-3.0570002,4.19205,8.134951
1679930614834,1110603189727632,-3.07905,4.2829504,8.14005
1679930614836,1110603192229786,-3.0499501,4.3650002,8.125951
1679930614840,1110603194731709,-3.072,4.2979503,8.17905
1679930614841,1110603197234117,-3.1000502,4.3980002,8.187
1679930614846,1110603199736040,-3.0960002,4.49895,8.163
1679930614847,1110603202238194,-3.009,4.53,8.253
1679930614850,1110603204740271,-3.00195,4.5490503,8.18595
1679930614852,1110603207242463,-2.9850001,4.58295,8.25
1679930614854,1110603209744617,-2.9260502,4.5679502,8.19495
1679930614856,1110603212246770,-2.9209502,4.6980004,8.24295
1679930614860,1110603214748924,-2.93805,4.65705,8.227051
1679930614861,1110603217250828,-2.9020503,4.63005,8.274
1679930614864,1110603219752982,-2.8920002,4.671,8.380051
1679930614867,1110603222255136,-2.83905,4.6260004,8.16705
1679930614870,1110603224757213,-2.83695,4.57305,8.278951
1679930614872,1110603227259347,-2.8560002,4.6260004,8.121
1679930614874,1110603229761578,-2.77005,4.53,8.217
1679930614877,1110603232263654,-2.80305,4.48395,8.101951
1679930614880,1110603234765578,-2.8540502,4.42395,8.0779505
1679930614883,1110603237267731,-2.8630502,4.3890004,8.193001
1679930614885,1110603239769885,-2.9350502,4.3429503,8.089951
1679930614887,1110603242271962,-2.8200002,4.3309503,8.11905
1679930614890,1110603244774116,-2.8489501,4.26405,8.15205
1679930614892,1110603247276270,-2.8819501,4.16295,8.05605
1679930614894,1110603249778415,-2.868,4.2520504,8.148001
1679930614897,1110603252280338,-2.8939502,4.257,8.229
1679930614900,1110603254782492,-2.8660502,4.1800504,8.19795
1679930614902,1110603257284646,-2.8579502,4.1130004,8.145
1679930614904,1110603259786722,-2.9260502,4.1059504,8.19495
1679930614907,1110603262288953,-2.8870502,4.065,8.071051
1679930614910,1110603264791030,-2.8660502,4.13205,8.016001
1679930614912,1110603267293184,-2.9260502,4.1080503,8.05605
1679930614914,1110603269795107,-2.87295,3.9910502,8.155951
1679930614917,1110603272297463,-2.8230002,3.9550502,8.101951
1679930614921,1110603274799617,-2.8969502,4.017,8.092051
1679930614923,1110603277301540,-2.9280002,4.0080004,8.002951
1679930614925,1110603279803694,-2.8560002,4.0669503,7.9099503
1679930614926,1110603282305770,-2.7840002,3.9790502,8.061001
1679930614930,1110603284807924,-2.96895,4.044,8.01
1679930614931,1110603287309847,-2.98305,4.056,7.9849505
1679930614934,1110603289812232,-3.0000002,4.1509504,7.8820505
1679930614937,1110603292314381,-2.9329503,4.1010003,8.029051
1679930614939,1110603294816304,-2.9350502,4.02495,7.9800005
1679930614941,1110603297318458,-2.9640002,4.0740004,8.092051
1679930614944,1110603299820535,-3.01395,4.0470004,8.04
1679930614946,1110603302322670,-2.9260502,4.09305,8.097
1679930614950,1110603304824593,-2.98305,4.137,7.9729505
1679930614951,1110603307326977,-3.0289502,4.23495,7.9080005
1679930614954,1110603309829131,-3.00495,4.13205,8.02095
1679930614958,1110603312331049,-3.01395,4.1130004,8.023951
1679930614961,1110603314833203,-2.973,4.2379503,8.0119505
1679930614962,1110603317335280,-2.9569502,4.21395,8.04705
1679930614964,1110603319837434,-2.9659503,4.2109504,8.005051
1679930614968,1110603322339665,-2.844,4.1850004,8.03295
1679930614970,1110603324841713,-2.8560002,4.21605,8.11905
1679930614972,1110603327343866,-2.8819501,4.2330003,8.125951
1679930614974,1110603329845789,-2.8900502,4.09305,8.217
1679930614977,1110603332347943,-2.8300502,4.15905,8.11905
1679930614979,1110603334850030,-2.77905,4.15905,8.175
1679930614982,1110603337352184,-2.8249502,4.1610003,8.203051
1679930614984,1110603339854415,-2.77905,4.1470504,8.25
1679930614986,1110603342356492,-2.77905,4.116,8.20995
1679930614990,1110603344858627,-2.87505,4.05795,8.14005
1679930614991,1110603347360550,-2.90895,4.0339503,8.31795
1679930614995,1110603349862704,-2.868,4.0630503,8.21205
1679930614997,1110603352364781,-2.9209502,3.9570003,8.313001
1679930614999,1110603354866934,-2.9160001,3.9810002,8.227051
1679930615001,1110603357369160,-2.9020503,4.0339503,8.175
1679930615004,1110603359871237,-2.9299502,4.09305,8.15205
1679930615007,1110603362373391,-2.9020503,4.017,8.245951
1679930615010,1110603364875314,-2.8249502,4.1080503,8.266951
1679930615011,1110603367377458,-2.8870502,4.02705,8.215051
1679930615014,1110603369879612,-2.8969502,4.0350003,8.24295
1679930615017,1110603372381766,-2.8660502,3.9960003,8.346001
1679930615020,1110603374883919,-2.8609502,4.017,8.20695
1679930615021,1110603377385991,-2.8510501,4.13205,8.24295
1679930615025,1110603379888145,-2.7600002,4.056,8.254951
1679930615026,1110603382390068,-2.808,4.1080503,8.19495
1679930615030,1110603384892222,-2.7550502,4.06995,8.158951
1679930615035,1110603387394392,-2.72895,4.089,8.19495
1679930615036,1110603389896546,-2.8249502,3.9810002,8.19795
1679930615037,1110603392398700,-2.8300502,4.1470504,8.248051
1679930615040,1110603394900777,-2.73405,4.05105,8.227051
1679930615042,1110603397402930,-2.7840002,4.053,8.20005
1679930615044,1110603399904854,-2.88,4.11105,8.161051
1679930615047,1110603402407007,-2.7169502,4.1659503,8.112
1679930615052,1110603404909392,-2.808,4.0669503,8.095051
1679930615053,1110603407411348,-2.808,4.0740004,8.112
1679930615054,1110603409913502,-2.7150002,4.12305,8.023951
1679930615057,1110603412415579,-2.7529502,4.15605,8.17905
1679930615060,1110603414917733,-2.832,4.1680503,8.236051
1679930615062,1110603417419887,-2.8180501,4.0960503,8.191051
1679930615065,1110603419921810,-2.8230002,4.1659503,8.155951
1679930615067,1110603422424194,-2.8540502,4.1989503,8.104051
1679930615072,1110603424926117,-2.84205,4.15395,8.236051
1679930615074,1110603427428271,-2.772,4.125,8.13
1679930615076,1110603429930348,-2.83905,4.1130004,8.25
1679930615078,1110603432432502,-2.8819501,4.12305,8.221951
1679930615080,1110603434934656,-2.7630002,4.1389503,8.20695
1679930615082,1110603437436589,-2.811,4.149,8.236051
1679930615085,1110603439938974,-2.9230502,4.08705,8.149051
1679930615087,1110603442440897,-2.8900502,4.1389503,8.334001
1679930615090,1110603444943051,-2.8990502,4.0810504,8.30805
1679930615092,1110603447445204,-2.9350502,4.104,8.35095
1679930615096,1110603449947262,-2.94,4.1080503,8.28195
1679930615098,1110603452449416,-2.9490001,4.0080004,8.34195
1679930615101,1110603454951570,-2.87805,3.9889503,8.301001
1679930615103,1110603457453719,-2.9179502,4.0140004,8.36505
1679930615104,1110603459955642,-2.9329503,3.9049501,8.41605
1679930615109,1110603462457796,-2.832,3.8569503,8.48505
1679930615111,1110603464959950,-2.93805,3.8740501,8.512051
1679930615114,1110603467462055,-2.8990502,3.828,8.44905
1679930615115,1110603469964208,-2.74095,3.8400002,8.455951
1679930615118,1110603472466362,-2.7550502,3.76305,8.52105
1679930615121,1110603474968516,-2.808,3.732,8.49495
1679930615123,1110603477470439,-2.7820501,3.7470002,8.490001
1679930615126,1110603479972603,-2.7870002,3.7420502,8.385
1679930615128,1110603482474757,-2.7150002,3.6769502,8.433001
1679930615130,1110603484976834,-2.7220502,3.8380501,8.41605
1679930615132,1110603487478988,-2.6520002,3.828,8.47605
1679930615135,1110603489981142,-2.7199502,3.76305,8.67405
1679930615137,1110603492483295,-2.6170502,3.8809502,8.51895
1679930615140,1110603494985449,-2.6550002,3.9220502,8.3890505
1679930615142,1110603497487372,-2.6449502,3.8779502,8.562
1679930615147,1110603499989521,-2.67195,3.9139502,8.587951
1679930615148,1110603502491675,-2.6239502,3.9720001,8.53995
1679930615150,1110603504993829,-2.6910002,3.96705,8.50695
1679930615152,1110603507495906,-2.6569502,4.0140004,8.514
1679930615154,1110603509998060,-2.6449502,4.0080004,8.373
1679930615157,1110603512499983,-2.6190002,3.9930003,8.502001
1679930615160,1110603515002137,-2.6910002,4.0080004,8.538
1679930615163,1110603517504290,-2.6839502,3.9790502,8.49495
1679930615168,1110603520006463,-2.8150501,4.077,8.47095
1679930615169,1110603522508617,-2.73195,4.0020003,8.443951
1679930615171,1110603525010694,-2.83695,4.1389503,8.443951
1679930615173,1110603527512848,-2.84205,4.077,8.349
1679930615175,1110603530014771,-2.90895,4.09305,8.45895
1679930615177,1110603532517156,-3.012,4.0410004,8.397
1679930615180,1110603535019083,-3.03795,4.11795,8.373
1679930615183,1110603537521237,-3.00195,4.17495,8.334001
1679930615185,1110603540023390,-2.97795,4.2190504,8.32995
1679930615187,1110603542525467,-3.0360003,4.0960503,8.385
1679930615190,1110603545027645,-3.0859501,4.20405,8.325001
1679930615192,1110603547529568,-3.0910501,4.03905,8.410951
1679930615195,1110603550031953,-3.0240002,4.0740004,8.394
1679930615197,1110603552534107,-3.0330002,4.11105,8.380051
1679930615200,1110603555036050,-3.0289502,4.053,8.36295
1679930615202,1110603557538204,-3.0289502,4.0339503,8.3869505
1679930615204,1110603560040281,-3.1200001,3.9619503,8.502001
1679930615207,1110603562542434,-3.045,4.0129504,8.44005
1679930615210,1110603565044579,-3.0880501,3.8400002,8.455951
1679930615212,1110603567546733,-3.0670502,3.864,8.466001
1679930615214,1110603570048887,-3.072,3.7830002,8.33205
1679930615218,1110603572550810,-3.0499501,3.8779502,8.50695
1679930615222,1110603575052945,-3.0910501,3.8419502,8.443951
1679930615223,1110603577555022,-3.072,3.8419502,8.37705
1679930615225,1110603580057176,-3.084,3.68895,8.433001
1679930615227,1110603582559330,-3.11505,3.8140502,8.442
1679930615230,1110603585061483,-3.0930002,3.6870003,8.3890505
1679930615232,1110603587563651,-3.0570002,3.8140502,8.409
1679930615235,1110603590065574,-3.0499501,3.795,8.410951
1679930615237,1110603592567651,-2.9970002,3.7830002,8.443951
1679930615240,1110603595069805,-3.00705,3.7039502,8.272051
1679930615242,1110603597571940,-2.9850001,3.7420502,8.425051
1679930615245,1110603600074171,-2.976,3.79695,8.3890505
1679930615247,1110603602576248,-2.9490001,3.8689501,8.392051
1679930615251,1110603605078402,-3.00705,3.8089502,8.31795
1679930615252,1110603607580344,-2.8849502,3.864,8.32695
1679930615255,1110603610082498,-2.94495,3.9480002,8.47305
1679930615259,1110603612584574,-2.88,3.9240003,8.346001
1679930615261,1110603615086805,-2.9490001,3.9049501,8.346001
1679930615262,1110603617588978,-2.8849502,3.9310503,8.409
1679930615265,1110603620091055,-2.9610002,4.0279503,8.434951
1679930615267,1110603622593209,-2.87295,3.9769502,8.437051
1679930615271,1110603625095132,-2.94195,3.9310503,8.59095
1679930615272,1110603627597310,-2.9569502,3.9379501,8.587951
1679930615274,1110603630099387,-2.91105,4.05105,8.611951
1679930615277,1110603632601618,-2.8900502,3.9450002,8.719951
1679930615280,1110603635103771,-2.8510501,3.936,8.59305
1679930615282,1110603637605848,-2.94,3.9930003,8.59305
1679930615285,1110603640107988,-2.8900502,3.9499502,8.63805
1679930615287,1110603642609911,-2.94495,4.0470004,8.47995
1679930615290,1110603645112065,-2.83905,4.0140004,8.50395
1679930615292,1110603647614450,-2.97795,4.0960503,8.63595
1679930615296,1110603650116368,-2.91105,4.07205,8.598001
1679930615297,1110603652618522,-2.9020503,4.104,8.63595
1679930615301,1110603655120599,-3.07905,4.00995,8.722051
1679930615302,1110603657622752,-2.90895,4.02495,8.68605
1679930615305,1110603660124675,-2.9929502,4.0630503,8.710051
1679930615307,1110603662626848,-3.00705,4.017,8.62695
1679930615310,1110603665129233,-3.0499501,4.15905,8.545051
1679930615312,1110603667631156,-2.9539502,4.09305,8.542951
1679930615314,1110603670133310,-3.0880501,4.1130004,8.524051
1679930615317,1110603672635373,-3.0979502,4.0080004,8.571
1679930615320,1110603675137527,-3.1270502,3.969,8.607
1679930615322,1110603677639450,-3.0600002,4.00995,8.61495
1679930615324,1110603680141604,-3.07905,4.0669503,8.719951
1679930615327,1110603682643988,-3.1219501,3.89805,8.646001
1679930615330,1110603685145935,-3.1240501,3.936,8.691
1679930615333,1110603687648012,-3.1339502,3.795,8.66205
1679930615335,1110603690150166,-3.17895,3.8569503,8.677051
1679930615337,1110603692652320,-3.0979502,3.7870502,8.79705
1679930615340,1110603695154464,-3.1290002,3.79695,8.707951
1679930615342,1110603697656618,-3.11505,3.8160002,8.701051
1679930615344,1110603700158772,-3.14295,3.8380501,8.734051
1679930615347,1110603702660695,-3.1219501,3.8209503,8.68605
1679930615351,1110603705162848,-3.1890001,3.864,8.63595
1679930615352,1110603707664925,-3.1290002,3.8520002,8.619
1679930615354,1110603710167079,-3.0360003,3.9220502,8.67405
1679930615357,1110603712669233,-3.07905,3.9049501,8.59095
1679930615360,1110603715171368,-3.0190501,3.9409502,8.65005
1679930615362,1110603717673522,-3.11205,4.0080004,8.679001
1679930615364,1110603720175445,-3.0690002,3.9769502,8.75805
1679930615367,1110603722677599,-2.9899502,4.0009503,8.78895
1679930615372,1110603725179676,-3.0619502,3.8740501,8.743951
1679930615374,1110603727681830,-2.9539502,3.9480002,8.63805
1679930615375,1110603730183983,-2.90895,4.0080004,8.78505
1679930615377,1110603732686137,-2.8939502,3.9619503,8.75805
1679930615380,1110603735188084,-2.9329503,3.9910502,8.67405
1679930615382,1110603737690238,-2.9539502,4.05795,8.63805
1679930615384,1110603740192315,-2.9899502,3.9220502,8.655001
1679930615387,1110603742694546,-3.0259502,3.8760002,8.7289505
1679930615390,1110603745196695,-3.05205,3.8419502,8.63595
1679930615392,1110603747698849,-3.11205,3.8779502,8.643001
1679930615394,1110603750200925,-3.1219501,3.8779502,8.557051
1679930615397,1110603752702849,-3.1650002,3.8040001,8.599951
1679930615400,1110603755205002,-3.1720502,3.89805,8.533051
1679930615402,1110603757707372,-3.18705,3.8620503,8.60505
1679930615404,1110603760209295,-3.1320002,3.7369502,8.689051
1679930615409,1110603762711449,-3.18405,3.7440002,8.67
1679930615411,1110603765213541,-3.1579502,3.7540503,8.6980505
1679930615413,1110603767715695,-3.1960502,3.8400002,8.68605
1679930615414,1110603770217618,-3.2340002,3.8160002,8.727
1679930615417,1110603772719772,-3.17895,3.7680001,8.707951
1679930615420,1110603775222156,-3.1219501,3.76305,8.63805
1679930615427,1110603777724059,-3.0570002,3.759,8.563951
1679930615427,1110603780226213,-3.14595,3.7849503,8.658
1679930615428,1110603782728290,-3.11205,3.8419502,8.569051
1679930615430,1110603785230444,-3.21105,3.68895,8.62695
1679930615432,1110603787732353,-3.246,3.8209503,8.60505
1679930615434,1110603790234507,-3.282,3.7710001,8.6959505
1679930615437,1110603792736892,-3.2610002,3.7399502,8.587951
1679930615440,1110603795238815,-3.27795,3.6820502,8.598001
1679930615442,1110603797740940,-3.3060002,3.7009501,8.52105
1679930615446,1110603800243016,-3.28005,3.59295,8.66205
1679930615448,1110603802745170,-3.2680502,3.6820502,8.55
1679930615451,1110603805247324,-3.3090003,3.62505,8.67
1679930615452,1110603807749464,-3.2629502,3.5430002,8.811001
1679930615454,1110603810251618,-3.2700002,3.4999502,8.77995
1679930615457,1110603812753541,-3.1290002,3.459,8.67195
1679930615460,1110603815255695,-3.1390502,3.4830003,8.67
1679930615463,1110603817757781,-3.1219501,3.4999502,8.677051
1679930615465,1110603820259935,-3.1720502,3.387,8.48295
1679930615467,1110603822762088,-3.1339502,3.4710002,8.535001
1679930615470,1110603825264242,-3.141,3.387,8.385
1679930615474,1110603827766372,-3.18405,3.3040502,8.512051
1679930615476,1110603830268295,-3.1669502,3.4140003,8.433001
1679930615477,1110603832770449,-3.1390502,3.3300002,8.42805
1679930615480,1110603835272526,-3.18405,3.3709502,8.394
1679930615486,1110603837774661,-3.177,3.2700002,8.49705
1679930615487,1110603840276815,-3.14595,3.3349502,8.466001
1679930615487,1110603842778969,-3.141,3.32505,8.50395
1679930615490,1110603845281122,-3.249,3.2940001,8.406
1679930615492,1110603847783045,-3.2340002,3.2989502,8.512051
1679930615495,1110603850285194,-3.14805,3.3439503,8.36505
1679930615499,1110603852787348,-3.2010002,3.4020002,8.35095
1679930615501,1110603855289425,-3.2269502,3.186,8.32005
1679930615502,1110603857791656,-3.21105,3.28005,8.286
1679930615505,1110603860293733,-3.1960502,3.1669502,8.301001
1679930615509,1110603862795902,-3.18405,3.3349502,8.262
1679930615510,1110603865297825,-3.2320502,3.31095,8.298
1679930615512,1110603867799979,-3.27795,3.1290002,8.437051
1679930615516,1110603870302108,-3.27795,3.1720502,8.32995
1679930615517,1110603872804185,-3.4069502,3.1579502,8.29605
1679930615523,1110603875306416,-3.1909502,3.1549501,8.25
1679930615525,1110603877808493,-3.2580001,3.0900002,8.239051
1679930615527,1110603880310656,-3.282,3.1360502,8.163
1679930615528,1110603882812579,-3.3780003,3.0550501,8.142
1679930615531,1110603885314733,-3.4360502,3.1189501,8.203051
1679930615535,1110603887816887,-3.2970002,3.10695,8.154
1679930615536,1110603890318964,-3.4309502,3.04305,8.16705
1679930615538,1110603892821164,-3.38805,3.0619502,8.06595
1679930615540,1110603895323241,-3.3640501,3.10695,8.17395
1679930615542,1110603897825395,-3.31095,2.97495,8.15205
1679930615546,1110603900327549,-3.3760502,2.94195,8.097
1679930615548,1110603902829448,-3.285,3.0190501,8.233951
1679930615551,1110603905331602,-3.1939502,2.973,8.116051
1679930615552,1110603907833756,-3.2029502,2.90595,8.35095
1679930615555,1110603910335910,-3.1750503,2.94705,8.29605
1679930615559,1110603912837987,-3.11505,2.97105,8.32695
1679930615561,1110603915340140,-3.1000502,2.841,8.193001
1679930615563,1110603917842294,-2.94195,2.8609502,8.33895
1679930615565,1110603920344217,-2.976,2.8890002,8.334001
1679930615568,1110603922846371,-2.7550502,2.88,8.274
1679930615571,1110603925348525,-2.59695,2.844,8.36505
1679930615573,1110603927850679,-2.6260502,2.8489501,8.28195
1679930615575,1110603930352833,-2.5570502,2.8630502,8.286
1679930615577,1110603932854910,-2.43195,2.7859502,8.269951
1679930615580,1110603935357035,-2.36295,2.7259502,8.32995
1679930615582,1110603937858958,-2.4780002,2.80095,8.31495
1679930615585,1110603940361342,-2.5140002,2.77905,8.301001
1679930615587,1110603942863265,-2.5500002,2.8270502,8.30595
1679930615590,1110603945365400,-2.6239502,2.7460501,8.29395
1679930615592,1110603947867554,-2.676,2.7960002,8.32995
1679930615596,1110603950369631,-2.7580502,2.7769501,8.20695
1679930615598,1110603952871785,-2.80305,2.7930002,8.437051
1679930615600,1110603955373713,-2.91105,2.7529502,8.31
1679930615602,1110603957876098,-2.8870502,2.6899502,8.368051
1679930615605,1110603960378021,-3.0499501,2.8530002,8.380051
1679930615607,1110603962880098,-3.0859501,2.7600002,8.490001
1679930615610,1110603965382265,-3.0979502,2.7550502,8.437051
1679930615612,1110603967884496,-3.1200001,2.71005,8.47305
1679930615615,1110603970386573,-3.084,2.7810001,8.48805
1679930615618,1110603972888727,-3.0880501,2.7550502,8.302951
1679930615621,1110603975390646,-3.213,2.7460501,8.30805
1679930615622,1110603977892800,-3.2629502,2.7499502,8.368051
1679930615625,1110603980394877,-3.282,2.8219502,8.32005
1679930615627,1110603982897031,-3.3640501,2.74305,8.425051
1679930615631,1110603985399262,-3.38505,2.7120001,8.301001
1679930615635,1110603987901400,-3.5269501,2.6830502,8.398951
1679930615636,1110603990403477,-3.52905,2.664,8.454
1679930615637,1110603992905400,-3.5770502,2.6470501,8.221951
1679930615640,1110603995407554,-3.522,2.631,8.36295
1679930615642,1110603997909732,-3.6030002,2.63805,8.3869505
1679930615646,1110604000411886,-3.6010501,2.64,8.25
1679930615647,1110604002914040,-3.5650501,2.532,8.301001
1679930615651,1110604005416117,-3.5119503,2.56095,8.248051
1679930615652,1110604007918286,-3.5650501,2.6140501,8.181001
1679930615655,1110604010420209,-3.6340501,2.66895,8.265
1679930615657,1110604012922362,-3.522,2.6569502,8.265
1679930615660,1110604015424516,-3.6030002,2.66895,8.083051
1679930615662,1110604017926670,-3.4840503,2.69295,8.233951
1679930615665,1110604020428824,-3.5340002,2.64,8.23095
1679930615667,1110604022930901,-3.5340002,2.70495,8.181001
1679930615673,1110604025433055,-3.52395,2.841,8.245951
1679930615675,1110604027934958,-3.45495,2.74305,8.16705
1679930615676,1110604030437112,-3.45,2.7600002,8.25
1679930615678,1110604032939266,-3.4759502,2.8489501,8.18595
1679930615681,1110604035441419,-3.4669502,2.8459501,8.092051
1679930615682,1110604037943573,-3.5029502,2.877,8.193001
1679930615685,1110604040445669,-3.4429502,2.8990502,8.253
1679930615687,1110604042947823,-3.5479503,2.9230502,8.13
1679930615690,1110604045449977,-3.4330502,2.913,8.32995
1679930615692,1110604047951900,-3.4789503,2.9520001,8.32005
1679930615695,1110604050454285,-3.6010501,2.94,8.269951
1679930615697,1110604052956208,-3.65595,2.8939502,8.191051
1679930615700,1110604055458362,-3.5410502,2.94195,8.290951
1679930615703,1110604057960439,-3.49095,3.045,8.3220005
1679930615705,1110604060462603,-3.46005,2.9200501,8.47605
1679930615709,1110604062964757,-3.4399502,2.9899502,8.278951
1679930615711,1110604065466680,-3.3450003,2.9200501,8.401051
1679930615713,1110604067969070,-3.46005,3.04695,8.47995
1679930615715,1110604070470993,-3.3660002,2.9680502,8.413051
1679930615718,1110604072973147,-3.3640501,2.9539502,8.42805
1679930615721,1110604075475224,-3.3780003,2.94705,8.55
1679930615723,1110604077977378,-3.3420002,2.9320502,8.571
1679930615725,1110604080479546,-3.2970002,2.8990502,8.490001
1679930615728,1110604082981469,-3.2920501,2.8960502,8.466001
1679930615730,1110604085483622,-3.1699502,2.9230502,8.422951
1679930615732,1110604087985776,-3.2940001,2.9539502,8.455951
1679930615735,1110604090487930,-3.1890001,2.9640002,8.478001
1679930615737,1110604092990094,-3.31095,2.98305,8.3869505
1679930615740,1110604095492171,-3.2730002,2.9610002,8.587951
1679930615743,1110604097994325,-3.3420002,2.9230502,8.574
1679930615746,1110604100496512,-3.4669502,2.8890002,8.49195
1679930615748,1110604102998435,-3.4380002,2.9659503,8.598001
1679930615751,1110604105500589,-3.4960501,2.8510501,8.455951
1679930615752,1110604108002742,-3.4330502,2.9610002,8.545051
1679930615755,1110604110504896,-3.52905,2.8840501,8.599951
1679930615757,1110604113006978,-3.4759502,2.9970002,8.571
1679930615760,1110604115509132,-3.4999502,2.8939502,8.563951
1679930615763,1110604118011286,-3.321,2.9640002,8.4210005
1679930615766,1110604120513440,-3.5119503,2.97495,8.562
1679930615768,1110604123015353,-3.417,3.0589502,8.502001
1679930615771,1110604125517507,-3.4480503,2.9970002,8.51895
1679930615773,1110604128019584,-3.38505,3.117,8.380051
1679930615775,1110604130521737,-3.5479503,2.9950502,8.49705
1679930615777,1110604133023657,-3.5170503,3.009,8.66205
1679930615780,1110604135526041,-3.6030002,2.9560502,8.478001
1679930615785,1110604138028195,-3.5989501,2.94705,8.62395
1679930615786,1110604140530349,-3.6460502,2.9520001,8.512051
1679930615788,1110604143032281,-3.5770502,2.868,8.538
1679930615790,1110604145534358,-3.63,2.8960502,8.50695
1679930615793,1110604148036512,-3.6220503,2.8489501,8.46405
1679930615795,1110604150538743,-3.7060502,2.83695,8.425051
1679930615798,1110604153040819,-3.5959501,2.80305,8.397
1679930615801,1110604155542983,-3.594,2.841,8.569051
1679930615803,1110604158044906,-3.6109502,2.69295,8.55
1679930615805,1110604160547060,-3.7399502,2.77005,8.42805
1679930615808,1110604163049137,-3.6540003,2.5870502,8.581051
1679930615811,1110604165551276,-3.6850502,2.6830502,8.599951
1679930615813,1110604168053507,-3.6060002,2.67405,8.59305
1679930615815,1110604170555584,-3.6079502,2.6449502,8.74905
1679930615818,1110604173057738,-3.5820003,2.6089501,8.65305
1679930615822,1110604175559666,-3.65805,2.69295,8.595
1679930615823,1110604178061820,-3.5790002,2.6569502,8.61705
1679930615825,1110604180563896,-3.5820003,2.73795,8.6959505
1679930615827,1110604183066127,-3.5430002,2.7859502,8.77005
1679930615830,1110604185568257,-3.594,2.7480001,8.68395
1679930615832,1110604188070334,-3.5839503,2.7259502,8.703
1679930615835,1110604190572488,-3.6490502,2.70705,8.734051
1679930615838,1110604193074411,-3.6340501,2.73405,8.66205
1679930615840,1110604195576584,-3.62505,2.772,8.67195
1679930615843,1110604198078738,-3.5700002,2.7600002,8.691
1679930615846,1110604200580891,-3.7039502,2.74305,8.689051
1679930615848,1110604203083045,-3.69195,2.808,8.81805
1679930615851,1110604205585122,-3.69405,2.74305,8.80605
1679930615853,1110604208087276,-3.7110002,2.73405,8.775001
1679930615855,1110604210589430,-3.6820502,2.6880002,8.787001
1679930615859,1110604213091584,-3.7060502,2.877,8.787001
1679930615862,1110604215593493,-3.7540503,2.7769501,8.868
1679930615863,1110604218095647,-3.69705,2.7910502,8.81595
1679930615868,1110604220597801,-3.6340501,2.7840002,8.811001
1679930615870,1110604223099878,-3.7210503,2.73795,8.859
1679930615871,1110604225601801,-3.7399502,2.73405,8.940001
1679930615873,1110604228104204,-3.76395,2.7220502,8.78505
1679930615875,1110604230606358,-3.7159503,2.70195,8.895
1679930615878,1110604233108281,-3.6510003,2.64,8.967
1679930615880,1110604235610435,-3.7129502,2.70195,8.93295
1679930615883,1110604238112512,-3.6700501,2.7859502,8.916
1679930615885,1110604240614675,-3.7350001,2.70705,8.896951
1679930615887,1110604243116829,-3.6180003,2.8219502,8.84895
1679930615890,1110604245618983,-3.7060502,2.80095,8.655001
1679930615893,1110604248121136,-3.61995,2.74305,8.80395
1679930615898,1110604250623055,-3.6460502,2.74305,8.67405
1679930615899,1110604253125209,-3.76395,2.8200002,8.677051
1679930615901,1110604255627286,-3.8689501,2.8129501,8.8279505
1679930615903,1110604258129440,-3.8500502,2.7259502,8.68395
1679930615905,1110604260631680,-3.9,2.7,8.731951
1679930615908,1110604263133757,-4.00605,2.6449502,8.703
1679930615911,1110604265635911,-3.9870002,2.6430001,8.62905
1679930615913,1110604268137834,-4.0009503,2.6569502,8.719951
1679930615918,1110604270639983,-3.9580503,2.523,8.734051
1679930615919,1110604273142059,-4.0009503,2.5159502,8.643001
1679930615921,1110604275644213,-3.9790502,2.5560002,8.679001
1679930615923,1110604278146444,-4.00995,2.5080001,8.63805
1679930615925,1110604280648521,-3.9600003,2.358,8.63805
1679930615927,1110604283150695,-3.9220502,2.4510002,8.706
1679930615930,1110604285652618,-3.8740501,2.391,8.62905
1679930615936,1110604288154772,-3.89595,2.427,8.79705
1679930615937,1110604290656849,-3.7810502,2.3119502,8.72505
1679930615939,1110604293159070,-3.8500502,2.2740002,8.575951
1679930615941,1110604295661223,-3.7900503,2.36205,8.68605
1679930615943,1110604298163300,-3.73305,2.35995,8.643001
1679930615946,1110604300665454,-3.6780002,2.3100002,8.60505
1679930615948,1110604303167377,-3.6510003,2.3380501,8.62905
1679930615950,1110604305669536,-3.6490502,2.322,8.63595
1679930615953,1110604308171690,-3.55095,2.3790002,8.63595
1679930615955,1110604310673844,-3.5269501,2.41995,8.62395
1679930615957,1110604313175998,-3.4999502,2.36205,8.646001
1679930615960,1110604315678084,-3.41895,2.39595,8.59305
1679930615963,1110604318180237,-3.5119503,2.298,8.679001
1679930615965,1110604320682161,-3.45495,2.3380501,8.764951
1679930615969,1110604323184314,-3.3970501,2.35995,8.581051
1679930615973,1110604325686468,-3.4069502,2.36505,8.776951
1679930615974,1110604328188622,-3.4279501,2.3359501,8.634001
1679930615976,1110604330690776,-3.4399502,2.2429502,8.713051
1679930615978,1110604333192853,-3.45,2.22795,8.59095
1679930615980,1110604335695017,-3.4069502,2.25705,8.524051
1679930615982,1110604338196940,-3.4740002,2.17995,8.526
1679930615985,1110604340699094,-3.4450502,2.1780002,8.48295
1679930615987,1110604343201478,-3.4999502,2.08695,8.47095
1679930615990,1110604345703401,-3.52905,1.9939501,8.547
1679930615992,1110604348205478,-3.5029502,2.0700002,8.526
1679930615995,1110604350707632,-3.55995,2.0370002,8.442
1679930615997,1110604353209786,-3.61995,1.9939501,8.559
1679930616000,1110604355711964,-3.7129502,2.0269501,8.466001
1679930616003,1110604358213887,-3.6990001,2.02005,8.49495
1679930616005,1110604360716041,-3.7540503,2.0650501,8.500051
1679930616009,1110604363218171,-3.7399502,2.01495,8.50695
1679930616011,1110604365720324,-3.7759502,1.9240501,8.500051
1679930616013,1110604368222401,-3.69,1.9219501,8.500051
1679930616015,1110604370724555,-3.6010501,2.0370002,8.533051
1679930616018,1110604373226478,-3.55095,2.02005,8.598001
1679930616020,1110604375728632,-3.4720502,1.9579501,8.49195
1679930616023,1110604378230786,-3.2700002,1.9240501,8.48505
1679930616025,1110604380732940,-3.22305,1.9219501,8.418
1679930616028,1110604383235094,-3.1600502,1.93605,8.490001
1679930616030,1110604385737185,-2.9950502,1.881,8.490001
1679930616035,1110604388239339,-2.90895,1.90005,8.385
1679930616036,1110604390741262,-2.7870002,1.9429501,8.3560505
1679930616038,1110604393243646,-2.74095,1.8349501,8.370001
1679930616041,1110604395745530,-2.87295,1.8709501,8.37705
1679930616043,1110604398247684,-2.77905,1.81605,8.455951
1679930616047,1110604400749838,-2.8510501,1.8259501,8.233951
1679930616055,1110604403251915,-2.83695,1.8210001,8.215051
1679930616055,1110604405754074,-2.90895,1.8190501,8.380051
1679930616055,1110604408255997,-3.0289502,1.8550501,8.170051
1679930616056,1110604410758382,-3.081,1.8379501,8.24295
1679930616058,1110604413260535,-3.1050003,1.9069501,8.334001
1679930616060,1110604415762458,-3.108,1.9579501,8.19495
1679930616062,1110604418264616,-3.177,2.013,8.193001
1679930616065,1110604420766693,-3.2299502,1.9549501,8.290951
1679930616068,1110604423268847,-3.22005,2.0650501,8.155951
1679930616071,1110604425770997,-3.3229501,2.061,8.191051
1679930616073,1110604428272920,-3.3930001,1.9480501,8.31
1679930616075,1110604430775074,-3.49305,1.9939501,8.25
1679930616078,1110604433277228,-3.5119503,1.8829501,8.28195
1679930616081,1110604435779305,-3.486,1.9429501,8.29395
1679930616085,1110604438281520,-3.558,1.93605,8.31
1679930616086,1110604440783674,-3.6079502,1.7659501,8.18595
1679930616088,1110604443285751,-3.5770502,1.8070501,8.337001
1679930616091,1110604445787674,-3.6390002,1.845,8.112
1679930616093,1110604448289823,-3.6820502,1.9099501,8.161051
1679930616095,1110604450791977,-3.6180003,1.7400001,8.18595
1679930616098,1110604453294131,-3.61995,1.74705,8.1
1679930616102,1110604455796285,-3.66105,1.692,8.16705
1679930616103,1110604458298449,-3.5310001,1.6680001,8.203051
1679930616106,1110604460800525,-3.6799502,1.6320001,8.257951
1679930616108,1110604463302449,-3.5820003,1.6200001,8.241
1679930616111,1110604465804602,-3.591,1.6650001,8.134951
1679930616113,1110604468306737,-3.6060002,1.67295,8.20695
1679930616116,1110604470808891,-3.558,1.6459501,8.148001
1679930616119,1110604473311045,-3.5389502,1.7040001,8.10705
1679930616123,1110604475813117,-3.5839503,1.66305,8.11905
1679930616126,1110604478314194,-3.65805,1.7010001,8.071051
1679930616126,1110604480815271,-3.6540003,1.70595,8.17905
1679930616129,1110604483319348,-3.7090502,1.641,8.128051
1679930616131,1110604485821732,-3.6370502,1.6150501,8.148001
1679930616133,1110604488323655,-3.5839503,1.644,8.266951
1679930616135,1110604490825785,-3.5749502,1.7160001,8.092051
1679930616137,1110604493327862,-3.5959501,1.6560001,8.227051
1679930616141,1110604495830016,-3.4840503,1.677,8.161051
1679930616143,1110604498332170,-3.5410502,1.70895,8.14005
1679930616145,1110604500834098,-3.45195,1.6849501,8.149051
1679930616148,1110604503336483,-3.4450502,1.7160001,8.134951
1679930616152,1110604505838406,-3.486,1.7230501,8.191051
1679930616153,1110604508340560,-3.4380002,1.8259501,8.16705
1679930616155,1110604510842636,-3.486,1.797,8.260051
1679930616159,1110604513344785,-3.4639502,1.8210001,8.269951
1679930616162,1110604515846939,-3.4669502,1.70895,8.358001
1679930616164,1110604518348862,-3.5029502,1.7370001,8.34405
1679930616165,1110604520851016,-3.4120502,1.7880001,8.29605
1679930616168,1110604523353170,-3.55095,1.8210001,8.385
1679930616171,1110604525855324,-3.4429502,1.7520001,8.277
1679930616175,1110604528357478,-3.46005,1.845,8.30805
1679930616176,1110604530859565,-3.48795,1.86195,8.3890505
1679930616178,1110604533361488,-3.5050502,1.74405,8.442
1679930616181,1110604535863872,-3.4960501,1.8690001,8.394
1679930616186,1110604538366026,-3.558,1.86195,8.433001
1679930616188,1110604540867949,-3.4810503,1.77795,8.43
1679930616188,1110604543370103,-3.5770502,1.845,8.394
1679930616191,1110604545872257,-3.5719502,1.7830501,8.44905
1679930616193,1110604548374334,-3.55095,1.8349501,8.55195
1679930616199,1110604550876468,-3.49095,1.7880001,8.611951
1679930616200,1110604553378622,-3.5479503,1.7680501,8.51895
1679930616202,1110604555880775,-3.52905,1.8430501,8.467951
1679930616203,1110604558382698,-3.55095,1.8910501,8.490001
1679930616205,1110604560884852,-3.4960501,1.8589501,8.545051
1679930616208,1110604563386929,-3.6870003,1.8330001,8.610001
1679930616211,1110604565889113,-3.6010501,1.8259501,8.65005
1679930616213,1110604568391036,-3.558,1.89795,8.581051
1679930616216,1110604570893421,-3.6540003,1.89795,8.587951
1679930616218,1110604573395575,-3.591,1.917,8.6980505
1679930616220,1110604575897734,-3.61995,1.8070501,8.67405
1679930616223,1110604578399657,-3.6060002,1.9069501,8.80095
1679930616225,1110604580901734,-3.594,1.8400501,8.694
1679930616228,1110604583403887,-3.6730502,1.797,8.859
1679930616230,1110604585906123,-3.6799502,1.7730001,8.62905
1679930616235,1110604588408200,-3.7180502,1.8259501,8.710051
1679930616236,1110604590910354,-3.69705,1.8400501,8.722051
1679930616238,1110604593412277,-3.6540003,1.78005,8.81595
1679930616240,1110604595914426,-3.73305,1.8349501,8.61705
1679930616243,1110604598416503,-3.6820502,1.8690001,8.62695
1679930616247,1110604600918657,-3.65805,1.89795,8.6650505
1679930616249,1110604603420887,-3.6820502,1.84695,8.559
1679930616251,1110604605922968,-3.6799502,1.9219501,8.53995
1679930616253,1110604608425122,-3.69,1.8430501,8.533051
1679930616255,1110604610927045,-3.6490502,1.9099501,8.6959505
1679930616257,1110604613429199,-3.7090502,1.89495,8.599951
1679930616260,1110604615931291,-3.7729502,1.8379501,8.64795
1679930616263,1110604618433445,-3.6079502,2.05305,8.562
1679930616265,1110604620935676,-3.6660001,1.93605,8.574
1679930616268,1110604623437753,-3.7180502,1.9480501,8.578951
1679930616273,1110604625939906,-3.7570503,2.043,8.490001
1679930616274,1110604628441830,-3.7210503,1.9939501,8.52795
1679930616276,1110604630943983,-3.79695,2.01,8.514
1679930616278,1110604633446137,-3.76395,2.1079502,8.598001
1679930616283,1110604635948291,-3.7710001,2.08905,8.575951
1679930616285,1110604638450450,-3.8479502,2.0700002,8.611951
1679930616286,1110604640952527,-3.8359501,2.11995,8.752951
1679930616288,1110604643454681,-3.8089502,2.0700002,8.68605
1679930616290,1110604645956604,-3.7780502,2.17995,8.6310005
1679930616293,1110604648458762,-3.6370502,2.1780002,8.667001
1679930616295,1110604650960916,-3.7690501,2.1420002,8.64795
1679930616298,1110604653463069,-3.7900503,2.0970001,8.739
1679930616301,1110604655965223,-3.663,2.1060002,8.740951
1679930616303,1110604658467324,-3.7450502,2.11605,8.706
1679930616305,1110604660969247,-3.6660001,2.19,8.75805
1679930616310,1110604663471632,-3.55995,2.1370502,8.722051
1679930616312,1110604665973786,-3.5959501,2.1679502,8.868
1679930616313,1110604668475705,-3.6420002,2.0989501,8.776951
1679930616315,1110604670977859,-3.6460502,2.0629501,8.76105
1679930616326,1110604673479936,-3.62505,2.0730002,8.8279505
1679930616326,1110604675982089,-3.69195,2.09205,8.751
1679930616326,1110604678484046,-3.7540503,2.085,8.79705
1679930616330,1110604680986430,-3.65805,2.0029502,8.81595
1679930616331,1110604683488584,-3.76605,2.0059502,8.73705
1679930616334,1110604685990507,-3.7710001,2.085,8.787001
1679930616336,1110604688492661,-3.7350001,2.17995,8.856
1679930616337,1110604690994733,-3.69705,2.08695,8.79195
1679930616340,1110604693496887,-3.6990001,2.061,8.731951
1679930616341,1110604695999118,-3.6030002,2.05095,8.727
1679930616344,1110604698501194,-3.6660001,2.15895,8.722051
1679930616347,1110604701003334,-3.63,2.18295,8.83695
1679930616350,1110604703505257,-3.69405,2.118,8.752951
1679930616351,1110604706007411,-3.69,2.13,8.751
1679930616354,1110604708509488,-3.66105,2.2069502,8.743951
1679930616355,1110604711011642,-3.5770502,2.11305,8.722051
1679930616358,1110604713513878,-3.6660001,2.1679502,8.67405
1679930616360,1110604716015955,-3.6679502,2.0400002,8.764951
1679930616363,1110604718518109,-3.58905,2.16405,8.81295
1679930616365,1110604721020032,-3.6060002,2.12505,8.908951
1679930616368,1110604723522194,-3.6510003,2.14395,8.809051
1679930616371,1110604726024271,-3.5650501,2.13,9.06
1679930616373,1110604728526502,-3.4999502,2.08005,8.86095
1679930616375,1110604731028656,-3.4620001,2.1709502,8.967
1679930616378,1110604733530733,-3.3330002,2.15595,8.80095
1679930616380,1110604736032666,-3.3229501,2.19195,8.93805
1679930616384,1110604738534820,-3.3949502,2.1060002,8.871
1679930616386,1110604741036974,-3.34695,2.223,8.78205
1679930616388,1110604743539128,-3.3229501,2.16105,8.91405
1679930616391,1110604746041266,-3.3589501,2.1679502,8.895
1679930616393,1110604748543343,-3.4069502,2.1709502,8.77995
1679930616395,1110604751045497,-3.4120502,2.0730002,8.81805
1679930616398,1110604753547651,-3.381,2.1079502,8.734051
1679930616401,1110604756049570,-3.4330502,2.11605,8.80095
1679930616403,1110604758551724,-3.5269501,2.11995,8.80395
1679930616405,1110604761053801,-3.4810503,2.022,8.787001
1679930616408,1110604763556032,-3.4980001,2.0989501,8.77305
1679930616411,1110604766058099,-3.4669502,2.118,8.752951
1679930616413,1110604768560253,-3.5959501,2.05095,8.61495
1679930616415,1110604771062406,-3.6010501,2.022,8.64795
1679930616418,1110604773564329,-3.6079502,2.07495,8.66205
1679930616422,1110604776066478,-3.69,2.1040502,8.563951
1679930616423,1110604778568632,-3.61995,2.1079502,8.62695
1679930616426,1110604781070786,-3.6130502,2.1319501,8.547
1679930616428,1110604783572863,-3.6730502,2.082,8.62695
1679930616431,1110604786075017,-3.62505,2.085,8.607
1679930616433,1110604788577176,-3.7690501,2.0730002,8.60295
1679930616436,1110604791079099,-3.69705,2.16405,8.51895
1679930616438,1110604793581253,-3.69705,1.98405,8.50905
1679930616440,1110604796083406,-3.7759502,2.11995,8.530951
1679930616443,1110604798585550,-3.72795,2.05605,8.48505
1679930616445,1110604801087704,-3.7399502,1.9429501,8.571
1679930616448,1110604803589781,-3.7020001,2.025,8.45895
1679930616451,1110604806091935,-3.7540503,1.9620001,8.490001
1679930616453,1110604808593858,-3.7900503,2.049,8.46405
1679930616455,1110604811096027,-3.76395,2.013,8.512051
1679930616460,1110604813598181,-3.7830002,1.914,8.49495
1679930616462,1110604816100335,-3.8740501,1.9740001,8.61705
1679930616463,1110604818602473,-3.7519503,1.9579501,8.607
1679930616466,1110604821104550,-3.7420502,2.02005,8.607
1679930616469,1110604823606704,-3.6180003,1.9860001,8.59095
1679930616471,1110604826108627,-3.5770502,2.0059502,8.63595
1679930616473,1110604828611012,-3.6079502,1.9050001,8.68605
1679930616475,1110604831112930,-3.594,1.9699501,8.82495
1679930616478,1110604833615084,-3.45495,2.022,8.62395
1679930616481,1110604836117238,-3.4840503,2.022,8.83695
1679930616483,1110604838619315,-3.4669502,2.02005,8.63805
1679930616485,1110604841121468,-3.4050002,1.9699501,8.6959505
1679930616488,1110604843623392,-3.4740002,2.02005,8.719951
1679930616490,1110604846125776,-3.5029502,1.9410001,8.66205
1679930616493,1110604848627930,-3.4740002,2.025,8.752951
1679930616497,1110604851129815,-3.4380002,1.9939501,8.722051
1679930616499,1110604853631969,-3.4740002,2.0070002,8.77005
1679930616501,1110604856134046,-3.5430002,2.025,8.562
1679930616503,1110604858636200,-3.486,2.14905,8.62695
1679930616505,1110604861138123,-3.5050502,1.9579501,8.55195
1679930616509,1110604863640507,-3.5479503,2.046,8.583
1679930616511,1110604866142661,-3.55095,1.9860001,8.67405
1679930616513,1110604868644584,-3.5790002,1.9050001,8.562
1679930616515,1110604871146661,-3.5310001,2.043,8.578951
1679930616518,1110604873648824,-3.519,2.15895,8.48505
1679930616521,1110604876150978,-3.594,2.15595,8.49195
1679930616523,1110604878653132,-3.5430002,2.298,8.514
1679930616525,1110604881155286,-3.63,2.322,8.53995
1679930616528,1110604883657209,-3.6820502,2.30205,8.60505
1679930616531,1110604886159373,-3.76095,2.283,8.734051
1679930616534,1110604888661527,-3.69195,2.12805,8.83695
1679930616536,1110604891163680,-3.69405,2.08695,8.95005
1679930616538,1110604893665757,-3.6130502,1.9050001,8.823
1679930616541,1110604896167906,-3.5269501,1.9380001,8.93295
1679930616543,1110604898669829,-3.52395,1.7560501,8.823
1679930616546,1110604901171983,-3.4669502,1.8349501,8.77995
1679930616549,1110604903674137,-3.4620001,1.86405,8.62395
1679930616551,1110604906176261,-3.4980001,1.95,8.63595
1679930616553,1110604908678338,-3.4330502,2.0269501,8.530951
1679930616556,1110604911180492,-3.5530503,2.0650501,8.530951
1679930616559,1110604913682645,-3.49095,2.11095,8.547
1679930616561,1110604916184795,-3.5820003,2.11605,8.575951
1679930616563,1110604918686718,-3.6730502,2.0989501,8.65995
1679930616566,1110604921188795,-3.5530503,2.11305,8.658
1679930616568,1110604923691026,-3.5770502,2.08905,8.68395
1679930616572,1110604926193160,-3.5650501,2.0970001,8.622001
1679930616574,1110604928695237,-3.5149503,2.0320501,8.734051
1679930616576,1110604931197391,-3.5170503,2.14905,8.743951
1679930616578,1110604933699545,-3.5340002,2.2399502,8.719951
1679930616582,1110604936201468,-3.5269501,2.2789502,8.746051
1679930616584,1110604938703621,-3.594,2.3770502,8.743951
1679930616586,1110604941205775,-3.5629501,2.17995,8.908951
1679930616588,1110604943707929,-3.62505,2.1660001,8.80395
1679930616591,1110604946210006,-3.6010501,2.09205,8.866051
1679930616593,1110604948712194,-3.555,2.1420002,8.706
1679930616596,1110604951214117,-3.5269501,2.0629501,8.78505
1679930616598,1110604953716271,-3.4380002,1.9720501,8.66205
1679930616602,1110604956218420,-3.5629501,2.02905,8.62695
1679930616604,1110604958720574,-3.486,1.99995,8.65305
1679930616605,1110604961222727,-3.519,2.022,8.514
1679930616610,1110604963724804,-3.519,2.1010501,8.569051
1679930616612,1110604966226972,-3.58905,2.1760502,8.562
1679930616614,1110604968728895,-3.5149503,2.22795,8.55
1679930616616,1110604971231049,-3.5770502,2.11605,8.554951
1679930616618,1110604973733434,-3.5670002,2.07495,8.545051
1679930616621,1110604976235357,-3.5530503,2.0070002,8.563951
1679930616623,1110604978737521,-3.5770502,2.02005,8.67195
1679930616625,1110604981239598,-3.5650501,2.0029502,8.6980505
1679930616628,1110604983741751,-3.55995,1.9530001,8.809051
1679930616631,1110604986243675,-3.6439502,1.9429501,8.75805
1679930616636,1110604988746068,-3.5170503,1.9740001,8.703
1679930616637,1110604991248222,-3.5959501,1.9050001,8.6650505
1679930616639,1110604993750145,-3.6079502,2.01705,8.739
1679930616641,1110604996252299,-3.5700002,1.9909501,8.619
1679930616643,1110604998754381,-3.6150002,1.98405,8.63595
1679930616647,1110605001256535,-3.5959501,1.96695,8.707951
1679930616649,1110605003758458,-3.6030002,1.9699501,8.75805
1679930616652,1110605006260842,-3.58905,1.99995,8.6650505
1679930616653,1110605008762996,-3.6439502,2.0389502,8.743951
1679930616655,1110605011264919,-3.6150002,2.0329502,8.859
1679930616658,1110605013766996,-3.5460002,1.98405,8.715
1679930616661,1110605016269150,-3.5119503,1.98195,8.811001
1679930616663,1110605018771304,-3.5410502,1.9770001,8.76105
1679930616666,1110605021273559,-3.3709502,2.1079502,8.764951
1679930616668,1110605023775636,-3.45705,2.05095,8.6959505
1679930616672,1110605026277559,-3.3949502,1.9960501,8.715
1679930616678,1110605028779713,-3.4330502,2.1780002,8.691
1679930616678,1110605031281800,-3.4020002,2.0770502,8.713051
1679930616678,1110605033783953,-3.417,2.05605,8.63805
1679930616681,1110605036286107,-3.357,2.1319501,8.563951
1679930616685,1110605038788314,-3.49305,2.1370502,8.62395
1679930616686,1110605041290391,-3.4330502,2.02905,8.646001
1679930616688,1110605043792314,-3.5359502,2.043,8.587951
1679930616691,1110605046294468,-3.594,2.061,8.55
1679930616693,1110605048796622,-3.6010501,1.9860001,8.586
1679930616696,1110605051298689,-3.5359502,2.11605,8.6310005
1679930616698,1110605053800843,-3.55095,2.0269501,8.65005
1679930616701,1110605056302996,-3.55095,2.094,8.581051
1679930616703,1110605058805150,-3.65595,2.0269501,8.691
1679930616705,1110605061307078,-3.5959501,2.0629501,8.658
1679930616708,1110605063809232,-3.594,2.118,8.6650505
1679930616711,1110605066311386,-3.6340501,2.16405,8.658
1679930616714,1110605068813463,-3.5629501,2.0680501,8.62695
1679930616716,1110605071315724,-3.6420002,2.09205,8.68395
1679930616718,1110605073817801,-3.65595,2.118,8.691
1679930616724,1110605076319955,-3.6679502,2.2470002,8.764951
1679930616726,1110605078822108,-3.5029502,2.18805,8.751
1679930616727,1110605081324032,-3.5410502,2.14695,8.809051
1679930616729,1110605083826185,-3.5629501,2.2069502,8.775001
1679930616731,1110605086328262,-3.4620001,2.1780002,8.731951
1679930616735,1110605088830493,-3.45195,2.17995,8.6980505
1679930616737,1110605091332570,-3.45195,2.1780002,8.707951
1679930616738,1110605093834733,-3.4620001,2.1400502,8.821051
1679930616741,1110605096336887,-3.4669502,2.15895,8.72505
1679930616743,1110605098838810,-3.417,2.1730502,8.746051
1679930616746,1110605101340964,-3.45495,2.14395,8.739
1679930616748,1110605103843051,-3.3589501,2.20005,8.73705
1679930616751,1110605106345281,-3.3589501,2.0989501,8.703
1679930616753,1110605108847358,-3.38505,2.2039502,8.718
1679930616758,1110605111349512,-3.3280501,2.1400502,8.682
1679930616760,1110605113851651,-3.3090003,2.0070002,8.743951
1679930616763,1110605116353574,-3.3060002,1.9650002,8.811001
1679930616764,1110605118855728,-3.2029502,2.05605,8.715
1679930616766,1110605121357882,-3.2059503,2.0730002,8.707951
1679930616768,1110605123859959,-3.1390502,2.0730002,8.677051
1679930616771,1110605126362099,-3.11205,2.0629501,8.82495
1679930616773,1110605128864252,-3.2029502,2.02905,8.740951
1679930616776,1110605131366406,-3.1720502,2.0650501,8.73705
1679930616778,1110605133868560,-3.2659502,1.9699501,8.80095
1679930616781,1110605136370483,-3.2320502,2.0059502,8.7289505
1679930616783,1110605138872637,-3.3400502,1.9980001,8.743951
1679930616786,1110605141374714,-3.321,2.049,8.78505
1679930616788,1110605143876868,-3.3060002,2.01,8.727
1679930616791,1110605146379022,-3.22305,2.022,8.835
1679930616793,1110605148881157,-3.2920501,1.9740001,8.743951
1679930616797,1110605151383310,-3.2299502,1.99995,8.77995
1679930616799,1110605153885233,-3.27795,1.9740001,8.80095
1679930616802,1110605156387363,-3.246,1.89495,8.809051
1679930616804,1110605158889517,-3.177,2.0329502,8.77005
1679930616806,1110605161391594,-3.21105,1.86195,8.896951
1679930616808,1110605163893748,-3.2250001,2.01705,8.743951
1679930616811,1110605166395902,-3.354,1.9579501,8.821051
1679930616813,1110605168898056,-3.3640501,1.8880501,8.689051
1679930616816,1110605171399979,-3.4690502,1.9099501,8.751
1679930616818,1110605173902133,-3.3660002,1.8910501,8.710051
1679930616821,1110605176404286,-3.4810503,1.9240501,8.55195
1679930616823,1110605178906377,-3.5170503,1.8910501,8.643001
1679930616826,1110605181408608,-3.3640501,1.9720501,8.719951
1679930616828,1110605183910685,-3.5149503,1.9620001,8.710051
1679930616831,1110605186412839,-3.5359502,1.9650002,8.706
1679930616835,1110605188914767,-3.4999502,2.013,8.65305
1679930616837,1110605191416921,-3.4999502,2.0059502,8.64795
1679930616838,1110605193919075,-3.52395,2.0370002,8.59095
1679930616841,1110605196421152,-3.4980001,1.99995,8.706
1679930616843,1110605198923305,-3.5119503,2.0329502,8.694
1679930616848,1110605201425435,-3.5410502,1.89495,8.65005
1679930616849,1110605203927589,-3.486,1.9240501,8.64795
1679930616851,1110605206429743,-3.4840503,1.9240501,8.62905
1679930616853,1110605208931666,-3.4789503,1.9770001,8.713051
1679930616856,1110605211433743,-3.4620001,1.9480501,8.682
1679930616859,1110605213935925,-3.5100002,1.9030501,8.65305
1679930616861,1110605216438156,-3.4999502,2.0029502,8.6959505
1679930616863,1110605218940233,-3.519,1.9699501,8.83005
1679930616866,1110605221442386,-3.4740002,1.8859501,8.658
1679930616868,1110605223944291,-3.4810503,1.9480501,8.607
1679930616873,1110605226446444,-3.3970501,2.0029502,8.79195
1679930616875,1110605228948521,-3.38505,1.9339501,8.79195
1679930616877,1110605231450752,-3.41895,1.9410001,8.81595
1679930616878,1110605233952906,-3.357,1.8930001,8.79405
1679930616881,1110605236454983,-3.31095,1.95,8.871
1679930616883,1110605238957137,-3.38295,1.9480501,8.842051
1679930616886,1110605241459060,-3.2970002,1.9410001,8.776951
1679930616889,1110605243961214,-3.3420002,2.02005,8.691
1679930616891,1110605246463358,-3.321,1.99995,8.6980505
1679930616893,1110605248965511,-3.3019502,2.1010501,8.64795
1679930616896,1110605251467665,-3.27795,2.05305,8.707951
1679930616898,1110605253969742,-3.31395,1.9770001,8.62395
1679930616902,1110605256471896,-3.2700002,2.01495,8.65995
1679930616903,1110605258973819,-3.3280501,2.1010501,8.703
1679930616906,1110605261475973,-3.321,2.0059502,8.727
1679930616910,1110605263978344,-3.3040502,2.0059502,8.7630005
1679930616913,1110605266480267,-3.2629502,2.08005,8.866051
1679930616914,1110605268982420,-3.25605,2.094,8.895
1679930616916,1110605271484497,-3.42405,1.9650002,8.88
1679930616919,1110605273986651,-3.3259501,2.0029502,8.76105
1679930616921,1110605276488560,-3.3949502,1.9939501,8.83695
1679930616923,1110605278990714,-3.4069502,1.98405,8.67405
1679930616926,1110605281493099,-3.4620001,1.917,8.701051
1679930616929,1110605283995022,-3.4020002,1.8330001,8.775001
1679930616931,1110605286497079,-3.41895,1.89795,8.77995
1679930616935,1110605288999233,-3.4279501,1.86195,8.78205
1679930616936,1110605291501387,-3.52905,1.8520501,8.89995
1679930616938,1110605294003540,-3.38505,1.8379501,8.76105
1679930616941,1110605296505463,-3.3949502,1.8499501,8.896951
1679930616943,1110605299007839,-3.3949502,1.7710501,8.78895
1679930616947,1110605301509762,-3.4960501,1.881,8.80605
1679930616950,1110605304011839,-3.3949502,1.8760501,8.871
1679930616952,1110605306514002,-3.45495,1.9240501,8.78205
1679930616953,1110605309016156,-3.4360502,1.917,8.658
1679930616956,1110605311518310,-3.42405,1.95,8.706
1679930616959,1110605314020464,-3.5310001,2.0389502,8.72505
1679930616961,1110605316522387,-3.5100002,1.9939501,8.713051
1679930616964,1110605319024550,-3.4450502,2.0059502,8.727
1679930616966,1110605321526704,-3.4639502,1.96695,8.78505
1679930616969,1110605324028781,-3.4069502,1.9290001,8.731951
1679930616972,1110605326530935,-3.4069502,1.9860001,8.731951
1679930616974,1110605329032887,-3.4810503,2.049,8.7289505
1679930616976,1110605331535272,-3.49095,1.9909501,8.7289505
1679930616979,1110605334037195,-3.5170503,1.98195,8.811001
1679930616981,1110605336539349,-3.522,2.0320501,8.734051
1679930616985,1110605339041522,-3.4450502,2.0320501,8.60295
1679930616987,1110605341543599,-3.4309502,2.1060002,8.63805
1679930616988,1110605344045752,-3.4720502,2.118,8.66205
1679930616993,1110605346547675,-3.5719502,2.118,8.575951
1679930616994,1110605349050060,-3.4690502,2.05305,8.578951
1679930616996,1110605351551978,-3.5100002,2.07495,8.689051
1679930616999,1110605354054132,-3.4620001,2.09205,8.79195
1679930617001,1110605356556209,-3.519,1.93605,8.611951
1679930617004,1110605359058440,-3.45195,2.0059502,8.734051
1679930617006,1110605361560575,-3.594,1.9069501,8.6650505
1679930617009,1110605364062651,-3.5100002,1.9219501,8.6310005
1679930617011,1110605366564575,-3.4120502,2.0070002,8.743951
1679930617014,1110605369066728,-3.42105,1.9980001,8.611951
1679930617016,1110605371568810,-3.2940001,1.9789501,8.79405
1679930617018,1110605374071041,-3.4020002,1.9380001,8.847
1679930617023,1110605376573195,-3.3949502,1.9860001,8.743951
1679930617024,1110605379075272,-3.381,1.98195,8.80605
1679930617026,1110605381577416,-3.3060002,1.9050001,8.743951
1679930617029,1110605384079339,-3.3690002,1.8739501,8.76105
1679930617031,1110605386581493,-3.4120502,1.81605,8.731951
1679930617036,1110605389083647,-3.417,1.7370001,8.722051
1679930617037,1110605391585800,-3.5029502,1.8210001,8.595
1679930617039,1110605394087954,-3.5170503,1.7899501,8.764951
1679930617041,1110605396590031,-3.55995,1.74195,8.619
1679930617043,1110605399092185,-3.5479503,1.7710501,8.64105
1679930617046,1110605401594108,-3.6010501,1.7920501,8.655001
1679930617052,1110605404096272,-3.6109502,1.6870501,8.715
1679930617053,1110605406598426,-3.5770502,1.8019501,8.677051
1679930617054,1110605409100580,-3.6079502,1.8190501,8.599951
1679930617056,1110605411602734,-3.66105,1.8880501,8.55
1679930617060,1110605414104785,-3.58905,1.7590501,8.595
1679930617063,1110605416606939,-3.4999502,1.9380001,8.587951
1679930617065,1110605419108862,-3.5629501,1.8739501,8.706
1679930617066,1110605421611016,-3.6010501,1.9740001,8.67405
1679930617069,1110605424113410,-3.58905,2.0029502,8.49195
1679930617071,1110605426615333,-3.5700002,2.0400002,8.65995
1679930617074,1110605429117410,-3.5989501,2.0989501,8.49705
1679930617076,1110605431619564,-3.6319501,2.12805,8.578951
1679930617079,1110605434121752,-3.5820003,2.08905,8.731951
1679930617081,1110605436623905,-3.5269501,2.2090502,8.643001
1679930617084,1110605439125829,-3.4690502,2.2429502,8.61705
1679930617086,1110605441627982,-3.5100002,2.18505,8.562
1679930617089,1110605444130150,-3.55095,2.16405,8.79705
1679930617092,1110605446632304,-3.5650501,2.2810502,8.6959505
1679930617094,1110605449134381,-3.55095,2.19195,8.718
1679930617097,1110605451636535,-3.48795,2.22105,8.59305
1679930617101,1110605454138713,-3.5100002,2.19,8.611951
1679930617103,1110605456640636,-3.5119503,2.18295,8.679001
1679930617104,1110605459142790,-3.46005,2.14905,8.6310005
1679930617106,1110605461644943,-3.5050502,2.18505,8.77005
1679930617109,1110605464147097,-3.4090502,2.0989501,8.703
1679930617113,1110605466649184,-3.3610501,2.11605,8.64105
1679930617114,1110605469151338,-3.3730502,2.154,8.75595
1679930617118,1110605471653261,-3.41895,2.1349502,8.78895
1679930617119,1110605474155646,-3.3060002,2.11995,8.752951
1679930617123,1110605476657554,-3.2680502,2.0370002,8.722051
1679930617125,1110605479159708,-3.3229501,2.046,8.82495
1679930617128,1110605481661862,-3.2629502,1.9549501,8.83695
1679930617129,1110605484163939,-3.3300002,1.9909501,8.787001
1679930617131,1110605486666111,-3.3420002,2.02905,8.75805
1679930617135,1110605489168034,-3.417,2.085,8.731951
1679930617137,1110605491670419,-3.4020002,1.9189501,8.811001
1679930617138,1110605494172573,-3.38805,1.9939501,8.75595
1679930617141,1110605496674496,-3.42105,1.9410001,8.80605
1679930617143,1110605499176646,-3.4399502,1.95,8.734051
1679930617146,1110605501678723,-3.4120502,1.9290001,8.83695
1679930617148,1110605504180877,-3.45705,1.8910501,8.839951
1679930617151,1110605506683031,-3.4360502,2.01,8.839951
1679930617154,1110605509185169,-3.48795,1.9860001,8.74905
1679930617156,1110605511687323,-3.45495,1.98405,8.81595
1679930617159,1110605514189246,-3.5269501,2.043,8.740951
1679930617162,1110605516691323,-3.5700002,2.07495,8.854051
1679930617164,1110605519193472,-3.4980001,2.02005,8.72505
1679930617166,1110605521695626,-3.522,2.0370002,8.887951
1679930617169,1110605524197780,-3.5790002,2.05095,8.787001
1679930617173,1110605526699930,-3.52905,1.99995,8.78505
1679930617175,1110605529201853,-3.52395,2.013,8.839951
1679930617177,1110605531704007,-3.52905,2.1079502,8.67
1679930617178,1110605534206084,-3.4740002,2.01705,8.844001
1679930617181,1110605536708237,-3.522,1.9699501,8.7630005
1679930617183,1110605539210395,-3.52395,1.9410001,8.79405
1679930617186,1110605541712549,-3.46005,1.8880501,8.79705
1679930617188,1110605544214703,-3.519,1.9740001,8.84895
1679930617191,1110605546716626,-3.4050002,1.9219501,8.832001
1679930617193,1110605549218766,-3.4450502,1.86195,8.80395
1679930617196,1110605551720920,-3.4050002,1.9650002,8.679001
1679930617198,1110605554222997,-3.4120502,1.8910501,8.667001
1679930617202,1110605556725227,-3.4450502,1.9339501,8.764951
1679930617204,1110605559227309,-3.4840503,2.0059502,8.6980505
1679930617206,1110605561729463,-3.5989501,1.86705,8.68395
1679930617211,1110605564231386,-3.6150002,2.0389502,8.689051
1679930617213,1110605566733540,-3.58695,2.02905,8.701051
1679930617214,1110605569235708,-3.6130502,2.0370002,8.892
1679930617216,1110605571737785,-3.555,1.9860001,8.82495
1679930617219,1110605574240016,-3.6079502,2.0029502,8.76105
1679930617223,1110605576742093,-3.5100002,2.11605,8.916
1679930617224,1110605579244016,-3.3970501,2.1010501,8.809051
1679930617226,1110605581746205,-3.4069502,2.09205,8.77995
1679930617229,1110605584248589,-3.4669502,2.16405,8.79405
1679930617231,1110605586750512,-3.354,2.085,8.81805
1679930617234,1110605589252666,-3.45495,2.15205,8.84895
1679930617236,1110605591754820,-3.4740002,2.13,8.875951
1679930617239,1110605594256897,-3.46005,2.08905,8.86095
1679930617241,1110605596758820,-3.45705,2.16105,8.872951
1679930617244,1110605599260974,-3.4020002,2.118,8.86095
1679930617249,1110605601763348,-3.4069502,2.08005,8.79195
1679930617252,1110605604265272,-3.38805,2.08695,8.907001
1679930617254,1110605606767425,-3.38295,2.013,8.91195
1679930617255,1110605609269502,-3.31395,2.049,8.916
1679930617256,1110605611771656,-3.4000502,2.0370002,8.77005
1679930617259,1110605614273805,-3.4279501,2.046,8.904
1679930617262,1110605616775959,-3.4090502,2.013,8.92605
1679930617264,1110605619278113,-3.4069502,1.95,8.77305
1679930617266,1110605621780036,-3.4380002,1.9219501,8.80605
1679930617269,1110605624282181,-3.5100002,1.881,8.81805
1679930617271,1110605626784258,-3.4639502,1.9549501,8.907001
1679930617274,1110605629286411,-3.4690502,1.9620001,8.83005
1679930617276,1110605631788565,-3.5149503,1.8760501,8.694
1679930617280,1110605634290723,-3.39,1.9740001,8.740951
1679930617282,1110605636792877,-3.5170503,1.9410001,8.701051
1679930617287,1110605639294800,-3.4810503,1.9069501,8.751
1679930617288,1110605641796954,-3.45495,1.9720501,8.896951
1679930617289,1110605644299031,-3.46005,1.9579501,8.6959505
1679930617291,1110605646801176,-3.4090502,2.01,8.863951
1679930617294,1110605649303330,-3.3970501,2.01705,8.706
1679930617296,1110605651805483,-3.3370502,2.11095,8.77995
1679930617302,1110605654307406,-3.3660002,1.9429501,8.707951
1679930617303,1110605656809555,-3.3660002,1.9789501,8.77995
1679930617304,1110605659311709,-3.417,2.02905,8.73705
1679930617306,1110605661813863,-3.357,2.09205,8.77995
1679930617309,1110605664315940,-3.381,2.058,8.847
1679930617311,1110605666818094,-3.4069502,2.09205,8.694
1679930617314,1110605669320248,-3.3090003,1.9339501,8.677051
1679930617316,1110605671822402,-3.3930001,2.058,8.64105
1679930617319,1110605674324325,-3.5029502,2.0389502,8.727
1679930617324,1110605676826478,-3.417,1.9549501,8.710051
1679930617325,1110605679328555,-3.4480503,2.1060002,8.610001
1679930617326,1110605681830709,-3.4020002,2.29095,8.533051
1679930617329,1110605684332863,-3.486,2.427,8.61705
1679930617331,1110605686835007,-3.6079502,2.403,8.722051
1679930617334,1110605689337161,-3.6030002,2.4049501,8.6959505
1679930617336,1110605691839084,-3.76605,2.22795,8.844001
1679930617339,1110605694341238,-3.6799502,2.19705,8.907001
1679930617341,1110605696843315,-3.6079502,2.01,8.896951
1679930617343,1110605699345479,-3.555,1.9770001,8.91405
1679930617346,1110605701847632,-3.4480503,2.0059502,8.98095
1679930617349,1110605704349786,-3.34905,1.9219501,9.055051
1679930617352,1110605706851940,-3.249,1.9650002,9.0720005
1679930617354,1110605709353872,-3.18705,1.95,8.866051
1679930617356,1110605711856026,-3.1990502,2.12805,8.8279505
1679930617362,1110605714358103,-3.15105,2.0389502,8.859
1679930617363,1110605716860354,-3.2010002,2.11305,8.7630005
1679930617365,1110605719362508,-3.25605,2.1400502,8.856
1679930617366,1110605721864584,-3.2920501,2.15205,8.77305
1679930617369,1110605724366738,-3.3370502,2.14395,8.86095
1679930617371,1110605726868661,-3.354,2.0370002,8.856
1679930617374,1110605729370800,-3.45495,1.9909501,8.871
1679930617376,1110605731872877,-3.4090502,1.8690001,8.94495
1679930617379,1110605734375108,-3.45195,1.9290001,8.98305
1679930617381,1110605736877185,-3.42405,1.98195,8.952001
1679930617384,1110605739379339,-3.3660002,1.89795,8.991
1679930617387,1110605741881253,-3.4120502,1.8760501,9.09795
1679930617392,1110605744383407,-3.3930001,1.9549501,8.986051
1679930617394,1110605746885561,-3.3640501,2.0370002,8.91195
1679930617394,1110605749387714,-3.4740002,2.0370002,8.96205
1679930617399,1110605751889858,-3.417,2.094,9.04605
1679930617402,1110605754391935,-3.4840503,1.9549501,8.99505
1679930617403,1110605756894089,-3.4360502,2.08005,8.952001
1679930617404,1110605759396012,-3.4330502,2.02905,8.875951
1679930617406,1110605761898156,-3.4090502,2.11995,8.776951
1679930617410,1110605764400310,-3.38295,2.0029502,8.821051
1679930617412,1110605766902464,-3.4840503,2.15595,8.809051
1679930617414,1110605769404618,-3.426,2.022,8.859
1679930617416,1110605771906680,-3.4309502,2.08905,8.851951
1679930617420,1110605774408834,-3.5530503,2.14695,8.764951
1679930617421,1110605776910988,-3.4279501,2.1319501,8.752951
1679930617424,1110605779412911,-3.5080502,2.1079502,8.743951
1679930617426,1110605781915065,-3.63,2.0370002,8.610001
1679930617431,1110605784417219,-3.61995,2.1349502,8.68605
1679930617434,1110605786919373,-3.6439502,2.15595,8.75595
1679930617435,1110605789421450,-3.6870003,2.1660001,8.67405
1679930617437,1110605791923618,-3.6679502,2.23095,8.715
1679930617440,1110605794425771,-3.6679502,2.1679502,8.707951
1679930617442,1110605796927695,-3.7090502,2.1709502,8.76795
1679930617444,1110605799429848,-3.7849503,2.18295,8.634001
1679930617446,1110605801932002,-3.663,2.15895,8.75805
1679930617450,1110605804434147,-3.6340501,2.14695,8.62695
1679930617453,1110605806936224,-3.6439502,2.15595,8.530951
1679930617454,1110605809438378,-3.7110002,2.2470002,8.694
1679930617456,1110605811940532,-3.5989501,2.08905,8.713051
1679930617460,1110605814442666,-3.69405,2.11095,8.68395
1679930617462,1110605816944589,-3.7159503,2.1709502,8.76795
1679930617464,1110605819446742,-3.6439502,2.094,8.863951
1679930617466,1110605821948819,-3.6060002,1.9699501,8.78205
1679930617470,1110605824450959,-3.58905,1.9600501,8.821051
1679930617474,1110605826953113,-3.5719502,1.95,8.859
1679930617475,1110605829455267,-3.4450502,2.013,8.943001
1679930617477,1110605831957421,-3.486,1.9980001,8.93805
1679930617480,1110605834459353,-3.426,1.8760501,8.952001
1679930617482,1110605836961430,-3.426,1.914,8.83695
1679930617485,1110605839463584,-3.45195,1.8690001,8.859
1679930617486,1110605841965738,-3.5479503,1.9030501,8.79705
1679930617490,1110605844467968,-3.5029502,1.8259501,8.859
1679930617493,1110605846970026,-3.4639502,1.8070501,8.811001
1679930617494,1110605849472180,-3.5050502,1.7590501,8.896951
1679930617496,1110605851974103,-3.5119503,1.86405,8.811001
1679930617499,1110605854476257,-3.4840503,1.7040001,8.832001
1679930617502,1110605856978334,-3.4380002,1.7659501,8.78895
1679930617504,1110605859480565,-3.4620001,1.8349501,8.83005
1679930617508,1110605861982719,-3.4050002,1.8019501,8.734051
1679930617512,1110605864484810,-3.3930001,1.8520501,8.722051
1679930617514,1110605866986733,-3.45195,1.8570001,8.6959505
1679930617516,1110605869488886,-3.4740002,1.8910501,8.63595
1679930617518,1110605871991040,-3.4399502,1.8690001,8.706
1679930617519,1110605874493117,-3.4360502,1.89795,8.76105
1679930617522,1110605876995247,-3.4999502,1.86705,8.598001
1679930617524,1110605879497324,-3.3709502,1.89495,8.60505
1679930617526,1110605881999478,-3.42405,1.89495,8.73705
1679930617530,1110605884501401,-3.4279501,1.90005,8.67
1679930617533,1110605887003555,-3.3970501,1.8589501,8.707951
1679930617535,1110605889505714,-3.5410502,1.83105,8.746051
1679930617536,1110605892007791,-3.4980001,1.8790501,8.694
1679930617541,1110605894510021,-3.4330502,1.881,8.76105
1679930617542,1110605897012098,-3.49305,1.9579501,8.764951
1679930617544,1110605899514262,-3.4669502,1.9219501,8.739
1679930617550,1110605902016416,-3.5080502,1.89495,8.751
1679930617554,1110605904518339,-3.5050502,1.881,8.646001
1679930617554,1110605907020493,-3.5460002,1.84695,8.73705
1679930617556,1110605909522642,-3.5820003,1.9380001,8.667001
1679930617557,1110605912024796,-3.6420002,1.8520501,8.694
1679930617560,1110605914526872,-3.6420002,1.89495,8.62395
1679930617562,1110605917029026,-3.7020001,1.78005,8.68605
1679930617564,1110605919531180,-3.759,1.7899501,8.65005
1679930617566,1110605922033113,-3.7369502,1.7659501,8.7630005
1679930617570,1110605924535190,-3.69705,1.812,8.679001
1679930617573,1110605927037421,-3.6870003,1.713,8.703
1679930617574,1110605929539575,-3.62505,1.8090001,8.76795
1679930617576,1110605932041647,-3.48795,1.81605,8.6310005
1679930617580,1110605934543801,-3.5719502,1.7400001,8.64795
1679930617582,1110605937045724,-3.5029502,1.7920501,8.598001
1679930617586,1110605939547878,-3.4669502,1.78005,8.598001
1679930617587,1110605942049954,-3.49095,1.8690001,8.562
1679930617590,1110605944552185,-3.3930001,1.90005,8.646001
1679930617592,1110605947054339,-3.6180003,1.84695,8.691
1679930617594,1110605949556416,-3.5790002,1.86195,8.706
1679930617597,1110605952058570,-3.6030002,1.7710501,8.821051
1679930617600,1110605954560512,-3.58695,1.6530001,8.908951
1679930617602,1110605957062666,-3.5629501,1.6459501,8.82495
1679930617604,1110605959564820,-3.5629501,1.5820501,8.81595
1679930617606,1110605962066974,-3.6150002,1.58595,8.72505
1679930617610,1110605964569127,-3.7129502,1.58595,8.746051
1679930617612,1110605967071189,-3.6660001,1.5270001,8.694
1679930617614,1110605969573343,-3.6390002,1.58595,8.542951
1679930617618,1110605972075266,-3.5770502,1.6180501,8.48295
1679930617620,1110605974577420,-3.6510003,1.66305,8.37705
1679930617624,1110605977079801,-3.66105,1.6650001,8.530951
1679930617625,1110605979581724,-3.5149503,1.641,8.53995
1679930617627,1110605982083878,-3.5050502,1.62195,8.63595
1679930617630,1110605984585955,-3.45705,1.70895,8.557051
1679930617632,1110605987088127,-3.45495,1.641,8.64105
1679930617634,1110605989590051,-3.5430002,1.6200001,8.6650505
1679930617637,1110605992092435,-3.522,1.6129501,8.77305
1679930617640,1110605994594589,-3.5410502,1.5190501,8.6650505
1679930617642,1110605997096521,-3.49095,1.5340501,8.7630005
1679930617644,1110605999598598,-3.5310001,1.4950501,8.65995
1679930617646,1110606002100752,-3.5050502,1.5769501,8.703
1679930617651,1110606004602906,-3.4429502,1.52205,8.571
1679930617652,1110606007105051,-3.4740002,1.5460501,8.530951
1679930617654,1110606009607204,-3.3949502,1.50495,8.51595
1679930617656,1110606012109127,-3.4669502,1.5769501,8.619
1679930617661,1110606014611281,-3.3709502,1.6680001,8.50695
1679930617663,1110606017113358,-3.426,1.6489501,8.554951
1679930617664,1110606019615512,-3.3660002,1.488,8.545051
1679930617666,1110606022117666,-3.4020002,1.4980501,8.571
1679930617670,1110606024619589,-3.3400502,1.5820501,8.466001
1679930617672,1110606027121983,-3.282,1.6699501,8.512051
1679930617674,1110606029623906,-3.3730502,1.54305,8.586
1679930617677,1110606032126060,-3.3780003,1.52205,8.569051
1679930617680,1110606034628213,-3.4050002,1.59405,8.48805
1679930617682,1110606037130290,-3.4000502,1.62195,8.559
1679930617684,1110606039632449,-3.4330502,1.5769501,8.68605
1679930617686,1110606042134603,-3.3970501,1.5790501,8.49705
1679930617692,1110606044636757,-3.3949502,1.50705,8.569051
1679930617694,1110606047138791,-3.4789503,1.6650001,8.67
1679930617694,1110606049640945,-3.3780003,1.62705,8.559
1679930617698,1110606052143022,-3.3760502,1.6369501,8.455951
1679930617701,1110606054645253,-3.4690502,1.677,8.658
1679930617702,1110606057147406,-3.3690002,1.7400001,8.574
1679930617705,1110606059649478,-3.49095,1.677,8.598001
1679930617707,1110606062151401,-3.522,1.6609501,8.574
1679930617710,1110606064653555,-3.4690502,1.6680001,8.658
1679930617712,1110606067155709,-3.4980001,1.725,8.587951
1679930617714,1110606069657877,-3.45195,1.7920501,8.6980505
1679930617717,1110606072160031,-3.5149503,1.8259501,8.691
1679930617720,1110606074662185,-3.42405,1.8040501,8.713051
1679930617722,1110606077164262,-3.4840503,1.6870501,8.799001
1679930617725,1110606079666176,-3.555,1.677,8.79195
1679930617727,1110606082168330,-3.5530503,1.74405,8.809051
1679930617731,1110606084670483,-3.5479503,1.6870501,8.79405
1679930617732,1110606087172637,-3.5749502,1.5649501,8.566951
1679930617736,1110606089674771,-3.45705,1.5289501,8.586
1679930617737,1110606092176848,-3.5170503,1.524,8.502001
1679930617741,1110606094679002,-3.5530503,1.42095,8.62395
1679930617742,1110606097181156,-3.5650501,1.47105,8.545051
1679930617745,1110606099683079,-3.55095,1.3279501,8.533051
1679930617747,1110606102185463,-3.4620001,1.43505,8.50695
1679930617753,1110606104687387,-3.486,1.4089501,8.37705
1679930617753,1110606107189540,-3.48795,1.4640001,8.52795
1679930617756,1110606109691617,-3.5100002,1.3780501,8.581051
1679930617757,1110606112193785,-3.4380002,1.5270001,8.45205
1679930617760,1110606114695939,-3.4309502,1.44,8.49495
1679930617762,1110606117197862,-3.5430002,1.452,8.64105
1679930617764,1110606119700247,-3.4690502,1.4620501,8.586
1679930617766,1110606122202170,-3.45495,1.47105,8.62905
1679930617770,1110606124704291,-3.4380002,1.4830501,8.6310005
1679930617773,1110606127206368,-3.4999502,1.5190501,8.51895
1679930617775,1110606129708521,-3.6340501,1.5409501,8.48505
1679930617777,1110606132210685,-3.6319501,1.5960001,8.524051
1679930617780,1110606134712608,-3.5340002,1.6030501,8.545051
1679930617782,1110606137214762,-3.69,1.7659501,8.45205
1679930617784,1110606139716916,-3.5839503,1.7320501,8.578951
1679930617786,1110606142219070,-3.73005,1.728,8.50395
1679930617790,1110606144721237,-3.69405,1.6849501,8.442
1679930617792,1110606147223314,-3.6510003,1.71105,8.48505
1679930617794,1110606149725237,-3.6700501,1.6339501,8.575951
1679930617796,1110606152227621,-3.7369502,1.6129501,8.598001
1679930617800,1110606154729790,-3.73305,1.6969501,8.55195
1679930617803,1110606157231713,-3.4980001,1.6339501,8.599951
1679930617804,1110606159733867,-3.594,1.6339501,8.679001
1679930617807,1110606162235944,-3.6079502,1.644,8.6959505
1679930617812,1110606164738093,-3.5629501,1.6180501,8.66205
1679930617814,1110606167240016,-3.6799502,1.6459501,8.607
1679930617815,1110606169742401,-3.381,1.6099501,8.78205
1679930617818,1110606172244555,-3.3970501,1.728,8.77005
1679930617820,1110606174746478,-3.3660002,1.6489501,8.607
1679930617822,1110606177248631,-3.34905,1.6870501,8.764951
1679930617824,1110606179750708,-3.3640501,1.7710501,8.67195
1679930617827,1110606182252862,-3.4450502,1.797,8.554951
1679930617830,1110606184754785,-3.41895,1.70595,8.68605
1679930617832,1110606187257189,-3.41895,1.6680001,8.679001
1679930617834,1110606189759343,-3.4020002,1.62705,8.634001
1679930617837,1110606192261266,-3.5790002,1.7830501,8.739
1679930617840,1110606194763420,-3.5119503,1.6489501,8.718
1679930617842,1110606197265497,-3.4639502,1.62705,8.775001
1679930617844,1110606199767665,-3.426,1.66305,8.67195
1679930617848,1110606202269895,-3.4740002,1.6180501,8.752951
1679930617852,1110606204771972,-3.5359502,1.6680001,8.79195
1679930617854,1110606207273867,-3.5719502,1.67505,8.799001
1679930617854,1110606209776021,-3.45705,1.77795,8.73705
1679930617857,1110606212278175,-3.5100002,1.725,8.821051
1679930617861,1110606214780252,-3.4759502,1.7950501,8.707951
1679930617862,1110606217282406,-3.52395,1.8259501,8.7630005
1679930617864,1110606219784532,-3.4980001,1.761,8.59095
1679930617866,1110606222286686,-3.5479503,1.8090001,8.559
1679930617870,1110606224788609,-3.55995,1.8400501,8.61495
1679930617872,1110606227290762,-3.52395,1.8499501,8.55195
1679930617875,1110606229792924,-3.5650501,1.8910501,8.607
1679930617878,1110606232295001,-3.591,1.8379501,8.646001
1679930617880,1110606234797232,-3.6990001,1.86705,8.538
1679930617882,1110606237299309,-3.76395,1.8379501,8.500051
1679930617886,1110606239801450,-3.73005,1.8210001,8.60295
1679930617887,1110606242303373,-3.7729502,1.8229501,8.533051
1679930617890,1110606244805527,-3.7900503,1.914,8.533051
1679930617892,1110606247307681,-3.7470002,1.9030501,8.559
1679930617896,1110606249809758,-3.7900503,1.8000001,8.557051
1679930617897,1110606252312001,-3.8500502,1.8229501,8.6310005
1679930617900,1110606254814078,-3.83295,1.8739501,8.59305
1679930617902,1110606257316232,-3.85995,1.8040501,8.562
1679930617904,1110606259818386,-3.8620503,1.7899501,8.66205
1679930617907,1110606262320309,-3.83295,1.8000001,8.691
1679930617910,1110606264822449,-3.83295,1.764,8.622001
1679930617912,1110606267324526,-3.7020001,1.728,8.53995
1679930617915,1110606269826757,-3.7039502,1.8090001,8.67405
1679930617917,1110606272328833,-3.627,1.8570001,8.734051
1679930617919,1110606274830771,-3.6780002,1.7370001,8.719951
1679930617924,1110606277332924,-3.69405,1.845,8.75595
1679930617931,1110606279835309,-3.6870003,1.7560501,8.694
1679930617931,1110606282337222,-3.6730502,1.764,8.67
1679930617931,1110606284839376,-3.76095,1.6870501,8.76795
1679930617932,1110606287341453,-3.7399502,1.6650001,8.710051
1679930617936,1110606289843607,-3.7690501,1.69395,8.8279505
1679930617937,1110606292345530,-3.6990001,1.7040001,8.7630005
1679930617940,1110606294847694,-3.73305,1.8589501,8.887951
1679930617942,1110606297350078,-3.663,1.728,8.88
1679930617945,1110606299852001,-3.7350001,1.8430501,8.79195
1679930617946,1110606302354155,-3.7810502,1.7400001,8.872951
1679930617950,1110606304856242,-3.7540503,1.7010001,8.78205
1679930617952,1110606307358396,-3.7690501,1.7920501,8.8279505
1679930617954,1110606309860319,-3.8190002,1.7880001,8.868
1679930617957,1110606312362704,-3.8260503,1.8709501,8.835
1679930617964,1110606314864853,-3.79695,1.8259501,8.722051
1679930617965,1110606317366776,-3.8190002,1.9650002,8.832001
1679930617966,1110606319868930,-3.7570503,1.8690001,8.776951
1679930617967,1110606322371006,-3.7900503,1.914,8.62905
1679930617970,1110606324873141,-3.8050501,1.9290001,8.682
1679930617972,1110606327375295,-3.8719501,1.9120501,8.67195
1679930617976,1110606329877449,-3.8569503,1.8739501,8.743951
1679930617977,1110606332379372,-3.8689501,1.8829501,8.743951
1679930617980,1110606334881526,-3.8050501,1.9189501,8.715
1679930617982,1110606337383598,-3.7830002,1.9339501,8.78895
1679930617985,1110606339885752,-3.7540503,1.86405,8.655001
1679930617987,1110606342387906,-3.7090502,1.9240501,8.719951
1679930617990,1110606344890136,-3.6679502,1.9260001,8.658
1679930617992,1110606347392218,-3.58905,1.8790501,8.7630005
1679930617994,1110606349894141,-3.5670002,1.89795,8.80095
1679930618000,1110606352396295,-3.5749502,1.8709501,8.78205
1679930618004,1110606354898434,-3.5749502,1.8400501,8.64795
1679930618004,1110606357400511,-3.5410502,1.9579501,8.743951
1679930618005,1110606359902665,-3.5530503,1.89495,8.811001
1679930618008,1110606362404819,-3.5170503,1.9579501,8.65995
1679930618011,1110606364906973,-3.6079502,1.8760501,8.715
1679930618012,1110606367408882,-3.5770502,1.8880501,8.68395
1679930618015,1110606369911035,-3.5119503,1.8790501,8.787001
1679930618019,1110606372413189,-3.4450502,1.7950501,8.65995
1679930618021,1110606374915280,-3.4639502,1.9219501,8.62905
1679930618022,1110606377417434,-3.5170503,1.9410001,8.77005
1679930618024,1110606379919588,-3.4960501,1.8589501,8.799001
1679930618027,1110606382421742,-3.5530503,1.89495,8.701051
1679930618030,1110606384923896,-3.5029502,1.8520501,8.710051
1679930618032,1110606387425838,-3.5269501,1.881,8.701051
1679930618037,1110606389927992,-3.6079502,1.881,8.859
1679930618038,1110606392430069,-3.6370502,1.7659501,8.679001
1679930618041,1110606394932299,-3.62505,1.8229501,8.743951
1679930618043,1110606397434371,-3.6180003,1.812,8.78895
1679930618045,1110606399936525,-3.7060502,1.8000001,8.80605
1679930618047,1110606402438448,-3.6130502,1.8190501,8.863951
1679930618051,1110606404940602,-3.7930503,1.7710501,8.743951
1679930618052,1110606407442679,-3.69705,1.8379501,8.916
1679930618054,1110606409944833,-3.7110002,1.8139501,8.731951
1679930618057,1110606412447064,-3.7129502,1.81605,8.856
1679930618060,1110606414949141,-3.76095,1.8259501,8.751
1679930618062,1110606417451294,-3.7020001,1.7490001,8.713051
1679930618064,1110606419953198,-3.7710001,1.7730001,8.68395
1679930618067,1110606422455352,-3.7210503,1.812,8.79195
1679930618070,1110606424957429,-3.6799502,1.728,8.734051
1679930618074,1110606427459583,-3.66105,1.9050001,8.73705
1679930618076,1110606429961829,-3.6220503,1.8379501,8.694
1679930618078,1110606432463906,-3.6490502,1.8499501,8.79195
1679930618080,1110606434966060,-3.594,1.86195,8.6650505
1679930618082,1110606437467983,-3.6679502,1.917,8.80095
1679930618085,1110606439970142,-3.61995,1.8379501,8.847
1679930618087,1110606442472295,-3.5629501,1.8280501,8.667001
1679930618091,1110606444974449,-3.6390002,1.9050001,8.679001
1679930618092,1110606447476603,-3.627,1.86405,8.703
1679930618094,1110606449978680,-3.6780002,1.812,8.746051
1679930618097,1110606452480848,-3.6870003,1.8499501,8.634001
1679930618101,1110606454982771,-3.6850502,1.9030501,8.73705
1679930618102,1110606457484925,-3.65805,1.89495,8.77005
1679930618105,1110606459987079,-3.6510003,1.8190501,8.67405
1679930618108,1110606462489229,-3.72495,1.7950501,8.752951
1679930618112,1110606464991382,-3.76395,1.8430501,8.79705
1679930618113,1110606467493459,-3.7060502,1.7520001,8.722051
1679930618115,1110606469995613,-3.591,1.797,8.73705
1679930618117,1110606472497536,-3.6420002,1.78005,8.63595
1679930618121,1110606474999675,-3.73005,1.74195,8.62695
1679930618124,1110606477502060,-3.6390002,1.644,8.595
1679930618125,1110606480003983,-3.66105,1.7920501,8.658
1679930618127,1110606482506060,-3.6510003,1.7040001,8.68605
1679930618130,1110606485008214,-3.5749502,1.641,8.65305
1679930618132,1110606487510367,-3.5629501,1.8280501,8.677051
1679930618134,1110606490012521,-3.6420002,1.7400001,8.68605
1679930618137,1110606492514444,-3.61995,1.7950501,8.65305
1679930618140,1110606495016616,-3.5719502,1.845,8.65005
1679930618142,1110606497518770,-3.6370502,1.8070501,8.77005
1679930618144,1110606500020847,-3.555,1.8880501,8.727
1679930618148,1110606502523001,-3.5770502,1.8139501,8.76105
1679930618153,1110606505025142,-3.5629501,1.8739501,8.77005
1679930618154,1110606507527296,-3.5389502,1.8499501,8.80605
1679930618155,1110606510029449,-3.4690502,1.74405,8.64795
1679930618157,1110606512531373,-3.5310001,1.93095,8.63595
1679930618161,1110606515033526,-3.6010501,1.78005,8.703
1679930618163,1110606517535598,-3.5670002,1.8349501,8.67
1679930618164,1110606520037752,-3.52905,1.797,8.61705
1679930618168,1110606522539983,-3.4720502,1.81605,8.598001
1679930618171,1110606525042060,-3.6220503,1.8070501,8.646001
1679930618173,1110606527544195,-3.6079502,1.8019501,8.61705
1679930618174,1110606530046118,-3.52395,1.8090001,8.542951
1679930618177,1110606532548272,-3.5119503,1.7680501,8.586
1679930618180,1110606535050349,-3.5650501,1.7880001,8.667001
1679930618182,1110606537552492,-3.5650501,1.7560501,8.571
1679930618186,1110606540054723,-3.52395,1.83105,8.691
1679930618188,1110606542556800,-3.591,1.7179501,8.578951
1679930618190,1110606545058723,-3.5629501,1.881,8.46405
1679930618192,1110606547560868,-3.5719502,1.84695,8.478001
1679930618194,1110606550063022,-3.6030002,1.8280501,8.59095
1679930618197,1110606552565176,-3.6490502,1.8019501,8.48805
1679930618202,1110606555067330,-3.6150002,1.6990501,8.595
1679930618203,1110606557569387,-3.6439502,1.7830501,8.554951
1679930618205,1110606560071540,-3.6220503,1.7350501,8.611951
1679930618207,1110606562573463,-3.5479503,1.7539501,8.6980505
1679930618210,1110606565075617,-3.55095,1.7520001,8.722051
1679930618212,1110606567577776,-3.5340002,1.7040001,8.859
1679930618214,1110606570079853,-3.5310001,1.67505,8.775001
1679930618217,1110606572582084,-3.5479503,1.6819501,8.682
1679930618220,1110606575084161,-3.65805,1.58895,8.73705
1679930618224,1110606577586334,-3.5269501,1.5820501,8.81595
1679930618225,1110606580088488,-3.5959501,1.6510501,8.703
1679930618227,1110606582590411,-3.5989501,1.5700501,8.80605
1679930618233,1110606585092564,-3.65595,1.608,8.6650505
1679930618235,1110606587594718,-3.7420502,1.55505,8.68605
1679930618237,1110606590096882,-3.6150002,1.6009501,8.701051
1679930618239,1110606592598959,-3.5080502,1.6129501,8.6650505
1679930618241,1110606595101113,-3.6319501,1.71105,8.75595
1679930618243,1110606597603267,-3.5530503,1.71105,8.743951
1679930618244,1110606600105175,-3.52395,1.6489501,8.80605
1679930618247,1110606602607329,-3.5080502,1.7209501,8.667001
1679930618250,1110606605109483,-3.5650501,1.7320501,8.701051
1679930618252,1110606607611636,-3.4759502,1.677,8.706
1679930618254,1110606610113713,-3.45495,1.7659501,8.67195
1679930618257,1110606612615867,-3.5170503,1.74705,8.67405
1679930618262,1110606615118021,-3.6370502,1.713,8.559
1679930618263,1110606617619944,-3.558,1.8040501,8.65995
1679930618265,1110606620122016,-3.5770502,1.8090001,8.658
1679930618267,1110606622624247,-3.6220503,1.78005,8.65305
1679930618270,1110606625126401,-3.4840503,1.7209501,8.707951
1679930618272,1110606627628478,-3.5340002,1.81605,8.679001
1679930618274,1110606630130632,-3.6750002,1.7659501,8.6650505
1679930618277,1110606632632545,-3.6340501,1.7950501,8.66205
1679930618280,1110606635134698,-3.6700501,1.7370001,8.65995
1679930618282,1110606637637083,-3.7159503,1.7040001,8.677051
1679930618284,1110606640139006,-3.6870003,1.7710501,8.65995
1679930618286,1110606642641160,-3.6870003,1.7299501,8.619
1679930618290,1110606645143237,-3.7090502,1.797,8.667001
1679930618292,1110606647645391,-3.7450502,1.7040001,8.65305
1679930618294,1110606650147314,-3.72495,1.728,8.622001
1679930618298,1110606652649459,-3.7060502,1.7179501,8.6650505
1679930618301,1110606655151843,-3.6820502,1.8090001,8.68605
1679930618302,1110606657653766,-3.663,1.7920501,8.65005
1679930618304,1110606660155920,-3.759,1.6609501,8.691
1679930618307,1110606662657997,-3.7369502,1.7539501,8.67
1679930618310,1110606665160136,-3.6700501,1.6699501,8.554951
1679930618312,1110606667662059,-3.69,1.6609501,8.607
1679930618314,1110606670164213,-3.7090502,1.7040001,8.595
1679930618317,1110606672666598,-3.6750002,1.55295,8.6310005
1679930618320,1110606675168526,-3.65805,1.5790501,8.607
1679930618322,1110606677670680,-3.6420002,1.677,8.719951
1679930618324,1110606680172756,-3.594,1.7209501,8.557051
1679930618328,1110606682674910,-3.6700501,1.74405,8.646001
1679930618330,1110606685177069,-3.66105,1.761,8.739
1679930618332,1110606687679223,-3.5670002,1.7209501,8.72505
1679930618336,1110606690181146,-3.6150002,1.8000001,8.6959505
1679930618337,1110606692683300,-3.5100002,1.7880001,8.694
1679930618340,1110606695185454,-3.61995,1.7680501,8.595
1679930618342,1110606697687560,-3.5119503,1.8190501,8.667001
1679930618344,1110606700189714,-3.5719502,1.8330001,8.658
1679930618347,1110606702691637,-3.5790002,1.8760501,8.65995
1679930618350,1110606705194021,-3.55095,1.89495,8.607
1679930618352,1110606707695963,-3.5719502,1.8709501,8.622001
1679930618354,1110606710198117,-3.5839503,1.93095,8.65305
1679930618357,1110606712700271,-3.6220503,1.8880501,8.619
1679930618360,1110606715202348,-3.5430002,1.8520501,8.68395
1679930618362,1110606717704516,-3.49095,1.90005,8.682
1679930618364,1110606720206670,-3.6109502,1.90005,8.77005
1679930618368,1110606722708824,-3.5790002,1.7710501,8.710051
1679930618370,1110606725210747,-3.6370502,1.8229501,8.7630005
1679930618374,1110606727712916,-3.61995,1.7880001,8.79195
1679930618375,1110606730215069,-3.6439502,1.692,8.79705
1679930618377,1110606732717146,-3.5700002,1.8070501,8.751
1679930618380,1110606735219300,-3.591,1.7920501,8.62395
1679930618382,1110606737721454,-3.6010501,1.8190501,8.713051
1679930618384,1110606740223353,-3.6420002,1.8210001,8.6980505
1679930618387,1110606742725507,-3.66105,1.7010001,8.566951
1679930618390,1110606745227584,-3.7399502,1.6990501,8.646001
1679930618392,1110606747729815,-3.69405,1.7920501,8.677051
1679930618394,1110606750231948,-3.69195,1.69395,8.752951
1679930618397,1110606752734025,-3.7690501,1.8019501,8.60295
1679930618400,1110606755236179,-3.7879503,1.764,8.62905
1679930618402,1110606757738102,-3.6490502,1.7179501,8.61495
1679930618405,1110606760240261,-3.7180502,1.7230501,8.50905
1679930618407,1110606762742415,-3.63,1.6849501,8.610001
1679930618412,1110606765244569,-3.7090502,1.7209501,8.581051
1679930618414,1110606767746723,-3.7849503,1.6800001,8.500051
1679930618415,1110606770248815,-3.69,1.7539501,8.502001
1679930618418,1110606772750969,-3.7230003,1.7539501,8.62905
1679930618420,1110606775252892,-3.7519503,1.8430501,8.583
1679930618422,1110606777755045,-3.7900503,1.8019501,8.62695
1679930618424,1110606780257199,-3.76605,1.7400001,8.658
1679930618427,1110606782759368,-3.8190002,1.5700501,8.78895
1679930618430,1110606785261522,-3.7519503,1.5979501,8.67
1679930618432,1110606787763599,-3.7470002,1.6369501,8.65995
1679930618435,1110606790265734,-3.7540503,1.6320001,8.655001
1679930618437,1110606792767657,-3.73305,1.65795,8.718
1679930618441,1110606795269811,-3.7060502,1.62705,8.764951
1679930618442,1110606797772195,-3.73305,1.67505,8.77305
1679930618445,1110606800274118,-3.7060502,1.713,8.866051
1679930618449,1110606802776219,-3.6750002,1.764,8.892
1679930618452,1110606805278373,-3.66105,1.78005,8.821051
1679930618453,1110606807780527,-3.6030002,1.7659501,8.713051
1679930618454,1110606810282681,-3.594,1.84695,8.619
1679930618458,1110606812784604,-3.4450502,1.86195,8.65995
1679930618460,1110606815286771,-3.591,1.83105,8.559
1679930618463,1110606817788925,-3.486,1.84695,8.691
1679930618465,1110606820291079,-3.5410502,1.7350501,8.7289505
1679930618467,1110606822793155,-3.5119503,1.8430501,8.68395
1679930618470,1110606825295305,-3.5310001,1.8330001,8.713051
1679930618474,1110606827797228,-3.45705,1.67505,8.677051
1679930618475,1110606830299613,-3.52395,1.764,8.62905
1679930618477,1110606832801536,-3.5770502,1.7299501,8.62395
1679930618480,1110606835303680,-3.55995,1.7010001,8.689051
1679930618482,1110606837805834,-3.61995,1.74705,8.607
1679930618486,1110606840307911,-3.6319501,1.7400001,8.6959505
1679930618487,1110606842810065,-3.6390002,1.8259501,8.6650505
1679930618490,1110606845312007,-3.6660001,1.69395,8.710051
1679930618492,1110606847814391,-3.76095,1.84695,8.655001
1679930618494,1110606850316314,-3.7090502,1.7520001,8.707951
1679930618497,1110606852818468,-3.6990001,1.7299501,8.667001
1679930618500,1110606855320622,-3.7129502,1.8259501,8.706
1679930618502,1110606857822699,-3.6439502,1.677,8.8279505
1679930618505,1110606860324853,-3.7470002,1.6560001,8.78895
1679930618507,1110606862826776,-3.6510003,1.677,8.80605
1679930618511,1110606865329156,-3.6799502,1.7230501,8.799001
1679930618512,1110606867831309,-3.594,1.7010001,8.776951
1679930618516,1110606870333233,-3.6150002,1.7160001,8.80095
1679930618518,1110606872835386,-3.6030002,1.8229501,8.79705
1679930618521,1110606875337454,-3.5359502,1.728,8.787001
1679930618524,1110606877839608,-3.6319501,1.8229501,8.731951
1679930618526,1110606880341762,-3.5719502,1.7899501,8.731951
1679930618527,1110606882843916,-3.58695,1.74405,8.847
1679930618530,1110606885345839,-3.7159503,1.8280501,8.752951
1679930618532,1110606887847988,-3.7090502,1.86195,8.677051
1679930618535,1110606890350065,-3.6079502,1.7370001,8.65995
1679930618537,1110606892852219,-3.6130502,1.812,8.80095
1679930618540,1110606895354372,-3.7210503,1.7730001,8.6959505
1679930618542,1110606897856531,-3.7210503,1.7659501,8.727
1679930618546,1110606900358685,-3.65805,1.8589501,8.719951
1679930618548,1110606902860608,-3.7020001,1.74195,8.55195
1679930618558,1110606905362762,-3.72495,1.845,8.610001
1679930618558,1110606907864839,-3.6990001,1.7830501,8.62695
1679930618558,1110606910367011,-3.76605,1.89795,8.72505
1679930618558,1110606912869165,-3.7450502,1.9770001,8.569051
1679930618562,1110606915371319,-3.6820502,1.8570001,8.682
1679930618563,1110606917873472,-3.6390002,1.8930001,8.722051
1679930618565,1110606920375396,-3.69705,1.9219501,8.64795
1679930618567,1110606922877549,-3.6079502,1.8570001,8.703
1679930618570,1110606925379703,-3.6490502,1.8760501,8.65995
1679930618573,1110606927881780,-3.555,1.8829501,8.6650505
1679930618575,1110606930384011,-3.65805,1.84695,8.62695
1679930618577,1110606932886088,-3.5719502,1.9120501,8.74905
1679930618580,1110606935388242,-3.6340501,1.9339501,8.79195
1679930618582,1110606937890165,-3.555,1.7830501,8.734051
1679930618585,1110606940392319,-3.5959501,1.7590501,8.8279505
1679930618588,1110606942894472,-3.48795,1.761,8.821051
1679930618590,1110606945396549,-3.4999502,1.8259501,8.77005
1679930618592,1110606947898703,-3.5410502,1.7400001,8.694
1679930618597,1110606950400843,-3.58695,1.7490001,8.82495
1679930618603,1110606952902997,-3.5430002,1.7920501,8.79195
1679930618603,1110606955404920,-3.6030002,1.7230501,8.80605
1679930618604,1110606957907074,-3.6079502,1.7539501,8.68605
1679930618605,1110606960409151,-3.5389502,1.725,8.542951
1679930618607,1110606962911378,-3.58695,1.6609501,8.586
1679930618610,1110606965413455,-3.6460502,1.67505,8.66205
1679930618612,1110606967915608,-3.52905,1.6510501,8.68605
1679930618618,1110606970417526,-3.5340002,1.6390501,8.715
1679930618619,1110606972919680,-3.61995,1.6609501,8.59095
1679930618621,1110606975422065,-3.6490502,1.67505,8.607
1679930618622,1110606977923988,-3.65805,1.644,8.502001
1679930618625,1110606980426142,-3.58905,1.6200001,8.578951
1679930618627,1110606982928190,-3.5790002,1.71105,8.59305
1679930618630,1110606985430344,-3.6510003,1.5460501,8.595
1679930618633,1110606987932498,-3.6420002,1.5700501,8.512051
1679930618636,1110606990434651,-3.5839503,1.6150501,8.562
1679930618638,1110606992936810,-3.7210503,1.57395,8.554951
1679930618640,1110606995438733,-3.73005,1.62495,8.554951
1679930618642,1110606997940810,-3.6150002,1.6369501,8.587951
1679930618645,1110607000442964,-3.7110002,1.59405,8.610001
1679930618647,1110607002945118,-3.6730502,1.71105,8.598001
1679930618653,1110607005447257,-3.6439502,1.692,8.46105
1679930618654,1110607007949411,-3.6370502,1.81605,8.409
1679930618655,1110607010451334,-3.663,1.69395,8.454
1679930618657,1110607012953488,-3.6850502,1.7659501,8.49495
1679930618660,1110607015455632,-3.6799502,1.8090001,8.45895
1679930618662,1110607017957709,-3.65805,1.7490001,8.33895
1679930618664,1110607020459863,-3.69405,1.71105,8.530951
1679930618667,1110607022961786,-3.6660001,1.77795,8.500051
1679930618671,1110607025464161,-3.6490502,1.8400501,8.443951
1679930618674,1110607027966084,-3.6799502,1.74405,8.49705
1679930618676,1110607030468238,-3.6370502,1.8550501,8.562
1679930618678,1110607032970392,-3.7230003,1.6969501,8.53995
1679930618681,1110607035472469,-3.62505,1.77795,8.607
1679930618682,1110607037974617,-3.663,1.7370001,8.52105
1679930618685,1110607040476771,-3.6109502,1.728,8.655001
1679930618687,1110607042978925,-3.663,1.77795,8.63805
1679930618690,1110607045480848,-3.6220503,1.69395,8.569051
1679930618693,1110607047983002,-3.6319501,1.761,8.78895
1679930618694,1110607050485156,-3.52395,1.8090001,8.731951
1679930618697,1110607052987233,-3.5149503,1.7880001,8.706
1679930618701,1110607055489387,-3.6679502,1.8139501,8.8279505
1679930618703,1110607057991532,-3.5340002,1.81605,8.839951
1679930618705,1110607060493685,-3.5389502,1.7560501,8.691
1679930618707,1110607062995839,-3.5989501,1.8139501,8.658
1679930618714,1110607065497738,-3.5989501,1.71105,8.643001
