system_ts_ms, sensor_ts_ns, gyrX, gyrY, gyrZ
1679930613545,1110601901139959,-0.0394625,-0.0290125,0.033275
1679930613548,1110601903642113,-0.0383625,-0.01595,0.0323125
1679930613550,1110601906144036,-0.0364375,-0.012925,0.03025
1679930613553,1110601908646190,-0.0364375,-0.0099,0.0323125
1679930613555,1110601911148329,-0.0364375,-0.0059125,0.0292875
1679930613558,1110601913650406,-0.035475,-9.625E-4,0.0273625
1679930613568,1110601916152636,-0.0374,0.0011,0.0262625
1679930613568,1110601918654713,-0.035475,0.003025,0.022275
1679930613568,1110601921156867,-0.032449998,0.0020625,0.02035
1679930613569,1110601923659050,-0.034375,0.003025,0.02035
1679930613572,1110601926160973,-0.035475,0.009075,0.0182875
1679930613573,1110601928663127,-0.029424999,0.0121,0.01925
1679930613578,1110601931165204,-0.029424999,0.011,0.0182875
1679930613578,1110601933667416,-0.029424999,0.01705,0.0163625
1679930613581,1110601936169493,-0.0284625,0.01705,0.0163625
1679930613583,1110601938671646,-0.029424999,0.0149875,0.0163625
1679930613585,1110601941173569,-0.0273625,0.011,0.0133375
1679930613588,1110601943675723,-0.0284625,0.014025,0.0163625
1679930613594,1110601946177877,-0.0284625,0.011,0.0213125
1679930613594,1110601948680031,-0.029424999,0.0070125,0.022275
1679930613596,1110601951182185,-0.0284625,0.00605,0.022275
1679930613598,1110601953684262,-0.0264,0.011,0.022275
1679930613600,1110601956186416,-0.0254375,0.011,0.02035
1679930613604,1110601958688570,-0.024475,0.0070125,0.023375
1679930613607,1110601961190493,-0.0264,0.0121,0.0213125
1679930613611,1110601963692631,-0.024475,0.0070125,0.02035
1679930613611,1110601966194785,-0.024475,0.00605,0.0213125
1679930613613,1110601968696939,-0.0273625,0.011,0.01925
1679930613615,1110601971199016,-0.024475,0.007975,0.0182875
1679930613618,1110601973701170,-0.0224125,0.0070125,0.01925
1679930613620,1110601976203329,-0.0254375,0.0050875,0.0182875
1679930613623,1110601978705252,-0.0224125,0.003025,0.0143
1679930613627,1110601981207406,-0.023375,0.0,0.0143
1679930613628,1110601983709560,-0.0224125,-9.625E-4,0.0143
1679930613630,1110601986211713,-0.02145,-0.0039875,0.0133375
1679930613633,1110601988713790,-0.0224125,-0.007975,0.0103124995
1679930613635,1110601991215944,-0.0163625,-0.0099,0.011275
1679930613638,1110601993718098,-0.02145,-0.0099,0.0103124995
1679930613640,1110601996220040,-0.0224125,-0.014025,0.00935
1679930613645,1110601998722425,-0.018424999,-0.0180125,0.0103124995
1679930613646,1110602001224348,-0.0174625,-0.018975,0.011275
1679930613648,1110602003726502,-0.0163625,-0.018975,0.0103124995
1679930613651,1110602006228632,-0.0163625,-0.018975,0.011275
1679930613653,1110602008730708,-0.0163625,-0.0229625,0.012375
1679930613655,1110602011232862,-0.0174625,-0.023924999,0.0133375
1679930613661,1110602013734785,-0.0174625,-0.023924999,0.0143
1679930613662,1110602016237161,-0.0163625,-0.0209,0.011275
1679930613663,1110602018739084,-0.013475,-0.018975,0.00825
1679930613665,1110602021241238,-0.0144375,-0.018975,0.00935
1679930613668,1110602023743392,-0.0154,-0.0169125,0.0072875
1679930613670,1110602026245464,-0.012375,-0.014025,0.00825
1679930613673,1110602028747618,-0.01045,-0.011,0.006325
1679930613678,1110602031249541,-0.0114124995,-0.0070125,0.0072875
1679930613678,1110602033751925,-0.00935,-0.0039875,0.0042625
1679930613682,1110602036254079,-0.0083875,-0.003025,0.001375
1679930613684,1110602038756002,-0.0064625,0.0,0.0023375
1679930613685,1110602041258156,-0.0044,0.003025,2.75E-4
1679930613688,1110602043760233,-0.0034375,0.0070125,0.001375
1679930613690,1110602046262387,-0.0053625,0.007975,0.0033
1679930613695,1110602048764536,-0.0044,0.007975,0.0023375
1679930613696,1110602051266690,-0.0044,0.014025,-0.0037125
1679930613698,1110602053768843,-0.0053625,0.018975,-0.00275
1679930613701,1110602056270767,-0.0064625,0.0160875,-0.00165
1679930613703,1110602058772920,-0.007425,0.022,-6.875E-4
1679930613705,1110602061274997,-0.0064625,0.0320375,-0.00275
1679930613711,1110602063777151,-0.007425,0.036025,-0.0056375
1679930613712,1110602066279305,-0.00935,0.039049998,2.75E-4
1679930613713,1110602068781459,-0.007425,0.039049998,2.75E-4
1679930613715,1110602071283618,-0.007425,0.0451,-0.00165
1679930613720,1110602073785541,-0.007425,0.0460625,2.75E-4
1679930613722,1110602076287695,-0.0064625,0.050049998,2.75E-4
1679930613724,1110602078789772,-0.007425,0.0451,-0.00275
1679930613728,1110602081292012,-0.0083875,0.044,-0.004675
1679930613730,1110602083794166,-0.0083875,0.036025,-0.00165
1679930613732,1110602086296243,-0.0083875,0.0320375,-0.00165
1679930613734,1110602088798397,-0.01045,0.0290125,-6.875E-4
1679930613736,1110602091300291,-0.013475,0.0210375,0.0033
1679930613738,1110602093802368,-0.0144375,0.0149875,0.0023375
1679930613740,1110602096304522,-0.0144375,0.013062499,0.0072875
1679930613744,1110602098806753,-0.0154,0.011,0.00935
1679930613746,1110602101308925,-0.0154,0.009075,0.011275
1679930613748,1110602103811002,-0.0163625,0.003025,0.012375
1679930613751,1110602106312925,-0.0154,0.0011,0.0143
1679930613753,1110602108815310,-0.013475,0.0,0.0163625
1679930613757,1110602111317464,-0.013475,0.0,0.0182875
1679930613760,1110602113819387,-0.0144375,-9.625E-4,0.01925
1679930613761,1110602116321464,-0.013475,-0.001925,0.015262499
1679930613763,1110602118823618,-0.0174625,-0.003025,0.0143
1679930613766,1110602121325772,-0.0174625,-0.001925,0.015262499
1679930613768,1110602123827709,-0.013475,-9.625E-4,0.0143
1679930613771,1110602126330093,-0.0154,-0.0059125,0.0163625
1679930613773,1110602128832016,-0.0174625,-0.0039875,0.015262499
1679930613777,1110602131334170,-0.018424999,-0.001925,0.0133375
1679930613778,1110602133836242,-0.0193875,-0.003025,0.0143
1679930613781,1110602136338396,-0.02035,-0.0059125,0.015262499
1679930613783,1110602138840550,-0.0193875,-0.0070125,0.0143
1679930613786,1110602141342473,-0.02035,-9.625E-4,0.0143
1679930613788,1110602143844858,-0.0163625,0.0,0.0143
1679930613790,1110602146346786,-0.0154,0.0011,0.0143
1679930613794,1110602148848940,-0.02145,0.0039875,0.0182875
1679930613796,1110602151351093,-0.024475,0.0070125,0.015262499
1679930613798,1110602153853170,-0.02035,0.0070125,0.0143
1679930613801,1110602156355324,-0.024475,0.0121,0.0163625
1679930613803,1110602158857478,-0.0254375,0.0160875,0.0133375
1679930613805,1110602161359632,-0.0284625,0.018975,0.011275
1679930613808,1110602163861555,-0.0284625,0.022,0.012375
1679930613812,1110602166363685,-0.0284625,0.0259875,0.011275
1679930613813,1110602168865839,-0.0284625,0.02805,0.00935
1679930613815,1110602171367916,-0.03135,0.036025,0.006325
1679930613818,1110602173870069,-0.0273625,0.036025,0.0053625
1679930613821,1110602176372218,-0.03135,0.039049998,0.006325
1679930613823,1110602178874372,-0.032449998,0.0451,0.006325
1679930613827,1110602181376295,-0.0284625,0.0451,0.0053625
1679930613828,1110602183878449,-0.0273625,0.0451,0.0033
1679930613832,1110602186380598,-0.029424999,0.0451,2.75E-4
1679930613834,1110602188882675,-0.0264,0.039049998,2.75E-4
1679930613835,1110602191384906,-0.0273625,0.040975,-6.875E-4
1679930613838,1110602193886983,-0.0254375,0.0460625,-0.0037125
1679930613841,1110602196389136,-0.0254375,0.0369875,-0.0056375
1679930613843,1110602198891281,-0.023375,0.0380875,-0.004675
1679930613845,1110602201393204,-0.023375,0.039049998,-0.0077
1679930613848,1110602203895358,-0.0254375,0.0369875,-0.010725
1679930613851,1110602206397435,-0.024475,0.0380875,-0.010725
1679930613853,1110602208899666,-0.02145,0.039049998,-0.010725
1679930613855,1110602211401743,-0.0224125,0.0341,-0.0116875
1679930613858,1110602213903897,-0.02145,0.0341,-0.009625
1679930613861,1110602216406051,-0.0193875,0.036025,-0.0086624995
1679930613863,1110602218907969,-0.02145,0.033,-0.01265
1679930613866,1110602221410123,-0.023375,0.0320375,-0.0077
1679930613870,1110602223912199,-0.0254375,0.0320375,-0.0077
1679930613873,1110602226414430,-0.023375,0.033,-0.010725
1679930613874,1110602228916517,-0.0224125,0.033,-0.010725
1679930613877,1110602231418671,-0.0224125,0.0290125,-0.0067375
1679930613878,1110602233920825,-0.02035,0.031075,-0.0077
1679930613881,1110602236422748,-0.02145,0.0259875,-0.0086624995
1679930613883,1110602238924902,-0.02145,0.02805,-0.009625
1679930613886,1110602241427051,-0.023375,0.0259875,-0.0086624995
1679930613888,1110602243929205,-0.0224125,0.0259875,-0.010725
1679930613890,1110602246431358,-0.0224125,0.029975,-0.01265
1679930613894,1110602248933435,-0.0224125,0.02805,-0.01265
1679930613896,1110602251435603,-0.023375,0.0240625,-0.01265
1679930613898,1110602253937526,-0.02035,0.029975,-0.0116875
1679930613901,1110602256439680,-0.02145,0.029975,-0.01375
1679930613903,1110602258941834,-0.02035,0.031075,-0.0177375
1679930613907,1110602261443983,-0.0193875,0.033,-0.010725
1679930613910,1110602263946137,-0.018424999,0.029975,-0.0116875
1679930613911,1110602266448214,-0.0174625,0.025024999,-0.0086624995
1679930613913,1110602268950367,-0.018424999,0.0210375,-0.010725
1679930613916,1110602271452290,-0.0154,0.018975,-0.010725
1679930613919,1110602273954444,-0.0144375,0.014025,-0.010725
1679930613922,1110602276456598,-0.0114124995,0.007975,-0.009625
1679930613924,1110602278958752,-0.0114124995,0.011,-0.0077
1679930613928,1110602281460906,-0.01045,0.00605,-0.0086624995
1679930613929,1110602283962983,-0.0114124995,0.0039875,-0.009625
1679930613931,1110602286465137,-0.0083875,0.003025,-0.0086624995
1679930613934,1110602288967060,-0.0064625,0.0,-0.0086624995
1679930613936,1110602291469444,-0.007425,-9.625E-4,-0.009625
1679930613938,1110602293971598,-0.0083875,-9.625E-4,-0.010725
1679930613941,1110602296473492,-0.0064625,0.0070125,-0.009625
1679930613945,1110602298975646,-0.0053625,0.0119624995,-0.0086624995
1679930613946,1110602301477723,-0.002475,0.0149875,-0.0077
1679930613948,1110602303979877,-0.0034375,0.022,-0.0086624995
1679930613951,1110602306481815,-0.002475,0.0229625,-0.009625
1679930613953,1110602308984200,0.0026125,0.0290125,-0.010725
1679930613956,1110602311486354,0.0056375,0.029975,-0.01265
1679930613958,1110602313988277,0.008525,0.0320375,-0.01375
1679930613961,1110602316490401,0.0045375,0.0339625,-0.0166375
1679930613963,1110602318992478,0.0045375,0.0339625,-0.0177375
1679930613966,1110602321494632,0.0075625,0.033,-0.0187
1679930613968,1110602323996786,0.009625,0.0350625,-0.0177375
1679930613971,1110602326498921,0.0075625,0.0350625,-0.0196625
1679930613973,1110602329001075,0.0056375,0.0339625,-0.0226875
1679930613976,1110602331502998,0.0066,0.0320375,-0.0196625
1679930613978,1110602334005152,0.0045375,0.033,-0.0187
1679930613982,1110602336507310,0.0066,0.033,-0.020624999
1679930613984,1110602339009387,0.008525,0.0320375,-0.0166375
1679930613986,1110602341511540,0.0056375,0.0290125,-0.015675
1679930613988,1110602344013694,0.0026125,0.025024999,-0.020624999
1679930613991,1110602346515848,0.0045375,0.020075,-0.02475
1679930613994,1110602349017786,0.0056375,0.0180125,-0.02365
1679930613997,1110602351520171,0.0056375,0.020075,-0.021724999
1679930613998,1110602354022094,0.0075625,0.022,-0.0187
1679930614002,1110602356524248,0.0056375,0.0180125,-0.0177375
1679930614004,1110602359026354,0.0045375,0.0210375,-0.0187
1679930614006,1110602361528507,0.0045375,0.0229625,-0.0187
1679930614008,1110602364030431,0.0066,0.020075,-0.0177375
1679930614011,1110602366532584,5.5E-4,0.022,-0.0196625
1679930614013,1110602369034752,0.0026125,0.0240625,-0.0166375
1679930614016,1110602371536906,5.5E-4,0.025024999,-0.0177375
1679930614020,1110602374039060,-0.002475,0.025024999,-0.0196625
1679930614022,1110602376541137,-0.001375,0.0240625,-0.0166375
1679930614024,1110602379043310,-0.002475,0.022,-0.0166375
1679930614026,1110602381545233,0.0026125,0.0210375,-0.01265
1679930614028,1110602384047387,-0.002475,0.0180125,-0.01375
1679930614031,1110602386549541,-0.002475,0.014025,-0.01265
1679930614034,1110602389051694,-0.0034375,0.014025,-0.0116875
1679930614036,1110602391553853,-0.001375,0.011,-0.0116875
1679930614039,1110602394055930,-0.002475,0.007975,-0.009625
1679930614041,1110602396558084,-0.0044,0.009075,-0.009625
1679930614043,1110602399059997,-0.0034375,0.0149875,-0.0077
1679930614046,1110602401562382,-0.0044,0.0160875,-0.0077
1679930614048,1110602404064536,-0.0053625,0.014025,-0.004675
1679930614051,1110602406566459,-0.002475,0.0119624995,-0.004675
1679930614053,1110602409068613,-0.0064625,0.0149875,-0.004675
1679930614057,1110602411570685,-0.0094875,0.01705,2.75E-4
1679930614059,1110602414072839,-0.0083875,0.0160875,-0.00165
1679930614062,1110602416574762,-0.0083875,0.018975,-0.00165
1679930614063,1110602419077147,-0.007425,0.0180125,0.001375
1679930614066,1110602421579301,-0.0064625,0.018975,0.001375
1679930614068,1110602424081223,-0.007425,0.018975,0.0023375
1679930614071,1110602426583377,-0.01045,0.018975,0.0023375
1679930614073,1110602429085454,-0.01045,0.01705,0.0033
1679930614075,1110602431587608,-0.01045,0.0180125,0.0053625
1679930614078,1110602434089766,-0.0114124995,0.018975,0.0033
1679930614081,1110602436591920,-0.013475,0.022,0.0053625
1679930614083,1110602439094074,-0.0114124995,0.0160875,0.0072875
1679930614086,1110602441595997,-0.012375,0.0160875,0.0053625
1679930614088,1110602444098151,-0.012375,0.01705,0.0053625
1679930614091,1110602446600233,-0.0174625,0.01705,0.006325
1679930614094,1110602449102387,-0.018424999,0.01705,0.006325
1679930614096,1110602451604618,-0.0114124995,0.0160875,0.006325
1679930614098,1110602454106695,-0.013475,0.0149875,0.0072875
1679930614101,1110602456608862,-0.013475,0.013062499,0.006325
1679930614103,1110602459110785,-0.0154,0.009075,0.0042625
1679930614106,1110602461612939,-0.013475,0.00605,0.00935
1679930614109,1110602464115016,-0.0154,0.0039875,0.00825
1679930614111,1110602466617170,-0.0144375,0.003025,0.0072875
1679930614113,1110602469119401,-0.012375,9.625E-4,0.0103124995
1679930614116,1110602471621478,-0.0154,0.0050875,0.0143
1679930614119,1110602474123632,-0.012375,0.0039875,0.00935
1679930614121,1110602476625575,-0.0114124995,9.625E-4,0.011275
1679930614123,1110602479127729,-0.013475,9.625E-4,0.011275
1679930614126,1110602481629806,-0.012375,0.0039875,0.012375
1679930614128,1110602484132036,-0.0114124995,0.0039875,0.0133375
1679930614133,1110602486634204,-0.0114124995,0.00605,0.00935
1679930614134,1110602489136281,-0.0114124995,0.007975,0.012375
1679930614136,1110602491638435,-0.0114124995,0.0119624995,0.011275
1679930614138,1110602494140358,-0.0094875,0.0160875,0.0072875
1679930614141,1110602496642531,-0.0083875,0.01705,0.00935
1679930614143,1110602499144685,-0.0094875,0.0180125,0.00935
1679930614146,1110602501646839,-0.0094875,0.0180125,0.00825
1679930614149,1110602504148992,-0.0083875,0.0180125,0.0072875
1679930614151,1110602506651093,-0.0094875,0.0180125,0.0072875
1679930614153,1110602509153247,-0.0083875,0.01705,0.0053625
1679930614156,1110602511655170,-0.0064625,0.014025,0.0042625
1679930614158,1110602514157324,-0.0094875,0.01705,0.006325
1679930614161,1110602516659502,-0.0094875,0.014025,0.00935
1679930614164,1110602519161656,-0.007425,0.013062499,0.0103124995
1679930614166,1110602521663810,-0.0094875,0.0149875,0.0072875
1679930614173,1110602524165887,-0.0064625,0.0160875,0.00825
1679930614176,1110602526668031,-0.01045,0.0180125,0.006325
1679930614177,1110602529169955,-0.0114124995,0.020075,0.006325
1679930614177,1110602531672108,-0.0114124995,0.022,0.0042625
1679930614178,1110602534174493,-0.0094875,0.022,0.0023375
1679930614181,1110602536676416,-0.01045,0.0240625,-0.00165
1679930614183,1110602539178545,-0.0094875,0.025024999,-0.0037125
1679930614186,1110602541680622,-0.0094875,0.02805,-0.004675
1679930614188,1110602544182776,-0.013475,0.029975,-0.0056375
1679930614191,1110602546684930,-0.013475,0.0339625,-0.0056375
1679930614193,1110602549186843,-0.0144375,0.0350625,-0.0056375
1679930614196,1110602551689227,-0.0163625,0.0380875,-0.0056375
1679930614198,1110602554191150,-0.018424999,0.0380875,-0.0067375
1679930614201,1110602556693304,-0.0193875,0.040975,-0.0077
1679930614203,1110602559195376,-0.0193875,0.0460625,-0.0077
1679930614207,1110602561697530,-0.0204875,0.047025,-0.0056375
1679930614210,1110602564199684,-0.02145,0.050049998,-0.00275
1679930614211,1110602566701838,-0.0224125,0.050049998,-0.00275
1679930614213,1110602569203766,-0.0224125,0.051975,-0.0037125
1679930614216,1110602571705920,-0.0254375,0.0559625,-6.875E-4
1679930614218,1110602574208074,-0.024475,0.062975,2.75E-4
1679930614221,1110602576710150,-0.024475,0.061049998,-6.875E-4
1679930614223,1110602579212323,-0.0264,0.055,-6.875E-4
1679930614225,1110602581714477,-0.029424999,0.0589875,0.001375
1679930614228,1110602584216631,-0.0334125,0.0620125,2.75E-4
1679930614231,1110602586718554,-0.0334125,0.064075,2.75E-4
1679930614234,1110602589220694,-0.0364375,0.064075,0.001375
1679930614236,1110602591722848,-0.032449998,0.069025,0.0033
1679930614238,1110602594225002,-0.0334125,0.069025,0.0033
1679930614241,1110602596727079,-0.0374,0.0710875,0.0042625
1679930614245,1110602599229256,-0.0364375,0.07205,0.0033
1679930614246,1110602601731410,-0.0334125,0.07205,0.0053625
1679930614248,1110602604233564,-0.035475,0.07205,0.00935
1679930614251,1110602606735487,-0.0364375,0.0699875,0.0072875
1679930614254,1110602609237641,-0.034375,0.0710875,0.006325
1679930614256,1110602611739790,-0.0383625,0.073975,0.0072875
1679930614258,1110602614241944,-0.035475,0.0730125,0.0072875
1679930614261,1110602616744021,-0.034375,0.0699875,0.0053625
1679930614263,1110602619246175,-0.0383625,0.0680625,0.0053625
1679930614266,1110602621748088,-0.0364375,0.069025,0.0042625
1679930614268,1110602624250241,-0.035475,0.064075,0.0042625
1679930614272,1110602626752318,-0.035475,0.058025,0.0072875
1679930614273,1110602629254549,-0.032449998,0.058025,0.006325
1679930614276,1110602631756713,-0.029424999,0.058025,0.0072875
1679930614278,1110602634258790,-0.029424999,0.0570625,0.00825
1679930614283,1110602636760944,-0.0284625,0.0510125,0.00825
1679930614285,1110602639263098,-0.0284625,0.051975,0.00935
1679930614286,1110602641765021,-0.0254375,0.0540375,0.00825
1679930614288,1110602644267160,-0.023375,0.053075,0.0072875
1679930614291,1110602646769313,-0.0254375,0.0510125,0.006325
1679930614293,1110602649271467,-0.023375,0.0510125,0.0042625
1679930614296,1110602651773621,-0.02145,0.053075,0.0023375
1679930614298,1110602654275698,-0.0204875,0.0540375,0.0033
1679930614301,1110602656777852,-0.0193875,0.0510125,0.0023375
1679930614303,1110602659279775,-0.018424999,0.050049998,-6.875E-4
1679930614306,1110602661782160,-0.0193875,0.055,-0.0037125
1679930614308,1110602664284069,-0.0163625,0.055,-0.004675
1679930614311,1110602666786223,-0.0193875,0.0559625,-0.0056375
1679930614313,1110602669288300,-0.0224125,0.0570625,-0.0056375
1679930614316,1110602671790453,-0.02145,0.0570625,-0.0067375
1679930614320,1110602674292366,-0.024475,0.0570625,-0.009625
1679930614323,1110602676794751,-0.0264,0.0650375,-0.0086624995
1679930614325,1110602679296905,-0.0284625,0.0699875,-0.009625
1679930614327,1110602681799059,-0.029424999,0.0730125,-0.01265
1679930614329,1110602684300982,-0.0334125,0.0730125,-0.0086624995
1679930614331,1110602686803030,-0.0334125,0.0790625,-0.0077
1679930614334,1110602689305184,-0.0364375,0.0790625,-0.0077
1679930614336,1110602691807337,-0.0394625,0.080025,-0.0077
1679930614338,1110602694309491,-0.0413875,0.0820875,-0.00275
1679930614341,1110602696811645,-0.0413875,0.0840125,-0.00165
1679930614343,1110602699313568,-0.0424875,0.08305,-0.00165
1679930614346,1110602701815722,-0.0424875,0.0840125,-6.875E-4
1679930614348,1110602704317799,-0.045375,0.0889625,0.001375
1679930614351,1110602706819953,-0.043449998,0.0889625,0.0033
1679930614354,1110602709322132,-0.0394625,0.0950125,0.0053625
1679930614358,1110602711824286,-0.0374,0.099,0.0053625
1679930614361,1110602714326439,-0.0364375,0.098037496,0.0053625
1679930614362,1110602716828598,-0.0374,0.1010625,0.0042625
1679930614363,1110602719330521,-0.0383625,0.102025,0.00825
1679930614366,1110602721832598,-0.0374,0.098037496,0.006325
1679930614369,1110602724334752,-0.0383625,0.0950125,0.006325
1679930614372,1110602726836988,-0.0374,0.095975,0.0072875
1679930614374,1110602729339065,-0.0383625,0.0919875,0.00825
1679930614376,1110602731841219,-0.0394625,0.0900625,0.00935
1679930614378,1110602734343142,-0.0383625,0.087037496,0.0072875
1679930614381,1110602736845296,-0.0394625,0.084975,0.0053625
1679930614384,1110602739347440,-0.043449998,0.0820875,0.0053625
1679930614386,1110602741849516,-0.043449998,0.0790625,0.0042625
1679930614388,1110602744351747,-0.0444125,0.0779625,0.0103124995
1679930614391,1110602746853824,-0.045375,0.077,0.012375
1679930614395,1110602749355993,-0.045375,0.07205,0.011275
1679930614396,1110602751857916,-0.046475,0.0680625,0.0072875
1679930614398,1110602754360070,-0.0484,0.064075,0.00825
1679930614401,1110602756862224,-0.0504625,0.061049998,0.012375
1679930614403,1110602759364301,-0.0504625,0.0540375,0.011275
1679930614406,1110602761866541,-0.0534875,0.050049998,0.012375
1679930614409,1110602764368617,-0.054449998,0.0449625,0.0143
1679930614411,1110602766870771,-0.0534875,0.0400125,0.0133375
1679930614414,1110602769372694,-0.0554125,0.0380875,0.0143
1679930614416,1110602771874839,-0.0594,0.042075,0.0163625
1679930614419,1110602774376993,-0.0584375,0.0400125,0.0163625
1679930614421,1110602776879378,-0.057475,0.0380875,0.015262499
1679930614424,1110602779381301,-0.0584375,0.0400125,0.0163625
1679930614426,1110602781883368,-0.0603625,0.0449625,0.0213125
1679930614429,1110602784385522,-0.0603625,0.044,0.0182875
1679930614433,1110602786887675,-0.0603625,0.039049998,0.01925
1679930614434,1110602789389598,-0.0664125,0.039049998,0.0163625
1679930614436,1110602791891733,-0.06545,0.040975,0.0182875
1679930614439,1110602794393887,-0.0664125,0.042075,0.0182875
1679930614441,1110602796896041,-0.067375,0.0479875,0.0163625
1679930614444,1110602799398118,-0.068475,0.050049998,0.0143
1679930614446,1110602801900281,-0.0713625,0.0510125,0.0163625
1679930614450,1110602804402435,-0.0713625,0.0510125,0.0182875
1679930614451,1110602806904589,-0.0694375,0.0540375,0.0182875
1679930614454,1110602809406742,-0.0694375,0.055,0.015262499
1679930614456,1110602811908651,-0.0743875,0.0559625,0.0163625
1679930614460,1110602814410805,-0.0754875,0.050049998,0.02035
1679930614461,1110602816912882,-0.07645,0.051975,0.015262499
1679930614464,1110602819415036,-0.078375,0.053075,0.0133375
1679930614466,1110602821917185,-0.0823625,0.0479875,0.01925
1679930614471,1110602824419339,-0.0814,0.0479875,0.01925
1679930614473,1110602826921493,-0.078375,0.047025,0.01925
1679930614475,1110602829423416,-0.078375,0.042075,0.0163625
1679930614477,1110602831925585,-0.0823625,0.0400125,0.01925
1679930614479,1110602834427662,-0.0853875,0.0369875,0.0213125
1679930614481,1110602836929892,-0.0853875,0.036025,0.0213125
1679930614484,1110602839432046,-0.084425,0.0350625,0.0213125
1679930614486,1110602841934123,-0.084425,0.0320375,0.023375
1679930614490,1110602844436276,-0.0864875,0.0259875,0.0253
1679930614491,1110602846938199,-0.0864875,0.0259875,0.0262625
1679930614494,1110602849440353,-0.084425,0.0290125,0.0253
1679930614496,1110602851942430,-0.08745,0.02805,0.028324999
1679930614500,1110602854444666,-0.0864875,0.02805,0.028324999
1679930614501,1110602856946819,-0.0884125,0.02805,0.0273625
1679930614504,1110602859448896,-0.08745,0.031075,0.0253
1679930614508,1110602861951050,-0.084425,0.029975,0.0262625
1679930614510,1110602864452959,-0.091437496,0.031075,0.0273625
1679930614512,1110602866955113,-0.091437496,0.0290125,0.03135
1679930614513,1110602869457190,-0.090475,0.029975,0.028324999
1679930614517,1110602871959421,-0.0944625,0.0369875,0.0292875
1679930614519,1110602874461575,-0.09845,0.044,0.0273625
1679930614522,1110602876963627,-0.09845,0.039049998,0.028324999
1679930614524,1110602879465780,-0.0994125,0.047025,0.03135
1679930614526,1110602881967704,-0.1054625,0.050049998,0.03025
1679930614529,1110602884469857,-0.1054625,0.050049998,0.03025
1679930614531,1110602886972242,-0.106425,0.053075,0.0323125
1679930614533,1110602889474155,-0.106425,0.051975,0.0323125
1679930614536,1110602891976309,-0.1104125,0.0570625,0.0353375
1679930614539,1110602894478386,-0.1144,0.058025,0.033275
1679930614541,1110602896980540,-0.1153625,0.0540375,0.033275
1679930614545,1110602899482468,-0.12045,0.0559625,0.0353375
1679930614546,1110602901984622,-0.12045,0.0559625,0.0383625
1679930614549,1110602904487006,-0.123475,0.053075,0.0383625
1679930614552,1110602906988929,-0.1263625,0.051975,0.0363
1679930614554,1110602909491078,-0.1274625,0.0510125,0.039325
1679930614556,1110602911993155,-0.128425,0.050049998,0.0402875
1679930614560,1110602914495309,-0.128425,0.0490875,0.0363
1679930614561,1110602916997232,-0.133375,0.042075,0.0383625
1679930614564,1110602919499598,-0.133375,0.0400125,0.039325
1679930614566,1110602922001752,-0.1354375,0.0380875,0.0402875
1679930614570,1110602924503675,-0.1384625,0.039049998,0.04235
1679930614572,1110602927005829,-0.1384625,0.0400125,0.0433125
1679930614573,1110602929507900,-0.139425,0.0380875,0.0402875
1679930614576,1110602932010054,-0.1403875,0.033,0.045375
1679930614579,1110602934512208,-0.145475,0.033,0.0493625
1679930614583,1110602937014362,-0.1483625,0.033,0.0493625
1679930614585,1110602939516530,-0.14739999,0.0290125,0.0512875
1679930614586,1110602942018453,-0.1494625,0.02805,0.05335
1679930614590,1110602944520607,-0.150425,0.0259875,0.05335
1679930614591,1110602947022684,-0.1494625,0.0210375,0.0543125
1679930614594,1110602949524838,-0.1513875,0.014025,0.05335
1679930614596,1110602952027001,-0.1513875,0.0160875,0.055275
1679930614601,1110602954529155,-0.1524875,0.011,0.055275
1679930614602,1110602957031309,-0.1494625,0.00605,0.056375
1679930614604,1110602959533232,-0.1494625,0.0020625,0.0573375
1679930614606,1110602962035391,-0.1494625,-9.625E-4,0.0573375
1679930614610,1110602964537468,-0.150425,-0.001925,0.056375
1679930614612,1110602967039622,-0.1524875,-0.0039875,0.055275
1679930614614,1110602969541853,-0.1524875,-0.007975,0.0583
1679930614616,1110602972043915,-0.1513875,-0.011,0.0573375
1679930614621,1110602974546068,-0.1494625,-0.0089375,0.05335
1679930614623,1110602977047991,-0.1483625,-0.0059125,0.052249998
1679930614625,1110602979550145,-0.1483625,-0.00495,0.055275
1679930614626,1110602982052333,-0.1513875,-0.0039875,0.0603625
1679930614630,1110602984554410,-0.144375,-0.0070125,0.0583
1679930614631,1110602987056641,-0.1494625,-0.0059125,0.055275
1679930614635,1110602989558718,-0.1513875,-0.00495,0.055275
1679930614637,1110602992060872,-0.1513875,-0.0039875,0.055275
1679930614640,1110602994562795,-0.1524875,-9.625E-4,0.055275
1679930614641,1110602997064949,-0.1524875,0.0020625,0.0573375
1679930614644,1110602999567102,-0.156475,0.0070125,0.0573375
1679930614646,1110603002069179,-0.156475,0.0149875,0.056375
1679930614653,1110603004571400,-0.1574375,0.014025,0.056375
1679930614654,1110603007073477,-0.1593625,0.0229625,0.0603625
1679930614655,1110603009575631,-0.161425,0.0240625,0.061325
1679930614658,1110603012077771,-0.1623875,0.031075,0.0622875
1679930614662,1110603014579694,-0.161425,0.0369875,0.061325
1679930614663,1110603017081848,-0.1584,0.0380875,0.06325
1679930614664,1110603019584002,-0.1593625,0.042075,0.0622875
1679930614667,1110603022086079,-0.1584,0.047025,0.0653125
1679930614670,1110603024588227,-0.156475,0.047025,0.0653125
1679930614672,1110603027090381,-0.1544125,0.047025,0.0683375
1679930614675,1110603029592535,-0.1513875,0.047025,0.0713625
1679930614677,1110603032094458,-0.155375,0.0449625,0.0713625
1679930614681,1110603034596573,-0.155375,0.039049998,0.0683375
1679930614682,1110603037098727,-0.15345,0.039049998,0.069299996
1679930614685,1110603039600804,-0.15345,0.036025,0.0702625
1679930614687,1110603042102958,-0.1513875,0.0320375,0.0702625
1679930614690,1110603044604892,-0.15345,0.02805,0.07535
1679930614692,1110603047107276,-0.1524875,0.025024999,0.0763125
1679930614696,1110603049609430,-0.15345,0.0259875,0.0763125
1679930614697,1110603052111353,-0.1544125,0.0290125,0.077275
1679930614701,1110603054613507,-0.15345,0.020075,0.078375
1679930614702,1110603057115603,-0.155375,0.01705,0.0803
1679930614705,1110603059617757,-0.1574375,0.0180125,0.078375
1679930614707,1110603062119680,-0.1584,0.013062499,0.078375
1679930614712,1110603064622036,-0.1623875,0.0039875,0.0842875
1679930614713,1110603067124189,-0.1694,0.003025,0.0823625
1679930614714,1110603069626113,-0.1714625,9.625E-4,0.08635
1679930614720,1110603072128266,-0.1733875,-0.0039875,0.08635
1679930614721,1110603074630343,-0.172425,-0.0089375,0.089375
1679930614723,1110603077132511,-0.17847499,-0.012925,0.0922625
1679930614725,1110603079634665,-0.1764125,-0.018975,0.0952875
1679930614727,1110603082136819,-0.1733875,-0.023924999,0.09625
1679930614731,1110603084638973,-0.1764125,-0.0259875,0.1023
1679930614733,1110603087140901,-0.1804,-0.025024999,0.1032625
1679930614735,1110603089643055,-0.1804,-0.0290125,0.1032625
1679930614737,1110603092145132,-0.1804,-0.029975,0.1043625
1679930614741,1110603094647285,-0.1813625,-0.0320375,0.1032625
1679930614743,1110603097149516,-0.1813625,-0.0320375,0.10725
1679930614744,1110603099651608,-0.1854875,-0.0320375,0.1062875
1679930614747,1110603102153762,-0.1854875,-0.0279125,0.1062875
1679930614751,1110603104655685,-0.1854875,-0.0309375,0.10725
1679930614752,1110603107157839,-0.18645,-0.0309375,0.10725
1679930614754,1110603109659916,-0.188375,-0.02695,0.10835
1679930614757,1110603112162070,-0.1904375,-0.0290125,0.1093125
1679930614761,1110603114664301,-0.194425,-0.0279125,0.10725
1679930614762,1110603117166377,-0.1923625,-0.029975,0.10835
1679930614764,1110603119668531,-0.1953875,-0.0309375,0.111375
1679930614768,1110603122170454,-0.1984125,-0.0320375,0.111375
1679930614772,1110603124672608,-0.19745,-0.033,0.111375
1679930614773,1110603127174762,-0.1984125,-0.0339625,0.111375
1679930614776,1110603129676930,-0.1984125,-0.0430375,0.113299996
1679930614778,1110603132179084,-0.19745,-0.04895,0.11825
1679930614782,1110603134681161,-0.199375,-0.0510125,0.1142625
1679930614782,1110603137183315,-0.20047499,-0.058025,0.113299996
1679930614785,1110603139685238,-0.1984125,-0.062975,0.116325
1679930614787,1110603142187391,-0.1953875,-0.067925,0.1153625
1679930614792,1110603144689545,-0.1923625,-0.073975,0.1153625
1679930614793,1110603147191699,-0.19139999,-0.0760375,0.1153625
1679930614795,1110603149693853,-0.189475,-0.080025,0.1142625
1679930614799,1110603152195920,-0.18645,-0.0829125,0.1142625
1679930614802,1110603154698074,-0.1843875,-0.087037496,0.1123375
1679930614802,1110603157199997,-0.1804,-0.084975,0.1123375
1679930614804,1110603159702151,-0.1764125,-0.087037496,0.111375
1679930614808,1110603162204535,-0.1764125,-0.087037496,0.1093125
1679930614811,1110603164706458,-0.1804,-0.0859375,0.1013375
1679930614813,1110603167208612,-0.1824625,-0.087037496,0.099275
1679930614814,1110603169710689,-0.183425,-0.0919875,0.0983125
1679930614817,1110603172212843,-0.1854875,-0.095975,0.09735
1679930614820,1110603174715007,-0.1874125,-0.0969375,0.0933625
1679930614821,1110603177216930,-0.1923625,-0.099,0.0933625
1679930614824,1110603179719315,-0.199375,-0.0999625,0.094325
1679930614827,1110603182221238,-0.2024,-0.100925,0.0952875
1679930614830,1110603184723402,-0.2074875,-0.100925,0.1023
1679930614832,1110603187225479,-0.210375,-0.100925,0.105325
1679930614834,1110603189727632,-0.2143625,-0.102025,0.1093125
1679930614837,1110603192229786,-0.2204125,-0.10395,0.111375
1679930614840,1110603194731709,-0.2234375,-0.109037496,0.113299996
1679930614842,1110603197234117,-0.227425,-0.111925,0.11935
1679930614846,1110603199736040,-0.232375,-0.1139875,0.122375
1679930614847,1110603202238194,-0.2344375,-0.1170125,0.122375
1679930614851,1110603204740309,-0.2344375,-0.117975,0.1263625
1679930614852,1110603207242463,-0.2363625,-0.1189375,0.1252625
1679930614854,1110603209744617,-0.23539999,-0.122925,0.1282875
1679930614857,1110603212246770,-0.2374625,-0.1269125,0.12925
1679930614860,1110603214748924,-0.24145,-0.1280125,0.12925
1679930614862,1110603217250828,-0.2363625,-0.135025,0.1353
1679930614864,1110603219752982,-0.23539999,-0.1359875,0.1362625
1679930614868,1110603222255136,-0.233475,-0.1420375,0.1353
1679930614871,1110603224757213,-0.232375,-0.14093749,0.1362625
1679930614872,1110603227259347,-0.232375,-0.1420375,0.138325
1679930614874,1110603229761578,-0.233475,-0.14093749,0.1362625
1679930614877,1110603232263654,-0.23539999,-0.13695,0.132275
1679930614880,1110603234765578,-0.233475,-0.13695,0.1313125
1679930614883,1110603237267731,-0.232375,-0.13695,0.12925
1679930614885,1110603239769885,-0.233475,-0.133925,0.13035
1679930614887,1110603242271962,-0.2283875,-0.1280125,0.1313125
1679930614890,1110603244774116,-0.2283875,-0.121,0.13035
1679930614892,1110603247276270,-0.2283875,-0.1189375,0.127325
1679930614894,1110603249778415,-0.2244,-0.117975,0.127325
1679930614897,1110603252280338,-0.22247499,-0.11,0.1252625
1679930614901,1110603254782492,-0.2204125,-0.106975,0.1243
1679930614902,1110603257284646,-0.21945,-0.1079375,0.1233375
1679930614904,1110603259786722,-0.2143625,-0.1029875,0.11935
1679930614907,1110603262288953,-0.2134,-0.0999625,0.1153625
1679930614910,1110603264791030,-0.2063875,-0.0999625,0.1142625
1679930614912,1110603267293184,-0.2044625,-0.0950125,0.111375
1679930614914,1110603269795078,-0.199375,-0.09295,0.10835
1679930614917,1110603272297463,-0.1984125,-0.09295,0.110275
1679930614921,1110603274799617,-0.1984125,-0.084975,0.10725
1679930614923,1110603277301540,-0.1953875,-0.0840125,0.1043625
1679930614925,1110603279803694,-0.194425,-0.0809875,0.1032625
1679930614926,1110603282305770,-0.19139999,-0.078925,0.0983125
1679930614930,1110603284807924,-0.1904375,-0.0779625,0.0952875
1679930614932,1110603287309847,-0.19139999,-0.078925,0.0933625
1679930614934,1110603289812232,-0.1874125,-0.073975,0.08635
1679930614937,1110603292314381,-0.188375,-0.0730125,0.0823625
1679930614939,1110603294816304,-0.18645,-0.0699875,0.0812625
1679930614942,1110603297318458,-0.18645,-0.067925,0.0763125
1679930614944,1110603299820535,-0.1843875,-0.066,0.07535
1679930614946,1110603302322670,-0.177375,-0.0620125,0.0732875
1679930614950,1110603304824593,-0.1744875,-0.051975,0.0732875
1679930614952,1110603307326977,-0.1705,-0.051975,0.072325
1679930614954,1110603309829131,-0.166375,-0.0510125,0.069299996
1679930614958,1110603312331049,-0.1595,-0.0479875,0.0713625
1679930614961,1110603314833203,-0.15345,-0.0430375,0.0702625
1679930614962,1110603317335280,-0.1494625,-0.0419375,0.066275
1679930614964,1110603319837434,-0.1414875,-0.0400125,0.0653125
1679930614968,1110603322339665,-0.133375,-0.0369875,0.06435
1679930614970,1110603324841713,-0.1265,-0.0419375,0.0622875
1679930614972,1110603327343866,-0.122375,-0.0400125,0.0583
1679930614974,1110603329845789,-0.1144,-0.0369875,0.0543125
1679930614977,1110603332347943,-0.106425,-0.034925,0.0482625
1679930614980,1110603334850030,-0.09845,-0.034925,0.0433125
1679930614982,1110603337352184,-0.095425,-0.034925,0.0383625
1679930614985,1110603339854415,-0.08745,-0.0309375,0.0353375
1679930614987,1110603342356492,-0.082499996,-0.0290125,0.028324999
1679930614990,1110603344858627,-0.07645,-0.0290125,0.023375
1679930614992,1110603347360550,-0.0715,-0.025024999,0.0213125
1679930614996,1110603349862704,-0.068475,-0.0149875,0.01925
1679930614997,1110603352364781,-0.062425,-0.011,0.0163625
1679930615000,1110603354866934,-0.0594,-0.0059125,0.015262499
1679930615002,1110603357369160,-0.057475,9.625E-4,0.0143
1679930615004,1110603359871237,-0.057475,0.0050875,0.0163625
1679930615007,1110603362373391,-0.0554125,0.009075,0.0143
1679930615010,1110603364875314,-0.0554125,0.014025,0.015262499
1679930615011,1110603367377458,-0.057475,0.0180125,0.0143
1679930615014,1110603369879612,-0.054449998,0.018975,0.012375
1679930615017,1110603372381766,-0.0534875,0.018975,0.0103124995
1679930615020,1110603374883914,-0.0534875,0.0229625,0.011275
1679930615022,1110603377385991,-0.054449998,0.0259875,0.011275
1679930615025,1110603379888145,-0.0504625,0.0259875,0.00825
1679930615027,1110603382390068,-0.0504625,0.0240625,0.006325
1679930615030,1110603384892222,-0.0495,0.0240625,0.006325
1679930615035,1110603387394392,-0.045375,0.0229625,0.0033
1679930615036,1110603389896546,-0.0484,0.018975,0.0033
1679930615037,1110603392398700,-0.046475,0.0210375,0.001375
1679930615040,1110603394900777,-0.043449998,0.020075,-6.875E-4
1679930615042,1110603397402930,-0.0413875,0.01705,2.75E-4
1679930615045,1110603399904854,-0.040425,0.0210375,-6.875E-4
1679930615047,1110603402407007,-0.0394625,0.022,-0.00165
1679930615052,1110603404909425,-0.0424875,0.0210375,2.75E-4
1679930615053,1110603407411348,-0.0424875,0.025024999,0.0042625
1679930615055,1110603409913502,-0.0374,0.0229625,0.001375
1679930615057,1110603412415579,-0.0385,0.02805,0.001375
1679930615061,1110603414917733,-0.040425,0.0290125,0.006325
1679930615062,1110603417419887,-0.0385,0.0240625,0.0103124995
1679930615065,1110603419921810,-0.035475,0.0259875,0.011275
1679930615068,1110603422424194,-0.0385,0.031075,0.012375
1679930615072,1110603424926117,-0.0364375,0.0339625,0.0133375
1679930615074,1110603427428271,-0.0314875,0.0320375,0.0143
1679930615076,1110603429930348,-0.0314875,0.0350625,0.015262499
1679930615079,1110603432432502,-0.029424999,0.0320375,0.0182875
1679930615081,1110603434934656,-0.0284625,0.033,0.0163625
1679930615082,1110603437436589,-0.0284625,0.0320375,0.015262499
1679930615085,1110603439938974,-0.0314875,0.033,0.0182875
1679930615088,1110603442440897,-0.0284625,0.02805,0.0133375
1679930615090,1110603444943051,-0.029424999,0.0240625,0.012375
1679930615092,1110603447445185,-0.0275,0.025024999,0.011275
1679930615097,1110603449947262,-0.029424999,0.02805,0.00935
1679930615098,1110603452449416,-0.0314875,0.02805,0.00825
1679930615101,1110603454951570,-0.032449998,0.0240625,0.00935
1679930615103,1110603457453719,-0.032449998,0.025024999,0.00935
1679930615105,1110603459955642,-0.029424999,0.0290125,0.00825
1679930615109,1110603462457796,-0.0275,0.02805,0.0103124995
1679930615111,1110603464959950,-0.0275,0.0259875,0.0103124995
1679930615115,1110603467462055,-0.0254375,0.0290125,0.006325
1679930615115,1110603469964208,-0.02145,0.031075,0.0042625
1679930615118,1110603472466362,-0.0193875,0.0290125,0.006325
1679930615122,1110603474968516,-0.0174625,0.025024999,0.0033
1679930615123,1110603477470439,-0.0154,0.022,0.0033
1679930615127,1110603479972603,-0.013475,0.025024999,0.0023375
1679930615128,1110603482474757,-0.0114124995,0.0259875,-0.00275
1679930615131,1110603484976834,-0.013475,0.025024999,-0.0077
1679930615132,1110603487478988,-0.0144375,0.0320375,-0.009625
1679930615135,1110603489981142,-0.0114124995,0.042075,-0.0116875
1679930615138,1110603492483295,-0.0114124995,0.0449625,-0.0116875
1679930615140,1110603494985449,-0.013475,0.051975,-0.0116875
1679930615142,1110603497487372,-0.0144375,0.0589875,-0.01375
1679930615148,1110603499989521,-0.0154,0.066,-0.0166375
1679930615149,1110603502491675,-0.0174625,0.073975,-0.015675
1679930615151,1110603504993829,-0.0204875,0.0809875,-0.0177375
1679930615152,1110603507495906,-0.0204875,0.0889625,-0.0166375
1679930615154,1110603509998060,-0.02145,0.087037496,-0.015675
1679930615157,1110603512499983,-0.0264,0.0950125,-0.0166375
1679930615160,1110603515002137,-0.0334125,0.1010625,-0.0177375
1679930615163,1110603517504290,-0.0364375,0.0999625,-0.015675
1679930615168,1110603520006463,-0.0385,0.1029875,-0.0116875
1679930615169,1110603522508617,-0.0374,0.1060125,-0.010725
1679930615171,1110603525010694,-0.0364375,0.113025,-0.010725
1679930615173,1110603527512848,-0.0413875,0.1109625,-0.009625
1679930615175,1110603530014771,-0.0424875,0.108075,-0.0056375
1679930615177,1110603532517160,-0.046475,0.113025,-0.004675
1679930615180,1110603535019083,-0.0424875,0.109037496,-0.004675
1679930615183,1110603537521237,-0.045375,0.1010625,-6.875E-4
1679930615185,1110603540023390,-0.0495,0.097075,-0.00275
1679930615187,1110603542525467,-0.051425,0.095975,-0.00275
1679930615190,1110603545027645,-0.0534875,0.0889625,-6.875E-4
1679930615192,1110603547529568,-0.051425,0.086075,-0.00275
1679930615195,1110603550031953,-0.0484,0.087037496,-0.00165
1679930615197,1110603552534107,-0.051425,0.084975,-6.875E-4
1679930615201,1110603555036050,-0.0504625,0.0790625,-6.875E-4
1679930615202,1110603557538204,-0.0444125,0.073975,-0.00275
1679930615205,1110603560040281,-0.0413875,0.0699875,-0.00165
1679930615207,1110603562542434,-0.034375,0.064075,-0.0037125
1679930615210,1110603565044579,-0.0284625,0.064075,-0.0067375
1679930615212,1110603567546733,-0.023375,0.0589875,-0.0086624995
1679930615214,1110603570048887,-0.02145,0.0570625,-0.01375
1679930615218,1110603572550810,-0.0174625,0.0559625,-0.0166375
1679930615222,1110603575052945,-0.0193875,0.051975,-0.0187
1679930615223,1110603577555022,-0.018424999,0.0460625,-0.021724999
1679930615226,1110603580057176,-0.0174625,0.042075,-0.02475
1679930615227,1110603582559330,-0.018424999,0.047025,-0.0276375
1679930615231,1110603585061483,-0.0204875,0.040975,-0.0276375
1679930615232,1110603587563651,-0.0275,0.0369875,-0.026675
1679930615235,1110603590065574,-0.0264,0.039049998,-0.0297
1679930615238,1110603592567651,-0.029424999,0.039049998,-0.0297
1679930615240,1110603595069805,-0.0374,0.0369875,-0.032725
1679930615242,1110603597571940,-0.0413875,0.0350625,-0.0306625
1679930615245,1110603600074171,-0.043449998,0.031075,-0.0287375
1679930615247,1110603602576248,-0.045375,0.0290125,-0.0336875
1679930615251,1110603605078402,-0.0484,0.0290125,-0.0386375
1679930615252,1110603607580344,-0.0534875,0.0229625,-0.0336875
1679930615255,1110603610082498,-0.0554125,0.020075,-0.034649998
1679930615259,1110603612584574,-0.057475,0.0160875,-0.0397375
1679930615261,1110603615086805,-0.056375,0.018975,-0.0397375
1679930615263,1110603617588978,-0.0594,0.0180125,-0.0397375
1679930615265,1110603620091055,-0.0605,0.0180125,-0.042625
1679930615268,1110603622593209,-0.0614625,0.0180125,-0.042625
1679930615271,1110603625095132,-0.0664125,0.0180125,-0.043725
1679930615273,1110603627597310,-0.0664125,0.022,-0.04675
1679930615274,1110603630099387,-0.062425,0.029975,-0.048675
1679930615277,1110603632601618,-0.062425,0.033,-0.048675
1679930615281,1110603635103771,-0.0644875,0.0350625,-0.0517
1679930615282,1110603637605848,-0.0694375,0.040975,-0.0517
1679930615285,1110603640107988,-0.0715,0.050049998,-0.056649998
1679930615287,1110603642609911,-0.0774125,0.051975,-0.05775
1679930615290,1110603645112065,-0.0864875,0.053075,-0.0587125
1679930615293,1110603647614450,-0.0974875,0.058025,-0.0636625
1679930615296,1110603650116368,-0.1034,0.062975,-0.0697125
1679930615297,1110603652618522,-0.1144,0.0669625,-0.06765
1679930615302,1110603655120599,-0.1254,0.0669625,-0.06875
1679930615302,1110603657622752,-0.133375,0.064075,-0.0666875
1679930615305,1110603660124675,-0.1414875,0.080025,-0.0666875
1679930615307,1110603662626848,-0.1513875,0.08305,-0.06765
1679930615311,1110603665129233,-0.1604625,0.077,-0.065725
1679930615312,1110603667631156,-0.16445,0.0669625,-0.065725
1679930615315,1110603670133310,-0.1714625,0.069025,-0.065725
1679930615318,1110603672635373,-0.17847499,0.0650375,-0.0636625
1679930615321,1110603675137527,-0.1843875,0.0589875,-0.0636625
1679930615322,1110603677639450,-0.1925,0.0620125,-0.06765
1679930615324,1110603680141604,-0.194425,0.0570625,-0.06875
1679930615327,1110603682644012,-0.199375,0.0570625,-0.0697125
1679930615330,1110603685145935,-0.2014375,0.0570625,-0.070675
1679930615334,1110603687648012,-0.2014375,0.0559625,-0.070675
1679930615335,1110603690150166,-0.2014375,0.0620125,-0.0746625
1679930615337,1110603692652320,-0.2024,0.0650375,-0.0776875
1679930615340,1110603695154464,-0.2074875,0.062975,-0.0826375
1679930615342,1110603697656618,-0.20845,0.0650375,-0.0856625
1679930615345,1110603700158772,-0.2074875,0.066,-0.08965
1679930615347,1110603702660695,-0.20845,0.073975,-0.093637496
1679930615352,1110603705162848,-0.2145,0.075075,-0.0966625
1679930615352,1110603707664925,-0.2184875,0.0779625,-0.104637496
1679930615355,1110603710167079,-0.22247499,0.0820875,-0.108625
1679930615357,1110603712669214,-0.23045,0.088,-0.109725
1679930615360,1110603715171368,-0.233475,0.091025,-0.11165
1679930615362,1110603717673522,-0.238425,0.088,-0.11165
1679930615365,1110603720175445,-0.2424125,0.0900625,-0.11275
1679930615367,1110603722677599,-0.2475,0.0950125,-0.115637496
1679930615372,1110603725179676,-0.249425,0.097075,-0.1167375
1679930615374,1110603727681830,-0.25547498,0.095975,-0.120725
1679930615376,1110603730183983,-0.2613875,0.095975,-0.1247125
1679930615378,1110603732686137,-0.265375,0.0950125,-0.1266375
1679930615380,1110603735188084,-0.2704625,0.0919875,-0.1296625
1679930615382,1110603737690238,-0.2754125,0.0900625,-0.1326875
1679930615385,1110603740192315,-0.282425,0.088,-0.1357125
1679930615387,1110603742694546,-0.2915,0.0919875,-0.13475
1679930615390,1110603745196695,-0.29947498,0.095975,-0.136675
1679930615392,1110603747698849,-0.30745,0.097075,-0.136675
1679930615395,1110603750200925,-0.3174875,0.095975,-0.136675
1679930615397,1110603752702849,-0.320375,0.099,-0.1357125
1679930615400,1110603755204987,-0.3234,0.0999625,-0.13365
1679930615402,1110603757707372,-0.3234,0.098037496,-0.1326875
1679930615405,1110603760209295,-0.326425,0.102025,-0.1296625
1679930615409,1110603762711449,-0.3304125,0.102025,-0.1326875
1679930615411,1110603765213541,-0.3273875,0.106975,-0.131725
1679930615413,1110603767715695,-0.331375,0.108075,-0.1326875
1679930615414,1110603770217618,-0.3304125,0.109037496,-0.13365
1679930615417,1110603772719772,-0.3304125,0.117975,-0.1376375
1679930615423,1110603775222156,-0.3344,0.119075,-0.1406625
1679930615427,1110603777724059,-0.3334375,0.120037496,-0.14465
1679930615427,1110603780226213,-0.3344,0.120037496,-0.1467125
1679930615428,1110603782728290,-0.3383875,0.1230625,-0.152625
1679930615430,1110603785230444,-0.342375,0.122099996,-0.1577125
1679930615432,1110603787732353,-0.3444375,0.1249875,-0.1617
1679930615435,1110603790234507,-0.3493875,0.128975,-0.1626625
1679930615437,1110603792736892,-0.3554375,0.124025,-0.1617
1679930615440,1110603795238815,-0.3564,0.1249875,-0.1656875
1679930615442,1110603797740940,-0.3573625,0.1280125,-0.16775
1679930615446,1110603800243016,-0.3603875,0.130075,-0.1656875
1679930615448,1110603802745170,-0.364375,0.128975,-0.1626625
1679930615451,1110603805247324,-0.365475,0.1310375,-0.16665
1679930615452,1110603807749464,-0.3664375,0.1340625,-0.16665
1679930615455,1110603810251618,-0.3664375,0.13805,-0.169675
1679930615457,1110603812753541,-0.36135,0.1450625,-0.169675
1679930615461,1110603815255695,-0.36135,0.1469875,-0.1706375
1679930615464,1110603817757781,-0.365475,0.1480875,-0.1736625
1679930615465,1110603820259935,-0.3664375,0.152075,-0.1766875
1679930615467,1110603822762088,-0.370425,0.1530375,-0.1837
1679930615471,1110603825264242,-0.375375,0.1560625,-0.1876875
1679930615475,1110603827766372,-0.3804625,0.157025,-0.1907125
1679930615477,1110603830268295,-0.3823875,0.1560625,-0.1926375
1679930615477,1110603832770449,-0.38541248,0.1640375,-0.19965
1679930615481,1110603835272526,-0.3894,0.16499999,-0.20075
1679930615487,1110603837774661,-0.3884375,0.163075,-0.2017125
1679930615487,1110603840276815,-0.3903625,0.16499999,-0.2047375
1679930615488,1110603842778969,-0.3933875,0.1640375,-0.2047375
1679930615491,1110603845281122,-0.3884375,0.1670625,-0.2047375
1679930615492,1110603847783045,-0.3884375,0.1670625,-0.2047375
1679930615495,1110603850285194,-0.3884375,0.16005,-0.2057
1679930615499,1110603852787348,-0.386375,0.157025,-0.2066625
1679930615501,1110603855289425,-0.386375,0.1551,-0.2066625
1679930615502,1110603857791656,-0.386375,0.150975,-0.2017125
1679930615505,1110603860293748,-0.3804625,0.1480875,-0.2066625
1679930615509,1110603862795902,-0.3804625,0.1450625,-0.2066625
1679930615511,1110603865297825,-0.3793625,0.1420375,-0.202675
1679930615512,1110603867799979,-0.3774375,0.1370875,-0.2057
1679930615517,1110603870302108,-0.375375,0.1359875,-0.21065
1679930615518,1110603872804185,-0.3713875,0.1331,-0.207625
1679930615523,1110603875306416,-0.365475,0.1331,-0.2066625
1679930615525,1110603877808493,-0.364375,0.1310375,-0.207625
1679930615527,1110603880310656,-0.359425,0.124025,-0.2096875
1679930615528,1110603882812579,-0.359425,0.117975,-0.21065
1679930615531,1110603885314733,-0.36135,0.122099996,-0.208725
1679930615535,1110603887816887,-0.3584625,0.119075,-0.208725
1679930615536,1110603890318964,-0.359425,0.1150875,-0.2047375
1679930615538,1110603892821164,-0.3564,0.10505,-0.20075
1679930615540,1110603895323241,-0.3524125,0.1029875,-0.197725
1679930615542,1110603897825395,-0.3493875,0.097075,-0.19167499
1679930615546,1110603900327549,-0.34141248,0.0840125,-0.18975
1679930615548,1110603902829448,-0.337425,0.075075,-0.1907125
1679930615551,1110603905331602,-0.3334375,0.062975,-0.18865
1679930615552,1110603907833756,-0.3273875,0.055,-0.1827375
1679930615555,1110603910335910,-0.3234,0.042075,-0.17765
1679930615559,1110603912837987,-0.3163875,0.0320375,-0.169675
1679930615561,1110603915340140,-0.309375,0.020075,-0.1546875
1679930615563,1110603917842294,-0.3034625,0.013062499,-0.1387375
1679930615565,1110603920344217,-0.29645,0.00605,-0.1247125
1679930615569,1110603922846371,-0.2904,0.0039875,-0.11165
1679930615571,1110603925348525,-0.2864125,0.009075,-0.10065
1679930615573,1110603927850679,-0.2803625,0.009075,-0.08965
1679930615575,1110603930352833,-0.27445,0.020075,-0.081675
1679930615578,1110603932854910,-0.27445,0.031075,-0.076725
1679930615580,1110603935357035,-0.2693625,0.047025,-0.070675
1679930615582,1110603937858958,-0.2613875,0.058025,-0.0666875
1679930615585,1110603940361342,-0.26345,0.0699875,-0.06765
1679930615587,1110603942863265,-0.2594625,0.080025,-0.065725
1679930615591,1110603945365400,-0.25245,0.095975,-0.0627
1679930615593,1110603947867554,-0.249425,0.109037496,-0.0666875
1679930615597,1110603950369631,-0.2484625,0.119075,-0.0627
1679930615598,1110603952871785,-0.2473625,0.128975,-0.0666875
1679930615601,1110603955373713,-0.243375,0.1310375,-0.06765
1679930615602,1110603957876098,-0.2424125,0.1390125,-0.0666875
1679930615605,1110603960378021,-0.24035,0.1370875,-0.0666875
1679930615608,1110603962880098,-0.2344375,0.130075,-0.06765
1679930615611,1110603965382265,-0.227425,0.124025,-0.06875
1679930615612,1110603967884496,-0.2264625,0.117975,-0.06765
1679930615615,1110603970386573,-0.2143625,0.1111,-0.0716375
1679930615618,1110603972888727,-0.2134,0.1040875,-0.0727375
1679930615621,1110603975390646,-0.210375,0.0900625,-0.0746625
1679930615622,1110603977892800,-0.205425,0.0809875,-0.07865
1679930615626,1110603980394877,-0.2014375,0.07205,-0.07975
1679930615628,1110603982897031,-0.19745,0.066,-0.0826375
1679930615632,1110603985399247,-0.1934625,0.0620125,-0.0837375
1679930615635,1110603987901400,-0.19139999,0.0540375,-0.07975
1679930615636,1110603990403477,-0.183425,0.051975,-0.075625
1679930615638,1110603992905400,-0.17847499,0.0479875,-0.0746625
1679930615640,1110603995407554,-0.177375,0.0479875,-0.0716375
1679930615642,1110603997909732,-0.17435,0.050049998,-0.070675
1679930615647,1110604000411886,-0.172425,0.050049998,-0.06765
1679930615648,1110604002914040,-0.172425,0.0460625,-0.06765
1679930615651,1110604005416117,-0.17435,0.044,-0.06875
1679930615653,1110604007918286,-0.1764125,0.0400125,-0.06875
1679930615655,1110604010420209,-0.177375,0.0369875,-0.0697125
1679930615657,1110604012922362,-0.17847499,0.0350625,-0.06765
1679930615660,1110604015424516,-0.1813625,0.033,-0.06765
1679930615662,1110604017926670,-0.1813625,0.031075,-0.0666875
1679930615665,1110604020428824,-0.183425,0.02805,-0.0617375
1679930615668,1110604022930901,-0.183425,0.025024999,-0.0617375
1679930615673,1110604025433055,-0.1824625,0.0240625,-0.05775
1679930615675,1110604027934958,-0.1824625,0.025024999,-0.0517
1679930615676,1110604030437112,-0.17847499,0.022,-0.0517
1679930615678,1110604032939266,-0.1764125,0.0240625,-0.048675
1679930615681,1110604035441419,-0.17847499,0.0240625,-0.04675
1679930615682,1110604037943573,-0.183425,0.02805,-0.045649998
1679930615686,1110604040445669,-0.18645,0.031075,-0.0416625
1679930615688,1110604042947823,-0.18535,0.0380875,-0.0386375
1679930615691,1110604045449977,-0.1874125,0.042075,-0.0367125
1679930615692,1110604047951900,-0.18535,0.050049998,-0.032725
1679930615695,1110604050454285,-0.1874125,0.053075,-0.0297
1679930615697,1110604052956208,-0.189475,0.058025,-0.026675
1679930615700,1110604055458362,-0.188375,0.0671,-0.020624999
1679930615703,1110604057960450,-0.19139999,0.069025,-0.0196625
1679930615706,1110604060462603,-0.19139999,0.0710875,-0.0177375
1679930615709,1110604062964757,-0.1923625,0.0809875,-0.0116875
1679930615712,1110604065466680,-0.1904375,0.086075,-0.0086624995
1679930615714,1110604067969070,-0.19139999,0.084975,-0.0056375
1679930615715,1110604070470993,-0.194425,0.084975,-0.00275
1679930615719,1110604072973147,-0.1953875,0.086075,2.75E-4
1679930615721,1110604075475224,-0.1934625,0.087037496,0.0033
1679930615723,1110604077977378,-0.1923625,0.0840125,0.006325
1679930615726,1110604080479546,-0.18645,0.087037496,0.0053625
1679930615728,1110604082981469,-0.1843875,0.087037496,0.0042625
1679930615731,1110604085483622,-0.1843875,0.084975,0.0053625
1679930615734,1110604087985776,-0.1824625,0.08305,-6.875E-4
1679930615735,1110604090487930,-0.1843875,0.0790625,-0.00275
1679930615738,1110604092990094,-0.18535,0.0840125,-0.0037125
1679930615740,1110604095492171,-0.18535,0.086075,-0.0037125
1679930615743,1110604097994325,-0.1874125,0.0820875,-0.0037125
1679930615746,1110604100496512,-0.188375,0.084975,-0.0077
1679930615748,1110604102998435,-0.19139999,0.08305,-0.0067375
1679930615751,1110604105500589,-0.189475,0.0790625,-0.0056375
1679930615753,1110604108002742,-0.1923625,0.0820875,-0.004675
1679930615755,1110604110504896,-0.194425,0.0790625,-0.0067375
1679930615758,1110604113006978,-0.20047499,0.0730125,-0.0037125
1679930615761,1110604115509132,-0.2033625,0.069025,-0.00165
1679930615763,1110604118011286,-0.20735,0.066,-0.00275
1679930615767,1110604120513440,-0.2143625,0.062975,-0.004675
1679930615768,1110604123015353,-0.2143625,0.061049998,-0.0067375
1679930615771,1110604125517507,-0.2204125,0.053075,-0.0086624995
1679930615773,1110604128019584,-0.2264625,0.0510125,-0.01265
1679930615775,1110604130521737,-0.2264625,0.042075,-0.01265
1679930615778,1110604133023657,-0.23045,0.039049998,-0.010725
1679930615781,1110604135526041,-0.232375,0.0341,-0.009625
1679930615785,1110604138028195,-0.2283875,0.029975,-0.010725
1679930615786,1110604140530349,-0.227425,0.022,-0.009625
1679930615788,1110604143032281,-0.2253625,0.020075,-0.0116875
1679930615791,1110604145534358,-0.21945,0.0180125,-0.010725
1679930615793,1110604148036512,-0.2173875,0.0160875,-0.015675
1679930615795,1110604150538743,-0.216425,0.0180125,-0.020624999
1679930615798,1110604153040829,-0.2154625,0.0180125,-0.0226875
1679930615801,1110604155542983,-0.211475,0.013062499,-0.0287375
1679930615803,1110604158044906,-0.2143625,0.0149875,-0.0306625
1679930615806,1110604160547060,-0.210375,0.022,-0.0407
1679930615808,1110604163049137,-0.210375,0.0210375,-0.043725
1679930615811,1110604165551276,-0.2094125,0.0290125,-0.0507375
1679930615813,1110604168053507,-0.20735,0.0369875,-0.054725
1679930615815,1110604170555584,-0.20845,0.0369875,-0.05775
1679930615819,1110604173057738,-0.210375,0.0479875,-0.065725
1679930615823,1110604175559666,-0.20845,0.058025,-0.0666875
1679930615824,1110604178061820,-0.211475,0.064075,-0.073699996
1679930615825,1110604180563896,-0.2134,0.0710875,-0.07865
1679930615827,1110604183066127,-0.21835,0.0730125,-0.07975
1679930615830,1110604185568257,-0.2204125,0.0820875,-0.0856625
1679930615833,1110604188070334,-0.221375,0.086075,-0.087725
1679930615835,1110604190572488,-0.221375,0.088,-0.0886875
1679930615838,1110604193074411,-0.2234375,0.0900625,-0.08965
1679930615841,1110604195576584,-0.2204125,0.0919875,-0.0917125
1679930615843,1110604198078738,-0.221375,0.09405,-0.093637496
1679930615846,1110604200580891,-0.2173875,0.095975,-0.0947375
1679930615849,1110604203083045,-0.2154625,0.0950125,-0.095699996
1679930615851,1110604205585122,-0.2154625,0.0919875,-0.10175
1679930615853,1110604208087276,-0.2143625,0.099,-0.1027125
1679930615856,1110604210589430,-0.216425,0.102025,-0.104637496
1679930615860,1110604213091584,-0.21945,0.097075,-0.1076625
1679930615862,1110604215593493,-0.22247499,0.099,-0.109725
1679930615863,1110604218095647,-0.2264625,0.099,-0.11275
1679930615868,1110604220597801,-0.227425,0.095975,-0.115637496
1679930615870,1110604223099878,-0.2283875,0.0950125,-0.1167375
1679930615871,1110604225601801,-0.2314125,0.091025,-0.117699996
1679930615873,1110604228104204,-0.227425,0.09405,-0.119625
1679930615875,1110604230606358,-0.2264625,0.0891,-0.119625
1679930615878,1110604233108281,-0.2234375,0.088,-0.1216875
1679930615881,1110604235610435,-0.22247499,0.0891,-0.1266375
1679930615884,1110604238112521,-0.21945,0.084975,-0.131725
1679930615886,1110604240614675,-0.2204125,0.080025,-0.1326875
1679930615888,1110604243116829,-0.216425,0.073975,-0.1387375
1679930615890,1110604245618983,-0.216425,0.066,-0.142725
1679930615893,1110604248121136,-0.2204125,0.0561,-0.14465
1679930615898,1110604250623055,-0.221375,0.051975,-0.152625
1679930615899,1110604253125209,-0.2234375,0.0400125,-0.15675
1679930615902,1110604255627286,-0.2244,0.0341,-0.1596375
1679930615903,1110604258129440,-0.2264625,0.02805,-0.16775
1679930615905,1110604260631680,-0.2244,0.0160875,-0.1656875
1679930615908,1110604263133757,-0.221375,0.0050875,-0.16665
1679930615911,1110604265635911,-0.221375,-0.0039875,-0.169675
1679930615913,1110604268137834,-0.221375,-0.014025,-0.1687125
1679930615918,1110604270639983,-0.21945,-0.0199375,-0.1656875
1679930615919,1110604273142059,-0.2134,-0.0319,-0.16775
1679930615922,1110604275644213,-0.210375,-0.0400125,-0.1706375
1679930615923,1110604278146444,-0.2143625,-0.0419375,-0.17173749
1679930615926,1110604280648521,-0.2143625,-0.0479875,-0.1766875
1679930615928,1110604283150695,-0.2134,-0.0529375,-0.17765
1679930615930,1110604285652618,-0.2094125,-0.0589875,-0.1837
1679930615937,1110604288154772,-0.2063875,-0.064899996,-0.18865
1679930615937,1110604290656849,-0.205425,-0.064899996,-0.1907125
1679930615939,1110604293159070,-0.2063875,-0.0669625,-0.1947
1679930615941,1110604295661223,-0.205425,-0.069025,-0.19965
1679930615943,1110604298163300,-0.2024,-0.069025,-0.2036375
1679930615946,1110604300665454,-0.2033625,-0.069025,-0.202675
1679930615948,1110604303167377,-0.2033625,-0.0669625,-0.202675
1679930615951,1110604305669536,-0.2014375,-0.0620125,-0.208725
1679930615953,1110604308171690,-0.20047499,-0.05995,-0.21065
1679930615955,1110604310673844,-0.2024,-0.051975,-0.21175
1679930615958,1110604313175998,-0.2024,-0.04895,-0.2167
1679930615960,1110604315678084,-0.2014375,-0.0400125,-0.2167
1679930615963,1110604318180237,-0.2024,-0.0309375,-0.2176625
1679930615967,1110604320682161,-0.2044625,-0.025024999,-0.218625
1679930615969,1110604323184314,-0.2044625,-0.0099,-0.2176625
1679930615973,1110604325686468,-0.2063875,0.0020625,-0.218625
1679930615975,1110604328188622,-0.205425,0.0070125,-0.2176625
1679930615976,1110604330690776,-0.2033625,0.020075,-0.2176625
1679930615978,1110604333192853,-0.2044625,0.031075,-0.218625
1679930615981,1110604335695017,-0.205425,0.039049998,-0.2206875
1679930615983,1110604338196940,-0.20845,0.0451,-0.219725
1679930615985,1110604340699094,-0.20845,0.0510125,-0.22275
1679930615988,1110604343201478,-0.211475,0.0540375,-0.2267375
1679930615991,1110604345703401,-0.2134,0.0589875,-0.2267375
1679930615993,1110604348205478,-0.216425,0.061049998,-0.2286625
1679930615995,1110604350707632,-0.211475,0.0650375,-0.23265
1679930615998,1110604353209786,-0.2094125,0.066,-0.229625
1679930616000,1110604355711964,-0.210375,0.0680625,-0.229625
1679930616003,1110604358213887,-0.2094125,0.0699875,-0.23265
1679930616006,1110604360716041,-0.2024,0.0680625,-0.23375
1679930616009,1110604363218171,-0.1984125,0.0699875,-0.229625
1679930616012,1110604365720324,-0.20047499,0.073975,-0.2277
1679930616014,1110604368222401,-0.20047499,0.0699875,-0.2277
1679930616015,1110604370724555,-0.1953875,0.0699875,-0.2256375
1679930616018,1110604373226478,-0.1953875,0.0680625,-0.2176625
1679930616021,1110604375728632,-0.1984125,0.0699875,-0.207625
1679930616023,1110604378230786,-0.1934625,0.0671,-0.197725
1679930616025,1110604380732940,-0.19139999,0.0710875,-0.1827375
1679930616028,1110604383235094,-0.194425,0.073975,-0.1706375
1679930616031,1110604385737185,-0.1923625,0.0730125,-0.15565
1679930616036,1110604388239339,-0.1874125,0.077,-0.1397
1679930616036,1110604390741262,-0.1923625,0.0820875,-0.1247125
1679930616038,1110604393243646,-0.1934625,0.088,-0.119625
1679930616041,1110604395745530,-0.19139999,0.100099996,-0.1106875
1679930616043,1110604398247684,-0.199375,0.1010625,-0.1027125
1679930616047,1110604400749838,-0.19139999,0.100099996,-0.0966625
1679930616055,1110604403251915,-0.1874125,0.1029875,-0.095699996
1679930616055,1110604405754074,-0.1843875,0.1040875,-0.092675
1679930616055,1110604408255997,-0.183425,0.1010625,-0.08965
1679930616056,1110604410758382,-0.17545,0.091025,-0.09075
1679930616058,1110604413260535,-0.172425,0.087037496,-0.09075
1679930616060,1110604415762458,-0.166375,0.086075,-0.0917125
1679930616063,1110604418264616,-0.1584,0.078099996,-0.09075
1679930616065,1110604420766693,-0.15235,0.0699875,-0.0917125
1679930616068,1110604423268847,-0.1483625,0.066,-0.095699996
1679930616071,1110604425770997,-0.14739999,0.0589875,-0.095699996
1679930616073,1110604428272920,-0.14245,0.0510125,-0.092675
1679930616075,1110604430775074,-0.134475,0.044,-0.0886875
1679930616078,1110604433277228,-0.1254,0.0369875,-0.0826375
1679930616081,1110604435779290,-0.122375,0.0290125,-0.076725
1679930616085,1110604438281520,-0.112475,0.0210375,-0.0727375
1679930616086,1110604440783674,-0.1054625,0.0121,-0.065725
1679930616088,1110604443285751,-0.100375,0.003025,-0.0556875
1679930616091,1110604445787674,-0.09845,-0.001925,-0.042625
1679930616093,1110604448289823,-0.091437496,-0.011,-0.03575
1679930616095,1110604450791977,-0.08745,-0.0209,-0.0276375
1679930616098,1110604453294131,-0.0853875,-0.023924999,-0.021724999
1679930616102,1110604455796285,-0.0823625,-0.0279125,-0.015675
1679930616104,1110604458298449,-0.07645,-0.0319,-0.009625
1679930616106,1110604460800525,-0.0724625,-0.036025,-0.0037125
1679930616108,1110604463302449,-0.0713625,-0.040975,-0.00275
1679930616112,1110604465804602,-0.0713625,-0.044,-0.00165
1679930616113,1110604468306737,-0.067375,-0.04895,-6.875E-4
1679930616117,1110604470808891,-0.0614625,-0.051975,2.75E-4
1679930616120,1110604473311045,-0.0614625,-0.0559625,0.0033
1679930616124,1110604475813117,-0.0594,-0.0499125,0.0033
1679930616126,1110604478314194,-0.051425,-0.058025,0.006325
1679930616126,1110604480815271,-0.045375,-0.0609125,0.00825
1679930616129,1110604483319348,-0.046475,-0.0639375,0.0103124995
1679930616131,1110604485821732,-0.0394625,-0.064899996,0.015262499
1679930616133,1110604488323655,-0.0334125,-0.0669625,0.0182875
1679930616136,1110604490825785,-0.0264,-0.067925,0.023375
1679930616138,1110604493327862,-0.02035,-0.0749375,0.0262625
1679930616141,1110604495830016,-0.012375,-0.0779625,0.03135
1679930616143,1110604498332170,-0.0053625,-0.0749375,0.0323125
1679930616145,1110604500834098,-0.002475,-0.073975,0.0273625
1679930616148,1110604503336483,0.0026125,-0.07095,0.03025
1679930616152,1110604505838406,0.009625,-0.0669625,0.0363
1679930616153,1110604508340560,0.0075625,-0.062975,0.04235
1679930616155,1110604510842631,0.0075625,-0.0559625,0.044275
1679930616159,1110604513344785,0.0166375,-0.056925,0.044275
1679930616162,1110604515846939,0.02365,-0.0499125,0.0473
1679930616164,1110604518348862,0.0265375,-0.0449625,0.05335
1679930616165,1110604520851016,0.031625,-0.0449625,0.055275
1679930616168,1110604523353170,0.03355,-0.0429,0.055275
1679930616171,1110604525855324,0.0375375,-0.0429,0.0573375
1679930616176,1110604528357478,0.0375375,-0.0449625,0.056375
1679930616178,1110604530859565,0.0435875,-0.0339625,0.056375
1679930616178,1110604533361488,0.042625,-0.029975,0.0543125
1679930616181,1110604535863872,0.0396,-0.0279125,0.0543125
1679930616186,1110604538366026,0.0405625,-0.025024999,0.056375
1679930616189,1110604540867949,0.042625,-0.023924999,0.0583
1679930616189,1110604543370103,0.042625,-0.0229625,0.0622875
1679930616191,1110604545872257,0.045649998,-0.01595,0.06325
1679930616193,1110604548374334,0.0435875,-0.014025,0.0622875
1679930616200,1110604550876468,0.0466125,-0.011,0.0683375
1679930616201,1110604553378622,0.0506,-0.0089375,0.0702625
1679930616202,1110604555880775,0.047575,-0.011,0.0683375
1679930616203,1110604558382698,0.047575,-0.012925,0.06435
1679930616206,1110604560884852,0.0506,-0.01595,0.0653125
1679930616208,1110604563386929,0.0506,-0.018975,0.0622875
1679930616211,1110604565889113,0.0485375,-0.0199375,0.0603625
1679930616213,1110604568391036,0.0485375,-0.0169125,0.056375
1679930616216,1110604570893421,0.0506,-0.0229625,0.0573375
1679930616218,1110604573395580,0.052525,-0.0199375,0.0543125
1679930616221,1110604575897734,0.052525,-0.023924999,0.0543125
1679930616223,1110604578399657,0.0485375,-0.025024999,0.0543125
1679930616226,1110604580901734,0.052525,-0.0229625,0.055275
1679930616228,1110604583403887,0.053625,-0.0209,0.055275
1679930616231,1110604585906123,0.052525,-0.01595,0.0543125
1679930616235,1110604588408200,0.0496375,-0.01595,0.05335
1679930616237,1110604590910354,0.052525,-0.014025,0.055275
1679930616238,1110604593412277,0.053625,-0.011,0.056375
1679930616241,1110604595914426,0.047575,-0.007975,0.055275
1679930616243,1110604598416503,0.045649998,-0.0059125,0.0543125
1679930616248,1110604600918657,0.0435875,-0.007975,0.052249998
1679930616249,1110604603420887,0.042625,-0.0070125,0.0512875
1679930616251,1110604605922968,0.041525,-0.0039875,0.0482625
1679930616253,1110604608425122,0.0386375,-0.00495,0.0473
1679930616256,1110604610927045,0.0405625,-0.00495,0.0473
1679930616259,1110604613429199,0.041525,-9.625E-4,0.0433125
1679930616261,1110604615931291,0.036575,0.0011,0.04235
1679930616263,1110604618433445,0.0386375,0.0020625,0.041249998
1679930616265,1110604620935676,0.0375375,0.00605,0.039325
1679930616268,1110604623437753,0.036575,0.0039875,0.0383625
1679930616273,1110604625939906,0.0325875,0.003025,0.0353375
1679930616275,1110604628441830,0.0356125,0.007975,0.03135
1679930616276,1110604630943983,0.03355,0.0070125,0.028324999
1679930616278,1110604633446137,0.031625,0.00605,0.0273625
1679930616285,1110604635948296,0.03355,0.0070125,0.0253
1679930616286,1110604638450450,0.0325875,0.0011,0.023375
1679930616287,1110604640952527,0.031625,0.0020625,0.0243375
1679930616289,1110604643454681,0.031625,0.0050875,0.023375
1679930616291,1110604645956604,0.030524999,0.003025,0.0243375
1679930616293,1110604648458762,0.0276375,0.003025,0.028324999
1679930616295,1110604650960916,0.0295625,0.003025,0.0243375
1679930616298,1110604653463069,0.0265375,0.0070125,0.022275
1679930616301,1110604655965223,0.0265375,0.009075,0.0262625
1679930616303,1110604658467324,0.0265375,0.0160875,0.0262625
1679930616306,1110604660969247,0.0286,0.014025,0.0253
1679930616310,1110604663471632,0.0286,0.0149875,0.0213125
1679930616312,1110604665973786,0.0265375,0.0160875,0.01925
1679930616314,1110604668475705,0.0246125,0.0210375,0.0182875
1679930616316,1110604670977859,0.0215875,0.0180125,0.0163625
1679930616326,1110604673479936,0.019524999,0.022,0.0143
1679930616327,1110604675982089,0.0176,0.01705,0.0143
1679930616327,1110604678484046,0.0155375,0.0149875,0.0133375
1679930616330,1110604680986430,0.01265,0.020075,0.0143
1679930616331,1110604683488584,0.0075625,0.020075,0.0163625
1679930616335,1110604685990507,0.0075625,0.0149875,0.0143
1679930616336,1110604688492661,0.0056375,0.013062499,0.0163625
1679930616337,1110604690994733,0.0045375,0.0050875,0.0163625
1679930616341,1110604693496887,0.003575,0.0,0.0163625
1679930616341,1110604695999118,0.0026125,0.0039875,0.01925
1679930616344,1110604698501194,5.5E-4,0.0011,0.01925
1679930616347,1110604701003334,-0.002475,-0.0039875,0.022275
1679930616350,1110604703505257,-0.0053625,-0.0039875,0.0262625
1679930616352,1110604706007411,-0.0034375,-0.00495,0.0213125
1679930616354,1110604708509488,-0.0044,-0.0089375,0.022275
1679930616356,1110604711011642,-0.00935,-0.014025,0.023375
1679930616358,1110604713513878,-0.0083875,-0.018975,0.0253
1679930616360,1110604716015955,-0.0083875,-0.01595,0.03025
1679930616363,1110604718518109,-0.0053625,-0.0199375,0.0353375
1679930616366,1110604721020032,-0.00935,-0.023924999,0.0372625
1679930616368,1110604723522194,-0.00935,-0.023924999,0.0383625
1679930616371,1110604726024271,-0.01045,-0.0259875,0.04235
1679930616373,1110604728526502,-0.00935,-0.0229625,0.0463375
1679930616376,1110604731028656,-0.0114124995,-0.0199375,0.0463375
1679930616378,1110604733530743,-0.012375,-0.0180125,0.0482625
1679930616381,1110604736032666,-0.013475,-0.011,0.0482625
1679930616385,1110604738534820,-0.0144375,-0.0119624995,0.0473
1679930616386,1110604741036974,-0.0163625,-0.0099,0.0463375
1679930616388,1110604743539128,-0.02035,-0.0039875,0.0473
1679930616391,1110604746041266,-0.02145,-0.001925,0.0493625
1679930616393,1110604748543343,-0.0264,0.0,0.0473
1679930616396,1110604751045497,-0.024475,0.0039875,0.052249998
1679930616398,1110604753547651,-0.0224125,-9.625E-4,0.0512875
1679930616402,1110604756049570,-0.0264,-9.625E-4,0.0512875
1679930616403,1110604758551724,-0.0254375,-0.003025,0.052249998
1679930616406,1110604761053801,-0.0273625,0.0011,0.0482625
1679930616408,1110604763556032,-0.0273625,0.003025,0.0482625
1679930616411,1110604766058099,-0.0284625,-0.001925,0.0463375
1679930616413,1110604768560253,-0.03135,-0.001925,0.04235
1679930616415,1110604771062406,-0.032449998,0.0039875,0.045375
1679930616418,1110604773564329,-0.032449998,0.00605,0.044275
1679930616422,1110604776066478,-0.032449998,0.0039875,0.0433125
1679930616424,1110604778568632,-0.0334125,0.0020625,0.041249998
1679930616426,1110604781070786,-0.035475,0.0039875,0.04235
1679930616428,1110604783572863,-0.034375,0.003025,0.04235
1679930616431,1110604786075017,-0.032449998,-0.001925,0.04235
1679930616434,1110604788577176,-0.034375,-0.0039875,0.039325
1679930616436,1110604791079099,-0.034375,-0.0070125,0.0353375
1679930616438,1110604793581253,-0.0334125,-0.0119624995,0.0372625
1679930616441,1110604796083406,-0.0334125,-0.0169125,0.0372625
1679930616443,1110604798585550,-0.0314875,-0.0210375,0.0353375
1679930616446,1110604801087704,-0.029424999,-0.0259875,0.0383625
1679930616448,1110604803589781,-0.0314875,-0.029975,0.0383625
1679930616451,1110604806091935,-0.032449998,-0.0309375,0.0372625
1679930616453,1110604808593873,-0.032449998,-0.0320375,0.0383625
1679930616456,1110604811096027,-0.0314875,-0.0320375,0.0402875
1679930616460,1110604813598181,-0.0273625,-0.0290125,0.0402875
1679930616462,1110604816100335,-0.0273625,-0.0259875,0.04235
1679930616463,1110604818602473,-0.023375,-0.025024999,0.044275
1679930616467,1110604821104550,-0.02145,-0.0229625,0.045375
1679930616469,1110604823606704,-0.0193875,-0.0210375,0.04235
1679930616471,1110604826108627,-0.0204875,-0.0199375,0.04235
1679930616473,1110604828611012,-0.02145,-0.018975,0.041249998
1679930616475,1110604831112930,-0.0204875,-0.0169125,0.0402875
1679930616478,1110604833615084,-0.018424999,-0.012925,0.039325
1679930616481,1110604836117238,-0.013475,-0.007975,0.0372625
1679930616484,1110604838619315,-0.0174625,-0.003025,0.0363
1679930616486,1110604841121468,-0.0154,0.0,0.0372625
1679930616488,1110604843623392,-0.012375,9.625E-4,0.0372625
1679930616491,1110604846125776,-0.013475,0.0050875,0.0383625
1679930616493,1110604848627930,-0.012375,0.007975,0.0372625
1679930616498,1110604851129815,-0.013475,0.011,0.0383625
1679930616499,1110604853631969,-0.012375,0.0070125,0.039325
1679930616502,1110604856134046,-0.01045,0.009075,0.039325
1679930616503,1110604858636200,-0.0114124995,0.007975,0.0402875
1679930616506,1110604861138123,-0.012375,0.0119624995,0.0363
1679930616509,1110604863640507,-0.01045,0.00605,0.0353375
1679930616511,1110604866142661,-0.0094875,0.00605,0.033275
1679930616514,1110604868644584,-0.01045,0.009075,0.0353375
1679930616515,1110604871146661,-0.0083875,0.011,0.0363
1679930616518,1110604873648824,-0.007425,0.0050875,0.0353375
1679930616521,1110604876150978,-0.0083875,0.00605,0.0353375
1679930616523,1110604878653132,-0.0083875,0.0039875,0.0363
1679930616525,1110604881155286,-0.0083875,0.007975,0.0363
1679930616528,1110604883657209,-0.012375,0.0119624995,0.0353375
1679930616531,1110604886159373,-0.0154,0.009075,0.0383625
1679930616535,1110604888661527,-0.023375,0.0050875,0.041249998
1679930616536,1110604891163680,-0.0284625,0.003025,0.0433125
1679930616538,1110604893665757,-0.0314875,-0.003025,0.04235
1679930616541,1110604896167906,-0.0284625,-0.007975,0.0433125
1679930616543,1110604898669829,-0.0224125,-0.0059125,0.0402875
1679930616546,1110604901171983,-0.02145,-0.0070125,0.0372625
1679930616549,1110604903674137,-0.0204875,-0.0070125,0.0363
1679930616551,1110604906176261,-0.0174625,-0.0089375,0.0323125
1679930616553,1110604908678338,-0.0163625,-0.0169125,0.0323125
1679930616556,1110604911180492,-0.0163625,-0.0199375,0.0363
1679930616559,1110604913682645,-0.018424999,-0.0279125,0.033275
1679930616561,1110604916184795,-0.0224125,-0.0369875,0.0363
1679930616563,1110604918686718,-0.0264,-0.0449625,0.041249998
1679930616566,1110604921188795,-0.0254375,-0.0529375,0.0433125
1679930616568,1110604923691026,-0.023375,-0.0589875,0.0463375
1679930616573,1110604926193160,-0.0273625,-0.0650375,0.0482625
1679930616575,1110604928695237,-0.0314875,-0.0609125,0.052249998
1679930616577,1110604931197391,-0.029424999,-0.066,0.055275
1679930616579,1110604933699545,-0.0264,-0.0669625,0.0573375
1679930616582,1110604936201468,-0.0273625,-0.062975,0.0583
1679930616584,1110604938703621,-0.029424999,-0.058025,0.061325
1679930616586,1110604941205775,-0.032449998,-0.0529375,0.06435
1679930616589,1110604943707929,-0.034375,-0.04895,0.066275
1679930616591,1110604946210006,-0.0383625,-0.0479875,0.066275
1679930616593,1110604948712194,-0.0383625,-0.045925,0.072325
1679930616596,1110604951214117,-0.0413875,-0.0419375,0.072325
1679930616598,1110604953716271,-0.0383625,-0.03795,0.0653125
1679930616602,1110604956218420,-0.034375,-0.0430375,0.0653125
1679930616604,1110604958720574,-0.0314875,-0.03795,0.066275
1679930616606,1110604961222727,-0.0284625,-0.0400125,0.066275
1679930616610,1110604963724804,-0.029424999,-0.036025,0.06325
1679930616613,1110604966226972,-0.0314875,-0.0430375,0.0653125
1679930616614,1110604968728895,-0.0314875,-0.0479875,0.0683375
1679930616616,1110604971231049,-0.0284625,-0.051975,0.0683375
1679930616619,1110604973733434,-0.0314875,-0.0589875,0.0713625
1679930616621,1110604976235357,-0.0364375,-0.0620125,0.07535
1679930616624,1110604978737521,-0.0383625,-0.0609125,0.07535
1679930616626,1110604981239598,-0.0383625,-0.0620125,0.07425
1679930616629,1110604983741751,-0.0374,-0.058025,0.07425
1679930616631,1110604986243675,-0.034375,-0.056925,0.0763125
1679930616637,1110604988746068,-0.034375,-0.0559625,0.07535
1679930616638,1110604991248222,-0.0314875,-0.056925,0.0713625
1679930616639,1110604993750145,-0.0273625,-0.0529375,0.066275
1679930616642,1110604996252299,-0.032449998,-0.051975,0.066275
1679930616643,1110604998754381,-0.034375,-0.0510125,0.061325
1679930616648,1110605001256535,-0.0364375,-0.051975,0.0573375
1679930616649,1110605003758458,-0.0394625,-0.045925,0.055275
1679930616652,1110605006260842,-0.043449998,-0.047025,0.05335
1679930616653,1110605008762996,-0.046475,-0.044,0.05335
1679930616656,1110605011264919,-0.0413875,-0.0419375,0.0543125
1679930616658,1110605013766996,-0.0424875,-0.0419375,0.0543125
1679930616661,1110605016269150,-0.0424875,-0.0339625,0.055275
1679930616663,1110605018771304,-0.0444125,-0.0309375,0.055275
1679930616666,1110605021273559,-0.043449998,-0.0279125,0.0512875
1679930616669,1110605023775636,-0.0394625,-0.0259875,0.052249998
1679930616674,1110605026277559,-0.040425,-0.0259875,0.0493625
1679930616678,1110605028779713,-0.040425,-0.023924999,0.0433125
1679930616678,1110605031281800,-0.0444125,-0.018975,0.041249998
1679930616679,1110605033783953,-0.0424875,-0.0100375,0.0402875
1679930616681,1110605036286107,-0.0413875,-0.003025,0.0372625
1679930616685,1110605038788314,-0.046475,-9.625E-4,0.03135
1679930616686,1110605041290391,-0.0413875,0.0020625,0.03135
1679930616689,1110605043792314,-0.0383625,0.0039875,0.0323125
1679930616691,1110605046294468,-0.0413875,0.0070125,0.03135
1679930616693,1110605048796622,-0.0394625,0.013062499,0.028324999
1679930616696,1110605051298689,-0.040425,0.01705,0.0273625
1679930616698,1110605053800843,-0.0424875,0.0160875,0.0253
1679930616701,1110605056302996,-0.040425,0.0210375,0.0243375
1679930616703,1110605058805150,-0.0394625,0.0229625,0.0262625
1679930616706,1110605061307078,-0.0413875,0.0240625,0.0253
1679930616708,1110605063809232,-0.0394625,0.020075,0.0262625
1679930616711,1110605066311386,-0.0424875,0.014025,0.023375
1679930616714,1110605068813463,-0.0444125,0.0119624995,0.02035
1679930616716,1110605071315724,-0.0413875,0.0119624995,0.0213125
1679930616718,1110605073817801,-0.0413875,0.007975,0.015262499
1679930616725,1110605076319955,-0.040425,0.0050875,0.0163625
1679930616726,1110605078822108,-0.0394625,0.0020625,0.015262499
1679930616727,1110605081324032,-0.0413875,-9.625E-4,0.0143
1679930616729,1110605083826185,-0.0394625,-0.00495,0.0143
1679930616731,1110605086328262,-0.040425,-0.0089375,0.0103124995
1679930616735,1110605088830493,-0.0413875,-0.012925,0.00935
1679930616737,1110605091332570,-0.0374,-0.0149875,0.0103124995
1679930616738,1110605093834733,-0.035475,-0.0210375,0.0133375
1679930616741,1110605096336887,-0.032449998,-0.023924999,0.011275
1679930616743,1110605098838810,-0.0314875,-0.0279125,0.0143
1679930616746,1110605101340964,-0.029424999,-0.029975,0.0143
1679930616749,1110605103843051,-0.0284625,-0.0279125,0.0163625
1679930616752,1110605106345281,-0.023375,-0.033,0.01925
1679930616754,1110605108847358,-0.0284625,-0.0290125,0.0182875
1679930616758,1110605111349512,-0.0254375,-0.029975,0.0253
1679930616760,1110605113851651,-0.02145,-0.02695,0.0262625
1679930616763,1110605116353574,-0.0224125,-0.02695,0.0292875
1679930616765,1110605118855728,-0.023375,-0.02695,0.028324999
1679930616766,1110605121357882,-0.0193875,-0.0229625,0.0292875
1679930616769,1110605123859959,-0.0193875,-0.0180125,0.03135
1679930616771,1110605126362099,-0.0204875,-0.0169125,0.03025
1679930616773,1110605128864252,-0.0193875,-0.0149875,0.03135
1679930616776,1110605131366406,-0.0174625,-0.0100375,0.0323125
1679930616779,1110605133868560,-0.018424999,-0.0070125,0.0353375
1679930616781,1110605136370483,-0.0224125,-0.003025,0.0372625
1679930616785,1110605138872637,-0.023375,0.003025,0.0383625
1679930616786,1110605141374714,-0.0204875,0.0050875,0.0473
1679930616788,1110605143876868,-0.02145,0.0039875,0.0482625
1679930616792,1110605146379003,-0.02145,0.0039875,0.0463375
1679930616793,1110605148881157,-0.0193875,0.0050875,0.0512875
1679930616797,1110605151383310,-0.0204875,0.0,0.05335
1679930616799,1110605153885233,-0.0204875,-9.625E-4,0.05335
1679930616802,1110605156387363,-0.018424999,-0.003025,0.05335
1679930616804,1110605158889517,-0.0204875,-0.001925,0.0512875
1679930616806,1110605161391594,-0.024475,-0.007975,0.0473
1679930616809,1110605163893748,-0.0284625,-0.0089375,0.04235
1679930616812,1110605166395902,-0.0273625,-0.0119624995,0.04235
1679930616814,1110605168898056,-0.0254375,-0.0100375,0.04235
1679930616816,1110605171399979,-0.0284625,-0.007975,0.0402875
1679930616818,1110605173902133,-0.029424999,-0.011,0.0363
1679930616821,1110605176404286,-0.0273625,-0.007975,0.0363
1679930616823,1110605178906377,-0.0264,-0.0070125,0.0363
1679930616826,1110605181408608,-0.0273625,-0.0039875,0.0323125
1679930616828,1110605183910685,-0.0254375,-0.0039875,0.033275
1679930616832,1110605186412839,-0.029424999,-9.625E-4,0.033275
1679930616835,1110605188914767,-0.0314875,-9.625E-4,0.033275
1679930616837,1110605191416921,-0.0273625,0.003025,0.033275
1679930616838,1110605193919075,-0.0284625,0.00605,0.03025
1679930616841,1110605196421152,-0.0284625,0.007975,0.03025
1679930616844,1110605198923305,-0.0284625,0.011,0.03025
1679930616849,1110605201425435,-0.0284625,0.00605,0.03135
1679930616849,1110605203927589,-0.029424999,0.0070125,0.0292875
1679930616852,1110605206429743,-0.0264,0.007975,0.0292875
1679930616853,1110605208931666,-0.024475,0.00605,0.03025
1679930616856,1110605211433743,-0.0224125,0.00605,0.0292875
1679930616859,1110605213935925,-0.023375,9.625E-4,0.0292875
1679930616862,1110605216438156,-0.023375,-0.001925,0.028324999
1679930616864,1110605218940233,-0.02145,0.0,0.0262625
1679930616866,1110605221442386,-0.0204875,0.0020625,0.0273625
1679930616869,1110605223944291,-0.0163625,0.0020625,0.028324999
1679930616873,1110605226446444,-0.0154,0.0,0.0262625
1679930616875,1110605228948521,-0.0144375,-0.0039875,0.0262625
1679930616877,1110605231450752,-0.0144375,-0.003025,0.0253
1679930616879,1110605233952906,-0.0114124995,-0.0070125,0.023375
1679930616881,1110605236454983,-0.0094875,-0.0100375,0.023375
1679930616885,1110605238957137,-0.0094875,-0.0070125,0.023375
1679930616886,1110605241459060,-0.0094875,-0.0100375,0.022275
1679930616889,1110605243961204,-0.01045,-0.0089375,0.0213125
1679930616891,1110605246463358,-0.0114124995,-0.00495,0.0213125
1679930616894,1110605248965511,-0.01045,-0.001925,0.01925
1679930616896,1110605251467665,-0.0094875,0.0020625,0.01925
1679930616899,1110605253969742,-0.01045,0.0039875,0.01925
1679930616902,1110605256471896,-0.012375,0.0070125,0.01925
1679930616904,1110605258973819,-0.013475,0.013062499,0.02035
1679930616906,1110605261475973,-0.012375,0.0160875,0.022275
1679930616910,1110605263978344,-0.0083875,0.022,0.023375
1679930616913,1110605266480267,-0.0053625,0.025024999,0.0243375
1679930616914,1110605268982420,-0.002475,0.02805,0.0243375
1679930616916,1110605271484497,-0.0034375,0.029975,0.023375
1679930616919,1110605273986651,5.5E-4,0.036025,0.0253
1679930616922,1110605276488560,0.0056375,0.036025,0.0243375
1679930616923,1110605278990714,0.003575,0.0350625,0.022275
1679930616926,1110605281493099,5.5E-4,0.0339625,0.02035
1679930616929,1110605283995022,-0.001375,0.036025,0.022275
1679930616932,1110605286497079,-4.125E-4,0.033,0.02035
1679930616935,1110605288999233,-0.0034375,0.0339625,0.0213125
1679930616937,1110605291501387,-0.0055,0.0350625,0.022275
1679930616938,1110605294003540,-0.0064625,0.0369875,0.0213125
1679930616941,1110605296505454,-0.01045,0.039049998,0.0213125
1679930616944,1110605299007839,-0.01045,0.0369875,0.022275
1679930616948,1110605301509762,-0.0114124995,0.0380875,0.01925
1679930616950,1110605304011839,-0.013475,0.040975,0.02035
1679930616952,1110605306514002,-0.0144375,0.0369875,0.02035
1679930616954,1110605309016156,-0.0165,0.036025,0.0143
1679930616956,1110605311518310,-0.0193875,0.036025,0.02035
1679930616959,1110605314020464,-0.018424999,0.0320375,0.01925
1679930616962,1110605316522387,-0.0204875,0.0320375,0.0163625
1679930616964,1110605319024550,-0.023375,0.025024999,0.0163625
1679930616966,1110605321526704,-0.0254375,0.022,0.0182875
1679930616969,1110605324028781,-0.0275,0.020075,0.0163625
1679930616972,1110605326530935,-0.0284625,0.0149875,0.015262499
1679930616974,1110605329032887,-0.0275,0.009075,0.0133375
1679930616976,1110605331535272,-0.024475,0.0050875,0.0143
1679930616979,1110605334037195,-0.0264,0.003025,0.0143
1679930616981,1110605336539349,-0.0275,-9.625E-4,0.0103124995
1679930616986,1110605339041522,-0.0254375,-0.007975,0.0103124995
1679930616987,1110605341543599,-0.02145,-0.0089375,0.012375
1679930616989,1110605344045752,-0.024475,-0.014025,0.0103124995
1679930616993,1110605346547675,-0.0254375,-0.014025,0.00935
1679930616994,1110605349050060,-0.0254375,-0.0119624995,0.011275
1679930616997,1110605351551978,-0.024475,-0.014025,0.012375
1679930616999,1110605354054132,-0.0264,-0.0169125,0.01925
1679930617001,1110605356556209,-0.0284625,-0.0199375,0.01925
1679930617004,1110605359058440,-0.0264,-0.018975,0.01925
1679930617007,1110605361560575,-0.0264,-0.0119624995,0.023375
1679930617009,1110605364062651,-0.0254375,-0.0119624995,0.022275
1679930617012,1110605366564575,-0.0254375,-0.014025,0.0243375
1679930617014,1110605369066728,-0.024475,-0.01595,0.0292875
1679930617016,1110605371568810,-0.0224125,-0.012925,0.0243375
1679930617019,1110605374071041,-0.0174625,-0.011,0.022275
1679930617023,1110605376573195,-0.013475,-0.0059125,0.0213125
1679930617024,1110605379075272,-0.007425,-0.0070125,0.0163625
1679930617026,1110605381577416,-0.0094875,-0.003025,0.012375
1679930617029,1110605384079339,-0.01045,-9.625E-4,0.0072875
1679930617031,1110605386581493,-0.007425,0.0050875,0.0023375
1679930617036,1110605389083647,-0.007425,0.0119624995,-0.00165
1679930617037,1110605391585800,-0.0094875,0.022,-0.0037125
1679930617039,1110605394087954,-0.0094875,0.0320375,-0.0067375
1679930617041,1110605396590031,-0.0064625,0.039049998,-0.0067375
1679930617044,1110605399092185,-0.0094875,0.042075,-0.009625
1679930617046,1110605401594118,-0.013475,0.0479875,-0.009625
1679930617052,1110605404096272,-0.0114124995,0.051975,-0.0077
1679930617053,1110605406598426,-0.0114124995,0.0559625,-0.0086624995
1679930617054,1110605409100580,-0.01045,0.0559625,-0.0077
1679930617057,1110605411602709,-0.0144375,0.0540375,-0.009625
1679930617060,1110605414104785,-0.0193875,0.0540375,-0.0077
1679930617063,1110605416606939,-0.0204875,0.050049998,-0.0077
1679930617065,1110605419108862,-0.0224125,0.047025,-0.0067375
1679930617066,1110605421611016,-0.0204875,0.040975,-0.004675
1679930617069,1110605424113410,-0.0165,0.040975,-0.004675
1679930617072,1110605426615333,-0.018424999,0.0400125,-0.00165
1679930617074,1110605429117410,-0.0204875,0.0320375,2.75E-4
1679930617076,1110605431619564,-0.0204875,0.0290125,0.0023375
1679930617079,1110605434121752,-0.0193875,0.022,0.0023375
1679930617082,1110605436623905,-0.0154,0.01705,0.0033
1679930617084,1110605439125829,-0.0144375,0.007975,0.0023375
1679930617086,1110605441627982,-0.0114124995,-9.625E-4,0.0033
1679930617089,1110605444130150,-0.0083875,-0.003025,0.0042625
1679930617092,1110605446632304,-0.0094875,-0.007975,0.0033
1679930617094,1110605449134381,-0.0083875,-0.011,0.0053625
1679930617097,1110605451636535,-0.0083875,-0.01595,0.006325
1679930617102,1110605454138713,-0.0064625,-0.0229625,0.0072875
1679930617103,1110605456640636,-0.013475,-0.0229625,0.0072875
1679930617104,1110605459142790,-0.0083875,-0.023924999,0.011275
1679930617106,1110605461644943,-0.0083875,-0.0279125,0.0182875
1679930617109,1110605464147097,-0.0083875,-0.033,0.0182875
1679930617113,1110605466649184,-0.0083875,-0.0259875,0.01925
1679930617115,1110605469151338,-0.007425,-0.0290125,0.01925
1679930617118,1110605471653261,-0.0094875,-0.029975,0.023375
1679930617120,1110605474155631,-0.0083875,-0.029975,0.0243375
1679930617123,1110605476657554,-0.0064625,-0.0309375,0.0243375
1679930617126,1110605479159708,-0.0064625,-0.02695,0.0243375
1679930617128,1110605481661862,-0.002475,-0.0279125,0.0262625
1679930617129,1110605484163939,-0.0034375,-0.023924999,0.023375
1679930617131,1110605486666111,-0.002475,-0.0259875,0.0253
1679930617136,1110605489168034,-0.0044,-0.0199375,0.0262625
1679930617137,1110605491670419,-0.0044,-0.01595,0.0262625
1679930617139,1110605494172573,-0.0064625,-0.01595,0.0243375
1679930617141,1110605496674492,-0.012375,-0.0100375,0.022275
1679930617144,1110605499176646,-0.012375,-0.0149875,0.0253
1679930617146,1110605501678723,-0.012375,-0.01595,0.022275
1679930617149,1110605504180877,-0.0154,-0.0169125,0.023375
1679930617152,1110605506683016,-0.0144375,-0.012925,0.022275
1679930617154,1110605509185169,-0.0144375,-0.0119624995,0.0213125
1679930617156,1110605511687323,-0.0144375,-0.0089375,0.02035
1679930617159,1110605514189246,-0.0174625,-0.0119624995,0.015262499
1679930617162,1110605516691323,-0.0193875,-0.0100375,0.0182875
1679930617164,1110605519193472,-0.02145,-0.0119624995,0.01925
1679930617167,1110605521695626,-0.023375,-0.014025,0.0163625
1679930617169,1110605524197780,-0.0264,-0.014025,0.015262499
1679930617174,1110605526699930,-0.0284625,-0.011,0.0133375
1679930617175,1110605529201853,-0.0284625,-0.014025,0.0133375
1679930617177,1110605531704007,-0.0314875,-0.0119624995,0.011275
1679930617179,1110605534206084,-0.032449998,-0.011,0.0133375
1679930617181,1110605536708237,-0.0334125,-0.007975,0.00935
1679930617184,1110605539210395,-0.034375,-0.011,0.0072875
1679930617186,1110605541712549,-0.035475,-0.011,0.006325
1679930617189,1110605544214703,-0.034375,-0.0119624995,0.0103124995
1679930617191,1110605546716626,-0.0374,-0.0089375,0.006325
1679930617194,1110605549218766,-0.0334125,-0.0100375,0.0042625
1679930617196,1110605551720920,-0.029424999,-0.01595,0.0033
1679930617199,1110605554222997,-0.034375,-0.012925,0.001375
1679930617202,1110605556725227,-0.034375,-0.011,-6.875E-4
1679930617204,1110605559227309,-0.032449998,-0.012925,-0.00165
1679930617206,1110605561729463,-0.034375,-0.01595,-0.00275
1679930617211,1110605564231386,-0.0385,-0.0169125,-0.00275
1679930617213,1110605566733540,-0.0364375,-0.0169125,2.75E-4
1679930617215,1110605569235708,-0.0385,-0.0199375,0.0023375
1679930617216,1110605571737785,-0.0385,-0.023924999,0.0033
1679930617219,1110605574240016,-0.0374,-0.0229625,0.0042625
1679930617223,1110605576742093,-0.0385,-0.02695,0.0053625
1679930617224,1110605579244016,-0.034375,-0.033,0.001375
1679930617226,1110605581746205,-0.032449998,-0.034925,-0.00165
1679930617229,1110605584248589,-0.034375,-0.036025,-0.0067375
1679930617231,1110605586750512,-0.0374,-0.0320375,-0.0067375
1679930617234,1110605589252666,-0.040425,-0.029975,-0.0086624995
1679930617237,1110605591754820,-0.0413875,-0.0279125,-0.0116875
1679930617240,1110605594256897,-0.0413875,-0.02695,-0.010725
1679930617242,1110605596758820,-0.0424875,-0.023924999,-0.0086624995
1679930617244,1110605599260974,-0.043449998,-0.0229625,-0.010725
1679930617249,1110605601763348,-0.0424875,-0.023924999,-0.0077
1679930617253,1110605604265272,-0.040425,-0.0229625,-0.0067375
1679930617254,1110605606767425,-0.0424875,-0.01595,-0.0086624995
1679930617255,1110605609269502,-0.0394625,-0.012925,-0.010725
1679930617256,1110605611771656,-0.0385,-0.0119624995,-0.009625
1679930617259,1110605614273805,-0.0334125,-0.0089375,-0.0086624995
1679930617262,1110605616775959,-0.0275,-0.007975,-0.0077
1679930617264,1110605619278113,-0.0254375,-0.0059125,-0.009625
1679930617267,1110605621780036,-0.024475,-0.003025,-0.009625
1679930617269,1110605624282181,-0.02145,0.0,-0.010725
1679930617272,1110605626784258,-0.0193875,0.0050875,-0.010725
1679930617274,1110605629286411,-0.0174625,0.003025,-0.01375
1679930617276,1110605631788565,-0.02145,0.00605,-0.01265
1679930617280,1110605634290723,-0.0165,0.011,-0.01265
1679930617282,1110605636792877,-0.0144375,0.013062499,-0.01265
1679930617287,1110605639294800,-0.0154,0.009075,-0.015675
1679930617289,1110605641796954,-0.0154,0.011,-0.0177375
1679930617290,1110605644299031,-0.013475,0.011,-0.0166375
1679930617292,1110605646801176,-0.0114124995,0.009075,-0.0166375
1679930617294,1110605649303330,-0.012375,0.0119624995,-0.0177375
1679930617298,1110605651805483,-0.01045,0.014025,-0.021724999
1679930617302,1110605654307406,-0.0114124995,0.0149875,-0.021724999
1679930617303,1110605656809555,-0.0114124995,0.0160875,-0.0226875
1679930617304,1110605659311709,-0.012375,0.0180125,-0.02475
1679930617306,1110605661813863,-0.012375,0.018975,-0.0276375
1679930617309,1110605664315940,-0.013475,0.018975,-0.02475
1679930617311,1110605666818094,-0.0165,0.0229625,-0.02365
1679930617314,1110605669320248,-0.0165,0.0210375,-0.0257125
1679930617316,1110605671822402,-0.0174625,0.018975,-0.02475
1679930617319,1110605674324325,-0.0165,0.0160875,-0.02475
1679930617324,1110605676826478,-0.0154,0.0119624995,-0.021724999
1679930617325,1110605679328555,-0.007425,0.0039875,-0.020624999
1679930617327,1110605681830709,-4.125E-4,0.0,-0.0187
1679930617329,1110605684332863,0.0026125,0.007975,-0.021724999
1679930617331,1110605686835007,-0.001375,0.014025,-0.0196625
1679930617334,1110605689337161,-0.0064625,0.018975,-0.0226875
1679930617337,1110605691839084,-0.0114124995,0.020075,-0.020624999
1679930617339,1110605694341238,-0.0204875,0.013062499,-0.01375
1679930617341,1110605696843325,-0.0264,9.625E-4,-0.0086624995
1679930617344,1110605699345479,-0.0275,-0.0070125,-0.010725
1679930617347,1110605701847632,-0.0284625,-0.014025,-0.01265
1679930617349,1110605704349786,-0.0284625,-0.01595,-0.015675
1679930617352,1110605706851940,-0.0264,-0.01595,-0.01375
1679930617354,1110605709353872,-0.0254375,-0.014025,-0.0166375
1679930617357,1110605711856026,-0.024475,-0.0169125,-0.020624999
1679930617362,1110605714358103,-0.02145,-0.0210375,-0.0226875
1679930617363,1110605716860354,-0.0224125,-0.02695,-0.02365
1679930617365,1110605719362508,-0.0224125,-0.033,-0.0257125
1679930617366,1110605721864584,-0.023375,-0.029975,-0.0276375
1679930617369,1110605724366738,-0.0264,-0.034925,-0.0276375
1679930617372,1110605726868661,-0.0314875,-0.0339625,-0.0287375
1679930617374,1110605729370800,-0.0314875,-0.0309375,-0.0287375
1679930617377,1110605731872877,-0.0334125,-0.034925,-0.0276375
1679930617379,1110605734375108,-0.035475,-0.034925,-0.0287375
1679930617381,1110605736877185,-0.0364375,-0.0309375,-0.0306625
1679930617385,1110605739379330,-0.0374,-0.029975,-0.0306625
1679930617387,1110605741881253,-0.043449998,-0.023924999,-0.032725
1679930617392,1110605744383407,-0.0444125,-0.0180125,-0.0297
1679930617394,1110605746885561,-0.046475,-0.012925,-0.032725
1679930617394,1110605749387714,-0.054449998,-0.0070125,-0.03575
1679930617399,1110605751889858,-0.0594,0.003025,-0.037675
1679930617403,1110605754391935,-0.0605,0.0070125,-0.0367125
1679930617404,1110605756894089,-0.062425,0.0119624995,-0.0397375
1679930617404,1110605759396012,-0.0644875,0.0119624995,-0.0407
1679930617406,1110605761898156,-0.0614625,0.0149875,-0.0416625
1679930617410,1110605764400310,-0.0614625,0.013062499,-0.042625
1679930617412,1110605766902464,-0.0644875,0.014025,-0.043725
1679930617414,1110605769404618,-0.067375,0.0180125,-0.043725
1679930617416,1110605771906680,-0.068475,0.013062499,-0.045649998
1679930617420,1110605774408834,-0.0743875,0.013062499,-0.043725
1679930617422,1110605776910988,-0.0743875,0.013062499,-0.043725
1679930617424,1110605779412911,-0.07645,0.009075,-0.043725
1679930617427,1110605781915065,-0.079475,0.0070125,-0.042625
1679930617433,1110605784417219,-0.0814,0.007975,-0.043725
1679930617434,1110605786919373,-0.0814,0.014025,-0.0386375
1679930617435,1110605789421450,-0.084425,0.014025,-0.0386375
1679930617437,1110605791923618,-0.0823625,0.009075,-0.0397375
1679930617440,1110605794425771,-0.084425,0.0050875,-0.0407
1679930617442,1110605796927695,-0.08635,0.0020625,-0.0397375
1679930617444,1110605799429848,-0.0884125,-0.003025,-0.0397375
1679930617446,1110605801932002,-0.08635,-0.007975,-0.037675
1679930617452,1110605804434147,-0.091437496,-0.011,-0.037675
1679930617453,1110605806936224,-0.0933625,-0.014025,-0.0407
1679930617454,1110605809438378,-0.095425,-0.023924999,-0.0407
1679930617457,1110605811940532,-0.09845,-0.0229625,-0.0416625
1679930617460,1110605814442666,-0.101475,-0.0180125,-0.04675
1679930617462,1110605816944589,-0.1054625,-0.0199375,-0.045649998
1679930617464,1110605819446742,-0.10835,-0.01595,-0.042625
1679930617468,1110605821948819,-0.1104125,-0.0169125,-0.0446875
1679930617470,1110605824450959,-0.112475,-0.01595,-0.043725
1679930617474,1110605826953113,-0.111375,-0.01595,-0.0416625
1679930617476,1110605829455267,-0.112475,-0.0180125,-0.042625
1679930617477,1110605831957421,-0.111375,-0.0149875,-0.0446875
1679930617481,1110605834459353,-0.106425,-0.012925,-0.0496375
1679930617483,1110605836961430,-0.1043625,-0.018975,-0.0507375
1679930617485,1110605839463584,-0.1043625,-0.018975,-0.0526625
1679930617487,1110605841965738,-0.106425,-0.0199375,-0.0587125
1679930617491,1110605844467949,-0.106425,-0.01595,-0.0666875
1679930617493,1110605846970026,-0.10945,-0.0169125,-0.065725
1679930617495,1110605849472180,-0.10835,-0.0149875,-0.06875
1679930617497,1110605851974103,-0.10945,-0.012925,-0.06875
1679930617501,1110605854476257,-0.1073875,-0.0119624995,-0.06875
1679930617502,1110605856978334,-0.106425,-0.012925,-0.0666875
1679930617504,1110605859480565,-0.1034,-0.018975,-0.0636625
1679930617508,1110605861982719,-0.0994125,-0.023924999,-0.0627
1679930617512,1110605864484810,-0.095425,-0.0259875,-0.0627
1679930617515,1110605866986733,-0.0933625,-0.0259875,-0.0627
1679930617516,1110605869488886,-0.0933625,-0.0279125,-0.059675
1679930617518,1110605871991040,-0.091437496,-0.023924999,-0.056649998
1679930617520,1110605874493117,-0.090475,-0.0169125,-0.053625
1679930617523,1110605876995247,-0.0933625,-0.01595,-0.0496375
1679930617525,1110605879497324,-0.0933625,-0.011,-0.04675
1679930617527,1110605881999478,-0.0933625,-0.0070125,-0.0416625
1679930617532,1110605884501401,-0.0944625,-0.003025,-0.0416625
1679930617533,1110605887003555,-0.095425,0.0020625,-0.0397375
1679930617535,1110605889505714,-0.09845,0.011,-0.037675
1679930617537,1110605892007791,-0.09845,0.0180125,-0.0367125
1679930617541,1110605894510021,-0.09735,0.025024999,-0.0446875
1679930617542,1110605897012098,-0.095425,0.029975,-0.0397375
1679930617544,1110605899514262,-0.09735,0.0320375,-0.0397375
1679930617550,1110605902016416,-0.101475,0.0320375,-0.0446875
1679930617554,1110605904518339,-0.09845,0.033,-0.04675
1679930617555,1110605907020493,-0.101475,0.031075,-0.0496375
1679930617556,1110605909522642,-0.102437496,0.031075,-0.0496375
1679930617557,1110605912024796,-0.1043625,0.02805,-0.0526625
1679930617560,1110605914526872,-0.106425,0.0231,-0.054725
1679930617562,1110605917029026,-0.1073875,0.0231,-0.054725
1679930617564,1110605919531190,-0.1054625,0.0180125,-0.054725
1679930617568,1110605922033113,-0.1054625,0.0149875,-0.0507375
1679930617571,1110605924535190,-0.106425,0.0149875,-0.0507375
1679930617573,1110605927037421,-0.102437496,0.009075,-0.0517
1679930617574,1110605929539575,-0.09845,0.00605,-0.0517
1679930617577,1110605932041647,-0.09845,0.007975,-0.053625
1679930617580,1110605934543801,-0.09735,0.00605,-0.0556875
1679930617583,1110605937045724,-0.0944625,0.0039875,-0.0587125
1679930617586,1110605939547878,-0.090475,0.0149875,-0.0627
1679930617587,1110605942049954,-0.091437496,0.020075,-0.06765
1679930617590,1110605944552185,-0.0924,0.0290125,-0.0697125
1679930617592,1110605947054339,-0.0933625,0.0380875,-0.075625
1679930617595,1110605949556416,-0.095425,0.050049998,-0.081675
1679930617597,1110605952058570,-0.09735,0.0561,-0.0826375
1679930617600,1110605954560512,-0.100375,0.0589875,-0.086625
1679930617602,1110605957062666,-0.0944625,0.0671,-0.093637496
1679930617604,1110605959564820,-0.0924,0.073975,-0.095699996
1679930617607,1110605962066974,-0.090475,0.075075,-0.10065
1679930617611,1110605964569112,-0.079475,0.075075,-0.1027125
1679930617612,1110605967071189,-0.07535,0.073975,-0.1057375
1679930617614,1110605969573343,-0.0694375,0.0730125,-0.1076625
1679930617619,1110605972075266,-0.062425,0.07205,-0.1076625
1679930617621,1110605974577416,-0.057475,0.0699875,-0.1067
1679930617624,1110605977079801,-0.057475,0.064075,-0.109725
1679930617625,1110605979581724,-0.05335,0.0620125,-0.109725
1679930617627,1110605982083878,-0.05335,0.061049998,-0.1057375
1679930617631,1110605984585974,-0.0504625,0.062975,-0.1057375
1679930617632,1110605987088127,-0.0504625,0.064075,-0.1027125
1679930617634,1110605989590051,-0.0484,0.061049998,-0.1027125
1679930617637,1110605992092435,-0.045375,0.0650375,-0.10175
1679930617640,1110605994594589,-0.043449998,0.0671,-0.1027125
1679930617642,1110605997096521,-0.0394625,0.0710875,-0.0996875
1679930617644,1110605999598598,-0.034375,0.073975,-0.0966625
1679930617647,1110606002100752,-0.032449998,0.073975,-0.0947375
1679930617652,1110606004602897,-0.029424999,0.077,-0.0917125
1679930617652,1110606007105051,-0.024475,0.077,-0.09075
1679930617655,1110606009607204,-0.02145,0.077,-0.0886875
1679930617657,1110606012109127,-0.018424999,0.07205,-0.087725
1679930617662,1110606014611281,-0.018424999,0.075075,-0.0837375
1679930617663,1110606017113358,-0.0193875,0.07205,-0.081675
1679930617665,1110606019615512,-0.02145,0.0671,-0.075625
1679930617666,1110606022117666,-0.023375,0.064075,-0.0727375
1679930617670,1110606024619589,-0.0224125,0.061049998,-0.06875
1679930617672,1110606027121983,-0.02145,0.0570625,-0.0617375
1679930617674,1110606029623906,-0.0264,0.053075,-0.0556875
1679930617677,1110606032126060,-0.0284625,0.0561,-0.053625
1679930617681,1110606034628213,-0.034375,0.053075,-0.0507375
1679930617682,1110606037130290,-0.035475,0.051975,-0.0386375
1679930617685,1110606039632449,-0.0364375,0.0490875,-0.0336875
1679930617687,1110606042134603,-0.0383625,0.040975,-0.026675
1679930617692,1110606044636757,-0.0383625,0.039049998,-0.0226875
1679930617694,1110606047138791,-0.040425,0.0369875,-0.0187
1679930617694,1110606049640945,-0.0444125,0.0320375,-0.0166375
1679930617698,1110606052143022,-0.0444125,0.020075,-0.01375
1679930617701,1110606054645253,-0.0484,0.0160875,-0.010725
1679930617702,1110606057147401,-0.054449998,0.011,-0.0077
1679930617705,1110606059649478,-0.05335,0.0020625,-0.004675
1679930617707,1110606062151401,-0.054449998,-0.00495,-0.00165
1679930617711,1110606064653555,-0.05335,-0.014025,2.75E-4
1679930617712,1110606067155709,-0.0504625,-0.0149875,0.0033
1679930617715,1110606069657877,-0.0504625,-0.0169125,0.00825
1679930617718,1110606072160031,-0.0493625,-0.01595,0.00935
1679930617720,1110606074662185,-0.0444125,-0.014025,0.00825
1679930617723,1110606077164262,-0.040425,-0.0180125,0.00935
1679930617725,1110606079666176,-0.0394625,-0.012925,0.00935
1679930617727,1110606082168330,-0.032449998,-0.012925,0.00935
1679930617731,1110606084670483,-0.0264,-0.0149875,0.00935
1679930617732,1110606087172637,-0.024475,-0.014025,0.00825
1679930617736,1110606089674771,-0.018424999,-0.014025,0.00825
1679930617737,1110606092176848,-0.0144375,-0.0099,0.006325
1679930617741,1110606094679002,-0.0083875,-0.0119624995,0.0053625
1679930617742,1110606097181156,-0.002475,-0.012925,0.0053625
1679930617745,1110606099683079,5.5E-4,-0.0089375,0.006325
1679930617747,1110606102185463,0.003575,-0.0119624995,0.0072875
1679930617754,1110606104687387,0.0056375,-0.0149875,0.00825
1679930617754,1110606107189540,0.0045375,-0.012925,0.00825
1679930617756,1110606109691617,0.0066,-0.0039875,0.0053625
1679930617757,1110606112193785,0.003575,-0.003025,0.006325
1679930617761,1110606114695939,0.0056375,-9.625E-4,0.0033
1679930617762,1110606117197862,0.0066,0.014025,0.001375
1679930617764,1110606119700247,0.0056375,0.020075,-0.00275
1679930617768,1110606122202137,0.008525,0.0290125,-0.004675
1679930617770,1110606124704291,0.01265,0.0369875,-0.0056375
1679930617774,1110606127206368,0.013612499,0.044,-0.0056375
1679930617776,1110606129708521,0.0176,0.0561,-0.0077
1679930617777,1110606132210685,0.02255,0.061049998,-0.0077
1679930617781,1110606134712608,0.02365,0.0671,-0.0086624995
1679930617782,1110606137214762,0.0246125,0.07205,-0.009625
1679930617784,1110606139716916,0.0265375,0.0790625,-0.0077
1679930617787,1110606142219070,0.025575,0.0790625,-0.009625
1679930617790,1110606144721237,0.02365,0.077,-0.0086624995
1679930617792,1110606147223314,0.0215875,0.0699875,-0.0056375
1679930617794,1110606149725237,0.02365,0.069025,-0.0067375
1679930617796,1110606152227621,0.019524999,0.061049998,-0.0056375
1679930617802,1110606154729790,0.0166375,0.0561,-0.00275
1679930617803,1110606157231713,0.0155375,0.055,-0.0037125
1679930617804,1110606159733867,0.014575,0.0460625,-0.00165
1679930617807,1110606162235944,0.014575,0.036025,-0.00275
1679930617812,1110606164738093,0.0155375,0.0369875,2.75E-4
1679930617814,1110606167240016,0.0176,0.039049998,0.0033
1679930617815,1110606169742401,0.019524999,0.0341,0.0033
1679930617818,1110606172244555,0.019524999,0.02805,0.0033
1679930617820,1110606174746478,0.0246125,0.02805,0.0033
1679930617822,1110606177248631,0.0265375,0.02805,0.0053625
1679930617824,1110606179750708,0.0286,0.022,0.0053625
1679930617828,1110606182252862,0.0276375,0.020075,0.0042625
1679930617830,1110606184754785,0.025575,0.01705,0.0053625
1679930617832,1110606187257189,0.0246125,0.013062499,0.006325
1679930617835,1110606189759343,0.025575,0.014025,0.006325
1679930617838,1110606192261266,0.025575,0.0180125,0.006325
1679930617840,1110606194763420,0.0246125,0.020075,0.00935
1679930617842,1110606197265497,0.02365,0.022,0.00935
1679930617846,1110606199767665,0.0246125,0.0240625,0.0072875
1679930617849,1110606202269895,0.0246125,0.0290125,0.0103124995
1679930617853,1110606204771972,0.02255,0.0290125,0.0103124995
1679930617854,1110606207273867,0.0166375,0.031075,0.012375
1679930617855,1110606209776021,0.019524999,0.0341,0.011275
1679930617857,1110606212278175,0.020624999,0.033,0.0133375
1679930617861,1110606214780252,0.0166375,0.0369875,0.0133375
1679930617862,1110606217282406,0.0176,0.0350625,0.0103124995
1679930617865,1110606219784532,0.019524999,0.0350625,0.0133375
1679930617868,1110606222286686,0.013612499,0.033,0.0133375
1679930617871,1110606224788609,0.0105875,0.029975,0.0163625
1679930617872,1110606227290762,0.0105875,0.0290125,0.02035
1679930617876,1110606229792924,0.013612499,0.0231,0.022275
1679930617878,1110606232295001,0.01155,0.022,0.02035
1679930617880,1110606234797232,0.013612499,0.025024999,0.022275
1679930617882,1110606237299309,0.01265,0.020075,0.0243375
1679930617886,1110606239801450,0.01155,0.0149875,0.0253
1679930617887,1110606242303373,0.013612499,0.0149875,0.0273625
1679930617890,1110606244805527,0.0066,0.011,0.0243375
1679930617892,1110606247307681,0.0045375,0.007975,0.0262625
1679930617896,1110606249809758,0.0066,0.007975,0.028324999
1679930617898,1110606252312001,0.003575,0.013062499,0.028324999
1679930617900,1110606254814078,0.0045375,0.007975,0.0262625
1679930617902,1110606257316232,0.0056375,0.00605,0.0273625
1679930617905,1110606259818386,0.009625,0.00605,0.0273625
1679930617907,1110606262320295,0.01155,0.00605,0.0292875
1679930617910,1110606264822449,0.0105875,0.003025,0.0292875
1679930617912,1110606267324526,0.014575,0.0020625,0.0273625
1679930617915,1110606269826757,0.0176,0.0011,0.0262625
1679930617917,1110606272328833,0.02365,-0.001925,0.022275
1679930617919,1110606274830771,0.02365,-0.001925,0.02035
1679930617925,1110606277332924,0.02255,-0.0039875,0.015262499
1679930617931,1110606279835309,0.02365,0.0,0.012375
1679930617931,1110606282337222,0.025575,0.00605,0.00935
1679930617932,1110606284839376,0.0246125,0.009075,0.0072875
1679930617932,1110606287341453,0.025575,0.0160875,0.0033
1679930617936,1110606289843607,0.0265375,0.0240625,0.0023375
1679930617937,1110606292345530,0.025575,0.0320375,0.001375
1679930617940,1110606294847694,0.0246125,0.0350625,2.75E-4
1679930617942,1110606297350078,0.02255,0.039049998,-0.00165
1679930617945,1110606299852001,0.0215875,0.042075,-0.00275
1679930617947,1110606302354155,0.0246125,0.0510125,-0.0067375
1679930617951,1110606304856242,0.025575,0.055,-0.0077
1679930617952,1110606307358396,0.0246125,0.0570625,-0.0086624995
1679930617955,1110606309860319,0.0265375,0.058025,-0.01265
1679930617958,1110606312362704,0.025575,0.0570625,-0.015675
1679930617964,1110606314864853,0.0246125,0.053075,-0.0177375
1679930617965,1110606317366776,0.0235125,0.051975,-0.0187
1679930617966,1110606319868930,0.020624999,0.051975,-0.0177375
1679930617967,1110606322371006,0.019524999,0.0451,-0.021724999
1679930617971,1110606324873141,0.0166375,0.0369875,-0.0187
1679930617973,1110606327375295,0.0125124995,0.036025,-0.01375
1679930617976,1110606329877449,0.0125124995,0.0341,-0.01375
1679930617978,1110606332379372,0.01155,0.0259875,-0.01265
1679930617980,1110606334881521,0.0105875,0.0210375,-0.009625
1679930617982,1110606337383598,0.008525,0.01705,-0.0067375
1679930617985,1110606339885752,0.009625,0.011,-0.0037125
1679930617987,1110606342387906,0.009625,0.00605,-0.004675
1679930617990,1110606344890136,0.008525,0.003025,-0.0067375
1679930617992,1110606347392218,0.0066,-9.625E-4,-0.0037125
1679930617994,1110606349894141,0.0045375,-0.0089375,-0.00165
1679930618001,1110606352396295,0.0045375,-0.0099,-6.875E-4
1679930618004,1110606354898434,0.0066,-0.0099,0.0023375
1679930618004,1110606357400511,0.003575,-0.014025,-6.875E-4
1679930618005,1110606359902665,0.003575,-0.018975,0.001375
1679930618008,1110606362404819,-4.125E-4,-0.018975,0.0033
1679930618011,1110606364906973,0.003575,-0.0209,0.0042625
1679930618012,1110606367408882,0.003575,-0.0209,0.0053625
1679930618015,1110606369911035,0.0045375,-0.0229625,0.0033
1679930618019,1110606372413189,0.003575,-0.023924999,0.006325
1679930618022,1110606374915280,5.5E-4,-0.023924999,0.0053625
1679930618023,1110606377417434,-0.001375,-0.0229625,0.0072875
1679930618024,1110606379919588,-0.001375,-0.0290125,0.0072875
1679930618027,1110606382421742,-0.0034375,-0.02695,0.0053625
1679930618030,1110606384923896,-0.0044,-0.0229625,0.00825
1679930618032,1110606387425838,-0.0044,-0.023924999,0.0053625
1679930618038,1110606389927992,-0.0053625,-0.0180125,0.0053625
1679930618039,1110606392430069,-0.0064625,-0.014025,0.0053625
1679930618042,1110606394932299,-0.0053625,-0.014025,0.0033
1679930618043,1110606397434371,-0.0053625,-0.014025,0.0072875
1679930618045,1110606399936525,-0.01045,-0.0119624995,0.006325
1679930618047,1110606402438448,-0.0083875,-0.0089375,0.0072875
1679930618052,1110606404940602,-0.0044,-0.0070125,0.006325
1679930618053,1110606407442679,-0.0044,-0.0070125,0.0053625
1679930618055,1110606409944833,-0.0044,-0.0070125,0.0042625
1679930618057,1110606412447064,-0.0053625,-0.0059125,0.0042625
1679930618060,1110606414949141,-0.0064625,-0.0059125,0.0042625
1679930618062,1110606417451294,-0.0034375,-0.0089375,0.0023375
1679930618065,1110606419953198,-0.002475,-0.0089375,0.0023375
1679930618068,1110606422455352,-0.002475,-0.003025,0.001375
1679930618071,1110606424957429,-0.002475,-0.0039875,0.0033
1679930618074,1110606427459583,-0.002475,-0.007975,-0.00165
1679930618076,1110606429961829,-0.002475,-9.625E-4,-0.00165
1679930618078,1110606432463906,-0.002475,0.0011,-6.875E-4
1679930618081,1110606434966060,-0.001375,-9.625E-4,-0.0056375
1679930618082,1110606437467983,-0.001375,0.0050875,-0.004675
1679930618085,1110606439970142,5.5E-4,0.0050875,-0.004675
1679930618087,1110606442472295,-4.125E-4,0.0070125,-0.0056375
1679930618091,1110606444974449,5.5E-4,0.0070125,-0.0086624995
1679930618092,1110606447476603,0.0045375,0.00605,-0.010725
1679930618094,1110606449978680,-0.001375,0.011,-0.009625
1679930618097,1110606452480848,5.5E-4,0.013062499,-0.0116875
1679930618102,1110606454982771,0.0045375,0.014025,-0.01265
1679930618102,1110606457484925,0.0056375,0.01705,-0.015675
1679930618105,1110606459987079,0.0045375,0.0180125,-0.0166375
1679930618108,1110606462489229,0.0056375,0.01705,-0.0196625
1679930618112,1110606464991382,0.0066,0.020075,-0.0177375
1679930618114,1110606467493459,0.0105875,0.020075,-0.0196625
1679930618115,1110606469995613,0.01155,0.01705,-0.0187
1679930618117,1110606472497536,0.013612499,0.0121,-0.020624999
1679930618122,1110606474999675,0.014575,0.011,-0.020624999
1679930618124,1110606477502060,0.0155375,0.0070125,-0.0196625
1679930618125,1110606480003983,0.0176,0.0050875,-0.021724999
1679930618127,1110606482506060,0.0166375,0.009075,-0.021724999
1679930618131,1110606485008214,0.014575,0.0070125,-0.0257125
1679930618132,1110606487510367,0.0155375,0.0050875,-0.02365
1679930618135,1110606490012521,0.013612499,0.003025,-0.0257125
1679930618137,1110606492514444,0.01155,0.003025,-0.026675
1679930618141,1110606495016616,0.009625,0.0,-0.0257125
1679930618142,1110606497518770,0.003575,0.0011,-0.0226875
1679930618145,1110606500020847,-0.002475,-0.001925,-0.02365
1679930618148,1110606502523001,0.0026125,0.0011,-0.02365
1679930618153,1110606505025142,-0.0034375,0.0050875,-0.0226875
1679930618154,1110606507527296,-0.0053625,0.0011,-0.0196625
1679930618155,1110606510029449,-0.0053625,0.0,-0.0196625
1679930618157,1110606512531373,-0.0083875,0.003025,-0.0196625
1679930618161,1110606515033526,-0.0064625,0.003025,-0.0187
1679930618163,1110606517535598,-0.007425,0.003025,-0.015675
1679930618165,1110606520037752,-0.0094875,0.0050875,-0.01375
1679930618169,1110606522539983,-0.0114124995,0.0011,-0.015675
1679930618171,1110606525042041,-0.01045,0.0020625,-0.01265
1679930618173,1110606527544195,-0.0114124995,0.0,-0.010725
1679930618175,1110606530046118,-0.012375,0.0020625,-0.009625
1679930618177,1110606532548272,-0.012375,0.0011,-0.0077
1679930618180,1110606535050349,-0.01045,0.0020625,-0.0067375
1679930618182,1110606537552492,-0.012375,0.0070125,-0.0067375
1679930618187,1110606540054723,-0.012375,0.011,-0.004675
1679930618188,1110606542556800,-0.0083875,0.00605,-0.0037125
1679930618190,1110606545058723,-0.0083875,0.007975,-0.0037125
1679930618192,1110606547560868,-0.007425,0.00605,-0.00275
1679930618195,1110606550063022,-0.0053625,0.00605,-0.00275
1679930618197,1110606552565176,-0.0053625,0.00605,-0.004675
1679930618202,1110606555067330,-0.0044,0.0020625,0.001375
1679930618203,1110606557569387,-0.0044,0.0020625,0.0023375
1679930618205,1110606560071540,-0.001375,0.0011,0.0023375
1679930618208,1110606562573463,0.003575,-9.625E-4,0.0023375
1679930618211,1110606565075617,0.0056375,-0.001925,0.0023375
1679930618212,1110606567577776,0.009625,-0.0039875,-6.875E-4
1679930618215,1110606570079853,0.014575,-0.0070125,-0.00165
1679930618217,1110606572582084,0.0176,-0.0070125,2.75E-4
1679930618221,1110606575084161,0.0215875,-0.011,-0.00275
1679930618224,1110606577586334,0.02255,-0.011,-0.0086624995
1679930618225,1110606580088488,0.025575,-0.0119624995,-0.0086624995
1679930618227,1110606582590411,0.0246125,-0.011,-0.0077
1679930618233,1110606585092564,0.0276375,-0.0099,-0.009625
1679930618236,1110606587594718,0.0276375,-0.0149875,-0.01375
1679930618237,1110606590096882,0.0276375,-0.012925,-0.01265
1679930618239,1110606592598959,0.0265375,-0.0070125,-0.01375
1679930618242,1110606595101113,0.025575,-0.00495,-0.01265
1679930618243,1110606597603267,0.0276375,0.0,-0.0166375
1679930618245,1110606600105175,0.0276375,0.007975,-0.01375
1679930618247,1110606602607329,0.0265375,0.009075,-0.0116875
1679930618250,1110606605109483,0.025575,0.0121,-0.0196625
1679930618252,1110606607611636,0.0265375,0.0180125,-0.0187
1679930618254,1110606610113713,0.0235125,0.0240625,-0.0196625
1679930618257,1110606612615867,0.0246125,0.0290125,-0.020624999
1679930618262,1110606615118021,0.02255,0.033,-0.021724999
1679930618263,1110606617619944,0.0215875,0.0380875,-0.021724999
1679930618265,1110606620122016,0.019524999,0.040975,-0.0187
1679930618268,1110606622624247,0.019524999,0.0451,-0.0177375
1679930618271,1110606625126401,0.0176,0.0451,-0.0177375
1679930618273,1110606627628478,0.0215875,0.0490875,-0.0187
1679930618275,1110606630130632,0.0235125,0.0490875,-0.0196625
1679930618277,1110606632632545,0.019524999,0.0540375,-0.020624999
1679930618280,1110606635134698,0.020624999,0.0561,-0.0177375
1679930618282,1110606637637083,0.020624999,0.058025,-0.0166375
1679930618284,1110606640139006,0.0176,0.0561,-0.0177375
1679930618287,1110606642641160,0.020624999,0.0561,-0.021724999
1679930618290,1110606645143237,0.0235125,0.055,-0.021724999
1679930618292,1110606647645391,0.020624999,0.051975,-0.0196625
1679930618294,1110606650147314,0.020624999,0.0479875,-0.0187
1679930618298,1110606652649459,0.019524999,0.050049998,-0.0196625
1679930618301,1110606655151843,0.0176,0.0460625,-0.0196625
1679930618303,1110606657653766,0.0176,0.0451,-0.020624999
1679930618304,1110606660155920,0.0155375,0.0369875,-0.015675
1679930618307,1110606662657997,0.0235125,0.0320375,-0.0166375
1679930618310,1110606665160136,0.025575,0.0290125,-0.0187
1679930618312,1110606667662059,0.0235125,0.025024999,-0.0177375
1679930618314,1110606670164213,0.020624999,0.0180125,-0.0196625
1679930618318,1110606672666598,0.0215875,0.014025,-0.0187
1679930618320,1110606675168526,0.0215875,0.007975,-0.0187
1679930618322,1110606677670680,0.025575,0.0070125,-0.0196625
1679930618324,1110606680172756,0.025575,0.003025,-0.020624999
1679930618328,1110606682674910,0.0286,0.0,-0.020624999
1679930618330,1110606685177069,0.0265375,0.0,-0.0177375
1679930618332,1110606687679223,0.0235125,0.0011,-0.0177375
1679930618336,1110606690181146,0.025575,0.0020625,-0.0196625
1679930618338,1110606692683300,0.0265375,0.0020625,-0.0116875
1679930618340,1110606695185483,0.02255,0.0050875,-0.0116875
1679930618342,1110606697687560,0.02255,0.0020625,-0.01265
1679930618344,1110606700189714,0.0286,0.003025,-0.0116875
1679930618347,1110606702691637,0.02255,0.003025,-0.0067375
1679930618350,1110606705194040,0.02255,0.0011,-0.0077
1679930618352,1110606707695963,0.0235125,-9.625E-4,-0.004675
1679930618355,1110606710198117,0.0246125,0.0,-6.875E-4
1679930618357,1110606712700271,0.020624999,0.0020625,-0.00165
1679930618360,1110606715202348,0.0215875,0.0011,-0.00275
1679930618362,1110606717704516,0.0276375,0.0,-6.875E-4
1679930618365,1110606720206670,0.0246125,-0.007975,0.001375
1679930618368,1110606722708824,0.0246125,-0.0089375,0.0033
1679930618371,1110606725210747,0.0265375,-0.0099,0.001375
1679930618374,1110606727712916,0.025575,-0.0039875,0.0042625
1679930618376,1110606730215069,0.02255,-0.00495,0.006325
1679930618377,1110606732717146,0.0276375,-0.00495,0.0023375
1679930618380,1110606735219300,0.0286,-0.007975,0.0023375
1679930618382,1110606737721454,0.0286,-0.0089375,0.0053625
1679930618384,1110606740223353,0.0295625,-0.007975,0.0042625
1679930618387,1110606742725507,0.030524999,-0.007975,0.0042625
1679930618390,1110606745227584,0.0325875,-0.0089375,0.0023375
1679930618392,1110606747729815,0.030524999,-0.007975,0.0053625
1679930618395,1110606750231948,0.0265375,-0.0099,0.0042625
1679930618397,1110606752734025,0.0286,-0.014025,0.0023375
1679930618401,1110606755236179,0.030524999,-0.0099,0.006325
1679930618403,1110606757738102,0.030524999,-0.011,0.006325
1679930618405,1110606760240261,0.0295625,-0.014025,0.0072875
1679930618407,1110606762742415,0.0276375,-0.01595,0.0072875
1679930618412,1110606765244569,0.030524999,-0.01595,0.011275
1679930618414,1110606767746723,0.0325875,-0.0119624995,0.0143
1679930618415,1110606770248815,0.0356125,-0.014025,0.0182875
1679930618418,1110606772750969,0.0375375,-0.012925,0.0163625
1679930618420,1110606775252892,0.031625,-0.012925,0.0143
1679930618422,1110606777755045,0.030524999,-0.014025,0.0182875
1679930618425,1110606780257214,0.031625,-0.018975,0.0182875
1679930618427,1110606782759368,0.0235125,-0.0199375,0.015262499
1679930618430,1110606785261522,0.0246125,-0.02695,0.015262499
1679930618432,1110606787763599,0.0246125,-0.034925,0.0143
1679930618435,1110606790265734,0.020624999,-0.040975,0.012375
1679930618438,1110606792767657,0.0155375,-0.0400125,0.012375
1679930618441,1110606795269811,0.0125124995,-0.0400125,0.012375
1679930618442,1110606797772195,0.013612499,-0.0430375,0.012375
1679930618445,1110606800274118,0.01155,-0.0479875,0.012375
1679930618449,1110606802776219,0.01155,-0.0479875,0.0103124995
1679930618452,1110606805278373,0.0155375,-0.0510125,0.011275
1679930618453,1110606807780527,0.019524999,-0.0540375,0.011275
1679930618455,1110606810282681,0.0155375,-0.0589875,0.0103124995
1679930618459,1110606812784604,0.0166375,-0.0620125,0.0103124995
1679930618460,1110606815286771,0.0155375,-0.0609125,0.0103124995
1679930618463,1110606817788925,0.009625,-0.0609125,0.0103124995
1679930618465,1110606820291079,0.013612499,-0.0589875,0.00935
1679930618469,1110606822793155,0.013612499,-0.0540375,0.006325
1679930618471,1110606825295305,0.009625,-0.047025,0.00825
1679930618474,1110606827797228,0.009625,-0.0400125,0.00935
1679930618476,1110606830299613,0.0075625,-0.033,0.00935
1679930618477,1110606832801536,0.008525,-0.023924999,0.00825
1679930618480,1110606835303680,0.008525,-0.018975,0.0072875
1679930618482,1110606837805834,0.008525,-0.0100375,0.0103124995
1679930618486,1110606840307911,0.0075625,0.0,0.0023375
1679930618488,1110606842810065,0.009625,0.0039875,0.001375
1679930618490,1110606845312007,0.0075625,0.011,0.001375
1679930618492,1110606847814391,0.0075625,0.011,0.0042625
1679930618494,1110606850316314,0.0066,0.014025,0.0053625
