system_ts_ms, sensor_ts_ns, gyrX, gyrY, gyrZ
1680014809668,1194798013745249,-0.1486375,0.1948375,-0.066825
1680014809668,1194798016247633,-0.1486375,0.1958,-0.0658625
1680014809669,1194798018749864,-0.1496,0.198825,-0.064899996
1680014809669,1194798021252254,-0.152625,0.1967625,-0.066825
1680014809670,1194798023754485,-0.1516625,0.19373749,-0.061875
1680014809674,1194798026256946,-0.1546875,0.192775,-0.061875
1680014809701,1194798028759100,-0.158675,0.1868625,-0.061875
1680014809702,1194798031261551,-0.158675,0.1868625,-0.0578875
1680014809702,1194798033763936,-0.1566125,0.1848,-0.055825
1680014809703,1194798036266090,-0.1596375,0.181775,-0.050875
1680014809703,1194798038768321,-0.1596375,0.1758625,-0.04895
1680014809704,1194798041270754,-0.157575,0.1637625,-0.044825
1680014809704,1194798043773139,-0.157575,0.1588125,-0.0419375
1680014809705,1194798046275370,-0.157575,0.14973749,-0.0408375
1680014809706,1194798048777754,-0.1546875,0.1387375,-0.036849998
1680014809706,1194798051279985,-0.1516625,0.1318625,-0.0319
1680014809706,1194798053782355,-0.1486375,0.1227875,-0.0339625
1680014809707,1194798056284585,-0.1496,0.1117875,-0.028875
1680014809708,1194798058786970,-0.152625,0.10175,-0.02695
1680014809708,1194798061289201,-0.152625,0.10175,-0.02585
1680014809709,1194798063791571,-0.1496,0.0977625,-0.023924999
1680014809715,1194798066293802,-0.1496,0.0878625,-0.022824999
1680014809716,1194798068796187,-0.1535875,0.0818125,-0.0218625
1680014809717,1194798071298418,-0.1516625,0.0787875,-0.0199375
1680014809722,1194798073800864,-0.1496,0.0727375,-0.0188375
1680014809723,1194798076303018,-0.1496,0.0647625,-0.0199375
1680014809726,1194798078804211,-0.1486375,0.060775,-0.0199375
1680014809726,1194798081305404,-0.1456125,0.0548625,-0.0199375
1680014809728,1194798083810095,-0.1456125,0.0548625,-0.0188375
1680014809731,1194798086312249,-0.1395625,0.0528,-0.0199375
1680014809734,1194798088814710,-0.135575,0.049775,-0.0199375
1680014809740,1194798091317095,-0.130625,0.0427625,-0.0209
1680014809740,1194798093819326,-0.1266375,0.0378125,-0.023924999
1680014809741,1194798096321715,-0.125675,0.03575,-0.02695
1680014809744,1194798098823946,-0.12265,0.0347875,-0.028875
1680014809746,1194798101326331,-0.1186625,0.0328625,-0.0298375
1680014809751,1194798103828562,-0.1095875,0.0268125,-0.028875
1680014809757,1194798106330960,-0.108625,0.02475,-0.0328625
1680014809758,1194798108833191,-0.108625,0.0207625,-0.034925
1680014809759,1194798111335576,-0.103675,0.016775,-0.0358875
1680014809759,1194798113837806,-0.1016125,0.016775,-0.0408375
1680014809762,1194798116340191,-0.0966625,0.01485,-0.044825
1680014809765,1194798118842633,-0.093637496,0.0127875,-0.04895
1680014809766,1194798121344864,-0.091575,0.011825,-0.0499125
1680014809768,1194798123847018,-0.0886875,0.005775,-0.0529375
1680014809775,1194798126349480,-0.08965,8.25E-4,-0.0529375
1680014809776,1194798128851873,-0.0886875,8.25E-4,-0.0578875
1680014809776,1194798131354104,-0.086625,-0.0022,-0.058849998
1680014809779,1194798133856258,-0.0796125,-0.0042625,-0.0628375
1680014809782,1194798136358719,-0.075625,-0.00825,-0.066825
1680014809785,1194798138861125,-0.0776875,-0.0092124995,-0.0658625
1680014809789,1194798141363356,-0.0746625,-0.010175,-0.0658625
1680014809790,1194798143865740,-0.0726,-0.010175,-0.0669625
1680014809794,1194798146367971,-0.0686125,-0.0111375,-0.067925
1680014809795,1194798148870356,-0.0636625,-0.01925,-0.067925
1680014809797,1194798151372587,-0.0625625,-0.01815,-0.0688875
1680014809799,1194798153874971,-0.0625625,-0.01815,-0.0688875
1680014809806,1194798156377202,-0.056649998,-0.0202125,-0.067925
1680014809807,1194798158879591,-0.0545875,-0.0221375,-0.0658625
1680014809808,1194798161381821,-0.0526625,-0.0281875,-0.064899996
1680014809809,1194798163884206,-0.056649998,-0.0262625,-0.0609125
1680014809811,1194798166386668,-0.056649998,-0.0242,-0.05995
1680014809814,1194798168888898,-0.0545875,-0.0312125,-0.058849998
1680014809816,1194798171391076,-0.0545875,-0.0312125,-0.0578875
1680014809823,1194798173893538,-0.0556875,-0.03025,-0.0548625
1680014809823,1194798176395922,-0.0556875,-0.0352,-0.0518375
1680014809826,1194798178898153,-0.0506,-0.0342375,-0.050875
1680014809827,1194798181400543,-0.0526625,-0.0342375,-0.04895
1680014809829,1194798183902774,-0.0556875,-0.0361625,-0.0449625
1680014809831,1194798186405158,-0.048675,-0.0361625,-0.0408375
1680014809834,1194798188907389,-0.048675,-0.0342375,-0.0389125
1680014809840,1194798191409774,-0.048675,-0.0361625,-0.0328625
1680014809843,1194798193912004,-0.0466125,-0.0342375,-0.0298375
1680014809847,1194798196414466,-0.047575,-0.0352,-0.02695
1680014809847,1194798198916620,-0.0435875,-0.0361625,-0.0218625
1680014809848,1194798201419004,-0.0396,-0.0312125,-0.0218625
1680014809849,1194798203921240,-0.0386375,-0.0251625,-0.0188375
1680014809852,1194798206423625,-0.0325875,-0.027224999,-0.0169125
1680014809856,1194798208925856,-0.0276375,-0.0281875,-0.0169125
1680014809857,1194798211428240,-0.0246125,-0.0262625,-0.0108624995
1680014809859,1194798213930711,-0.02365,-0.0251625,-0.0059125
1680014809862,1194798216432942,-0.020624999,-0.0202125,-0.0059125
1680014809866,1194798218935095,-0.0176,-0.01815,-0.006875
1680014809867,1194798221437480,-0.014575,-0.016224999,-0.006875
1680014809873,1194798223939740,-0.01265,-0.014162499,-0.006875
1680014809873,1194798226442201,-0.01265,-0.015262499,-0.006875
1680014809874,1194798228944586,-0.0075625,-0.010175,-0.0099
1680014809876,1194798231446817,-0.004675,-0.00715,-0.0108624995
1680014809879,1194798233949201,-6.875E-4,-0.0012375,-0.0108624995
1680014809883,1194798236451432,-0.00165,0.0017875,-0.0169125
1680014809885,1194798238953817,-0.00165,0.0017875,-0.0209
1680014809889,1194798241456047,-0.00165,0.0078375,-0.0209
1680014809890,1194798243958509,4.125E-4,0.0127875,-0.0218625
1680014809891,1194798246460894,0.0053625,0.01485,-0.0279125
1680014809894,1194798248963048,0.001375,0.0177375,-0.02695
1680014809896,1194798251465278,0.001375,0.0218625,-0.0279125
1680014809900,1194798253967663,0.0023375,0.027775,-0.0328625
1680014809907,1194798256469894,4.125E-4,0.0328625,-0.0328625
1680014809908,1194798258972355,0.0023375,0.03575,-0.0319
1680014809909,1194798261474740,-0.003575,0.0427625,-0.0328625
1680014809910,1194798263976971,-0.003575,0.0488125,-0.0328625
1680014809911,1194798266479124,-0.003575,0.0518375,-0.034925
1680014809914,1194798268981504,-0.0056375,0.0567875,-0.0339625
1680014809916,1194798271483966,-0.0056375,0.0628375,-0.034925
1680014809923,1194798273986196,-0.004675,0.0658625,-0.03795
1680014809924,1194798276488581,-0.0056375,0.0658625,-0.0358875
1680014809925,1194798278990817,-0.0066,0.06985,-0.0319
1680014809927,1194798281493201,-0.0075625,0.06875,-0.0319
1680014809929,1194798283995432,-0.0086624995,0.0738375,-0.0298375
1680014809931,1194798286497817,-0.0116875,0.0757625,-0.0279125
1680014809934,1194798289000048,-0.013612499,0.0768625,-0.0248875
1680014809940,1194798291502509,-0.015675,0.0787875,-0.023924999
1680014809940,1194798294004894,-0.0185625,0.0768625,-0.023924999
1680014809941,1194798296507048,-0.0185625,0.0848375,-0.0199375
1680014809944,1194798299009278,-0.0196625,0.0848375,-0.017875
1680014809946,1194798301511663,-0.020624999,0.0818125,-0.017875
1680014809949,1194798304013899,-0.020624999,0.0858,-0.0169125
1680014809954,1194798306516360,-0.0226875,0.088825,-0.01485
1680014809955,1194798309018745,-0.02365,0.0897875,-0.012925
1680014809957,1194798311520976,-0.0196625,0.0947375,-0.017875
1680014809960,1194798314023100,-0.020624999,0.0947375,-0.0188375
1680014809965,1194798316525484,-0.020624999,0.0947375,-0.0188375
1680014809966,1194798319027715,-0.0185625,0.0968,-0.0188375
1680014809967,1194798321530177,-0.0176,0.1007875,-0.0188375
1680014809969,1194798324032561,-0.0176,0.10285,-0.0188375
1680014809971,1194798326534792,-0.0176,0.1057375,-0.017875
1680014809975,1194798329037177,-0.0166375,0.1057375,-0.0209
1680014809977,1194798331539407,-0.01265,0.1078,-0.0209
1680014809979,1194798334041792,-0.013612499,0.1117875,-0.017875
1680014809981,1194798336544239,-0.01265,0.1167375,-0.0218625
1680014809984,1194798339046470,-0.01265,0.1167375,-0.0218625
1680014809987,1194798341548855,-0.0086624995,0.115775,-0.0199375
1680014809989,1194798344051009,-0.0066,0.115775,-0.0199375
1680014809991,1194798346553225,-0.0066,0.115775,-0.01485
1680014809996,1194798349055609,-0.00165,0.115775,-0.0119624995
1680014809997,1194798351557840,0.001375,0.1148125,-0.0099
1680014809999,1194798354060301,-6.875E-4,0.11275,-0.0059125
1680014810002,1194798356562677,-6.875E-4,0.1078,-0.001925
1680014810005,1194798359064908,0.0034375,0.1098625,1.375E-4
1680014810006,1194798361567062,0.007425,0.1057375,0.0020625
1680014810009,1194798364069446,0.0103124995,0.099825,0.0050875
1680014810013,1194798366571677,0.00935,0.09075,0.0081124995
1680014810015,1194798369074139,0.0154,0.093775,0.0121
1680014810017,1194798371576523,0.017324999,0.0897875,0.015125
1680014810019,1194798374078754,0.018424999,0.0787875,0.0231
1680014810021,1194798376581139,0.018424999,0.077825,0.0270875
1680014810024,1194798379083359,0.0193875,0.0727375,0.0341
1680014810027,1194798381585744,0.018424999,0.071775,0.0430375
1680014810029,1194798384088206,0.0193875,0.0727375,0.053075
1680014810031,1194798386590436,0.0224125,0.066825,0.0581625
1680014810034,1194798389092811,0.02035,0.0567875,0.0650375
1680014810036,1194798391594965,0.0193875,0.049775,0.070125
1680014810039,1194798394097196,0.018424999,0.044825,0.0771375
1680014810043,1194798396599580,0.018424999,0.0427625,0.0801625
1680014810045,1194798399102033,0.0224125,0.0347875,0.086075
1680014810047,1194798401604264,0.0213125,0.0347875,0.0891
1680014810050,1194798404106648,0.0213125,0.0397375,0.0930875
1680014810053,1194798406608879,0.0193875,0.038775,0.0991375
1680014810055,1194798409111264,0.017324999,0.038775,0.1071125
1680014810057,1194798411613426,0.0133375,0.0438625,0.11715
1680014810059,1194798414115888,0.0053625,0.0488125,0.1230625
1680014810061,1194798416618119,-0.003575,0.049775,0.1310375
1680014810064,1194798419120503,-0.0075625,0.04675,0.13915
1680014810067,1194798421622729,-0.0056375,0.049775,0.1461625
1680014810069,1194798424125114,-0.009625,0.0507375,0.152075
1680014810071,1194798426627345,-0.0116875,0.0457875,0.158125
1680014810074,1194798429129729,-0.015675,0.038775,0.1590875
1680014810076,1194798431631970,-0.0215875,0.0378125,0.1621125
1680014810079,1194798434134355,-0.02365,0.0308,0.169125
1680014810082,1194798436636585,-0.02365,0.02475,0.1700875
1680014810086,1194798439138970,-0.0295625,0.0218625,0.17407499
1680014810091,1194798441641455,-0.0386375,0.0177375,0.180125
1680014810092,1194798444143686,-0.0446875,0.0078375,0.185075
1680014810094,1194798446646071,-0.0526625,0.00385,0.191125
1680014810096,1194798449148225,-0.059675,-0.0031625,0.19813749
1680014810098,1194798451650456,-0.0636625,-0.00825,0.20405
1680014810100,1194798454152835,-0.0726,-0.014162499,0.2121625
1680014810103,1194798456655297,-0.0776875,-0.0202125,0.21807499
1680014810105,1194798459157527,-0.081675,-0.0242,0.2220625
1680014810107,1194798461659912,-0.0906125,-0.0331375,0.2250875
1680014810109,1194798464162143,-0.0966625,-0.0391875,0.2300375
1680014810112,1194798466664513,-0.1076625,-0.041249998,0.2321
1680014810114,1194798469166667,-0.114675,-0.0482625,0.23815
1680014810116,1194798471669129,-0.1266375,-0.0592625,0.24007499
1680014810119,1194798474171360,-0.1395625,-0.060225,0.2410375
1680014810122,1194798476673701,-0.14465,-0.065175,0.2431
1680014810126,1194798479175932,-0.15565,-0.071225,0.2440625
1680014810129,1194798481678317,-0.1656875,-0.0801625,0.246125
1680014810130,1194798484180547,-0.17765,-0.0881375,0.2451625
1680014810133,1194798486683013,-0.1896125,-0.0941875,0.2451625
1680014810135,1194798489185398,-0.1986875,-0.1021625,0.246125
1680014810136,1194798491687628,-0.207625,-0.109175,0.2451625
1680014810138,1194798494190013,-0.218625,-0.11825,0.2470875
1680014810141,1194798496692167,-0.2275625,-0.1252625,0.2470875
1680014810144,1194798499194398,-0.23265,-0.131175,0.246125
1680014810146,1194798501696859,-0.2415875,-0.142175,0.2451625
1680014810149,1194798504199244,-0.2495625,-0.15125,0.2431
1680014810151,1194798506701475,-0.2586375,-0.1582625,0.2410375
1680014810154,1194798509203850,-0.2646875,-0.1632125,0.2391125
1680014810157,1194798511706081,-0.268675,-0.1692625,0.23815
1680014810159,1194798514208466,-0.2726625,-0.18315,0.2360875
1680014810164,1194798516710619,-0.2776125,-0.186175,0.2321
1680014810167,1194798521713086,-0.2806375,-0.1912625,0.2321
1680014810168,1194798521833394,-0.28765,-0.19813749,0.229075
1680014810170,1194798524217701,-0.29067498,-0.20019999,0.229075
1680014810172,1194798526719932,-0.2935625,-0.20625,0.229075
1680014810175,1194798529222321,-0.2946625,-0.2112,0.22715
1680014810177,1194798531724552,-0.2965875,-0.2132625,0.22605
1680014810179,1194798534226936,-0.295625,-0.214225,0.2281125
1680014810181,1194798536729398,-0.2976875,-0.21615,0.22605
1680014810184,1194798539231620,-0.29865,-0.2151875,0.2250875
1680014810187,1194798541734004,-0.3036,-0.2121625,0.22605
1680014810189,1194798544236158,-0.3026375,-0.2121625,0.2250875
1680014810191,1194798546738389,-0.29865,-0.214225,0.224125
1680014810195,1194798549240850,-0.300575,-0.214225,0.224125
1680014810196,1194798551743235,-0.3026375,-0.2132625,0.2220625
1680014810200,1194798554245466,-0.2965875,-0.21725,0.2220625
1680014810204,1194798556747850,-0.2965875,-0.2132625,0.2220625
1680014810206,1194798559250109,-0.295625,-0.203225,0.22013749
1680014810207,1194798561752494,-0.2926,-0.20019999,0.2211
1680014810209,1194798564254724,-0.2926,-0.19813749,0.2211
1680014810212,1194798566757109,-0.29067498,-0.19525,0.2190375
1680014810215,1194798569259340,-0.2866875,-0.19525,0.21505
1680014810216,1194798571761725,-0.284625,-0.1962125,0.213125
1680014810220,1194798574263955,-0.2816,-0.192225,0.2101
1680014810224,1194798576766340,-0.27665,-0.1931875,0.2110625
1680014810225,1194798579268571,-0.2745875,-0.192225,0.2091375
1680014810226,1194798581770965,-0.2726625,-0.197175,0.207075
1680014810230,1194798584273196,-0.267575,-0.197175,0.20405
1680014810232,1194798586775658,-0.262625,-0.197175,0.2030875
1680014810234,1194798589278042,-0.2605625,-0.197175,0.202125
1680014810238,1194798591780206,-0.256575,-0.2011625,0.19813749
1680014810240,1194798594282437,-0.25465,-0.2072125,0.1951125
1680014810244,1194798596784898,-0.2486,-0.2151875,0.19607499
1680014810246,1194798599287283,-0.2426875,-0.225225,0.1920875
1680014810247,1194798601789514,-0.2446125,-0.22825,0.1901625
1680014810249,1194798604291869,-0.240625,-0.2261875,0.1890625
1680014810253,1194798606794100,-0.2385625,-0.2332,0.1890625
1680014810255,1194798609296485,-0.234575,-0.2402125,0.1871375
1680014810256,1194798611798716,-0.2316875,-0.24419999,0.1871375
1680014810260,1194798614301090,-0.234575,-0.2512125,0.1860375
1680014810263,1194798616803321,-0.2275625,-0.258225,0.18205
1680014810265,1194798619305706,-0.22659999,-0.26015,0.18205
1680014810267,1194798621807936,-0.224675,-0.269225,0.1810875
1680014810270,1194798624310316,-0.2226125,-0.2781625,0.1780625
1680014810273,1194798626812778,-0.223575,-0.2842125,0.1791625
1680014810276,1194798629315008,-0.2256375,-0.291225,0.17613749
1680014810278,1194798631817162,-0.2256375,-0.2992,0.17407499
1680014810280,1194798634319643,-0.2275625,-0.307175,0.17215
1680014810286,1194798636821797,-0.224675,-0.31625,0.1681625
1680014810290,1194798639324181,-0.223575,-0.32615,0.1640375
1680014810290,1194798641826643,-0.22659999,-0.3301375,0.1621125
1680014810290,1194798644328874,-0.2277,-0.335225,0.1590875
1680014810292,1194798646831278,-0.2286625,-0.3432,0.158125
1680014810295,1194798649333509,-0.2277,-0.35021248,0.1560625
1680014810297,1194798651835894,-0.23265,-0.3532375,0.15015
1680014810299,1194798654338124,-0.23567499,-0.3562625,0.1461625
1680014810303,1194798656840504,-0.2366375,-0.36313748,0.1480875
1680014810304,1194798659342735,-0.2376,-0.36519998,0.147125
1680014810306,1194798661845119,-0.2396625,-0.3661625,0.1450625
1680014810309,1194798664347350,-0.2446125,-0.38225,0.1431375
1680014810314,1194798666849749,-0.246675,-0.384175,0.141075
1680014810316,1194798669351980,-0.2486,-0.3752375,0.1401125
1680014810318,1194798671854364,-0.2486,-0.3741375,0.13915
1680014810320,1194798674356826,-0.251625,-0.38115,0.13805
1680014810324,1194798676859085,-0.2556125,-0.384175,0.1370875
1680014810326,1194798679361239,-0.262625,-0.3872,0.1351625
1680014810328,1194798681863624,-0.2646875,-0.39214998,0.131175
1680014810330,1194798684365855,-0.2717,-0.39214998,0.1260875
1680014810332,1194798686868239,-0.2717,-0.395175,0.1260875
1680014810334,1194798689370696,-0.2776125,-0.401225,0.12705
1680014810337,1194798691872927,-0.279675,-0.4052125,0.125125
1680014810340,1194798694375311,-0.284625,-0.3991625,0.1241625
1680014810344,1194798696877465,-0.2855875,-0.40713748,0.122099996
1680014810345,1194798699379956,-0.289575,-0.4082375,0.120175
1680014810347,1194798701882186,-0.2926,-0.4082375,0.119075
1680014810351,1194798704384648,-0.295625,-0.4131875,0.11605
1680014810353,1194798706886802,-0.2976875,-0.4162125,0.1150875
1680014810356,1194798709389215,-0.300575,-0.41415,0.1120625
1680014810357,1194798711891446,-0.3036,-0.4202,0.1101375
1680014810360,1194798714393831,-0.306625,-0.42625,0.1071125
1680014810364,1194798716896062,-0.3075875,-0.4291375,0.103125
1680014810365,1194798719398523,-0.30965,-0.43614998,0.103125
1680014810367,1194798721900903,-0.3086875,-0.4351875,0.1021625
1680014810369,1194798724403134,-0.306625,-0.43614998,0.098175
1680014810373,1194798726905287,-0.3056625,-0.4492125,0.09515
1680014810376,1194798729407672,-0.3086875,-0.45319998,0.09405
1680014810378,1194798731909869,-0.311575,-0.45113748,0.0881375
1680014810379,1194798734412330,-0.30965,-0.4571875,0.0851125
1680014810383,1194798736914715,-0.3047,-0.467225,0.0771375
1680014810385,1194798739416946,-0.306625,-0.4772625,0.0741125
1680014810388,1194798741919311,-0.3047,-0.4791875,0.0710875
1680014810390,1194798744421465,-0.3036,-0.48014998,0.064075
1680014810394,1194798746923696,-0.301675,-0.48014998,0.0600875
1680014810395,1194798749426158,-0.2965875,-0.4772625,0.0561
1680014810397,1194798751928542,-0.2937,-0.4841375,0.0490875
1680014810399,1194798754430754,-0.2946625,-0.4882625,0.0451
1680014810404,1194798756933139,-0.2916375,-0.483175,0.042075
1680014810405,1194798759435369,-0.29067498,-0.4852375,0.04015
1680014810407,1194798761937754,-0.28765,-0.4862,0.0331375
1680014810409,1194798764440206,-0.2816,-0.48125,0.02805
1680014810413,1194798766942436,-0.284625,-0.478225,0.02915
1680014810415,1194798769444821,-0.279675,-0.4752,0.020075
1680014810417,1194798771947052,-0.2745875,-0.46915,0.0160875
1680014810419,1194798774449235,-0.2756875,-0.467225,0.0111375
1680014810426,1194798776951619,-0.2717,-0.45925,0.0050875
1680014810428,1194798779454081,-0.267575,-0.45319998,0.0050875
1680014810429,1194798781956311,-0.2646875,-0.450175,0.0011
1680014810430,1194798784458672,-0.25959998,-0.4401375,-0.006875
1680014810432,1194798786960903,-0.257675,-0.43614998,-0.00495
1680014810434,1194798789463287,-0.251625,-0.4302375,-0.0089375
1680014810437,1194798791965518,-0.2446125,-0.4202,-0.01595
1680014810440,1194798794467903,-0.240625,-0.4162125,-0.0209
1680014810444,1194798796970138,-0.2376,-0.40315,-0.0218625
1680014810445,1194798799472522,-0.2305875,-0.3972375,-0.022824999
1680014810447,1194798801974753,-0.22659999,-0.3911875,-0.02585
1680014810449,1194798804477138,-0.2206875,-0.384175,-0.0328625
1680014810453,1194798806979368,-0.21367499,-0.3741375,-0.036849998
1680014810455,1194798809481826,-0.2085875,-0.36313748,-0.03795
1680014810457,1194798811984211,-0.202675,-0.3612125,-0.0438625
1680014810460,1194798814486441,-0.1947,-0.35021248,-0.0499125
1680014810464,1194798816988821,-0.18865,-0.3432,-0.0548625
1680014810466,1194798819491052,-0.179575,-0.3361875,-0.056925
1680014810468,1194798821993206,-0.1727,-0.32725,-0.061875
1680014810470,1194798824495667,-0.1656875,-0.3202375,-0.067925
1680014810472,1194798826998052,-0.158675,-0.31625,-0.072875
1680014810474,1194798829500283,-0.1486375,-0.3081375,-0.077825
1680014810478,1194798832002701,-0.1425875,-0.296175,-0.083875
1680014810480,1194798834504932,-0.136675,-0.291225,-0.0908875
1680014810484,1194798837007317,-0.130625,-0.2872375,-0.0939125
1680014810486,1194798839509769,-0.1205875,-0.2781625,-0.099825
1680014810488,1194798842011923,-0.115637496,-0.2682625,-0.1018875
1680014810490,1194798844514154,-0.1076625,-0.26015,-0.106837496
1680014810492,1194798847016538,-0.103675,-0.2512125,-0.11495
1680014810495,1194798849518769,-0.1016125,-0.23815,-0.1189375
1680014810497,1194798852021125,-0.092675,-0.22825,-0.1189375
1680014810502,1194798854523586,-0.091575,-0.21615,-0.122925
1680014810504,1194798857025817,-0.0875875,-0.2102375,-0.12485
1680014810505,1194798859527971,-0.081675,-0.19525,-0.1269125
1680014810507,1194798862030375,-0.080575,-0.18425,-0.1238875
1680014810509,1194798864532836,-0.073699996,-0.170225,-0.1309
1680014810514,1194798867035067,-0.073699996,-0.1632125,-0.132825
1680014810514,1194798869537452,-0.0655875,-0.1571625,-0.1309
1680014810518,1194798872039663,-0.0616,-0.1472625,-0.1269125
1680014810521,1194798874542048,-0.0627,-0.14025,-0.127875
1680014810525,1194798877044279,-0.056649998,-0.13213749,-0.12595
1680014810526,1194798879546663,-0.0506,-0.126225,-0.121825
1680014810528,1194798882048879,-0.047575,-0.1211375,-0.1199
1680014810529,1194798884551341,-0.0446875,-0.1122,-0.1128875
1680014810533,1194798887053725,-0.0407,-0.1082125,-0.1098625
1680014810535,1194798889555879,-0.036575,-0.1051875,-0.1079375
1680014810539,1194798892058120,-0.0286,-0.1032625,-0.1018875
1680014810540,1194798894560505,-0.02365,-0.1012,-0.094875
1680014810546,1194798897062735,-0.0176,-0.09625,-0.088825
1680014810546,1194798899565197,-0.013612499,-0.09515,-0.0829125
1680014810547,1194798902067581,-0.0056375,-0.093225,-0.0759
1680014810550,1194798904569802,0.001375,-0.0922625,-0.06985
1680014810553,1194798907071956,0.0033,-0.093225,-0.064899996
1680014810557,1194798909574341,0.00935,-0.0902,-0.061875
1680014810557,1194798912076571,0.0193875,-0.0911625,-0.0539
1680014810560,1194798914579019,0.0253,-0.093225,-0.044825
1680014810564,1194798917081404,0.03135,-0.0881375,-0.0429
1680014810565,1194798919583634,0.0353375,-0.082225,-0.0408375
1680014810567,1194798922086019,0.040425,-0.0862125,-0.036849998
1680014810570,1194798924588260,0.0493625,-0.087175,-0.0298375
1680014810573,1194798927090644,0.0493625,-0.0862125,-0.02695
1680014810576,1194798929592875,0.05335,-0.087175,-0.022824999
1680014810578,1194798932095337,0.0573375,-0.0881375,-0.0209
1680014810579,1194798934597735,0.0594,-0.087175,-0.017875
1680014810583,1194798937099889,0.062425,-0.0862125,-0.012925
1680014810584,1194798939602120,0.0653125,-0.0881375,-0.012925
1680014810587,1194798942104505,0.0664125,-0.0922625,-0.0108624995
1680014810590,1194798944606937,0.0664125,-0.093225,-0.0089375
1680014810594,1194798947109168,0.0683375,-0.0991375,-0.0028875
1680014810594,1194798949611553,0.069299996,-0.1021625,0.0020625
1680014810598,1194798952113783,0.0713625,-0.1021625,0.004125
1680014810600,1194798954615947,0.0704,-0.104225,0.0111375
1680014810603,1194798957118332,0.0713625,-0.111237496,0.014162499
1680014810606,1194798959620793,0.0713625,-0.115225,0.020075
1680014810607,1194798962123024,0.072325,-0.1161875,0.0270875
1680014810609,1194798964625409,0.0743875,-0.120175,0.037125
1680014810614,1194798967127640,0.07535,-0.126225,0.0460625
1680014810616,1194798969630024,0.0763125,-0.1351625,0.0551375
1680014810617,1194798972132255,0.0774125,-0.14025,0.0661375
1680014810619,1194798974634640,0.078375,-0.1442375,0.0771375
1680014810623,1194798977136855,0.083325,-0.1552375,0.086075
1680014810625,1194798979639240,0.083325,-0.1651375,0.1021625
1680014810628,1194798982141471,0.0853875,-0.17325,0.1131625
1680014810629,1194798984643855,0.0873125,-0.18315,0.1230625
1680014810633,1194798987146086,0.0884125,-0.1931875,0.136125
1680014810635,1194798989648548,0.0903375,-0.203225,0.1480875
1680014810637,1194798992150932,0.091299996,-0.2182125,0.1621125
1680014810641,1194798994653163,0.091299996,-0.2292125,0.17613749
1680014810645,1194798997155519,0.091299996,-0.2432375,0.1871375
1680014810646,1194798999657749,0.0933625,-0.2641375,0.2011625
1680014810647,1194799002160134,0.100375,-0.2781625,0.2140875
1680014810651,1194799004662288,0.0983125,-0.291225,0.2211
1680014810654,1194799007164773,0.0983125,-0.30415,0.235125
1680014810655,1194799009667004,0.0994125,-0.31913748,0.2440625
1680014810657,1194799012169389,0.0983125,-0.3361875,0.252175
1680014810659,1194799014671620,0.1023,-0.3471875,0.2611125
1680014810663,1194799017174013,0.1013375,-0.357225,0.2721125
1680014810664,1194799019676244,0.0994125,-0.3672625,0.279125
1680014810667,1194799022178629,0.095425,-0.3801875,0.2891625
1680014810669,1194799024680859,0.091299996,-0.3862375,0.295075
1680014810672,1194799027183244,0.091299996,-0.39214998,0.30305
1680014810675,1194799029685446,0.091299996,-0.395175,0.3100625
1680014810677,1194799032187830,0.0884125,-0.401225,0.318175
1680014810680,1194799034690292,0.08635,-0.401225,0.3240875
1680014810684,1194799037192451,0.0823625,-0.4052125,0.328075
1680014810686,1194799039694682,0.0793375,-0.401225,0.3320625
1680014810690,1194799042197066,0.0763125,-0.3982,0.33715
1680014810692,1194799044699528,0.072325,-0.3991625,0.339075
1680014810695,1194799047201764,0.0683375,-0.39214998,0.340175
1680014810697,1194799049704148,0.0653125,-0.3862375,0.3421
1680014810698,1194799052206379,0.061325,-0.3832125,0.3460875
1680014810700,1194799054708764,0.0594,-0.38225,0.345125
1680014810703,1194799057210994,0.0554125,-0.3771625,0.34705
1680014810705,1194799059713403,0.0463375,-0.3752375,0.34814999
1680014810707,1194799062215865,0.0433125,-0.3661625,0.351175
1680014810709,1194799064718018,0.040425,-0.3562625,0.3531
1680014810713,1194799067220249,0.0353375,-0.35021248,0.3540625
1680014810715,1194799069722634,0.029424999,-0.3471875,0.3570875
1680014810718,1194799072224894,0.0224125,-0.3342625,0.3570875
1680014810720,1194799074727278,0.018424999,-0.32725,0.35915
1680014810724,1194799077229740,0.018424999,-0.324225,0.36107498
1680014810729,1194799079731965,0.0114124995,-0.313225,0.362175
1680014810730,1194799082234350,0.006325,-0.30415,0.36313748
1680014810731,1194799084736504,-0.00165,-0.2992,0.3641
1680014810734,1194799087238735,-0.0066,-0.2891625,0.36905
1680014810735,1194799089741119,-0.013612499,-0.28325,0.3711125
1680014810737,1194799092243350,-0.0196625,-0.27719998,0.3711125
1680014810740,1194799094745812,-0.0246125,-0.2671625,0.372075
1680014810744,1194799097248196,-0.0276375,-0.26015,0.3751
1680014810745,1194799099750427,-0.0356125,-0.25025,0.378125
1680014810747,1194799102252812,-0.042625,-0.2462625,0.384175
1680014810750,1194799104754956,-0.0496375,-0.2371875,0.3821125
1680014810753,1194799107257186,-0.059675,-0.2292125,0.3861
1680014810755,1194799109759648,-0.0666875,-0.2212375,0.3870625
1680014810758,1194799112262109,-0.0746625,-0.21725,0.3870625
1680014810759,1194799114764282,-0.080575,-0.2121625,0.3851375
1680014810765,1194799117266667,-0.086625,-0.2022625,0.3821125
1680014810768,1194799119767781,-0.092675,-0.19525,0.38115
1680014810768,1194799122268898,-0.0966625,-0.1912625,0.38005
1680014810769,1194799124773754,-0.108625,-0.186175,0.3790875
1680014810773,1194799127275985,-0.1186625,-0.1772375,0.373175
1680014810775,1194799129778369,-0.1266375,-0.1651375,0.37015
1680014810777,1194799132280523,-0.135575,-0.159225,0.3650625
1680014810779,1194799134782768,-0.1425875,-0.1491875,0.36313748
1680014810783,1194799137285152,-0.152625,-0.1381875,0.35915
1680014810785,1194799139787614,-0.1617,-0.12925,0.3531
1680014810788,1194799142289845,-0.1706375,-0.1192125,0.34705
1680014810789,1194799144792229,-0.1736625,-0.111237496,0.3421
1680014810793,1194799147294480,-0.186725,-0.100237496,0.339075
1680014810795,1194799149796865,-0.1956625,-0.087175,0.334125
1680014810797,1194799152299019,-0.208725,-0.0831875,0.32615
1680014810801,1194799154801494,-0.2156,-0.076175,0.31913748
1680014810804,1194799157303725,-0.22659999,-0.0682,0.31515
1680014810806,1194799159806187,-0.2347125,-0.060225,0.3091
1680014810808,1194799162308340,-0.240625,-0.05115,0.2990625
1680014810811,1194799164810725,-0.246675,-0.043175,0.29205
1680014810813,1194799167312941,-0.252725,-0.0352,0.2871
1680014810815,1194799169815325,-0.2567125,-0.027224999,0.2781625
1680014810817,1194799172317787,-0.2646875,-0.016224999,0.2690875
1680014810820,1194799174820018,-0.2696375,-0.0061875,0.262075
1680014810823,1194799177322402,-0.2717,-0.0042625,0.2531375
1680014810825,1194799179824556,-0.27665,0.0048125,0.2451625
1680014810829,1194799182326787,-0.2756875,0.01485,0.2391125
1680014810830,1194799184829172,-0.274725,0.0207625,0.2311375
1680014810833,1194799187331643,-0.2776125,0.02475,0.2220625
1680014810835,1194799189833874,-0.273625,0.0378125,0.2140875
1680014810838,1194799192336259,-0.2717,0.0528,0.207075
1680014810840,1194799194838489,-0.2696375,0.05775,0.202125
1680014810845,1194799197340869,-0.2677125,0.0647625,0.1951125
1680014810846,1194799199843023,-0.2607,0.0708125,0.19415
1680014810848,1194799202345484,-0.2556125,0.076725,0.186175
1680014810850,1194799204847715,-0.2486,0.082775,0.1810875
1680014810853,1194799207350100,-0.2426875,0.087725,0.1791625
1680014810855,1194799209852321,-0.23567499,0.088825,0.1731125
1680014810857,1194799212354706,-0.224675,0.0968,0.1700875
1680014810860,1194799214856937,-0.2116125,0.0968,0.1651375
1680014810863,1194799217359322,-0.2036375,0.1057375,0.164175
1680014810865,1194799219861792,-0.1947,0.1078,0.16005
1680014810867,1194799222364023,-0.180675,0.106837496,0.1571625
1680014810870,1194799224866407,-0.16665,0.106837496,0.153175
1680014810873,1194799227368561,-0.153725,0.1117875,0.14905
1680014810876,1194799229870778,-0.1397,0.11385,0.1450625
1680014810878,1194799232373163,-0.125675,0.11275,0.1450625
1680014810880,1194799234875624,-0.1106875,0.109725,0.141075
1680014810884,1194799237377855,-0.098725,0.106837496,0.1351625
1680014810887,1194799239880225,-0.087725,0.1057375,0.13213749
1680014810888,1194799242382455,-0.070675,0.104775,0.12705
1680014810890,1194799244884840,-0.059675,0.106837496,0.120175
1680014810895,1194799247386994,-0.048675,0.109725,0.119075
1680014810896,1194799249889455,-0.037675,0.1057375,0.1131625
1680014810898,1194799252391701,-0.026675,0.1078,0.108075
1680014810900,1194799254894086,-0.0176,0.106837496,0.103125
1680014810904,1194799257396317,-0.0086624995,0.106837496,0.097075
1680014810905,1194799259898701,-0.00165,0.1038125,0.0900625
1680014810908,1194799262400936,0.0033,0.099825,0.086075
1680014810911,1194799264903398,0.0103124995,0.1007875,0.0820875
1680014810914,1194799267405551,0.017324999,0.10285,0.076175
1680014810916,1194799269908013,0.0213125,0.099825,0.0691625
1680014810919,1194799272410398,0.0243375,0.099825,0.0600875
1680014810921,1194799274912551,0.028324999,0.0977625,0.053075
1680014810924,1194799277414782,0.03135,0.0928125,0.048125
1680014810926,1194799279917244,0.0363,0.09075,0.0411125
1680014810929,1194799282419614,0.0374,0.0897875,0.037125
1680014810930,1194799284921845,0.0413875,0.082775,0.0301125
1680014810933,1194799287424230,0.0402875,0.0757625,0.0231
1680014810934,1194799289926461,0.0413875,0.071775,0.0160875
1680014810937,1194799292428845,0.0402875,0.06875,0.009075
1680014810939,1194799294931090,0.0383625,0.066825,1.375E-4
1680014810944,1194799297433475,0.0374,0.060775,-0.006875
1680014810945,1194799299935705,0.0363,0.0528,-0.0108624995
1680014810947,1194799302438090,0.034375,0.047849998,-0.01485
1680014810951,1194799304940307,0.0292875,0.0457875,-0.0169125
1680014810954,1194799307442691,0.028324999,0.0427625,-0.0218625
1680014810955,1194799309944922,0.0264,0.0378125,-0.0248875
1680014810957,1194799312447384,0.023375,0.032725,-0.02585
1680014810959,1194799314949768,0.022275,0.027775,-0.0319
1680014810964,1194799317451989,0.023375,0.0207625,-0.0298375
1680014810965,1194799319954374,0.02035,0.022824999,-0.028875
1680014810967,1194799322456604,0.0213125,0.016775,-0.0298375
1680014810970,1194799324958758,0.02035,0.011825,-0.0279125
1680014810973,1194799327461206,0.0243375,0.0127875,-0.02585
1680014810975,1194799329963590,0.0253,0.0097624995,-0.02585
1680014810978,1194799332465821,0.0292875,0.0048125,-0.02585
1680014810979,1194799334968206,0.033275,0.00275,-0.0209
1680014810983,1194799337470462,0.0363,-2.75E-4,-0.017875
1680014810985,1194799339972846,0.039325,-2.75E-4,-0.01595
1680014810989,1194799342475077,0.0433125,-0.005225,-0.0108624995
1680014810991,1194799344977462,0.0484,-0.0031625,-0.0089375
1680014810994,1194799347479672,0.055275,-0.0022,-0.0089375
1680014810995,1194799349982057,0.0622875,-0.0061875,-0.0059125
1680014810997,1194799352484288,0.069299996,-0.0022,-0.00385
1680014810999,1194799354986672,0.0743875,-2.75E-4,-0.0028875
1680014811004,1194799357489130,0.083325,-0.005225,1.375E-4
1680014811005,1194799359991361,0.089375,-0.005225,0.0011
1680014811007,1194799362493515,0.0983125,-0.0031625,0.0020625
1680014811009,1194799364995899,0.105325,-0.005225,0.0020625
1680014811013,1194799367498361,0.1144,-0.0022,0.004125
1680014811014,1194799370000596,0.122375,0.0017875,0.0050875
1680014811017,1194799372502749,0.132275,0.0067375,0.0050875
1680014811020,1194799375005211,0.1364,0.0067375,0.00605
1680014811023,1194799377507596,0.14533749,0.0097624995,0.00605
1680014811027,1194799380009821,0.1502875,0.01485,0.0031625
1680014811028,1194799382512206,0.1584,0.0158125,0.004125
1680014811031,1194799385014437,0.1623875,0.0207625,0.0031625
1680014811033,1194799387516821,0.16733749,0.02475,1.375E-4
1680014811035,1194799390019052,0.1733875,0.0308,-0.001925
1680014811038,1194799392521404,0.177375,0.032725,-0.006875
1680014811040,1194799395023635,0.1832875,0.0347875,-0.0089375
1680014811045,1194799397526019,0.1843875,0.036849998,-0.011825
1680014811046,1194799400028250,0.18727499,0.0457875,-0.01595
1680014811047,1194799402530630,0.1942875,0.044825,-0.0218625
1680014811050,1194799405033091,0.1953875,0.0457875,-0.0248875
1680014811053,1194799407535322,0.198275,0.0488125,-0.0319
1680014811056,1194799410037476,0.2003375,0.047849998,-0.0328625
1680014811057,1194799412539860,0.204325,0.0518375,-0.036849998
1680014811060,1194799415042091,0.204325,0.0567875,-0.0438625
1680014811064,1194799417544553,0.2063875,0.060775,-0.045925
1680014811066,1194799420046937,0.20735,0.0628375,-0.045925
1680014811068,1194799422549187,0.21133749,0.0638,-0.0529375
1680014811070,1194799425051572,0.2143625,0.0638,-0.056925
1680014811073,1194799427553802,0.2123,0.0677875,-0.058849998
1680014811075,1194799430056187,0.21133749,0.06985,-0.061875
1680014811078,1194799432558418,0.215325,0.066825,-0.061875
1680014811080,1194799435060879,0.215325,0.0677875,-0.066825
1680014811084,1194799437563033,0.2123,0.0738375,-0.0658625
1680014811086,1194799440065418,0.210375,0.0708125,-0.0658625
1680014811088,1194799442567649,0.2052875,0.0708125,-0.066825
1680014811090,1194799445070038,0.2024,0.06985,-0.066825
1680014811094,1194799447572269,0.198275,0.0708125,-0.064899996
1680014811095,1194799450074654,0.1923625,0.0727375,-0.0609125
1680014811097,1194799452577115,0.188375,0.0757625,-0.05995
1680014811101,1194799455079360,0.1813625,0.071775,-0.0578875
1680014811104,1194799457581514,0.1733875,0.06875,-0.0529375
1680014811106,1194799460083975,0.16733749,0.06985,-0.044825
1680014811108,1194799462586360,0.1593625,0.06875,-0.0408375
1680014811111,1194799465088591,0.15235,0.0647625,-0.03795
1680014811113,1194799467590961,0.143275,0.060775,-0.0328625
1680014811115,1194799470093192,0.138325,0.05775,-0.02695
1680014811118,1194799472595577,0.1293875,0.054725,-0.022824999
1680014811120,1194799475097808,0.121275,0.0518375,-0.0188375
1680014811126,1194799477600187,0.1172875,0.0507375,-0.011825
1680014811126,1194799480102418,0.10835,0.047849998,-0.0089375
1680014811128,1194799482604880,0.1023,0.04675,-0.00495
1680014811130,1194799485107033,0.099275,0.044825,0.0011
1680014811133,1194799487609428,0.094325,0.0457875,1.375E-4
1680014811135,1194799490111659,0.091299996,0.044825,1.375E-4
1680014811139,1194799492614043,0.08635,0.0457875,0.0031625
1680014811140,1194799495116274,0.083325,0.0457875,0.00605
1680014811144,1194799497618764,0.0823625,0.043725,0.0050875
1680014811145,1194799500121148,0.077275,0.04675,0.004125
1680014811148,1194799502623379,0.07535,0.047849998,0.00605
1680014811150,1194799505125533,0.0743875,0.047849998,0.00715
1680014811153,1194799507627918,0.07535,0.0507375,0.0081124995
1680014811155,1194799510130384,0.072325,0.0507375,0.0081124995
1680014811158,1194799512632615,0.0713625,0.055825,0.010175
1680014811161,1194799515135000,0.072325,0.0617375,0.013062499
1680014811164,1194799517637249,0.0732875,0.060775,0.013062499
1680014811166,1194799520139634,0.0732875,0.0617375,0.014162499
1680014811167,1194799522641865,0.07535,0.0617375,0.015125
1680014811170,1194799525144249,0.0763125,0.066825,0.0160875
1680014811173,1194799527646480,0.0763125,0.06875,0.01705
1680014811180,1194799530148942,0.0793375,0.06875,0.0191125
1680014811180,1194799532651095,0.0842875,0.06985,0.0231
1680014811181,1194799535153480,0.08635,0.0727375,0.0270875
1680014811184,1194799537655711,0.088275,0.07975,0.026124999
1680014811185,1194799540158096,0.091299996,0.077825,0.0251625
1680014811187,1194799542660336,0.0903375,0.0818125,0.031075
1680014811190,1194799545162798,0.0903375,0.0867625,0.031075
1680014811194,1194799547665182,0.0924,0.0928125,0.032175
1680014811195,1194799550167413,0.0924,0.0947375,0.0380875
1680014811198,1194799552669591,0.0952875,0.0977625,0.0380875
1680014811200,1194799555171976,0.099275,0.099825,0.039049998
1680014811204,1194799557674206,0.0983125,0.098725,0.0411125
1680014811206,1194799560176668,0.0952875,0.099825,0.042075
1680014811208,1194799562679053,0.1043625,0.099825,0.042075
1680014811212,1194799565181297,0.1023,0.1007875,0.0471625
1680014811214,1194799567683682,0.099275,0.0977625,0.048125
1680014811216,1194799570185913,0.100375,0.098725,0.048125
1680014811218,1194799572688283,0.0963875,0.0968,0.050049998
1680014811220,1194799575190745,0.0963875,0.095837496,0.053075
1680014811225,1194799577692976,0.0952875,0.0897875,0.054175
1680014811225,1194799580195360,0.0963875,0.088825,0.054175
1680014811229,1194799582697533,0.0983125,0.0837375,0.0521125
1680014811231,1194799585199764,0.0952875,0.0837375,0.0551375
1680014811233,1194799587702149,0.094325,0.082775,0.053075
1680014811235,1194799590204379,0.0924,0.076725,0.048125
1680014811238,1194799592706841,0.0924,0.076725,0.0521125
1680014811241,1194799595209231,0.094325,0.06875,0.0471625
1680014811246,1194799597711461,0.0924,0.0638,0.0441375
1680014811246,1194799600213615,0.091299996,0.0598125,0.0441375
1680014811247,1194799602716000,0.0924,0.055825,0.0451
1680014811251,1194799605218212,0.091299996,0.0537625,0.042075
1680014811253,1194799607720904,0.091299996,0.0488125,0.04015
1680014811256,1194799610223058,0.0952875,0.044825,0.037125
1680014811257,1194799612725289,0.094325,0.0378125,0.032175
1680014811262,1194799615227673,0.0933625,0.0347875,0.0331375
1680014811263,1194799617729894,0.094325,0.032725,0.0301125
1680014811265,1194799620232279,0.0983125,0.0317625,0.0270875
1680014811268,1194799622734740,0.099275,0.0287375,0.0240625
1680014811271,1194799625236971,0.0983125,0.027775,0.0251625
1680014811274,1194799627739336,0.0983125,0.0268125,0.0270875
1680014811278,1194799630241490,0.099275,0.02475,0.020075
1680014811279,1194799632743721,0.100375,0.0298375,0.0191125
1680014811280,1194799635246106,0.0963875,0.0268125,0.0191125
1680014811284,1194799637748567,0.0963875,0.0268125,0.01705
1680014811286,1194799640250798,0.0952875,0.0308,0.015125
1680014811290,1194799642752952,0.091299996,0.0298375,0.0121
1680014811291,1194799645255337,0.0903375,0.0328625,0.009075
1680014811295,1194799647757788,0.0884125,0.0347875,0.009075
1680014811296,1194799650260019,0.0853875,0.0408375,0.0081124995
1680014811298,1194799652762403,0.0814,0.044825,0.0050875
1680014811300,1194799655264634,0.07535,0.0457875,0.0031625
1680014811303,1194799657767019,0.0713625,0.0507375,0.0011
1680014811305,1194799660269250,0.0653125,0.0537625,1.375E-4
1680014811308,1194799662771711,0.0594,0.0537625,1.375E-4
1680014811311,1194799665274096,0.0523875,0.060775,0.0011
1680014811314,1194799667776250,0.0484,0.066825,0.0011
1680014811316,1194799670278466,0.0374,0.06985,-0.001925
1680014811319,1194799672780851,0.0292875,0.06875,-0.00385
1680014811322,1194799675283082,0.023375,0.0727375,1.375E-4
1680014811325,1194799677785466,0.017324999,0.077825,0.0011
1680014811330,1194799680287932,0.012375,0.07975,0.0011
1680014811330,1194799682790163,0.0072875,0.077825,0.0031625
1680014811331,1194799685292547,0.001375,0.07975,0.0031625
1680014811335,1194799687794701,-0.0066,0.0848375,0.0031625
1680014811336,1194799690296932,-0.0105875,0.0878625,0.004125
1680014811338,1194799692799317,-0.01265,0.088825,0.00715
1680014811341,1194799695301769,-0.014712499,0.09075,0.00605
1680014811343,1194799697804000,-0.015675,0.09075,0.00605
1680014811345,1194799700306385,-0.0166375,0.0928125,0.009075
1680014811348,1194799702808615,-0.020624999,0.0947375,0.010175
1680014811350,1194799705310985,-0.0246125,0.10175,0.009075
1680014811353,1194799707813216,-0.02365,0.099825,0.00715
1680014811356,1194799710315677,-0.02365,0.10285,0.00715
1680014811359,1194799712818062,-0.0226875,0.104775,0.0050875
1680014811361,1194799715320226,-0.0246125,0.10285,0.0031625
1680014811365,1194799717822457,-0.0226875,0.110825,0.0011
1680014811367,1194799720324841,-0.0196625,0.110825,-8.25E-4
1680014811369,1194799722827072,-0.0196625,0.1078,-0.0028875
1680014811371,1194799725329509,-0.0187,0.11385,-0.00495
1680014811373,1194799727831894,-0.0176,0.1098625,-0.006875
1680014811375,1194799730334125,-0.0176,0.1098625,-0.0108624995
1680014811378,1194799732836510,-0.015675,0.110825,-0.0108624995
1680014811380,1194799735338663,-0.0166375,0.106837496,-0.012925
1680014811383,1194799737840884,-0.015675,0.1057375,-0.0169125
1680014811386,1194799740343346,-0.015675,0.1057375,-0.0199375
1680014811388,1194799742845807,-0.0187,0.10285,-0.022824999
1680014811390,1194799745347961,-0.014712499,0.10285,-0.023924999
1680014811394,1194799747850356,-0.0166375,0.0977625,-0.0298375
1680014811395,1194799750352586,-0.0166375,0.095837496,-0.0328625
1680014811398,1194799752854971,-0.0176,0.0928125,-0.034925
1680014811401,1194799755357202,-0.0176,0.0858,-0.03795
1680014811405,1194799757859658,-0.0176,0.0867625,-0.039875
1680014811407,1194799760362043,-0.0187,0.0818125,-0.0419375
1680014811408,1194799762864197,-0.0196625,0.077825,-0.0419375
1680014811410,1194799765366428,-0.0196625,0.0757625,-0.044825
1680014811413,1194799767868807,-0.0215875,0.071775,-0.0429
1680014811415,1194799770371038,-0.020624999,0.0708125,-0.0408375
1680014811418,1194799772873500,-0.0246125,0.0727375,-0.0438625
1680014811421,1194799775375884,-0.0226875,0.06875,-0.0419375
1680014811423,1194799777878144,-0.02365,0.0658625,-0.036849998
1680014811426,1194799780380529,-0.0196625,0.0638,-0.034925
1680014811428,1194799782882682,-0.0215875,0.060775,-0.033825
1680014811431,1194799785385144,-0.0215875,0.0617375,-0.0298375
1680014811434,1194799787887375,-0.0215875,0.0567875,-0.0279125
1680014811435,1194799790389836,-0.0187,0.0548625,-0.02585
1680014811441,1194799792891990,-0.0187,0.055825,-0.023924999
1680014811442,1194799795394375,-0.0187,0.0488125,-0.0209
1680014811445,1194799797896616,-0.020624999,0.04675,-0.01485
1680014811447,1194799800399000,-0.0166375,0.0457875,-0.0099
1680014811448,1194799802901462,-0.014712499,0.0438625,-0.0059125
1680014811451,1194799805403693,-0.01265,0.036849998,-0.00385
1680014811454,1194799807906077,-0.009625,0.033825,0.0011
1680014811455,1194799810408317,-0.0077,0.0328625,-8.25E-4
1680014811458,1194799812910471,-0.004675,0.0298375,0.0011
1680014811461,1194799815412855,-6.875E-4,0.0287375,0.00605
1680014811463,1194799817915317,0.0023375,0.0207625,0.009075
1680014811465,1194799820417548,0.0023375,0.01375,0.0121
1680014811468,1194799822919932,0.006325,0.005775,0.01705
1680014811470,1194799825422163,0.0154,0.0048125,0.014162499
1680014811473,1194799827924548,0.0163625,-0.0012375,0.0191125
1680014811477,1194799830426765,0.0163625,-0.010175,0.021175
1680014811479,1194799832929149,0.0213125,-0.014162499,0.0221375
1680014811480,1194799835431611,0.0213125,-0.0202125,0.0251625
1680014811484,1194799837933841,0.0264,-0.0281875,0.02805
1680014811486,1194799840435995,0.0292875,-0.0361625,0.0301125
1680014811488,1194799842938389,0.0323125,-0.041249998,0.031075
1680014811490,1194799845440620,0.034375,-0.0441375,0.0301125
1680014811493,1194799847943004,0.039325,-0.052249998,0.02805
1680014811496,1194799850445466,0.0433125,-0.0592625,0.0231
1680014811498,1194799852947673,0.0444125,-0.065175,0.0231
1680014811501,1194799855450057,0.0493625,-0.07425,0.021175
1680014811504,1194799857952288,0.0523875,-0.0782375,0.013062499
1680014811505,1194799860454442,0.05335,-0.0812625,0.013062499
1680014811508,1194799862956827,0.056375,-0.0862125,0.009075
1680014811510,1194799865459264,0.0594,-0.09515,0.00605
1680014811515,1194799867961495,0.0603625,-0.100237496,0.0020625
1680014811517,1194799870463879,0.0622875,-0.1012,1.375E-4
1680014811519,1194799872966129,0.0653125,-0.1051875,-8.25E-4
1680014811520,1194799875468514,0.069299996,-0.109175,-0.0028875
1680014811526,1194799877970745,0.0743875,-0.111237496,-0.001925
1680014811526,1194799880473206,0.078375,-0.11715,-0.001925
1680014811528,1194799882975591,0.0793375,-0.1211375,1.375E-4
1680014811530,1194799885477817,0.08635,-0.122237496,1.375E-4
1680014811534,1194799887979970,0.094325,-0.126225,1.375E-4
1680014811538,1194799890482355,0.1023,-0.1342,-8.25E-4
1680014811538,1194799892984586,0.1043625,-0.1381875,1.375E-4
1680014811540,1194799895486970,0.1093125,-0.1452,1.375E-4
1680014811545,1194799897989432,0.116325,-0.148225,-8.25E-4
1680014811546,1194799900491663,0.1203125,-0.15413749,0.00605
1680014811548,1194799902994047,0.122375,-0.1601875,0.0050875
1680014811551,1194799905496302,0.1282875,-0.1632125,0.0020625
1680014811554,1194799907998687,0.133375,-0.1672,0.0031625
1680014811556,1194799910500918,0.1373625,-0.1742125,0.00605
1680014811558,1194799913003379,0.1392875,-0.181225,0.010175
1680014811561,1194799915505533,0.1423125,-0.1852125,0.0111375
1680014811564,1194799918007913,0.1434125,-0.192225,0.009075
1680014811566,1194799920510143,0.14739999,-0.1962125,0.013062499
1680014811569,1194799923012528,0.1502875,-0.20625,0.0111375
1680014811571,1194799925514759,0.15235,-0.2151875,0.010175
1680014811574,1194799928017206,0.15235,-0.2212375,0.015125
1680014811575,1194799930519591,0.1544125,-0.2261875,0.01705
1680014811578,1194799933021822,0.1544125,-0.22825,0.020075
1680014811580,1194799935523976,0.1544125,-0.236225,0.01705
1680014811584,1194799938026360,0.15235,-0.2402125,0.01705
1680014811586,1194799940528822,0.1502875,-0.2451625,0.0160875
1680014811589,1194799943031052,0.14739999,-0.247225,0.0160875
1680014811591,1194799945533437,0.1423125,-0.24419999,0.0160875
1680014811595,1194799948035653,0.138325,-0.2451625,0.014162499
1680014811596,1194799950538037,0.133375,-0.2462625,0.013062499
1680014811598,1194799953040268,0.1282875,-0.24213749,0.0081124995
1680014811602,1194799955542653,0.1254,-0.2371875,0.0050875
1680014811605,1194799958045114,0.1203125,-0.2322375,1.375E-4
1680014811606,1194799960547345,0.1123375,-0.2292125,-8.25E-4
1680014811608,1194799963049730,0.111375,-0.225225,-0.00495
1680014811613,1194799965551884,0.10835,-0.2121625,-0.006875
1680014811614,1194799968054114,0.1023,-0.20625,-0.0108624995
1680014811615,1194799970556509,0.0933625,-0.19813749,-0.01485
1680014811618,1194799973058740,0.0903375,-0.1912625,-0.01595
1680014811620,1194799975561201,0.0903375,-0.18425,-0.0199375
1680014811624,1194799978063586,0.08635,-0.1681625,-0.0209
1680014811628,1194799980565793,0.0814,-0.159225,-0.022824999
1680014811629,1194799983067947,0.0763125,-0.15015,-0.02585
1680014811630,1194799985570331,0.0743875,-0.14025,-0.028875
1680014811633,1194799988072562,0.0704,-0.1342,-0.028875
1680014811635,1194799990575254,0.067375,-0.1271875,-0.0279125
1680014811638,1194799993077417,0.0653125,-0.115225,-0.0298375
1680014811640,1194799995579648,0.0603625,-0.1122,-0.034925
1680014811645,1194799998082033,0.0594,-0.1082125,-0.0358875
1680014811646,1194800000584263,0.0603625,-0.098175,-0.036849998
1680014811648,1194800003086648,0.0603625,-0.093225,-0.036849998
1680014811650,1194800005589110,0.056375,-0.08525,-0.036849998
1680014811653,1194800008091340,0.0554125,-0.0862125,-0.0419375
1680014811655,1194800010593725,0.0594,-0.082225,-0.0438625
1680014811658,1194800013095865,0.0583,-0.07425,-0.044825
1680014811661,1194800015598096,0.0603625,-0.071225,-0.044825
1680014811665,1194800018100480,0.06435,-0.0721875,-0.044825
1680014811667,1194800020602942,0.0622875,-0.071225,-0.050875
1680014811668,1194800023105172,0.06435,-0.0672375,-0.0518375
1680014811670,1194800025607556,0.0664125,-0.071225,-0.0539
1680014811673,1194800028109787,0.0683375,-0.0691625,-0.05995
1680014811678,1194800030612172,0.069299996,-0.071225,-0.0609125
1680014811679,1194800033114426,0.069299996,-0.0702625,-0.061875
1680014811681,1194800035616811,0.0713625,-0.0702625,-0.0628375
1680014811684,1194800038119272,0.072325,-0.0691625,-0.061875
1680014811686,1194800040621426,0.072325,-0.0642125,-0.064899996
1680014811688,1194800043123657,0.0743875,-0.06325,-0.0688875
1680014811693,1194800045626009,0.0793375,-0.0581625,-0.06985
1680014811694,1194800048128239,0.078375,-0.0551375,-0.0719125
1680014811696,1194800050630624,0.0823625,-0.054175,-0.0738375
1680014811698,1194800053133086,0.0823625,-0.05115,-0.072875
1680014811702,1194800055635292,0.0814,-0.0501875,-0.072875
1680014811705,1194800058137677,0.0793375,-0.052249998,-0.0768625
1680014811706,1194800060639831,0.0793375,-0.049225,-0.0759
1680014811708,1194800063142292,0.0823625,-0.0452375,-0.0759
1680014811713,1194800065644532,0.0814,-0.041249998,-0.0759
1680014811715,1194800068146994,0.078375,-0.0422125,-0.0759
1680014811716,1194800070649148,0.0814,-0.038225,-0.0759
1680014811720,1194800073151532,0.0823625,-0.0372625,-0.0719125
1680014811723,1194800075653754,0.078375,-0.0331375,-0.06985
1680014811726,1194800078156139,0.0774125,-0.0331375,-0.06985
1680014811727,1194800080658369,0.0814,-0.02915,-0.066825
1680014811729,1194800083160831,0.083325,-0.0331375,-0.061875
1680014811731,1194800085663216,0.0853875,-0.0391875,-0.0658625
1680014811734,1194800088165378,0.0873125,-0.0391875,-0.0609125
1680014811736,1194800090667609,0.0884125,-0.0452375,-0.058849998
1680014811741,1194800093169994,0.0924,-0.043175,-0.0548625
1680014811742,1194800095672225,0.0963875,-0.043175,-0.0529375
1680014811745,1194800098174681,0.1013375,-0.0482625,-0.050875
1680014811746,1194800100677066,0.1062875,-0.05115,-0.04895
1680014811748,1194800103179297,0.1093125,-0.05115,-0.045925
1680014811752,1194800105681681,0.111375,-0.0551375,-0.0419375
1680014811755,1194800108183908,0.1172875,-0.0551375,-0.0408375
1680014811756,1194800110686293,0.1214125,-0.0572,-0.0408375
1680014811758,1194800113188523,0.1233375,-0.06215,-0.0429
1680014811762,1194800115690985,0.1282875,-0.0592625,-0.0389125
1680014811764,1194800118193139,0.1293875,-0.06215,-0.033825
1680014811766,1194800120695523,0.1343375,-0.0661375,-0.033825
1680014811768,1194800123197754,0.138325,-0.06325,-0.033825
1680014811770,1194800125700139,0.1392875,-0.06325,-0.028875
1680014811774,1194800128202370,0.1423125,-0.0682,-0.0298375
1680014811777,1194800130704850,0.144375,-0.071225,-0.0279125
1680014811779,1194800133207235,0.14739999,-0.07425,-0.02695
1680014811781,1194800135709465,0.149325,-0.0792,-0.0279125
1680014811791,1194800138211619,0.149325,-0.0782375,-0.0248875
1680014811791,1194800140714004,0.15235,-0.08415,-0.0218625
1680014811791,1194800143216465,0.15235,-0.08415,-0.017875
1680014811796,1194800145718696,0.150425,-0.087175,-0.0218625
1680014811798,1194800148221081,0.15235,-0.0922625,-0.0199375
1680014811799,1194800150723312,0.1544125,-0.0922625,-0.017875
1680014811800,1194800153225710,0.150425,-0.0941875,-0.0199375
1680014811801,1194800155727941,0.15235,-0.0991375,-0.017875
1680014811804,1194800158230326,0.1533125,-0.1021625,-0.0169125
1680014811806,1194800160732787,0.1533125,-0.1021625,-0.012925
1680014811808,1194800163235004,0.150425,-0.104225,-0.01485
1680014811812,1194800165737158,0.150425,-0.10725,-0.011825
1680014811815,1194800168239542,0.1483625,-0.1082125,-0.0099
1680014811817,1194800170741773,0.14533749,-0.10725,-0.011825
1680014811818,1194800173244163,0.1434125,-0.109175,-0.012925
1680014811820,1194800175746624,0.144375,-0.111237496,-0.011825
1680014811823,1194800178248855,0.1423125,-0.109175,-0.011825
1680014811825,1194800180751240,0.1403875,-0.1101375,-0.01485
1680014811829,1194800183253461,0.139425,-0.1131625,-0.012925
1680014811831,1194800185755845,0.14135,-0.1101375,-0.01595
1680014811834,1194800188258076,0.14135,-0.115225,-0.0169125
1680014811836,1194800190760461,0.139425,-0.1161875,-0.01595
1680014811838,1194800193262691,0.139425,-0.115225,-0.01595
1680014811842,1194800195765076,0.1343375,-0.1131625,-0.01595
1680014811845,1194800198267307,0.1293875,-0.1101375,-0.01595
1680014811846,1194800200769691,0.1293875,-0.109175,-0.0169125
1680014811848,1194800203271922,0.1263625,-0.1142625,-0.0169125
1680014811852,1194800205774297,0.1203125,-0.111237496,-0.017875
1680014811855,1194800208276758,0.116325,-0.1101375,-0.01595
1680014811856,1194800210778989,0.1144,-0.1082125,-0.01485
1680014811858,1194800213281143,0.1093125,-0.10725,-0.011825
1680014811862,1194800215783528,0.1043625,-0.10725,-0.011825
1680014811864,1194800218286023,0.0983125,-0.10725,-0.0108624995
1680014811866,1194800220788254,0.095425,-0.1032625,-0.0108624995
1680014811870,1194800223290639,0.0903375,-0.104225,-0.0108624995
1680014811871,1194800225792869,0.08635,-0.10725,-0.0089375
1680014811874,1194800228295259,0.0814,-0.1012,-0.0108624995
1680014811875,1194800230797490,0.0774125,-0.09515,-0.0078375
1680014811878,1194800233299874,0.073425,-0.09515,-0.00495
1680014811881,1194800235802105,0.0683375,-0.093225,-0.006875
1680014811884,1194800238304571,0.0653125,-0.0922625,-0.0078375
1680014811887,1194800240806724,0.0653125,-0.087175,-0.006875
1680014811891,1194800243309109,0.0603625,-0.087175,-0.00495
1680014811894,1194800245811340,0.0573375,-0.08525,-0.0059125
1680014811896,1194800248313710,0.0523875,-0.0812625,-0.0059125
1680014811897,1194800250815941,0.050325,-0.0792,-0.0059125
1680014811898,1194800253318326,0.0444125,-0.07425,-0.00385
1680014811900,1194800255820787,0.04235,-0.0702625,-0.001925
1680014811905,1194800258323008,0.040425,-0.0661375,-0.0059125
1680014811907,1194800260825393,0.0353375,-0.0642125,-0.001925
1680014811908,1194800263327854,0.034375,-0.0592625,1.375E-4
1680014811912,1194800265830008,0.03135,-0.054175,1.375E-4
1680014811915,1194800268332239,0.0243375,-0.0471625,0.0031625
1680014811916,1194800270834658,0.018424999,-0.0391875,0.00605
1680014811919,1194800273336888,0.0193875,-0.038225,0.009075
1680014811921,1194800275839273,0.017324999,-0.0342375,0.013062499
1680014811924,1194800278341504,0.0133375,-0.0281875,0.01705
1680014811928,1194800280843950,0.0103124995,-0.0262625,0.0221375
1680014811931,1194800283346335,0.0103124995,-0.021175,0.020075
1680014811932,1194800285848489,0.00935,-0.015262499,0.0251625
1680014811934,1194800288350720,0.007425,-0.0122375,0.02805
1680014811936,1194800290853181,0.0044,-0.010175,0.0331375
1680014811938,1194800293355576,0.0044,-0.0092124995,0.037125
1680014811941,1194800295857807,0.0033,-0.00715,0.043175
1680014811945,1194800298360191,0.001375,-0.0022,0.0471625
1680014811947,1194800300862422,-0.00165,-0.0031625,0.048125
1680014811950,1194800303364788,4.125E-4,-1.375E-4,0.054175
1680014811951,1194800305867018,-6.875E-4,0.00385,0.0561
1680014811953,1194800308369403,4.125E-4,0.00275,0.0570625
1680014811956,1194800310871864,-0.00165,0.0067375,0.06215
1680014811958,1194800313374023,-0.00165,0.00275,0.061049998
1680014811962,1194800315876254,-6.875E-4,0.00385,0.064075
1680014811966,1194800318378639,0.001375,0.0048125,0.0661375
1680014811968,1194800320880870,4.125E-4,0.00275,0.0671
1680014811974,1194800323383268,-0.0056375,-0.0012375,0.0661375
1680014811975,1194800325885730,-0.0066,-1.375E-4,0.0661375
1680014811978,1194800328387960,-6.875E-4,-1.375E-4,0.0661375
1680014811980,1194800330890345,0.001375,-0.0042625,0.0661375
1680014811982,1194800333392576,0.0053625,-0.010175,0.0631125
1680014811983,1194800335894974,0.0053625,-0.00825,0.06215
1680014811985,1194800338397205,0.0083875,-0.00825,0.059125
1680014811986,1194800340899590,0.0114124995,-0.0122375,0.0581625
1680014811989,1194800343401821,0.0163625,-0.0132,0.0521125
1680014811991,1194800345904191,0.018424999,-0.016224999,0.0521125
1680014811994,1194800348406422,0.023375,-0.015262499,0.0551375
1680014811996,1194800350908807,0.0273625,-0.014162499,0.050049998
1680014811998,1194800353411037,0.0323125,-0.0122375,0.0490875
1680014812002,1194800355913432,0.034375,-0.0122375,0.0490875
1680014812005,1194800358415894,0.039325,-0.0122375,0.0490875
1680014812008,1194800360918047,0.0433125,-0.0122375,0.048125
1680014812010,1194800363420278,0.0433125,-0.0132,0.0460625
1680014812011,1194800365922740,0.045375,-0.010175,0.0471625
1680014812014,1194800368425114,0.045375,-0.0132,0.0451
1680014812016,1194800370927268,0.0484,-0.00825,0.0451
1680014812020,1194800373429730,0.0484,-0.0092124995,0.0460625
1680014812020,1194800375931961,0.0493625,-0.005225,0.048125
1680014812026,1194800378434355,0.0463375,-0.0042625,0.0490875
1680014812027,1194800380936586,0.0444125,-0.00715,0.0490875
1680014812029,1194800383438971,0.0484,-0.00825,0.053075
1680014812031,1194800385941201,0.0463375,-0.0031625,0.0581625
1680014812034,1194800388443663,0.0463375,-0.0031625,0.059125
1680014812036,1194800390945802,0.04235,-0.00715,0.0600875
1680014812041,1194800393448186,0.0433125,-0.005225,0.0631125
1680014812042,1194800395950417,0.04235,-0.0022,0.064075
1680014812046,1194800398452802,0.0433125,-0.0022,0.0671
1680014812048,1194800400955043,0.0433125,0.0017875,0.0691625
1680014812049,1194800403457504,0.0433125,0.005775,0.070125
1680014812051,1194800405959889,0.0433125,0.005775,0.0710875
1680014812053,1194800408462119,0.0444125,0.0097624995,0.0710875
1680014812055,1194800410964518,0.0433125,0.011825,0.070125
1680014812058,1194800413466749,0.045375,0.011825,0.0691625
1680014812061,1194800415969134,0.0484,0.01485,0.0661375
1680014812064,1194800418471287,0.0484,0.016775,0.065175
1680014812067,1194800420973749,0.051425,0.0198,0.0661375
1680014812068,1194800423475980,0.0523875,0.022824999,0.0661375
1680014812071,1194800425978364,0.050325,0.0328625,0.0661375
1680014812074,1194800428480595,0.0463375,0.033825,0.0661375
1680014812079,1194800430982985,0.050325,0.033825,0.0691625
1680014812080,1194800433485215,0.0484,0.036849998,0.0671
1680014812081,1194800435987677,0.045375,0.0397375,0.0661375
1680014812085,1194800438490062,0.045375,0.044825,0.070125
1680014812086,1194800440992292,0.045375,0.044825,0.070125
1680014812088,1194800443494677,0.039325,0.047849998,0.0671
1680014812091,1194800445996908,0.0374,0.0488125,0.0661375
1680014812095,1194800448499062,0.040425,0.049775,0.070125
1680014812096,1194800451001523,0.039325,0.0528,0.07205
1680014812098,1194800453503922,0.040425,0.0528,0.075075
1680014812101,1194800456006153,0.0383625,0.0548625,0.0741125
1680014812104,1194800458508537,0.0383625,0.0617375,0.07205
1680014812106,1194800461010768,0.039325,0.060775,0.0671
1680014812109,1194800463513144,0.039325,0.060775,0.0691625
1680014812112,1194800466015374,0.0383625,0.0617375,0.0691625
1680014812116,1194800468517759,0.0374,0.06875,0.064075
1680014812118,1194800471019990,0.040425,0.0677875,0.064075
1680014812120,1194800473522407,0.039325,0.0708125,0.061049998
1680014812124,1194800476024638,0.0383625,0.0708125,0.0600875
1680014812126,1194800478527023,0.0413875,0.0757625,0.0561
1680014812127,1194800481029484,0.0413875,0.077825,0.0521125
1680014812129,1194800483531715,0.0383625,0.0787875,0.0521125
1680014812132,1194800486034081,0.0383625,0.07975,0.0471625
1680014812134,1194800488536312,0.0374,0.077825,0.043175
1680014812136,1194800491038696,0.0363,0.07975,0.04015
1680014812138,1194800493540927,0.0353375,0.082775,0.037125
1680014812141,1194800496043071,0.0334125,0.0818125,0.032175
1680014812145,1194800498545532,0.0273625,0.077825,0.031075
1680014812146,1194800501047917,0.0273625,0.0768625,0.0270875
1680014812149,1194800503550148,0.0253,0.0787875,0.0251625
1680014812152,1194800506052532,0.023375,0.0738375,0.0231
1680014812155,1194800508554763,0.0193875,0.071775,0.0231
1680014812157,1194800511057148,0.0114124995,0.071775,0.021175
1680014812161,1194800513559609,0.0114124995,0.0677875,0.021175
1680014812166,1194800516061840,0.00935,0.0617375,0.020075
1680014812166,1194800518564230,0.0053625,0.060775,0.0221375
1680014812166,1194800521066460,-6.875E-4,0.055825,0.0231
1680014812168,1194800523568614,-0.003575,0.0528,0.0231
1680014812171,1194800526070999,-0.0077,0.0518375,0.026124999
1680014812173,1194800528573474,-0.0116875,0.047849998,0.031075
1680014812175,1194800531075705,-0.0116875,0.044825,0.032175
1680014812178,1194800533578090,-0.014575,0.0408375,0.0361625
1680014812181,1194800536080321,-0.0196625,0.0397375,0.04015
1680014812184,1194800538582725,-0.020624999,0.033825,0.0411125
1680014812186,1194800541084956,-0.020624999,0.0328625,0.043175
1680014812191,1194800543587418,-0.0187,0.0328625,0.0460625
1680014812192,1194800546089802,-0.0196625,0.022824999,0.0471625
1680014812195,1194800548592033,-0.0226875,0.0268125,0.0471625
1680014812197,1194800551094418,-0.0176,0.0268125,0.048125
1680014812199,1194800553596571,-0.01265,0.0207625,0.0471625
1680014812202,1194800556098802,-0.0116875,0.022824999,0.0471625
1680014812204,1194800558601187,-0.0116875,0.0237875,0.0471625
1680014812209,1194800561103648,-0.009625,0.0207625,0.043175
1680014812209,1194800563605879,-0.009625,0.0207625,0.04015
1680014812213,1194800566108264,-0.0077,0.0237875,0.04015
1680014812214,1194800568610514,-0.004675,0.022824999,0.0361625
1680014812216,1194800571112667,-0.004675,0.0237875,0.031075
1680014812220,1194800573615052,-0.0056375,0.0268125,0.0270875
1680014812221,1194800576117514,-6.875E-4,0.022824999,0.0221375
1680014812224,1194800578619744,0.001375,0.0237875,0.015125
1680014812229,1194800581122114,-6.875E-4,0.0268125,0.013062499
1680014812230,1194800583624345,0.0033,0.0268125,0.0081124995
1680014812231,1194800586126729,0.0044,0.027775,0.0011
1680014812234,1194800588628960,0.0053625,0.02475,-0.001925
1680014812237,1194800591131408,0.0083875,0.0237875,-0.00385
1680014812239,1194800593633792,0.0023375,0.0237875,-0.0078375
1680014812241,1194800596136023,4.125E-4,0.0218625,-0.012925
1680014812246,1194800598638408,4.125E-4,0.027775,-0.01485
1680014812247,1194800601140562,0.0023375,0.0218625,-0.017875
1680014812248,1194800603642792,0.0023375,0.0218625,-0.0169125
1680014812253,1194800606145254,-6.875E-4,0.0237875,-0.017875
1680014812254,1194800608647639,0.001375,0.016775,-0.0188375
1680014812256,1194800611149869,0.0044,0.01375,-0.017875
1680014812258,1194800613652225,0.0023375,0.01485,-0.01595
1680014812262,1194800616154456,0.0033,0.0097624995,-0.0169125
1680014812265,1194800618656840,0.001375,0.0067375,-0.011825
1680014812267,1194800621159302,0.001375,0.0067375,-0.0108624995
1680014812269,1194800623661528,0.0023375,0.0067375,-0.006875
1680014812272,1194800626163912,0.0044,0.00275,-0.0059125
1680014812274,1194800628666066,0.0023375,-0.0042625,-0.0028875
1680014812278,1194800631168297,4.125E-4,-0.0061875,-0.001925
1680014812278,1194800633670681,-6.875E-4,-0.0022,1.375E-4
1680014812282,1194800636172907,4.125E-4,-0.0031625,0.0031625
1680014812285,1194800638675369,-0.004675,-0.0111375,0.00605
1680014812287,1194800641177753,-0.0077,-0.0122375,0.0081124995
1680014812289,1194800643679951,-0.0077,-0.0111375,0.010175
1680014812291,1194800646182336,-0.0116875,-0.014162499,0.014162499
1680014812294,1194800648684490,-0.0196625,-0.01815,0.01705
1680014812296,1194800651186720,-0.0215875,-0.0171875,0.020075
1680014812298,1194800653689413,-0.0226875,-0.0171875,0.0191125
1680014812302,1194800656191571,-0.0297,-0.0171875,0.020075
1680014812305,1194800658693801,-0.0325875,-0.016224999,0.020075
1680014812307,1194800661196186,-0.037675,-0.015262499,0.021175
1680014812309,1194800663698417,-0.0396,-0.015262499,0.0191125
1680014812311,1194800666200801,-0.0407,-0.01815,0.01705
1680014812313,1194800668703244,-0.0446875,-0.016224999,0.020075
1680014812316,1194800671205475,-0.045649998,-0.014162499,0.021175
1680014812320,1194800673707859,-0.0466125,-0.01815,0.020075
1680014812322,1194800676210013,-0.0466125,-0.0171875,0.020075
1680014812325,1194800678712244,-0.045649998,-0.0132,0.020075
1680014812327,1194800681214629,-0.0435875,-0.00825,0.015125
1680014812329,1194800683717090,-0.0446875,-0.0022,0.020075
1680014812331,1194800686219321,-0.0416625,-0.0031625,0.01705
1680014812334,1194800688721706,-0.0386375,8.25E-4,0.0191125
1680014812336,1194800691223955,-0.0356125,0.00275,0.0191125
1680014812340,1194800693726340,-0.0297,0.0078375,0.0191125
1680014812345,1194800696228571,-0.0286,0.0158125,0.0231
1680014812347,1194800698730955,-0.0276375,0.0158125,0.021175
1680014812348,1194800701233422,-0.0226875,0.0188375,0.0191125
1680014812350,1194800703735653,-0.020624999,0.0218625,0.020075
1680014812351,1194800706237807,-0.0196625,0.0218625,0.0221375
1680014812354,1194800708740191,-0.0187,0.0298375,0.020075
1680014812356,1194800711242428,-0.0166375,0.0317625,0.0221375
1680014812358,1194800713744813,-0.0176,0.0308,0.0231
1680014812362,1194800716247274,-0.0176,0.0328625,0.0221375
1680014812364,1194800718749505,-0.0176,0.033825,0.0251625
1680014812368,1194800721251870,-0.0166375,0.0268125,0.0240625
1680014812370,1194800723754024,-0.020624999,0.022824999,0.0251625
1680014812372,1194800726256255,-0.0246125,0.0198,0.0221375
1680014812374,1194800728758717,-0.020624999,0.01485,0.0231
1680014812380,1194800731261158,-0.0276375,0.0097624995,0.0221375
1680014812382,1194800733763312,-0.0325875,0.0048125,0.0240625
1680014812383,1194800736265697,-0.0356125,-0.0012375,0.0221375
1680014812384,1194800738767927,-0.0407,-0.0042625,0.021175
1680014812386,1194800741270312,-0.0435875,-0.005225,0.015125
1680014812389,1194800743772543,-0.048675,-0.005225,0.013062499
1680014812391,1194800746275004,-0.053625,-0.0042625,0.013062499
1680014812395,1194800748777389,-0.0606375,-0.0042625,0.010175
1680014812396,1194800751279620,-0.064625,-0.0012375,0.009075
1680014812399,1194800753781760,-0.0686125,-1.375E-4,0.013062499
1680014812402,1194800756284144,-0.075625,-0.0031625,0.0081124995
1680014812405,1194800758786375,-0.07865,-0.0012375,0.0121
1680014812406,1194800761288837,-0.0826375,0.00275,0.0121
1680014812408,1194800763791221,-0.086625,-0.0022,0.013062499
1680014812411,1194800766293476,-0.08965,-0.0092124995,0.015125
1680014812415,1194800768795861,-0.093637496,-0.0132,0.014162499
1680014812417,1194800771298091,-0.0946,-0.015262499,0.0191125
1680014812419,1194800773800476,-0.0985875,-0.0221375,0.020075
1680014812421,1194800776302707,-0.103675,-0.0281875,0.021175
1680014812424,1194800778805168,-0.1067,-0.02915,0.0221375
1680014812426,1194800781307322,-0.104637496,-0.0361625,0.0240625
1680014812428,1194800783809707,-0.1076625,-0.0352,0.026124999
1680014812431,1194800786311962,-0.1095875,-0.032175,0.0270875
1680014812434,1194800788814346,-0.1126125,-0.0331375,0.02805
1680014812436,1194800791316577,-0.1186625,-0.032175,0.0301125
1680014812438,1194800793819038,-0.125675,-0.027224999,0.02915
1680014812442,1194800796321433,-0.1287,-0.0242,0.031075
1680014812446,1194800798823664,-0.136675,-0.015262499,0.031075
1680014812446,1194800801325818,-0.141625,-0.00825,0.0331375
1680014812449,1194800803828279,-0.146575,-0.0042625,0.0341
1680014812452,1194800806330659,-0.15565,0.0017875,0.0341
1680014812455,1194800808833120,-0.1626625,0.01375,0.0331375
1680014812457,1194800811335274,-0.169675,0.0198,0.0361625
1680014812459,1194800813837505,-0.1727,0.0287375,0.0341
1680014812461,1194800816339890,-0.1816375,0.0397375,0.037125
1680014812464,1194800818842120,-0.190575,0.0507375,0.037125
1680014812466,1194800821344505,-0.196625,0.0567875,0.039049998
1680014812469,1194800823846967,-0.202675,0.06875,0.042075
1680014812471,1194800826349197,-0.2057,0.0787875,0.0411125
1680014812474,1194800828851370,-0.2146375,0.0867625,0.043175
1680014812476,1194800831353755,-0.2226125,0.10175,0.0451
1680014812479,1194800833855986,-0.22659999,0.117837496,0.042075
1680014812482,1194800836358370,-0.2376,0.12773749,0.0441375
1680014812485,1194800838860827,-0.246675,0.1387375,0.0471625
1680014812487,1194800841363058,-0.25465,0.1557875,0.0460625
1680014812490,1194800843865442,-0.262625,0.17379999,0.048125
1680014812492,1194800846367673,-0.2756875,0.1918125,0.050049998
1680014812495,1194800848870058,-0.289575,0.2058375,0.0521125
1680014812497,1194800851372288,-0.3026375,0.2278375,0.059125
1680014812499,1194800853874673,-0.3196875,0.2468125,0.065175
1680014812501,1194800856377135,-0.339625,0.26675,0.0710875
1680014812504,1194800858879288,-0.355575,0.2847625,0.0801625
1680014812506,1194800861381529,-0.3686375,0.302775,0.0891
1680014812509,1194800863883914,-0.383625,0.3188625,0.0991375
1680014812512,1194800866386145,-0.3986125,0.3427875,0.109175
1680014812515,1194800868888529,-0.42061248,0.36574998,0.1211375
1680014812517,1194800871390976,-0.438625,0.3837625,0.131175
1680014812519,1194800873893130,-0.460625,0.4048,0.1461625
1680014812522,1194800876395360,-0.4796,0.4258375,0.1590875
1680014812525,1194800878897745,-0.499675,0.4448125,0.1700875
1680014812530,1194800881400197,-0.520575,0.4598,0.18205
1680014812531,1194800883902427,-0.54065,0.47079998,0.19415
1680014812534,1194800886404812,-0.5586625,0.4838625,0.2061125
1680014812535,1194800888907043,-0.5776375,0.49774998,0.21615
1680014812536,1194800891409427,-0.5996375,0.5038,0.2281125
1680014812538,1194800893911658,-0.619575,0.50985,0.2391125
1680014812541,1194800896414057,-0.636625,0.5157625,0.251075
1680014812544,1194800898916288,-0.6556,0.5157625,0.26015
1680014812547,1194800901418672,-0.6766375,0.52085,0.27115
1680014812549,1194800903920903,-0.6956125,0.517825,0.28105
1680014812551,1194800906423322,-0.71665,0.5168625,0.2871
1680014812554,1194800908925552,-0.7346625,0.511775,0.2971375
1680014812557,1194800911428014,-0.751575,0.5108125,0.3051125
1680014812559,1194800913930398,-0.7676625,0.506825,0.3111625
1680014812562,1194800916432537,-0.785675,0.5017375,0.3221625
1680014812566,1194800918934999,-0.7997,0.4948625,0.328075
1680014812568,1194800921437230,-0.8096,0.4907375,0.340175
1680014812570,1194800923939614,-0.817575,0.484825,0.34814999
1680014812573,1194800926441855,-0.8336625,0.4827625,0.3570875
1680014812575,1194800928944240,-0.8366875,0.478775,0.36905
1680014812576,1194800931446470,-0.839575,0.4747875,0.378125
1680014812579,1194800933948855,-0.8426,0.4698375,0.3881625
1680014812581,1194800936451086,-0.845625,0.46585,0.3961375
1680014812586,1194800938953475,-0.8476875,0.4637875,0.40507498
1680014812587,1194800941455706,-0.840675,0.45581248,0.4120875
1680014812589,1194800943958091,-0.8386125,0.4527875,0.4200625
1680014812592,1194800946460322,-0.8386125,0.451825,0.422125
1680014812594,1194800948962710,-0.8316,0.445775,0.42515
1680014812596,1194800951464941,-0.8226625,0.4448125,0.42515
1680014812599,1194800953967326,-0.8107,0.4417875,0.422125
1680014812604,1194800956469542,-0.80465,0.4387625,0.4181375
1680014812607,1194800958970773,-0.7926875,0.4338125,0.41305
1680014812607,1194800961472004,-0.7766,0.434775,0.406175
1680014812609,1194800963976619,-0.7676625,0.4288625,0.3931125
1680014812613,1194800966479004,-0.7566625,0.4258375,0.3790875
1680014812614,1194800968981221,-0.7436,0.42185,0.37015
1680014812616,1194800971483605,-0.729575,0.4178625,0.35915
1680014812619,1194800973985836,-0.7126625,0.4148375,0.3460875
1680014812621,1194800976488221,-0.7016625,0.4087875,0.3301375
1680014812624,1194800978990452,-0.6826875,0.4027375,0.31515
1680014812626,1194800981492845,-0.663575,0.4008125,0.3051125
1680014812629,1194800983995076,-0.64968747,0.3917375,0.2910875
1680014812631,1194800986497461,-0.6336,0.3818375,0.284075
1680014812634,1194800988999922,-0.619575,0.37675,0.27307498
1680014812638,1194800991502168,-0.6045875,0.36574998,0.2641375
1680014812641,1194800994004322,-0.5907,0.3598375,0.257125
1680014812645,1194800996506710,-0.5797,0.34375,0.24915
1680014812646,1194800999009172,-0.5666375,0.33673748,0.24213749
1680014812648,1194801001511326,-0.5556375,0.3287625,0.23815
1680014812649,1194801004013557,-0.543675,0.3158375,0.2330625
1680014812651,1194801006516018,-0.52965,0.3058,0.22715
1680014812656,1194801009018418,-0.521675,0.29479998,0.2220625
1680014812657,1194801011520648,-0.5086125,0.2828375,0.2211
1680014812659,1194801014023033,-0.5027,0.2707375,0.22013749
1680014812661,1194801016525264,-0.49568748,0.25575,0.21807499
1680014812664,1194801019027648,-0.488675,0.2468125,0.21615
1680014812667,1194801021529859,-0.477675,0.2308625,0.219175
1680014812669,1194801024032244,-0.4725875,0.21573749,0.224125
1680014812672,1194801026534475,-0.4686,0.20075,0.2281125
1680014812674,1194801029036859,-0.4587,0.181775,0.235125
1680014812679,1194801031539076,-0.4536125,0.16885,0.2431
1680014812681,1194801034041461,-0.4456375,0.1518,0.2541
1680014812682,1194801036543922,-0.4406875,0.1318625,0.262075
1680014812685,1194801039046153,-0.43559998,0.115775,0.27005
1680014812687,1194801041548538,-0.4316125,0.0988625,0.28105
1680014812689,1194801044050782,-0.4296875,0.08085,0.296175
1680014812692,1194801046553167,-0.4257,0.0638,0.3111625
1680014812694,1194801049055398,-0.421575,0.0457875,0.3221625
1680014812697,1194801051557782,-0.41965,0.0218625,0.340175
1680014812700,1194801054059994,-0.4175875,0.00275,0.3540625
1680014812701,1194801056562379,-0.416625,-0.0132,0.36905
1680014812704,1194801059064610,-0.416625,-0.0281875,0.3861
1680014812707,1194801061566994,-0.42061248,-0.0452375,0.4010875
1680014812709,1194801064069225,-0.421575,-0.0661375,0.41415
1680014812712,1194801066571677,-0.421575,-0.0862125,0.4301
1680014812716,1194801069073830,-0.4266625,-0.1082125,0.44605
1680014812719,1194801071576215,-0.4285875,-0.12815,0.45705
1680014812720,1194801074078451,-0.4285875,-0.148225,0.4701125
1680014812724,1194801076580912,-0.433675,-0.17325,0.48014998
1680014812727,1194801079083066,-0.44165,-0.19525,0.4921125
1680014812729,1194801081585451,-0.4466,-0.2132625,0.4981625
1680014812731,1194801084087912,-0.454575,-0.2341625,0.5071
1680014812734,1194801086590129,-0.4626875,-0.2572625,0.51205
1680014812735,1194801089092514,-0.4725875,-0.28215,0.5190625
1680014812737,1194801091594745,-0.4835875,-0.3081375,0.527175
1680014812739,1194801094097129,-0.493625,-0.3282125,0.5361125
1680014812742,1194801096599364,-0.5066875,-0.3521375,0.5391375
1680014812744,1194801099101749,-0.5146625,-0.3752375,0.54614997
1680014812746,1194801101603979,-0.53267497,-0.3982,0.5531625
1680014812749,1194801104106364,-0.542575,-0.4181375,0.554125
1680014812754,1194801106608600,-0.5577,-0.4332625,0.55715
1680014812756,1194801109110984,-0.5696625,-0.45319998,0.560175
1680014812757,1194801111613215,-0.586575,-0.4681875,0.56705
1680014812759,1194801114115677,-0.6017,-0.4841375,0.571175
1680014812762,1194801116618061,-0.61861247,-0.50215,0.5740625
1680014812765,1194801119120297,-0.6336,-0.51425,0.5740625
1680014812767,1194801121622682,-0.6446,-0.522225,0.57915
1680014812769,1194801124124912,-0.6576625,-0.5322625,0.5861625
1680014812771,1194801126627066,-0.67265,-0.5402375,0.587125
1680014812774,1194801129129533,-0.6876375,-0.544225,0.5960625
1680014812778,1194801131631917,-0.7035875,-0.5501375,0.60307497
1680014812779,1194801134134148,-0.7236625,-0.55825,0.609125
1680014812782,1194801136636533,-0.7396125,-0.5622375,0.6191625
1680014812785,1194801139138778,-0.7566625,-0.560175,0.63208747
1680014812790,1194801141641162,-0.7726125,-0.5652625,0.642125
1680014812791,1194801144143624,-0.790625,-0.5632,0.6521625
1680014812793,1194801146645778,-0.806575,-0.5652625,0.6711375
1680014812795,1194801149148008,-0.82362497,-0.560175,0.6851625
1680014812796,1194801151650470,-0.840675,-0.55825,0.69905
1680014812799,1194801154152855,-0.8586875,-0.5592125,0.713075
1680014812802,1194801156655008,-0.8746375,-0.55825,0.7280625
1680014812805,1194801159157239,-0.8905875,-0.54725,0.7451125
1680014812806,1194801161659706,-0.9046125,-0.53625,0.7601
1680014812808,1194801164162090,-0.916575,-0.527175,0.7711
1680014812811,1194801166664321,-0.928675,-0.522225,0.785125
1680014812814,1194801169166706,-0.94063747,-0.516175,0.796125
1680014812818,1194801171668898,-0.9546625,-0.5091625,0.8061625
1680014812819,1194801174171051,-0.966625,-0.4992625,0.8190875
1680014812821,1194801176673513,-0.9766625,-0.4901875,0.824175
1680014812824,1194801179175898,-0.9906875,-0.48221248,0.8270625
1680014812830,1194801181678114,-1.0076,-0.461175,0.834075
1680014812831,1194801184180499,-1.0186,-0.4431625,0.8380625
1680014812833,1194801186682730,-1.026575,-0.423225,0.83916247
1680014812836,1194801189185114,-1.0406,-0.40315,0.8380625
1680014812837,1194801191687576,-1.05765,-0.38115,0.840125
1680014812839,1194801194189744,-1.071675,-0.36025,0.83916247
1680014812845,1194801196692205,-1.0866625,-0.335225,0.8361375
1680014812846,1194801199194436,-1.1006875,-0.296175,0.8361375
1680014812847,1194801201696821,-1.1196625,-0.2652375,0.83105
1680014812849,1194801204198980,-1.136575,-0.2352625,0.829125
1680014812853,1194801206701441,-1.147575,-0.203225,0.8281625
1680014812856,1194801209203672,-1.1606375,-0.17613749,0.8261
1680014812856,1194801211706056,-1.169575,-0.1552375,0.8221125
1680014812861,1194801214208268,-1.1796125,-0.12925,0.818125
1680014812862,1194801216710653,-1.1856625,-0.104225,0.813175
1680014812866,1194801219212884,-1.1896499,-0.0801625,0.8050625
1680014812868,1194801221715038,-1.1936375,-0.0572,0.79915
1680014812870,1194801224217518,-1.20065,-0.0342375,0.791175
1680014812871,1194801226719903,-1.2067,-0.016224999,0.780175
1680014812876,1194801229222133,-1.2186625,0.0017875,0.768075
1680014812877,1194801231724518,-1.2287,0.0207625,0.7591375
1680014812880,1194801234226749,-1.235575,0.047849998,0.7500625
1680014812884,1194801236729128,-1.241625,0.06985,0.7381
1680014812886,1194801239231590,-1.2495999,0.0947375,0.730125
1680014812888,1194801241733821,-1.2546875,0.1227875,0.72214997
1680014812890,1194801244236205,-1.2626625,0.1508375,0.71005
1680014812894,1194801246738427,-1.269675,0.1857625,0.7011125
1680014812895,1194801249240812,-1.2736624,0.2267375,0.6901125
1680014812897,1194801251742966,-1.2786125,0.264825,0.680075
1680014812899,1194801254245427,-1.2816375,0.3058,0.6730625
1680014812906,1194801256747653,-1.28865,0.352825,0.66316247
1680014812907,1194801259250038,-1.2926375,0.39875,0.6540875
1680014812908,1194801261752268,-1.296625,0.4527875,0.6461125
1680014812909,1194801264254653,-1.2986875,0.506825,0.6411625
1680014812914,1194801266756884,-1.2986875,0.5567375,0.6281
1680014812915,1194801269259254,-1.29965,0.6138,0.6171
1680014812917,1194801271761485,-1.301575,0.6688,0.6070625
1680014812921,1194801274263870,-1.3006124,0.71885,0.5960625
1680014812924,1194801276766101,-1.302675,0.7748125,0.5850625
1680014812926,1194801279268475,-1.3036375,0.8157875,0.5721375
1680014812928,1194801281770706,-1.3066624,0.85882497,0.5581125
1680014812929,1194801284273168,-1.3085876,0.8998,0.54505
1680014812933,1194801286775552,-1.3156,0.94682497,0.5311625
1680014812934,1194801289277706,-1.323575,0.979825,0.5181
1680014812937,1194801291780168,-1.340625,1.01475,0.5071
1680014812941,1194801294282398,-1.3586375,1.0488499,0.4961
1680014812943,1194801296784783,-1.373625,1.078825,0.48014998
1680014812945,1194801299286937,-1.3886125,1.1087999,0.4670875
1680014812946,1194801301789412,-1.4056625,1.1427625,0.455125
1680014812949,1194801304291643,-1.4216125,1.1727375,0.444125
1680014812953,1194801306794028,-1.433575,1.1988626,0.4301
1680014812955,1194801309296258,-1.4496624,1.2277375,0.4261125
1680014812957,1194801311798658,-1.461625,1.2478125,0.4191
1680014812959,1194801314300889,-1.467675,1.2717375,0.4101625
1680014812964,1194801316803350,-1.478675,1.292775,0.40507498
1680014812966,1194801319305504,-1.489675,1.309825,0.400125
1680014812967,1194801321807874,-1.499575,1.3278375,0.389125
1680014812969,1194801324310105,-1.5037,1.3418624,0.3851375
1680014812972,1194801326812489,-1.5146999,1.35575,0.3760625
1680014812974,1194801329314720,-1.516625,1.3767875,0.3680875
1680014812978,1194801331817197,-1.5175875,1.3968625,0.35915
1680014812979,1194801334319581,-1.5186875,1.4128125,0.3551625
1680014812983,1194801336821735,-1.5206125,1.4268374,0.345125
1680014812986,1194801339323966,-1.5296875,1.441825,0.33605
1680014812987,1194801341826427,-1.5346375,1.4587375,0.32615
1680014812989,1194801344328821,-1.5376625,1.4738625,0.312125
1680014812992,1194801346831052,-1.5376625,1.4848624,0.301125
1680014812994,1194801349333436,-1.5376625,1.496825,0.290125
1680014812998,1194801351835667,-1.5376625,1.5087875,0.2800875
1680014812999,1194801354338067,-1.5367,1.523775,0.27307498
1680014813003,1194801356840298,-1.5367,1.53175,0.2660625
1680014813005,1194801359342682,-1.5356,1.529825,0.257125
1680014813007,1194801361845144,-1.5406874,1.5448124,0.246125
1680014813009,1194801364347375,-1.543575,1.5618625,0.241175
1680014813013,1194801366849542,-1.5466,1.56585,0.23705
1680014813016,1194801369351927,-1.5486625,1.5698375,0.229075
1680014813017,1194801371854158,-1.5576,1.5607625,0.219175
1680014813019,1194801374356528,-1.5676374,1.5478375,0.2101
1680014813023,1194801376858759,-1.5756125,1.5228125,0.19607499
1680014813025,1194801379361221,-1.5846875,1.4958625,0.180125
1680014813026,1194801381863605,-1.5945874,1.4867874,0.1681625
1680014813029,1194801384365759,-1.6015999,1.4807374,0.15015
1680014813033,1194801386867975,-1.6055875,1.47785,0.13213749
1680014813035,1194801389370437,-1.610675,1.47675,0.1150875
1680014813037,1194801391872821,-1.6116375,1.4727625,0.1021625
1680014813039,1194801394375052,-1.610675,1.46575,0.0891
1680014813048,1194801396877432,-1.60765,1.4587375,0.076175
1680014813050,1194801399379662,-1.60765,1.4537874,0.0661375
1680014813051,1194801401882047,-1.6027,1.441825,0.059125
1680014813052,1194801404384278,-1.59665,1.4268374,0.050049998
1680014813054,1194801406886662,-1.5906,1.4128125,0.0441375
1680014813056,1194801409389129,-1.5866125,1.3948,0.039049998
1680014813058,1194801411891360,-1.5846875,1.375825,0.0301125
1680014813059,1194801414393514,-1.577675,1.3688124,0.0240625
1680014813063,1194801416895898,-1.5697,1.3627625,0.015125
1680014813066,1194801419398115,-1.5646125,1.353825,0.0081124995
1680014813067,1194801421900500,-1.5566375,1.3358124,1.375E-4
1680014813069,1194801424402961,-1.5477,1.3248125,-0.0059125
1680014813076,1194801426905192,-1.5376625,1.31285,-0.01595
1680014813078,1194801429407590,-1.5257,1.3068,-0.022824999
1680014813079,1194801431909744,-1.5156626,1.298825,-0.0298375
1680014813080,1194801434411975,-1.5046625,1.2918125,-0.0389125
1680014813088,1194801436914355,-1.494625,1.2838374,-0.0429
1680014813090,1194801439416585,-1.4796375,1.2918125,-0.0529375
1680014813092,1194801441919047,-1.46465,1.2958,-0.061875
1680014813093,1194801444421432,-1.4496624,1.292775,-0.067925
1680014813097,1194801446922547,-1.434675,1.2838374,-0.078925
1680014813097,1194801449423662,-1.4146,1.27875,-0.088825
1680014813099,1194801451928196,-1.389575,1.27985,-0.100925
1680014813100,1194801454430427,-1.362625,1.281775,-0.111925
1680014813103,1194801456933119,-1.335675,1.29085,-0.1238875
1680014813106,1194801459435273,-1.301575,1.3068,-0.1348875
1680014813108,1194801461937504,-1.2676125,1.3217875,-0.14795
1680014813109,1194801464439898,-1.235575,1.3418624,-0.154825
1680014813113,1194801466942129,-1.203675,1.364825,-0.1678875
1680014813115,1194801469444514,-1.1737,1.38875,-0.1819125
1680014813117,1194801471946975,-1.1396,1.41185,-0.19195
1680014813119,1194801474449182,-1.1105875,1.4427875,-0.199925
1680014813126,1194801476951567,-1.081575,1.4697375,-0.2088625
1680014813129,1194801479453797,-1.0566875,1.501775,-0.2179375
1680014813130,1194801481955951,-1.0346875,1.5288625,-0.2259125
1680014813132,1194801484458317,-1.01365,1.5588375,-0.23595
1680014813134,1194801486960778,-0.9926125,1.600775,-0.2448875
1680014813135,1194801489463009,-0.977625,1.6368,-0.25685
1680014813137,1194801491965394,-0.9675875,1.6707625,-0.2619375
1680014813139,1194801494467567,-0.9516375,1.705825,-0.265925
1680014813143,1194801496970028,-0.94063747,1.7397875,-0.26895
1680014813145,1194801499472259,-0.9326625,1.7667375,-0.2668875
1680014813147,1194801501974644,-0.927575,1.7887375,-0.259875
1680014813149,1194801504476850,-0.9266125,1.8148625,-0.253825
1680014813153,1194801506979235,-0.9235875,1.8368624,-0.2479125
1680014813155,1194801509481466,-0.9216625,1.8528125,-0.232925
1680014813157,1194801511983927,-0.9196,1.8657374,-0.220825
1680014813159,1194801514486081,-0.9216625,1.8708249,-0.20693749
1680014813164,1194801516988485,-0.917675,1.87275,-0.1948375
1680014813167,1194801519490716,-0.917675,1.8678,-0.1859
1680014813168,1194801521993100,-0.9196,1.8528125,-0.1728375
1680014813170,1194801524495345,-0.917675,1.8357625,-0.1709125
1680014813173,1194801526997730,-0.9156125,1.80785,-0.166925
1680014813174,1194801529500191,-0.9125875,1.7708625,-0.1639
1680014813177,1194801532002345,-0.9106625,1.727825,-0.1678875
1680014813179,1194801534504576,-0.905575,1.6787375,-0.1678875
1680014813183,1194801537006965,-0.905575,1.6267625,-0.1709125
1680014813186,1194801539509196,-0.9076375,1.5687375,-0.1728375
1680014813188,1194801542011581,-0.9086,1.5118124,-0.177925
1680014813189,1194801544514042,-0.91465,1.44485,-0.18095
1680014813197,1194801547016307,-0.9235875,1.3707374,-0.18493749
1680014813199,1194801549518692,-0.9345875,1.2868625,-0.1859
1680014813201,1194801552020846,-0.94159997,1.199825,-0.1868625
1680014813202,1194801554523076,-0.950675,1.11375,-0.1868625
1680014813207,1194801557025456,-0.955625,1.0338625,-0.1868625
1680014813208,1194801559526724,-0.9565875,0.9458625,-0.188925
1680014813209,1194801562027995,-0.95865,0.85882497,-0.19195
1680014813211,1194801564532533,-0.95865,0.775775,-0.1948375
1680014813213,1194801567034764,-0.9565875,0.6978125,-0.198825
1680014813215,1194801569537148,-0.9537,0.62479997,-0.2008875
1680014813217,1194801572039384,-0.9455875,0.5457375,-0.2008875
1680014813221,1194801574541846,-0.93857497,0.46585,-0.20295
1680014813223,1194801577044230,-0.9306,0.39875,-0.198825
1680014813224,1194801579546384,-0.9235875,0.3388,-0.1978625
1680014813228,1194801582048610,-0.91162497,0.2828375,-0.19195
1680014813229,1194801584550994,-0.90365,0.2297625,-0.1838375
1680014813235,1194801587053225,-0.89265,0.181775,-0.177925
1680014813238,1194801589555687,-0.88261247,0.14685,-0.1739375
1680014813240,1194801592058090,-0.8746375,0.121825,-0.1639
1680014813241,1194801594560321,-0.8606125,0.1007875,-0.1519375
1680014813245,1194801597062706,-0.8446625,0.0858,-0.143825
1680014813247,1194801599564879,-0.8336625,0.082775,-0.1348875
1680014813248,1194801602067109,-0.8206,0.0867625,-0.122925
1680014813250,1194801604569494,-0.807675,0.0968,-0.110825
1680014813256,1194801607071956,-0.7926875,0.11385,-0.1018875
1680014813258,1194801609574186,-0.7756375,0.137775,-0.088825
1680014813260,1194801612076576,-0.7566625,0.1637625,-0.077825
1680014813261,1194801614578807,-0.741675,0.192775,-0.06985
1680014813264,1194801617081191,-0.7255875,0.2267375,-0.061875
1680014813265,1194801619583345,-0.6986375,0.2618,-0.055825
1680014813267,1194801622085817,-0.6766375,0.2957625,-0.050875
1680014813269,1194801624588048,-0.658625,0.3378375,-0.0419375
1680014813273,1194801627090432,-0.6375875,0.3708375,-0.0389125
1680014813274,1194801629592663,-0.61861247,0.407825,-0.033825
1680014813280,1194801632095028,-0.5966125,0.4417875,-0.033825
1680014813281,1194801634597258,-0.57365,0.4747875,-0.0298375
1680014813285,1194801637099720,-0.5506875,0.5038,-0.0279125
1680014813286,1194801639601874,-0.5346,0.528825,-0.02585
1680014813288,1194801642104258,-0.5146625,0.5567375,-0.0319
1680014813289,1194801644606494,-0.499675,0.5847875,-0.033825
1680014813293,1194801647108879,-0.48565,0.60775,-0.036849998
1680014813295,1194801649611110,-0.4786375,0.6358,-0.0419375
1680014813297,1194801652113571,-0.4736875,0.6598625,-0.0438625
1680014813299,1194801654615942,-0.46667498,0.68076247,-0.0539
1680014813303,1194801657118096,-0.4626875,0.70785,-0.05995
1680014813305,1194801659620326,-0.4615875,0.72985,-0.0658625
1680014813309,1194801662122711,-0.4676375,0.748825,-0.0719125
1680014813310,1194801664624956,-0.4697,0.7678,-0.078925
1680014813312,1194801667127340,-0.4676375,0.781825,-0.08195
1680014813317,1194801669629802,-0.4697,0.79873747,-0.0829125
1680014813318,1194801672132033,-0.46461248,0.8127625,-0.083875
1680014813321,1194801674634427,-0.460625,0.825825,-0.083875
1680014813328,1194801677136581,-0.4536125,0.8408125,-0.0829125
1680014813329,1194801679638812,-0.4505875,0.852775,-0.08085
1680014813331,1194801682141197,-0.443575,0.85882497,-0.077825
1680014813331,1194801684643658,-0.43559998,0.86075,-0.0738375
1680014813333,1194801687145879,-0.4316125,0.8558,-0.072875
1680014813335,1194801689648263,-0.4285875,0.8427375,-0.072875
1680014813337,1194801692150494,-0.4266625,0.8408125,-0.07095
1680014813340,1194801694652648,-0.4246,0.82981247,-0.0658625
1680014813343,1194801697155009,-0.427625,0.8138625,-0.05995
1680014813345,1194801699657470,-0.4257,0.797775,-0.0548625
1680014813347,1194801702159701,-0.42061248,0.7788,-0.050875
1680014813350,1194801704662086,-0.4246,0.7528125,-0.045925
1680014813354,1194801707164297,-0.41965,0.7308125,-0.0408375
1680014813356,1194801709666682,-0.4136,0.7027625,-0.036849998
1680014813358,1194801712168913,-0.410575,0.6708625,-0.0319
1680014813359,1194801714671297,-0.4065875,0.6378625,-0.0209
1680014813364,1194801717173725,-0.3955875,0.60775,-0.0089375
1680014813365,1194801719675956,-0.38665,0.5737875,-8.25E-4
1680014813367,1194801722178110,-0.37661248,0.54175,0.009075
1680014813369,1194801724680494,-0.3686375,0.5038,0.0240625
1680014813373,1194801727182725,-0.3586,0.4717625,0.032175
1680014813375,1194801729685197,-0.3466375,0.44385,0.042075
1680014813377,1194801732187581,-0.333575,0.412775,0.0551375
1680014813380,1194801734689735,-0.322575,0.385825,0.064075
1680014813383,1194801737192197,-0.311575,0.357775,0.0741125
1680014813385,1194801739694407,-0.306625,0.3298625,0.0820875
1680014813388,1194801742196561,-0.3036,0.3048375,0.0961125
1680014813391,1194801744698946,-0.2965875,0.280775,0.10615
1680014813395,1194801747201407,-0.28861248,0.253825,0.114125
1680014813395,1194801749703658,-0.29067498,0.2297625,0.12705
1680014813397,1194801752206043,-0.289575,0.20075,0.1351625
1680014813399,1194801754708274,-0.2855875,0.17379999,0.1450625
1680014813404,1194801757210658,-0.278575,0.14685,0.152075
1680014813408,1194801759712898,-0.27665,0.11385,0.1621125
1680014813409,1194801762215283,-0.27665,0.088825,0.169125
1680014813413,1194801764717513,-0.27665,0.0567875,0.17215
1680014813419,1194801767219898,-0.27665,0.02475,0.1731125
1680014813419,1194801769722129,-0.2806375,-0.0022,0.1791625
1680014813419,1194801772224504,-0.28765,-0.0312125,0.180125
1680014813420,1194801774726735,-0.29067498,-0.060225,0.185075
1680014813423,1194801777229197,-0.2976875,-0.082225,0.1901625
1680014813425,1194801779731581,-0.3086875,-0.1032625,0.1951125
1680014813429,1194801782233730,-0.3196875,-0.1241625,0.1991
1680014813430,1194801784735961,-0.3267,-0.137225,0.20405
1680014813433,1194801787238346,-0.328625,-0.148225,0.2110625
1680014813435,1194801789740576,-0.33165,-0.1601875,0.22013749
1680014813437,1194801792243038,-0.3405875,-0.175175,0.22715
1680014813440,1194801794745417,-0.3436125,-0.186175,0.235125
1680014813446,1194801797247648,-0.344575,-0.1791625,0.24213749
1680014813447,1194801799750033,-0.3466375,-0.1772375,0.2470875
1680014813448,1194801802252187,-0.34759998,-0.175175,0.25905
1680014813450,1194801804754423,-0.3515875,-0.1692625,0.27513748
1680014813453,1194801807256884,-0.3526875,-0.1662375,0.28105
1680014813456,1194801809759269,-0.34759998,-0.1571625,0.2871
1680014813457,1194801812261499,-0.3405875,-0.148225,0.296175
1680014813460,1194801814763898,-0.33467498,-0.1342,0.301125
1680014813464,1194801817266129,-0.328625,-0.11715,0.2990625
1680014813466,1194801819768283,-0.323675,-0.0941875,0.2981
1680014813468,1194801822270667,-0.3185875,-0.0792,0.2941125
1680014813470,1194801824773148,-0.311575,-0.0532125,0.2880625
1680014813473,1194801827275379,-0.3056625,-0.0262625,0.2800875
1680014813474,1194801829777763,-0.29865,-0.0012375,0.27115
1680014813477,1194801832279994,-0.2937,0.0298375,0.263175
1680014813480,1194801834782350,-0.2866875,0.0628375,0.2531375
1680014813484,1194801837284580,-0.2776125,0.09075,0.2470875
1680014813486,1194801839786965,-0.26565,0.1227875,0.2451625
1680014813488,1194801842289196,-0.256575,0.14973749,0.2391125
1680014813489,1194801844791580,-0.246675,0.17875,0.2311375
1680014813494,1194801847293811,-0.2387,0.2058375,0.22715
1680014813495,1194801849796196,-0.224675,0.2327875,0.2220625
1680014813497,1194801852298427,-0.2066625,0.25685,0.2211
1680014813500,1194801854800888,-0.18865,0.27981248,0.2140875
1680014813504,1194801857303042,-0.174625,0.3018125,0.2101
1680014813506,1194801859805427,-0.1535875,0.3257375,0.2061125
1680014813508,1194801862307657,-0.13859999,0.3477375,0.202125
1680014813510,1194801864810042,-0.125675,0.36574998,0.1951125
1680014813513,1194801867312283,-0.1126125,0.3788125,0.1890625
1680014813515,1194801869814744,-0.1067,0.3928375,0.180125
1680014813517,1194801872317129,-0.0996875,0.4038375,0.1700875
1680014813519,1194801874819360,-0.0985875,0.41181248,0.163075
1680014813524,1194801877321509,-0.1016125,0.423775,0.158125
1680014813525,1194801879823893,-0.1056,0.429825,0.15413749
1680014813527,1194801882326124,-0.1126125,0.4258375,0.15015
1680014813530,1194801884828509,-0.12265,0.434775,0.1480875
1680014813533,1194801887330970,-0.1376375,0.4448125,0.147125
1680014813535,1194801889833211,-0.146575,0.4478375,0.14905
1680014813537,1194801892335596,-0.158675,0.4488,0.1450625
1680014813541,1194801894837826,-0.1645875,0.4467375,0.1461625
1680014813545,1194801897339980,-0.168575,0.44385,0.1480875
1680014813545,1194801899842370,-0.169675,0.440825,0.147125
1680014813547,1194801902344831,-0.1645875,0.4338125,0.1480875
1680014813549,1194801904847062,-0.1596375,0.4277625,0.15015
1680014813553,1194801907349447,-0.1535875,0.418825,0.1450625
1680014813555,1194801909851678,-0.146575,0.4087875,0.1461625
1680014813557,1194801912354096,-0.1397,0.4027375,0.142175
1680014813560,1194801914856250,-0.1287,0.3917375,0.1401125
1680014813564,1194801917358712,-0.1236125,0.379775,0.136125
1680014813566,1194801919860942,-0.1216875,0.3628625,0.12815
1680014813567,1194801922363337,-0.115637496,0.3427875,0.125125
1680014813569,1194801924865568,-0.114675,0.3188625,0.120175
1680014813573,1194801927367952,-0.115637496,0.2987875,0.1111
1680014813574,1194801929870183,-0.114675,0.2748625,0.10615
1680014813579,1194801932372630,-0.11165,0.2517625,0.0991375
1680014813580,1194801934874784,-0.1095875,0.2308625,0.0930875
1680014813585,1194801937377168,-0.1095875,0.2058375,0.0851125
1680014813586,1194801939879399,-0.1067,0.1758625,0.078099996
1680014813588,1194801942381784,-0.0996875,0.14685,0.07315
1680014813590,1194801944884009,-0.095699996,0.117837496,0.0671
1680014813593,1194801947386471,-0.092675,0.0848375,0.0631125
1680014813595,1194801949888855,-0.091575,0.0548625,0.06215
1680014813597,1194801952391086,-0.0906125,0.0207625,0.0631125
1680014813600,1194801954893264,-0.0886875,-0.00825,0.0661375
1680014813606,1194801957395649,-0.093637496,-0.0391875,0.0600875
1680014813606,1194801959897880,-0.0985875,-0.0661375,0.061049998
1680014813608,1194801962400264,-0.1056,-0.0911625,0.064075
1680014813611,1194801964902726,-0.11165,-0.115225,0.0661375
1680014813613,1194801967404947,-0.114675,-0.1342,0.0661375
1680014813616,1194801969907332,-0.12265,-0.1491875,0.0710875
1680014813618,1194801972409486,-0.1287,-0.16225,0.075075
1680014813620,1194801974911721,-0.136675,-0.1711875,0.076175
1680014813623,1194801977414105,-0.1436875,-0.181225,0.0790625
1680014813625,1194801979916567,-0.1496,-0.1871375,0.0820875
1680014813627,1194801982418798,-0.1546875,-0.18425,0.0851125
1680014813630,1194801984921158,-0.1617,-0.18315,0.0851125
1680014813633,1194801987423389,-0.1617,-0.1821875,0.086075
1680014813635,1194801989925774,-0.1656875,-0.17613749,0.0891
1680014813637,1194801992427928,-0.1716,-0.159225,0.0900625
1680014813640,1194801994930389,-0.168575,-0.1431375,0.0881375
1680014813645,1194801997432620,-0.1617,-0.126225,0.0881375
1680014813647,1194801999935004,-0.1617,-0.1032625,0.0881375
1680014813648,1194802002437235,-0.15565,-0.0782375,0.0851125
1680014813650,1194802004939644,-0.1535875,-0.0501875,0.0790625
1680014813655,1194802007441875,-0.1516625,-0.0202125,0.07205
1680014813656,1194802009944336,-0.147675,0.0108624995,0.064075
1680014813658,1194802012446490,-0.1436875,0.047849998,0.059125
1680014813660,1194802014948875,-0.1406625,0.0757625,0.0460625
1680014813663,1194802017451100,-0.136675,0.110825,0.0341
1680014813665,1194802019953485,-0.135575,0.1428625,0.0251625
1680014813667,1194802022455716,-0.1315875,0.1728375,0.0111375
1680014813670,1194802024958177,-0.1296625,0.20185,0.0011
1680014813675,1194802027460553,-0.1287,0.2217875,-0.0089375
1680014813676,1194802029962707,-0.124575,0.24585,-0.0199375
1680014813679,1194802032464938,-0.1166,0.2618,-0.0279125
1680014813680,1194802034967322,-0.114675,0.2718375,-0.0358875
1680014813684,1194802037469543,-0.1106875,0.2828375,-0.0438625
1680014813686,1194802039971928,-0.1095875,0.28985,-0.04895
1680014813688,1194802042474389,-0.1056,0.2847625,-0.0548625
1680014813691,1194802044976620,-0.0985875,0.2828375,-0.061875
1680014813695,1194802047479005,-0.097625,0.2767875,-0.0658625
1680014813697,1194802049981158,-0.093637496,0.2608375,-0.0688875
1680014813701,1194802052483389,-0.0906125,0.247775,-0.06985
1680014813703,1194802054985774,-0.0856625,0.236775,-0.066825
1680014813704,1194802057488235,-0.07865,0.21779999,-0.066825
1680014813705,1194802059990466,-0.075625,0.19373749,-0.064899996
1680014813708,1194802062492851,-0.0716375,0.1698125,-0.05995
1680014813710,1194802064995082,-0.0636625,0.148775,-0.0548625
1680014813713,1194802067497235,-0.0616,0.121825,-0.04895
1680014813715,1194802069999620,-0.0616,0.0968,-0.0408375
1680014813719,1194802072502082,-0.058575,0.0738375,-0.033825
1680014813723,1194802075004312,-0.0606375,0.049775,-0.02585
1680014813725,1194802077506682,-0.0655875,0.027775,-0.01595
1680014813727,1194802080008836,-0.0716375,0.0017875,-0.001925
1680014813730,1194802082511297,-0.081675,-0.015262499,0.0050875
1680014813732,1194802085013528,-0.0906125,-0.0372625,0.013062499
1680014813735,1194802087515672,-0.0996875,-0.0532125,0.0221375
1680014813736,1194802090018134,-0.104637496,-0.0682,0.0301125
1680014813738,1194802092520518,-0.1095875,-0.0801625,0.04015
1680014813740,1194802095022749,-0.113575,-0.0922625,0.0490875
1680014813746,1194802097525134,-0.113575,-0.0972125,0.0581625
1680014813748,1194802100027364,-0.114675,-0.1021625,0.065175
1680014813749,1194802102529749,-0.11165,-0.1032625,0.070125
1680014813752,1194802105031980,-0.1056,-0.100237496,0.0710875
1680014813753,1194802107534364,-0.102575,-0.0972125,0.076175
1680014813755,1194802110036600,-0.0946,-0.0902,0.076175
1680014813757,1194802112538985,-0.0836,-0.07425,0.0710875
1680014813762,1194802115041446,-0.075625,-0.0572,0.0710875
1680014813764,1194802117543600,-0.073699996,-0.0361625,0.0661375
1680014813767,1194802120045812,-0.069575,-0.0171875,0.061049998
1680014813769,1194802122548197,-0.0636625,0.00275,0.0561
1680014813771,1194802125050427,-0.0545875,0.0308,0.0521125
1680014813773,1194802127552812,-0.048675,0.0528,0.0490875
1680014813775,1194802130055273,-0.0416625,0.0787875,0.048125
1680014813778,1194802132557508,-0.0336875,0.10285,0.0451
1680014813780,1194802135059662,-0.0246125,0.12375,0.043175
1680014813783,1194802137562047,-0.0215875,0.14685,0.0411125
1680014813785,1194802140064277,-0.015675,0.165825,0.0411125
1680014813788,1194802142566653,-0.0086624995,0.1808125,0.0411125
1680014813790,1194802145069115,-6.875E-4,0.192775,0.04015
1680014813793,1194802147571345,0.0034375,0.1997875,0.04015
1680014813796,1194802150073730,0.0083875,0.203775,0.04015
1680014813797,1194802152575965,0.0154,0.21175,0.042075
1680014813800,1194802155078119,0.0193875,0.2107875,0.042075
1680014813805,1194802157580503,0.02035,0.2068,0.0411125
1680014813808,1194802160082965,0.0193875,0.203775,0.042075
1680014813809,1194802162585182,0.0154,0.1978625,0.0460625
1680014813811,1194802165087566,0.0114124995,0.1838375,0.048125
1680014813814,1194802167589797,0.006325,0.17173749,0.050049998
1680014813815,1194802170092182,-0.00165,0.159775,0.0561
1680014813817,1194802172594412,-0.009625,0.1428625,0.0600875
1680014813820,1194802175096787,-0.015675,0.121825,0.0631125
1680014813823,1194802177599018,-0.0226875,0.110825,0.0631125
1680014813825,1194802180101402,-0.026675,0.0928125,0.0710875
1680014813828,1194802182603633,-0.0295625,0.071775,0.0771375
1680014813830,1194802185106009,-0.031625,0.0537625,0.08305
1680014813833,1194802187608240,-0.037675,0.036849998,0.087175
1680014813835,1194802190110393,-0.0396,0.0207625,0.092125
1680014813837,1194802192612855,-0.0405625,0.0097624995,0.097075
1680014813841,1194802195115249,-0.0416625,-0.0042625,0.100099996
1680014813845,1194802197617479,-0.0466125,-0.01925,0.1021625
1680014813847,1194802200119864,-0.0496375,-0.03025,0.103125
1680014813849,1194802202622095,-0.045649998,-0.0361625,0.1021625
1680014813850,1194802205124479,-0.042625,-0.0532125,0.1040875
1680014813853,1194802207626710,-0.0416625,-0.06325,0.10505
1680014813855,1194802210129172,-0.0356125,-0.0471625,0.1101375
1680014813857,1194802212631326,-0.025575,-0.043175,0.1120625
1680014813860,1194802215133710,-0.0185625,-0.0391875,0.1120625
1680014813863,1194802217635941,-0.0116875,-0.0372625,0.108075
1680014813866,1194802220138326,-6.875E-4,-0.03025,0.1040875
1680014813868,1194802222640556,0.006325,-0.0242,0.103125
1680014813871,1194802225143018,0.0103124995,-0.014162499,0.098175
1680014813873,1194802227645389,0.0133375,-0.0092124995,0.092125
1680014813875,1194802230147542,0.0193875,8.25E-4,0.0891
1680014813880,1194802232649773,0.0254375,0.0067375,0.0900625
1680014813881,1194802235152158,0.029424999,0.0158125,0.086075
1680014813885,1194802237654643,0.0334125,0.0218625,0.0790625
1680014813886,1194802240156874,0.040425,0.0287375,0.0771375
1680014813888,1194802242659028,0.0444125,0.03575,0.076175
1680014813890,1194802245161413,0.0484,0.044825,0.0710875
1680014813893,1194802247663874,0.0523875,0.0518375,0.070125
1680014813895,1194802250166043,0.05335,0.05775,0.064075
1680014813898,1194802252668505,0.0554125,0.0638,0.0631125
1680014813901,1194802255170735,0.05335,0.0708125,0.059125
1680014813904,1194802257673120,0.0543125,0.06875,0.0551375
1680014813906,1194802260175351,0.05335,0.06985,0.053075
1680014813908,1194802262677505,0.0493625,0.0708125,0.0521125
1680014813910,1194802265179889,0.045375,0.0757625,0.050049998
1680014813913,1194802267682351,0.045375,0.06875,0.048125
1680014813917,1194802270184552,0.0374,0.0658625,0.042075
1680014813920,1194802272686937,0.028324999,0.0628375,0.0361625
1680014813922,1194802275189168,0.0254375,0.05775,0.0361625
1680014813925,1194802277691552,0.0213125,0.0598125,0.02915
1680014813928,1194802280193706,0.0213125,0.05775,0.0240625
1680014813930,1194802282695928,0.00935,0.05775,0.020075
1680014813931,1194802285198390,0.0044,0.0528,0.013062499
1680014813934,1194802287700774,0.0023375,0.0528,0.010175
1680014813935,1194802290203005,-0.004675,0.0528,0.00715
1680014813937,1194802292705390,-0.0075625,0.0537625,0.004125
1680014813940,1194802295207615,-0.0075625,0.055825,0.0011
1680014813943,1194802297709769,-0.003575,0.055825,-0.001925
1680014813946,1194802300212231,0.001375,0.0567875,-0.00495
1680014813948,1194802302714615,0.0023375,0.05775,-0.0089375
1680014813950,1194802305216850,0.007425,0.0598125,-0.011825
1680014813955,1194802307719235,0.0154,0.0567875,-0.01595
1680014813956,1194802310221466,0.0193875,0.0567875,-0.0199375
1680014813958,1194802312723850,0.0254375,0.0548625,-0.0248875
1680014813960,1194802315226312,0.034375,0.0507375,-0.028875
1680014813964,1194802317728452,0.0364375,0.0438625,-0.0319
1680014813966,1194802320230682,0.040425,0.044825,-0.034925
1680014813968,1194802322733067,0.0463375,0.0347875,-0.0358875
1680014813970,1194802325235293,0.05335,0.027775,-0.0419375
1680014813973,1194802327737677,0.0573375,0.0218625,-0.0429
1680014813976,1194802330239908,0.0594,0.01485,-0.0429
1680014813978,1194802332742370,0.06435,0.0078375,-0.0419375
1680014813980,1194802335244754,0.0704,0.0017875,-0.04895
1680014813983,1194802337746908,0.072325,-0.005225,-0.0499125
1680014813985,1194802340249139,0.07535,-0.014162499,-0.0529375
1680014813988,1194802342751524,0.0814,-0.0221375,-0.0539
1680014813993,1194802345253764,0.0823625,-0.0312125,-0.056925
1680014813994,1194802347756226,0.083325,-0.0352,-0.056925
1680014813996,1194802350258611,0.0853875,-0.0441375,-0.0628375
1680014813997,1194802352760841,0.08635,-0.05115,-0.066825
1680014814001,1194802355262995,0.091437496,-0.0581625,-0.0688875
1680014814004,1194802357765409,0.0924,-0.0642125,-0.0759
1680014814006,1194802360267640,0.089375,-0.0702625,-0.08085
1680014814008,1194802362770101,0.0994125,-0.0771375,-0.0859375
1680014814010,1194802365272486,0.100375,-0.087175,-0.089925
1680014814013,1194802367774722,0.0963875,-0.0911625,-0.09185
1680014814015,1194802370277106,0.0924,-0.09515,-0.095837496
1680014814017,1194802372779337,0.089375,-0.100237496,-0.10395
1680014814020,1194802375281491,0.0793375,-0.1101375,-0.1049125
1680014814024,1194802377783952,0.07535,-0.11715,-0.1079375
1680014814025,1194802380286337,0.0704,-0.120175,-0.1098625
1680014814029,1194802382788568,0.06435,-0.122237496,-0.111925
1680014814031,1194802385290952,0.0584375,-0.12815,-0.111925
1680014814034,1194802387793207,0.0493625,-0.131175,-0.108899996
1680014814038,1194802390295592,0.040425,-0.131175,-0.105875
1680014814041,1194802392798053,0.0353375,-0.13213749,-0.1018875
1680014814041,1194802395300207,0.0273625,-0.12925,-0.100925
1680014814045,1194802397802457,0.0213125,-0.1192125,-0.099825
1680014814046,1194802400304842,0.0133375,-0.1131625,-0.09295
1680014814047,1194802402807072,0.00935,-0.1082125,-0.0878625
1680014814050,1194802405309457,0.007425,-0.09625,-0.083875
1680014814053,1194802407811688,0.0044,-0.087175,-0.077825
1680014814055,1194802410314134,-6.875E-4,-0.076175,-0.0768625
1680014814058,1194802412816288,-6.875E-4,-0.065175,-0.0749375
1680014814061,1194802415318673,-6.875E-4,-0.0482625,-0.0719125
1680014814063,1194802417820904,4.125E-4,-0.038225,-0.067925
1680014814066,1194802420323263,4.125E-4,-0.027224999,-0.0658625
1680014814068,1194802422825494,0.0044,-0.014162499,-0.0628375
1680014814070,1194802425327955,0.0053625,-0.00825,-0.0628375
1680014814073,1194802427830340,0.0053625,8.25E-4,-0.0628375
1680014814076,1194802430332571,0.00935,0.0097624995,-0.0658625
1680014814079,1194802432834721,0.012375,0.016775,-0.066825
1680014814080,1194802435337105,0.0114124995,0.0237875,-0.0688875
1680014814084,1194802437839336,0.0103124995,0.0308,-0.07095
1680014814086,1194802440341798,0.012375,0.0287375,-0.072875
1680014814089,1194802442844210,0.0103124995,0.0328625,-0.07095
1680014814090,1194802445346441,0.0083875,0.0347875,-0.077825
1680014814093,1194802447848826,0.0044,0.0328625,-0.077825
1680014814095,1194802450350980,0.0053625,0.033825,-0.08085
1680014814098,1194802452853210,0.0023375,0.0308,-0.078925
1680014814100,1194802455355692,0.001375,0.033825,-0.078925
1680014814105,1194802457858076,4.125E-4,0.0298375,-0.08085
1680014814106,1194802460360307,-6.875E-4,0.0198,-0.0829125
1680014814108,1194802462862692,-6.875E-4,0.0177375,-0.083875
1680014814111,1194802465364927,4.125E-4,0.01375,-0.083875
1680014814113,1194802467867311,0.001375,0.00385,-0.0878625
1680014814115,1194802470369542,4.125E-4,0.005775,-0.089925
1680014814118,1194802472871927,4.125E-4,0.0048125,-0.09295
1680014814121,1194802475374162,0.001375,-0.0031625,-0.095837496
1680014814125,1194802477876547,0.0023375,-0.0061875,-0.099825
1680014814126,1194802480378778,0.001375,-0.0061875,-0.10395
1680014814128,1194802482881162,0.0053625,-0.0092124995,-0.110825
1680014814130,1194802485383393,0.0023375,-0.01815,-0.117837496
1680014814133,1194802487885879,0.0023375,-0.0221375,-0.1238875
1680014814135,1194802490388033,0.0083875,-0.0221375,-0.1318625
1680014814138,1194802492890417,0.0103124995,-0.0281875,-0.138875
1680014814141,1194802495392648,0.0114124995,-0.02915,-0.144925
1680014814145,1194802497895043,0.0103124995,-0.03025,-0.1529
1680014814146,1194802500397273,0.0163625,-0.02915,-0.1648625
1680014814148,1194802502899735,0.02035,-0.02915,-0.1758625
1680014814152,1194802505402120,0.0254375,-0.02915,-0.1859
1680014814154,1194802507904268,0.0254375,-0.0251625,-0.1948375
1680014814155,1194802510406499,0.029424999,-0.0262625,-0.20185
1680014814158,1194802512908884,0.0353375,-0.0221375,-0.2088625
1680014814160,1194802515411115,0.04235,-0.01925,-0.2168375
1680014814164,1194802517913562,0.0484,-0.0221375,-0.2228875
1680014814166,1194802520415947,0.0484,-0.021175,-0.22687499
1680014814168,1194802522918178,0.0484,-0.021175,-0.22893749
1680014814170,1194802525420562,0.050325,-0.0202125,-0.232925
1680014814173,1194802527922716,0.0543125,-0.021175,-0.2338875
1680014814175,1194802530424918,0.0554125,-0.0262625,-0.232925
1680014814179,1194802532927379,0.056375,-0.0312125,-0.23485
1680014814181,1194802535429764,0.0573375,-0.0312125,-0.2369125
1680014814186,1194802537931995,0.0594,-0.0352,-0.23485
1680014814187,1194802540434379,0.0584375,-0.0391875,-0.23595
1680014814188,1194802542936610,0.05335,-0.043175,-0.2369125
1680014814190,1194802545438995,0.0523875,-0.0471625,-0.2338875
1680014814193,1194802547941149,0.05335,-0.0581625,-0.2338875
1680014814199,1194802550443610,0.0484,-0.0672375,-0.2338875
1680014814199,1194802552945855,0.0493625,-0.0682,-0.232925
1680014814201,1194802555448240,0.0484,-0.0691625,-0.22893749
1680014814204,1194802557950470,0.0463375,-0.07425,-0.22495
1680014814206,1194802560452855,0.0463375,-0.0801625,-0.2189
1680014814207,1194802562955086,0.0463375,-0.082225,-0.2179375
1680014814210,1194802565457460,0.045375,-0.0881375,-0.2088625
1680014814213,1194802567959691,0.0444125,-0.0831875,-0.2039125
1680014814217,1194802570462076,0.0433125,-0.08415,-0.20295
1680014814219,1194802572964303,0.0433125,-0.0862125,-0.1948375
1680014814220,1194802575466687,0.04235,-0.0812625,-0.1868625
1680014814224,1194802577968918,0.0413875,-0.0801625,-0.1819125
1680014814225,1194802580471379,0.040425,-0.0792,-0.1728375
1680014814228,1194802582973764,0.0413875,-0.076175,-0.1709125
1680014814231,1194802585475908,0.04235,-0.0721875,-0.160875
1680014814233,1194802587978139,0.0463375,-0.0691625,-0.149875
1680014814235,1194802590480523,0.0493625,-0.065175,-0.144925
1680014814238,1194802592982754,0.0543125,-0.06325,-0.1379125
1680014814240,1194802595485241,0.05335,-0.06215,-0.1348875
1680014814244,1194802597987625,0.0543125,-0.05115,-0.1288375
1680014814246,1194802600489856,0.0584375,-0.0482625,-0.12595
1680014814248,1194802602992010,0.062425,-0.0441375,-0.127875
1680014814250,1194802605494395,0.0713625,-0.041249998,-0.122925
1680014814254,1194802607996620,0.073425,-0.0352,-0.1189375
1680014814256,1194802610499082,0.0704,-0.0262625,-0.1208625
1680014814260,1194802613001466,0.0743875,-0.01925,-0.1189375
1680014814262,1194802615503697,0.0793375,-0.0171875,-0.122925
1680014814264,1194802618006087,0.0793375,-0.0092124995,-0.122925
1680014814266,1194802620508318,0.083325,-0.0031625,-0.1269125
1680014814268,1194802623010471,0.089375,0.00275,-0.127875
1680014814270,1194802625512856,0.1013375,0.0078375,-0.1318625
1680014814273,1194802628015279,0.1093125,0.0198,-0.13695
1680014814275,1194802630517509,0.116325,0.0308,-0.1398375
1680014814279,1194802633019894,0.116325,0.0378125,-0.144925
1680014814280,1194802635522125,0.11935,0.049775,-0.1529
1680014814285,1194802638024519,0.1233375,0.0598125,-0.15895
1680014814286,1194802640526750,0.1254,0.071775,-0.160875
1680014814288,1194802643029135,0.133375,0.0768625,-0.165825
1680014814292,1194802645531361,0.1313125,0.0867625,-0.16995
1680014814295,1194802648033745,0.1313125,0.0947375,-0.1728375
1680014814297,1194802650535976,0.1343375,0.104775,-0.176825
1680014814299,1194802653038361,0.133375,0.1098625,-0.1819125
1680014814300,1194802655540591,0.1353,0.11385,-0.1859
1680014814304,1194802658043048,0.1373625,0.1258125,-0.1859
1680014814306,1194802660545433,0.1403875,0.1318625,-0.18287499
1680014814308,1194802663047586,0.1434125,0.1428625,-0.1758625
1680014814311,1194802665549817,0.149325,0.14973749,-0.1739375
1680014814313,1194802668052212,0.1533125,0.1607375,-0.16885
1680014814315,1194802670554673,0.1563375,0.16775,-0.1599125
1680014814318,1194802673056904,0.161425,0.17173749,-0.1529
1680014814320,1194802675559058,0.166375,0.1848,-0.14093749
1680014814324,1194802678061453,0.1703625,0.1967625,-0.1318625
1680014814326,1194802680563683,0.1764125,0.2058375,-0.1199
1680014814329,1194802683066145,0.182325,0.214775,-0.108899996
1680014814331,1194802685568530,0.19139999,0.2217875,-0.1018875
1680014814334,1194802688070760,0.1984125,0.22385,-0.0908875
1680014814336,1194802690573130,0.204325,0.2308625,-0.083875
1680014814338,1194802693075361,0.21133749,0.23773749,-0.077825
1680014814340,1194802695577515,0.2173875,0.236775,-0.07095
1680014814343,1194802698079976,0.2233,0.236775,-0.064899996
1680014814346,1194802700582361,0.2314125,0.23485,-0.05995
1680014814349,1194802703084592,0.2393875,0.23375,-0.056925
1680014814350,1194802705586976,0.2443375,0.2297625,-0.04895
1680014814353,1194802708089207,0.2503875,0.2267375,-0.0438625
1680014814356,1194802710591578,0.2563,0.2168375,-0.039875
1680014814359,1194802713093808,0.260425,0.2138125,-0.036849998
1680014814360,1194802715596193,0.26633748,0.1997875,-0.0358875
1680014814364,1194802718098424,0.271425,0.192775,-0.0319
1680014814368,1194802720600812,0.27335,0.17985,-0.02695
1680014814370,1194802723103043,0.276375,0.16775,-0.02585
1680014814372,1194802725605428,0.2773375,0.1538625,-0.0209
1680014814375,1194802728107658,0.2773375,0.1368125,-0.01485
1680014814376,1194802730610120,0.2773375,0.1227875,-0.01595
1680014814379,1194802733112265,0.27335,0.104775,-0.012925
1680014814380,1194802735614726,0.2673,0.09075,-0.0078375
1680014814383,1194802738116880,0.2633125,0.071775,-0.0089375
1680014814386,1194802740619342,0.259325,0.055825,-0.006875
1680014814388,1194802743121510,0.2574,0.0427625,-0.0028875
1680014814390,1194802745623971,0.25135,0.0298375,-0.0028875
1680014814394,1194802748126356,0.249425,0.0198,-0.001925
1680014814396,1194802750628587,0.248325,0.0067375,-8.25E-4
1680014814398,1194802753130750,0.2424125,-0.0092124995,-0.001925
1680014814401,1194802755633212,0.2393875,-0.0171875,-0.001925
1680014814405,1194802758135597,0.2363625,-0.0262625,-0.0028875
1680014814407,1194802760638058,0.2303125,-0.041249998,-0.0059125
1680014814409,1194802763140196,0.2253625,-0.0462,-0.006875
1680014814412,1194802765642427,0.21835,-0.0501875,-0.0099
1680014814418,1194802768144811,0.2143625,-0.0501875,-0.006875
1680014814418,1194802770647042,0.2143625,-0.0611875,-0.00495
1680014814421,1194802773149427,0.2123,-0.065175,-0.0028875
1680014814423,1194802775651649,0.2094125,-0.0691625,-0.001925
1680014814424,1194802778154110,0.2083125,-0.07425,-8.25E-4
1680014814426,1194802780656264,0.2083125,-0.07425,0.004125
1680014814428,1194802783158649,0.2063875,-0.0752125,0.004125
1680014814430,1194802785660859,0.2063875,-0.082225,0.0081124995
1680014814433,1194802788163244,0.2094125,-0.0862125,0.013062499
1680014814435,1194802790665475,0.20735,-0.0941875,0.0160875
1680014814438,1194802793167936,0.2063875,-0.0972125,0.021175
1680014814442,1194802795670326,0.205425,-0.1032625,0.0221375
1680014814446,1194802798172557,0.2013,-0.1122,0.0270875
1680014814447,1194802800674711,0.1984125,-0.11825,0.0270875
1680014814449,1194802803177095,0.194425,-0.1252625,0.0251625
1680014814451,1194802805679326,0.1973125,-0.1302125,0.0251625
1680014814454,1194802808181774,0.1984125,-0.1381875,0.0240625
1680014814455,1194802810684158,0.193325,-0.1412125,0.0191125
1680014814458,1194802813186389,0.193325,-0.1461625,0.013062499
1680014814461,1194802815688774,0.19139999,-0.15015,0.014162499
1680014814463,1194802818190999,0.18933749,-0.1522125,0.009075
1680014814466,1194802820693153,0.1903,-0.1522125,0.0020625
1680014814468,1194802823195615,0.188375,-0.153175,-0.0028875
1680014814471,1194802825697999,0.1863125,-0.1571625,-0.006875
1680014814473,1194802828200235,0.18535,-0.153175,-0.01485
1680014814475,1194802830702620,0.1874125,-0.15015,-0.022824999
1680014814479,1194802833204851,0.18535,-0.148225,-0.0319
1680014814481,1194802835707235,0.182325,-0.142175,-0.03795
1680014814485,1194802838209461,0.1783375,-0.1362625,-0.0429
1680014814486,1194802840711846,0.17435,-0.1302125,-0.0518375
1680014814490,1194802843214076,0.1783375,-0.1252625,-0.058849998
1680014814491,1194802845716461,0.1764125,-0.1131625,-0.0658625
1680014814495,1194802848218692,0.1753125,-0.1032625,-0.072875
1680014814496,1194802850721071,0.1733875,-0.1012,-0.078925
1680014814500,1194802853223302,0.1733875,-0.093225,-0.0848375
1680014814501,1194802855725764,0.1694,-0.082225,-0.089925
1680014814504,1194802858227917,0.1694,-0.07425,-0.095837496
1680014814505,1194802860730302,0.1694,-0.0672375,-0.1018875
1680014814508,1194802863232543,0.1654125,-0.060225,-0.1049125
1680014814510,1194802865734928,0.161425,-0.0572,-0.105875
1680014814513,1194802868237158,0.160325,-0.0471625,-0.108899996
1680014814517,1194802870739639,0.1593625,-0.0471625,-0.1128875
1680014814519,1194802873242023,0.1573,-0.0422125,-0.116875
1680014814521,1194802875744177,0.1573,-0.0352,-0.1189375
1680014814526,1194802878246408,0.1533125,-0.032175,-0.1199
1680014814527,1194802880748807,0.1533125,-0.0312125,-0.1199
1680014814529,1194802883251037,0.150425,-0.03025,-0.1238875
1680014814531,1194802885753499,0.150425,-0.0251625,-0.1238875
1680014814534,1194802888255884,0.150425,-0.0251625,-0.12485
1680014814535,1194802890758114,0.14533749,-0.02915,-0.1269125
1680014814538,1194802893260480,0.14533749,-0.03025,-0.127875
1680014814540,1194802895762634,0.14739999,-0.0312125,-0.1269125
1680014814543,1194802898264865,0.144375,-0.0352,-0.12485
1680014814545,1194802900767326,0.1483625,-0.0372625,-0.122925
1680014814548,1194802903269716,0.150425,-0.0462,-0.1208625
1680014814550,1194802905771947,0.150425,-0.05115,-0.1199
1680014814555,1194802908274331,0.150425,-0.060225,-0.1189375
1680014814557,1194802910776562,0.1533125,-0.0702625,-0.117837496
1680014814558,1194802913278927,0.1573,-0.07425,-0.117837496
1680014814560,1194802915781388,0.161425,-0.087175,-0.117837496
1680014814564,1194802918283619,0.1623875,-0.0941875,-0.1159125
1680014814566,1194802920786004,0.1654125,-0.098175,-0.111925
1680014814568,1194802923288157,0.171325,-0.10725,-0.111925
1680014814570,1194802925790398,0.1733875,-0.109175,-0.110825
1680014814574,1194802928292783,0.182325,-0.115225,-0.1098625
1680014814576,1194802930795014,0.188375,-0.1211375,-0.110825
1680014814578,1194802933297475,0.193325,-0.1192125,-0.1098625
1680014814581,1194802935799860,0.1953875,-0.122237496,-0.111925
1680014814584,1194802938302091,0.2013,-0.12815,-0.111925
1680014814586,1194802940804475,0.2083125,-0.1241625,-0.1128875
1680014814588,1194802943306638,0.2123,-0.1241625,-0.1128875
1680014814592,1194802945808869,0.2173875,-0.1252625,-0.1189375
1680014814594,1194802948311330,0.2193125,-0.126225,-0.121825
1680014814596,1194802950813715,0.2223375,-0.1302125,-0.1288375
1680014814598,1194802953315946,0.2233,-0.12925,-0.132825
1680014814601,1194802955818350,0.2244,-0.12815,-0.1419
1680014814604,1194802958320581,0.2233,-0.1271875,-0.14795
1680014814606,1194802960822966,0.2244,-0.1271875,-0.1508375
1680014814608,1194802963325197,0.221375,-0.126225,-0.1568875
1680014814611,1194802965827585,0.221375,-0.1241625,-0.1618375
1680014814614,1194802968329816,0.221375,-0.1192125,-0.1678875
1680014814616,1194802970832201,0.221375,-0.1192125,-0.177925
1680014814619,1194802973334431,0.2223375,-0.115225,-0.18095
