system_ts_ms, sensor_ts_ns, gyrX, gyrY, gyrZ
1680014365659,1194354008764487,0.0319,0.11605,-0.01595
1680014365659,1194354011266948,0.0358875,0.11605,-0.0188375
1680014365659,1194354013769102,0.03795,0.113025,-0.0199375
1680014365673,1194354016271338,0.0400125,0.1120625,-0.0199375
1680014365673,1194354018773492,0.0369875,0.10505,-0.017875
1680014365673,1194354021275876,0.0400125,0.097075,-0.0218625
1680014365673,1194354023778030,0.0400125,0.0851125,-0.0229625
1680014365673,1194354026280270,0.0369875,0.0741125,-0.017875
1680014365677,1194354028782655,0.0339625,0.0680625,-0.017875
1680014365677,1194354031284809,0.0339625,0.06215,-0.0169125
1680014365678,1194354033786962,0.029975,0.0521125,-0.0119624995
1680014365682,1194354036289189,0.0279125,0.0411125,-0.0099
1680014365684,1194354038791574,0.0199375,0.0320375,-0.0089375
1680014365686,1194354041293805,0.0209,0.01815,-0.0089375
1680014365688,1194354043795958,0.0199375,0.0100375,-0.0108624995
1680014365693,1194354046298343,0.011,-9.625E-4,-0.0108624995
1680014365694,1194354048800506,0.00495,-0.00385,-0.0099
1680014365696,1194354051302660,0.001925,-0.0138875,-0.0108624995
1680014365699,1194354053804891,9.625E-4,-0.0248875,-0.0108624995
1680014365702,1194354056307275,-0.003025,-0.028875,-0.0099
1680014365704,1194354058809492,-0.0,-0.0358875,-0.0108624995
1680014365710,1194354061311646,-0.0050875,-0.0419375,-0.006875
1680014365710,1194354063814030,-0.0050875,-0.0499125,-0.00495
1680014365712,1194354066316179,-0.0050875,-0.0539,-0.006875
1680014365714,1194354068818410,-0.0070125,-0.0578875,-0.00495
1680014365716,1194354071320564,-0.0039875,-0.0609125,-0.00495
1680014365719,1194354073822949,-0.00605,-0.064899996,-0.001925
1680014365729,1194354076325174,-0.0050875,-0.0658625,1.375E-4
1680014365729,1194354078827328,-0.009075,-0.06985,1.375E-4
1680014365729,1194354081329713,-0.011,-0.0759,0.0011
1680014365730,1194354083831867,-0.0100375,-0.0768625,0.0031625
1680014365732,1194354086334097,-0.0121,-0.0768625,0.0020625
1680014365734,1194354088836468,-0.0121,-0.0798875,0.004125
1680014365736,1194354091338622,-0.009075,-0.073975,0.0031625
1680014365739,1194354093840853,-0.00605,-0.067925,0.00715
1680014365745,1194354096343006,-0.009075,-0.0639375,0.00715
1680014365746,1194354098845145,-0.0011,-0.05995,0.0100375
1680014365747,1194354101347530,9.625E-4,-0.0548625,0.013062499
1680014365749,1194354103849992,0.0059125,-0.0438625,0.013062499
1680014365752,1194354106352145,0.007975,-0.0328625,0.0191125
1680014365753,1194354108854299,0.011,-0.02585,0.0210375
1680014365756,1194354111356520,0.0119624995,-0.01595,0.0210375
1680014365765,1194354113858674,0.0180125,-0.0108624995,0.0210375
1680014365765,1194354116361058,0.0199375,-9.625E-4,0.0221375
1680014365766,1194354118863212,0.0180125,0.00605,0.0231
1680014365766,1194354121365425,0.01595,0.013062499,0.0231
1680014365769,1194354123867810,0.0169125,0.0160875,0.0231
1680014365772,1194354126370040,0.0169125,0.015125,0.0240625
1680014365780,1194354128872194,0.0180125,0.01705,0.0221375
1680014365781,1194354131374353,0.012925,0.0270875,0.0240625
1680014365781,1194354133876738,0.0099,0.0231,0.0210375
1680014365784,1194354136378969,0.0059125,0.0210375,0.0270875
1680014365785,1194354138881122,0.0028875,0.0231,0.026124999
1680014365787,1194354141383497,-0.0011,0.0210375,0.02805
1680014365790,1194354143885651,-0.00605,0.0210375,0.02805
1680014365794,1194354146387805,-0.011,0.01705,0.02915
1680014365795,1194354148890036,-0.0160875,0.014025,0.0270875
1680014365796,1194354151392497,-0.020075,0.015125,0.02805
1680014365799,1194354153894656,-0.0240625,0.0100375,0.0301125
1680014365803,1194354156396810,-0.0270875,0.003025,0.02805
1680014365804,1194354158899194,-0.031075,0.0020625,0.0270875
1680014365810,1194354161401348,-0.0320375,-0.001925,0.026124999
1680014365810,1194354163903565,-0.036025,-0.00385,0.0270875
1680014365812,1194354166405950,-0.039049998,-0.0059125,0.0251625
1680014365814,1194354168908104,-0.039049998,-0.0138875,0.0231
1680014365817,1194354171410334,-0.039049998,-0.01595,0.02805
1680014365821,1194354173912743,-0.0400125,-0.012925,0.0270875
1680014365827,1194354176414897,-0.0400125,-0.0169125,0.0221375
1680014365827,1194354178917051,-0.036025,-0.0218625,0.0221375
1680014365828,1194354181419512,-0.0350625,-0.029975,0.0231
1680014365829,1194354183921666,-0.0270875,-0.0279125,0.020075
1680014365832,1194354186423809,-0.025024999,-0.0309375,0.020075
1680014365834,1194354188925963,-0.022,-0.0309375,0.020075
1680014365836,1194354191428424,-0.0160875,-0.0358875,0.0210375
1680014365839,1194354193930655,-0.013062499,-0.03795,0.0191125
1680014365844,1194354196432804,-0.0070125,-0.036849998,0.0160875
1680014365845,1194354198934958,-0.003025,-0.0419375,0.0160875
1680014365846,1194354201437342,0.001925,-0.0389125,0.0160875
1680014365848,1194354203939496,0.0070125,-0.036849998,0.014162499
1680014365852,1194354206441727,0.0119624995,-0.040975,0.0111375
1680014365854,1194354208944117,0.0209,-0.03795,0.00715
1680014365862,1194354211446270,0.0279125,-0.0358875,0.00715
1680014365862,1194354213948501,0.029975,-0.03795,0.0050875
1680014365863,1194354216450655,0.0389125,-0.036849998,0.0020625
1680014365864,1194354218953050,0.0429,-0.0419375,0.0020625
1680014365866,1194354221455204,0.0400125,-0.03795,0.0011
1680014365868,1194354223957665,0.0429,-0.036849998,-9.625E-4
1680014365871,1194354226459819,0.044,-0.03795,-9.625E-4
1680014365878,1194354228962001,0.0449625,-0.0429,-0.001925
1680014365879,1194354231464232,0.045925,-0.04895,-0.001925
1680014365879,1194354233966385,0.0449625,-0.0548625,-0.001925
1680014365882,1194354236468770,0.044,-0.0578875,-0.001925
1680014365885,1194354238971006,0.0429,-0.062975,-9.625E-4
1680014365888,1194354241473390,0.0369875,-0.06985,0.0011
1680014365889,1194354243975544,0.033,-0.0768625,0.0020625
1680014365893,1194354246477775,0.029975,-0.084975,0.00605
1680014365896,1194354248979934,0.0259875,-0.0908875,0.0031625
1680014365898,1194354251482088,0.02695,-0.0939125,0.0031625
1680014365899,1194354253984549,0.02695,-0.0988625,0.004125
1680014365902,1194354256486703,0.023924999,-0.1049125,0.004125
1680014365904,1194354258988857,0.0209,-0.1109625,0.0011
1680014365906,1194354261491251,0.0199375,-0.11385,0.0020625
1680014365910,1194354263993481,0.0199375,-0.116875,0.00605
1680014365912,1194354266495635,0.0180125,-0.1159125,0.0081124995
1680014365914,1194354268998020,0.018975,-0.116875,0.0050875
1680014365917,1194354271500247,0.0199375,-0.1219625,0.00715
1680014365919,1194354274002401,0.0209,-0.1208625,0.0081124995
1680014365926,1194354276504554,0.0209,-0.117975,0.0100375
1680014365927,1194354279006939,0.0229625,-0.11385,0.014162499
1680014365928,1194354281509097,0.023924999,-0.11495,0.014162499
1680014365929,1194354284011328,0.0259875,-0.1128875,0.013062499
1680014365933,1194354286513712,0.029975,-0.106975,0.0160875
1680014365935,1194354289015943,0.0339625,-0.10395,0.0210375
1680014365937,1194354291518097,0.0389125,-0.0979,0.01705
1680014365939,1194354294020481,0.044,-0.09295,0.020075
1680014365945,1194354296522635,0.051975,-0.086899996,0.0191125
1680014365947,1194354299024789,0.0559625,-0.0779625,0.01705
1680014365948,1194354301527251,0.07095,-0.07095,0.01705
1680014365949,1194354304029391,0.08195,-0.062975,0.0160875
1680014365952,1194354306531544,0.086899996,-0.0548625,0.015125
1680014365954,1194354309033775,0.09295,-0.0578875,0.01705
1680014365956,1194354311535929,0.100925,-0.05995,0.0240625
1680014365960,1194354314038338,0.1049125,-0.062975,0.02915
1680014365963,1194354316540568,0.11,-0.0669625,0.0361625
1680014365965,1194354319042953,0.108899996,-0.0719125,0.037125
1680014365966,1194354321545107,0.106975,-0.0749375,0.0320375
1680014365971,1194354324047251,0.0969375,-0.08085,0.0240625
1680014365978,1194354326549482,0.0889625,-0.089925,0.0111375
1680014365979,1194354329051635,0.08195,-0.0969375,-0.0028875
1680014365980,1194354331554097,0.077,-0.106975,-0.0108624995
1680014365982,1194354334056251,0.0730125,-0.117975,-0.012925
1680014365984,1194354336558664,0.069025,-0.128975,-0.01485
1680014365985,1194354339060818,0.0609125,-0.14093749,-0.0119624995
1680014365986,1194354341563049,0.0559625,-0.1519375,-0.006875
1680014365989,1194354344065203,0.0529375,-0.166925,-0.006875
1680014365993,1194354346567607,0.0449625,-0.1819125,-0.00495
1680014365994,1194354349069837,0.0400125,-0.1959375,-0.0059125
1680014365997,1194354351571991,0.0369875,-0.205975,-0.0078375
1680014365999,1194354354074376,0.0339625,-0.2198625,-0.01485
1680014366003,1194354356576530,0.0290125,-0.2338875,-0.0209
1680014366004,1194354359078760,0.025024999,-0.2479125,-0.0218625
1680014366010,1194354361580914,0.0199375,-0.259875,-0.0279125
1680014366011,1194354364083299,0.0169125,-0.26895,-0.0298375
1680014366013,1194354366585525,0.0099,-0.2849,-0.034925
1680014366014,1194354369087679,0.0059125,-0.2949375,-0.036849998
1680014366016,1194354371589832,0.0070125,-0.3069,-0.034925
1680014366019,1194354374092217,-0.0,-0.31295,-0.0358875
1680014366022,1194354376594371,-0.0039875,-0.314875,-0.039875
1680014366026,1194354379096828,-0.0011,-0.32587498,-0.0438625
1680014366027,1194354381598982,-0.003025,-0.3309625,-0.0628375
1680014366029,1194354384101213,0.014025,-0.3089625,-0.078925
1680014366032,1194354386603367,0.051975,-0.270875,-0.0848375
1680014366034,1194354389105755,0.064899996,-0.259875,-0.078925
1680014366037,1194354391607909,0.051975,-0.2858625,-0.0738375
1680014366039,1194354394110140,0.0259875,-0.31185,-0.0669625
1680014366043,1194354396612525,0.0169125,-0.32395,-0.050875
1680014366046,1194354399114646,0.01595,-0.3399,-0.034925
1680014366048,1194354401616799,0.0089375,-0.35694999,-0.02585
1680014366050,1194354404119030,0.011,-0.3619,-0.0218625
1680014366053,1194354406621415,0.0169125,-0.364925,-0.023924999
1680014366054,1194354409123646,0.025024999,-0.359975,-0.0298375
1680014366056,1194354411625799,0.02695,-0.3579125,-0.0358875
1680014366059,1194354414128184,0.02695,-0.3579125,-0.0389125
1680014366062,1194354416630338,0.02695,-0.353925,-0.050875
1680014366064,1194354419132492,0.0279125,-0.358875,-0.0609125
1680014366067,1194354421634718,0.023924999,-0.35694999,-0.06985
1680014366069,1194354424136871,0.02695,-0.3509,-0.0779625
1680014366072,1194354426639333,0.034925,-0.347875,-0.0859375
1680014366074,1194354429141487,0.040975,-0.3419625,-0.095837496
1680014366076,1194354431643871,0.0510125,-0.32395,-0.1079375
1680014366079,1194354434146015,0.0609125,-0.3069,-0.1318625
1680014366084,1194354436648246,0.0730125,-0.2919125,-0.1489125
1680014366086,1194354441650400,0.080025,-0.2888875,-0.144925
1680014366088,1194354441797477,0.0859375,-0.2949375,-0.14093749
1680014366091,1194354444155020,0.0840125,-0.30195,-0.127875
1680014366093,1194354446657174,0.0840125,-0.30195,-0.108899996
1680014366095,1194354449159559,0.077,-0.3029125,-0.1018875
1680014366097,1194354451661713,0.0749375,-0.3059375,-0.0979
1680014366099,1194354454163953,0.0730125,-0.2979625,-0.10285
1680014366102,1194354456666338,0.077,-0.2869625,-0.1079375
1680014366104,1194354459168492,0.0859375,-0.2759625,-0.11495
1680014366107,1194354461670723,0.0950125,-0.26895,-0.1199
1680014366109,1194354464172872,0.099,-0.2589125,-0.1238875
1680014366112,1194354466675025,0.106975,-0.2519,-0.1288375
1680014366115,1194354469177410,0.113025,-0.2558875,-0.1288375
1680014366117,1194354471679641,0.1170125,-0.2509375,-0.127875
1680014366120,1194354474182015,0.1170125,-0.25685,-0.1219625
1680014366124,1194354476684169,0.1170125,-0.2519,-0.1159125
1680014366126,1194354479186400,0.1159125,-0.2558875,-0.1079375
1680014366128,1194354481688554,0.11495,-0.25795,-0.105875
1680014366129,1194354484190938,0.11,-0.2638625,-0.0979
1680014366133,1194354486693159,0.108899996,-0.2638625,-0.094875
1680014366134,1194354489195313,0.106975,-0.26785,-0.094875
1680014366136,1194354491697698,0.10395,-0.26895,-0.0939125
1680014366139,1194354494199852,0.0999625,-0.2759625,-0.09185
1680014366142,1194354496701996,0.0950125,-0.28187498,-0.0859375
1680014366144,1194354499204227,0.0889625,-0.2869625,-0.083875
1680014366147,1194354501706612,0.084975,-0.2959,-0.08195
1680014366149,1194354504208843,0.0779625,-0.3029125,-0.0749375
1680014366152,1194354506710996,0.0699875,-0.3139125,-0.06985
1680014366154,1194354509213381,0.062975,-0.3188625,-0.07095
1680014366158,1194354511715535,0.0539,-0.3218875,-0.07095
1680014366160,1194354514217689,0.04895,-0.331925,-0.07095
1680014366164,1194354516719925,0.0400125,-0.336875,-0.064899996
1680014366165,1194354519222309,0.0319,-0.34485,-0.0609125
1680014366167,1194354521724540,0.02695,-0.3469125,-0.064899996
1680014366169,1194354524226694,0.022,-0.3509,-0.0628375
1680014366172,1194354526729078,0.01595,-0.358875,-0.058849998
1680014366174,1194354529231232,0.0099,-0.3619,-0.0559625
1680014366176,1194354531733463,0.003025,-0.3639625,-0.0559625
1680014366179,1194354534235848,0.003025,-0.359975,-0.04895
1680014366182,1194354536738002,0.0059125,-0.34485,-0.0429
1680014366184,1194354539240236,0.011,-0.3298625,-0.0419375
1680014366186,1194354541742390,0.01595,-0.31295,-0.0419375
1680014366189,1194354544244544,0.018975,-0.2968625,-0.039875
1680014366192,1194354546746929,0.0229625,-0.28187498,-0.0419375
1680014366195,1194354549249390,0.0339625,-0.2668875,-0.0408375
1680014366197,1194354551751544,0.0419375,-0.2509375,-0.0449625
1680014366200,1194354554253698,0.0510125,-0.2409,-0.047849998
1680014366203,1194354556755929,0.0559625,-0.22495,-0.0499125
1680014366204,1194354559258083,0.05995,-0.21285,-0.0529375
1680014366207,1194354561760439,0.069025,-0.1989625,-0.0578875
1680014366209,1194354564262670,0.073975,-0.1898875,-0.061875
1680014366212,1194354566764824,0.080025,-0.18287499,-0.0669625
1680014366215,1194354569267208,0.0859375,-0.172975,-0.0719125
1680014366217,1194354571769357,0.0889625,-0.161975,-0.0768625
1680014366219,1194354574271588,0.095975,-0.15785,-0.086899996
1680014366222,1194354576773973,0.0999625,-0.1529,-0.0939125
1680014366224,1194354579276126,0.100925,-0.1489125,-0.1018875
1680014366227,1194354581778261,0.106975,-0.13695,-0.111925
1680014366229,1194354584280492,0.111925,-0.1318625,-0.1208625
1680014366234,1194354586782646,0.113025,-0.1299375,-0.1269125
1680014366236,1194354589285031,0.1219625,-0.1269125,-0.1348875
1680014366237,1194354591787280,0.1199,-0.1199,-0.14093749
1680014366239,1194354594289434,0.1219625,-0.1208625,-0.1458875
1680014366243,1194354596791819,0.1299375,-0.12485,-0.1508375
1680014366244,1194354599294050,0.128975,-0.12485,-0.1549625
1680014366246,1194354601796203,0.1299375,-0.128975,-0.1538625
1680014366249,1194354604298362,0.1249875,-0.13585,-0.1538625
1680014366252,1194354606800824,0.1219625,-0.1348875,-0.1538625
1680014366254,1194354609302978,0.1199,-0.14685,-0.1529
1680014366257,1194354611805132,0.11495,-0.1529,-0.1549625
1680014366259,1194354614307525,0.1079375,-0.1599125,-0.1529
1680014366262,1194354616809679,0.100925,-0.1709125,-0.14795
1680014366265,1194354619311910,0.095975,-0.1819125,-0.1489125
1680014366266,1194354621814294,0.091025,-0.1879625,-0.144925
1680014366271,1194354624316506,0.0859375,-0.1969,-0.1428625
1680014366273,1194354626818660,0.0829125,-0.20693749,-0.13585
1680014366275,1194354629321045,0.077,-0.2149125,-0.1329625
1680014366278,1194354631823199,0.0749375,-0.2228875,-0.1269125
1680014366284,1194354634325352,0.0759,-0.22495,-0.12595
1680014366284,1194354636827804,0.077,-0.2259125,-0.127875
1680014366285,1194354639329958,0.078925,-0.23485,-0.122925
1680014366287,1194354641832112,0.078925,-0.2409,-0.1208625
1680014366289,1194354644334342,0.0829125,-0.2399375,-0.1219625
1680014366291,1194354646836727,0.080025,-0.2448875,-0.1219625
1680014366293,1194354649338896,0.0840125,-0.24695,-0.12485
1680014366297,1194354651841050,0.086899996,-0.2519,-0.1269125
1680014366299,1194354654343511,0.091025,-0.2539625,-0.133925
1680014366302,1194354656845665,0.0939125,-0.2528625,-0.138875
1680014366304,1194354659347823,0.0969375,-0.259875,-0.1379125
1680014366308,1194354661850054,0.0999625,-0.26785,-0.14093749
1680014366310,1194354664352208,0.099,-0.276925,-0.144925
1680014366313,1194354666854592,0.100925,-0.27885,-0.1508375
1680014366317,1194354669356814,0.0939125,-0.2849,-0.1508375
1680014366318,1194354671859199,0.0919875,-0.28985,-0.1519375
1680014366320,1194354674361352,0.086899996,-0.2979625,-0.1519375
1680014366324,1194354676863583,0.08195,-0.3069,-0.1549625
1680014366326,1194354679365742,0.0759,-0.31185,-0.1549625
1680014366327,1194354681867896,0.0609125,-0.3188625,-0.1529
1680014366329,1194354684370358,0.051975,-0.3309625,-0.1519375
1680014366333,1194354686872511,0.0389125,-0.3438875,-0.1439625
1680014366334,1194354689374896,0.0259875,-0.3529625,-0.13695
1680014366337,1194354691877035,0.007975,-0.36685,-0.1288375
1680014366339,1194354694379266,-0.0100375,-0.3799125,-0.122925
1680014366342,1194354696881419,-0.0231,-0.3969625,-0.1128875
1680014366346,1194354699383804,-0.039049998,-0.4019125,-0.105875
1680014366349,1194354701886050,-0.0479875,-0.4079625,-0.0979
1680014366349,1194354704388204,-0.0600875,-0.4169,-0.089925
1680014366352,1194354706890358,-0.0710875,-0.4239125,-0.0859375
1680014366354,1194354709392742,-0.0730125,-0.42295,-0.08195
1680014366357,1194354711894896,-0.080025,-0.42185,-0.0738375
1680014366359,1194354714397358,-0.0820875,-0.4169,-0.0688875
1680014366365,1194354716899511,-0.0809875,-0.41387498,-0.064899996
1680014366366,1194354719401742,-0.0809875,-0.4068625,-0.058849998
1680014366367,1194354721903896,-0.0820875,-0.3988875,-0.0548625
1680014366370,1194354724406277,-0.080025,-0.3909125,-0.0548625
1680014366372,1194354726908431,-0.0790625,-0.380875,-0.056925
1680014366374,1194354729410584,-0.078099996,-0.37193748,-0.0539
1680014366376,1194354731913046,-0.073975,-0.3619,-0.04895
1680014366379,1194354734415214,-0.069025,-0.3509,-0.050875
1680014366383,1194354736917445,-0.066,-0.3419625,-0.04895
1680014366385,1194354739419598,-0.064075,-0.32285,-0.045925
1680014366387,1194354741921983,-0.0589875,-0.3139125,-0.0438625
1680014366389,1194354744424137,-0.0561,-0.3069,-0.0449625
1680014366392,1194354746926392,-0.0561,-0.2949375,-0.0429
1680014366394,1194354749428776,-0.0561,-0.2849,-0.0389125
1680014366397,1194354751930930,-0.055,-0.2759625,-0.036849998
1680014366399,1194354754433084,-0.053075,-0.2638625,-0.036849998
1680014366403,1194354756935320,-0.055,-0.2528625,-0.036849998
1680014366404,1194354759437474,-0.051975,-0.2418625,-0.0339625
1680014366406,1194354761939935,-0.0561,-0.23595,-0.0298375
1680014366409,1194354764442089,-0.0540375,-0.22687499,-0.0298375
1680014366412,1194354766944464,-0.047025,-0.2088625,-0.0319
1680014366414,1194354769446617,-0.0490875,-0.1969,-0.0319
1680014366417,1194354771948848,-0.0490875,-0.1898875,-0.0328625
1680014366421,1194354774451002,-0.044,-0.18095,-0.028875
1680014366424,1194354776953387,-0.0430375,-0.16995,-0.028875
1680014366425,1194354779455617,-0.0430375,-0.1599125,-0.028875
1680014366427,1194354781957771,-0.039049998,-0.1519375,-0.0328625
1680014366429,1194354784459925,-0.042075,-0.1439625,-0.0319
1680014366433,1194354786962310,-0.040975,-0.139975,-0.0279125
1680014366434,1194354789464541,-0.036025,-0.128975,-0.02695
1680014366437,1194354791966925,-0.0350625,-0.1219625,-0.0248875
1680014366440,1194354794469079,-0.0350625,-0.1208625,-0.02585
1680014366444,1194354796971296,-0.0320375,-0.117975,-0.0229625
1680014366448,1194354799473450,-0.0320375,-0.11495,-0.0218625
1680014366449,1194354801975604,-0.02805,-0.1098625,-0.0218625
1680014366449,1194354804477988,-0.031075,-0.1079375,-0.0188375
1680014366452,1194354806980142,-0.0320375,-0.1079375,-0.0218625
1680014366455,1194354809482604,-0.031075,-0.10395,-0.0248875
1680014366460,1194354811984757,-0.029975,-0.0999625,-0.0248875
1680014366461,1194354814486988,-0.0290125,-0.0988625,-0.0298375
1680014366463,1194354816989142,-0.0290125,-0.0979,-0.0339625
1680014366465,1194354819491512,-0.02805,-0.094875,-0.036849998
1680014366466,1194354821993666,-0.0290125,-0.0939125,-0.03795
1680014366470,1194354824495896,-0.0290125,-0.095975,-0.03795
1680014366473,1194354826998281,-0.029975,-0.10285,-0.034925
1680014366474,1194354829500512,-0.033,-0.1049125,-0.0279125
1680014366477,1194354832002642,-0.0369875,-0.1018875,-0.0319
1680014366482,1194354834504795,-0.039049998,-0.1128875,-0.028875
1680014366483,1194354837007180,-0.039049998,-0.1189375,-0.023924999
1680014366485,1194354839509411,-0.039049998,-0.1199,-0.0248875
1680014366488,1194354842011565,-0.039049998,-0.1219625,-0.0229625
1680014366490,1194354844513949,-0.039049998,-0.127875,-0.0248875
1680014366497,1194354847016103,-0.0400125,-0.1318625,-0.0248875
1680014366500,1194354849518248,-0.0400125,-0.1379125,-0.02585
1680014366500,1194354852020479,-0.040975,-0.14093749,-0.02585
1680014366500,1194354854522940,-0.0380875,-0.144925,-0.0248875
1680014366503,1194354857025094,-0.0369875,-0.1519375,-0.0218625
1680014366504,1194354859527248,-0.0369875,-0.1529,-0.023924999
1680014366507,1194354862029633,-0.0380875,-0.1568875,-0.0229625
1680014366509,1194354864531786,-0.0400125,-0.1639,-0.0188375
1680014366512,1194354867034017,-0.040975,-0.1678875,-0.0188375
1680014366517,1194354869536171,-0.0400125,-0.1709125,-0.017875
1680014366519,1194354872038556,-0.0380875,-0.1758625,-0.0169125
1680014366521,1194354874540775,-0.039049998,-0.18095,-0.0169125
1680014366524,1194354877043160,-0.0400125,-0.1879625,-0.012925
1680014366527,1194354879545314,-0.0430375,-0.1929125,-0.0099
1680014366528,1194354882047468,-0.040975,-0.19195,-0.0089375
1680014366530,1194354884549709,-0.040975,-0.19085,-0.006875
1680014366534,1194354887052093,-0.040975,-0.1978625,-0.0059125
1680014366536,1194354889554247,-0.039049998,-0.1978625,-0.0028875
1680014366538,1194354892056478,-0.044,-0.20185,1.375E-4
1680014366539,1194354894558632,-0.0479875,-0.2039125,-9.625E-4
1680014366543,1194354897060800,-0.047025,-0.2008875,0.0011
1680014366544,1194354899563184,-0.044,-0.199925,0.0020625
1680014366547,1194354902065415,-0.0460625,-0.199925,0.004125
1680014366550,1194354904567810,-0.042075,-0.199925,0.00605
1680014366553,1194354907069963,-0.0400125,-0.199925,0.00605
1680014366554,1194354909572194,-0.0430375,-0.194975,0.009075
1680014366557,1194354912074348,-0.044,-0.19195,0.0111375
1680014366560,1194354914576733,-0.0400125,-0.1859,0.0100375
1680014366565,1194354917078963,-0.0400125,-0.18287499,0.013062499
1680014366567,1194354919581117,-0.033,-0.1788875,0.0160875
1680014366568,1194354922083502,-0.0320375,-0.1758625,0.0160875
1680014366571,1194354924585742,-0.031075,-0.1739375,0.0191125
1680014366574,1194354927087896,-0.031075,-0.1648625,0.020075
1680014366576,1194354929590049,-0.029975,-0.161975,0.020075
1680014366577,1194354932092511,-0.0270875,-0.1538625,0.020075
1680014366582,1194354934594665,-0.0240625,-0.14685,0.0231
1680014366583,1194354937096809,-0.0231,-0.139975,0.0221375
1680014366584,1194354939599193,-0.0180125,-0.13585,0.0231
1680014366587,1194354942101347,-0.018975,-0.12485,0.0240625
1680014366590,1194354944603578,-0.0149875,-0.1208625,0.026124999
1680014366593,1194354947105742,-0.011,-0.116875,0.02915
1680014366594,1194354949608203,-0.0100375,-0.1098625,0.0251625
1680014366598,1194354952110357,-0.0070125,-0.1018875,0.0270875
1680014366599,1194354954612511,-0.0039875,-0.094875,0.0270875
1680014366603,1194354957114911,9.625E-4,-0.0878625,0.026124999
1680014366604,1194354959617064,0.001925,-0.0798875,0.02805
1680014366608,1194354962119295,0.001925,-0.067925,0.0301125
1680014366610,1194354964621680,0.0089375,-0.0609125,0.0270875
1680014366613,1194354967123858,0.011,-0.051975,0.0270875
1680014366616,1194354969626012,0.0119624995,-0.0449625,0.0270875
1680014366617,1194354972128242,0.0169125,-0.0358875,0.0270875
1680014366620,1194354974630704,0.0180125,-0.028875,0.02915
1680014366622,1194354977132858,0.0199375,-0.0169125,0.02805
1680014366624,1194354979635016,0.022,-0.0108624995,0.02805
1680014366627,1194354982137400,0.022,-0.0059125,0.02805
1680014366630,1194354984639554,0.0259875,0.0020625,0.026124999
1680014366632,1194354987141785,0.0290125,0.013062499,0.0270875
1680014366634,1194354989644165,0.025024999,0.0191125,0.0251625
1680014366637,1194354992146396,0.022,0.0210375,0.0251625
1680014366640,1194354994648550,0.02695,0.02915,0.0270875
1680014366643,1194354997150935,0.0319,0.0331375,0.0251625
1680014366646,1194354999653113,0.0319,0.036025,0.0231
1680014366648,1194355002155266,0.0339625,0.0380875,0.020075
1680014366650,1194355004657728,0.0339625,0.0460625,0.0191125
1680014366653,1194355007159882,0.033,0.05115,0.020075
1680014366655,1194355009662036,0.034925,0.053075,0.0191125
1680014366657,1194355012164290,0.03795,0.053075,0.015125
1680014366659,1194355014666444,0.0389125,0.0570625,0.01705
1680014366662,1194355017168598,0.0400125,0.0551375,0.01705
1680014366665,1194355019671060,0.03795,0.0540375,0.015125
1680014366667,1194355022173434,0.0389125,0.0561,0.014162499
1680014366670,1194355024675588,0.0389125,0.053075,0.015125
1680014366672,1194355027177742,0.03795,0.0521125,0.015125
1680014366674,1194355029679973,0.0369875,0.0540375,0.0160875
1680014366677,1194355032182141,0.036025,0.0540375,0.0160875
1680014366679,1194355034684525,0.0319,0.050049998,0.014162499
1680014366684,1194355037186756,0.029975,0.0490875,0.014162499
1680014366687,1194355039688910,0.0259875,0.05115,0.013062499
1680014366688,1194355042191300,0.022,0.0490875,0.0121
1680014366690,1194355044693530,0.0209,0.0460625,0.014162499
1680014366693,1194355047195684,0.018975,0.0441375,0.014162499
1680014366695,1194355049697838,0.01595,0.0380875,0.0100375
1680014366697,1194355052200300,0.0169125,0.0350625,0.00715
1680014366699,1194355054702453,0.0119624995,0.0331375,0.00715
1680014366702,1194355057204607,0.011,0.0240625,0.00605
1680014366705,1194355059706992,0.0119624995,0.0191125,0.0031625
1680014366708,1194355062209151,0.012925,0.015125,0.0011
1680014366709,1194355064711381,0.014025,0.0050875,0.0020625
1680014366712,1194355067213766,0.014025,0.0011,-9.625E-4
1680014366715,1194355069715997,0.011,-0.00385,0.0011
1680014366718,1194355072218112,0.0099,-0.0119624995,-0.001925
1680014366722,1194355074720266,0.0099,-0.0169125,-0.00495
1680014366726,1194355077221458,0.014025,-0.0218625,-0.00495
1680014366726,1194355079722651,0.01595,-0.02695,-0.00495
1680014366728,1194355082227281,0.012925,-0.029975,-0.00495
1680014366729,1194355084729434,0.014025,-0.034925,-0.00385
1680014366732,1194355087231588,0.0169125,-0.0389125,-0.00385
1680014366736,1194355089733819,0.018975,-0.040975,-0.00495
1680014366737,1194355092236204,0.018975,-0.0449625,-0.0059125
1680014366741,1194355094738132,0.0169125,-0.0499125,-0.00495
1680014366742,1194355097240516,0.0180125,-0.047849998,-0.0059125
1680014366745,1194355099742978,0.0169125,-0.050875,-0.00385
1680014366747,1194355102245132,0.0169125,-0.050875,-0.00385
1680014366750,1194355104747286,0.022,-0.04895,-0.00495
1680014366752,1194355107249520,0.023924999,-0.0499125,-0.0059125
1680014366754,1194355109751674,0.0229625,-0.04895,-0.00385
1680014366759,1194355112254059,0.0199375,-0.051975,-0.0028875
1680014366761,1194355114756261,0.0209,-0.04895,-0.001925
1680014366763,1194355117258645,0.022,-0.047849998,-9.625E-4
1680014366766,1194355119760799,0.025024999,-0.047849998,-0.0028875
1680014366767,1194355122262953,0.0259875,-0.0468875,-9.625E-4
1680014366770,1194355124765184,0.02695,-0.04895,-9.625E-4
1680014366772,1194355127267314,0.0279125,-0.051975,-0.0028875
1680014366774,1194355129769775,0.0290125,-0.0499125,-0.0028875
1680014366776,1194355132271929,0.0290125,-0.0499125,1.375E-4
1680014366780,1194355134774083,0.02695,-0.051975,0.0011
1680014366783,1194355137276478,0.02695,-0.047849998,-0.001925
1680014366785,1194355139778708,0.02695,-0.047849998,-0.0028875
1680014366787,1194355142280862,0.029975,-0.0429,-0.00495
1680014366790,1194355144783247,0.0279125,-0.0438625,-0.00385
1680014366792,1194355147285497,0.02695,-0.0419375,-0.00385
1680014366797,1194355149787650,0.02695,-0.0438625,-0.0059125
1680014366798,1194355152289804,0.029975,-0.0449625,-0.00495
1680014366800,1194355154792189,0.029975,-0.0429,-0.0059125
1680014366804,1194355157294338,0.023924999,-0.0419375,-0.006875
1680014366806,1194355159796799,0.0290125,-0.03795,-0.00495
1680014366807,1194355162298953,0.0259875,-0.0389125,-9.625E-4
1680014366809,1194355164801184,0.02695,-0.0358875,1.375E-4
1680014366813,1194355167303338,0.02695,-0.0339625,-0.00495
1680014366815,1194355169805497,0.0259875,-0.034925,-0.0078375
1680014366818,1194355172307881,0.0259875,-0.028875,-0.00385
1680014366820,1194355174810035,0.0279125,-0.0279125,-0.00495
1680014366823,1194355177312497,0.0290125,-0.0248875,-0.00495
1680014366825,1194355179814640,0.02695,-0.0199375,-0.0028875
1680014366828,1194355182316794,0.0279125,-0.0169125,-0.006875
1680014366829,1194355184819025,0.033,-0.018975,-0.0059125
1680014366834,1194355187321179,0.0339625,-0.01595,-0.0059125
1680014366836,1194355189823579,0.033,-0.012925,-0.00495
1680014366838,1194355192325809,0.0339625,-0.0108624995,-0.00495
1680014366840,1194355194828194,0.0339625,-0.0138875,-0.006875
1680014366844,1194355197330348,0.036025,-0.0138875,-0.006875
1680014366845,1194355199832502,0.0369875,-0.0099,-0.006875
1680014366850,1194355202334722,0.034925,-0.012925,-0.006875
1680014366851,1194355204836876,0.036025,-0.01485,-0.0099
1680014366853,1194355207339338,0.03795,-0.018975,-0.0089375
1680014366855,1194355209841492,0.0339625,-0.02585,-0.0108624995
1680014366857,1194355212343882,0.034925,-0.02695,-0.01485
1680014366859,1194355214846036,0.03795,-0.02695,-0.01595
1680014366864,1194355217348190,0.03795,-0.0339625,-0.01595
1680014366866,1194355219850421,0.0400125,-0.0389125,-0.012925
1680014366867,1194355222352805,0.0400125,-0.0438625,-0.01595
1680014366873,1194355224855007,0.0400125,-0.04895,-0.0199375
1680014366874,1194355227357161,0.0389125,-0.0548625,-0.0218625
1680014366876,1194355229859315,0.0400125,-0.061875,-0.0229625
1680014366878,1194355232361699,0.040975,-0.0669625,-0.023924999
1680014366880,1194355234863930,0.0400125,-0.0768625,-0.0248875
1680014366883,1194355237366320,0.0389125,-0.0829125,-0.0279125
1680014366885,1194355239868474,0.036025,-0.0908875,-0.02695
1680014366887,1194355242370705,0.0419375,-0.0988625,-0.02695
1680014366890,1194355244872858,0.0400125,-0.1049125,-0.0279125
1680014366892,1194355247375012,0.03795,-0.108899996,-0.028875
1680014366894,1194355249877430,0.03795,-0.1189375,-0.028875
1680014366897,1194355252379584,0.034925,-0.12485,-0.0298375
1680014366900,1194355254882045,0.036025,-0.1299375,-0.0339625
1680014366904,1194355257384199,0.034925,-0.1379125,-0.0328625
1680014366908,1194355259886401,0.0290125,-0.14685,-0.036849998
1680014366909,1194355262388555,0.0229625,-0.1538625,-0.036849998
1680014366911,1194355264890939,0.023924999,-0.161975,-0.036849998
1680014366913,1194355267393093,0.023924999,-0.1709125,-0.036849998
1680014366915,1194355269895320,0.0229625,-0.172975,-0.039875
1680014366917,1194355272397705,0.018975,-0.177925,-0.039875
1680014366919,1194355274899858,0.01595,-0.18287499,-0.0429
1680014366923,1194355277402012,0.012925,-0.1898875,-0.0449625
1680014366925,1194355279904243,0.012925,-0.193875,-0.0449625
1680014366927,1194355282406623,0.0119624995,-0.1978625,-0.0438625
1680014366929,1194355284908853,0.0089375,-0.1969,-0.047849998
1680014366932,1194355287411007,0.0099,-0.2008875,-0.050875
1680014366934,1194355289913392,0.0059125,-0.205975,-0.0518375
1680014366938,1194355292415565,0.0059125,-0.2039125,-0.0518375
1680014366940,1194355294917719,0.0059125,-0.2099625,-0.0518375
1680014366943,1194355297419949,0.00495,-0.2099625,-0.0539
1680014366949,1194355299922305,0.0039875,-0.21285,-0.0539
1680014366950,1194355302424536,9.625E-4,-0.2118875,-0.0548625
1680014366950,1194355304926690,-0.0011,-0.21395,-0.056925
1680014366952,1194355307429074,-0.00605,-0.21285,-0.0559625
1680014366955,1194355309931228,-0.007975,-0.2149125,-0.0548625
1680014366958,1194355312433459,-0.007975,-0.2149125,-0.0559625
1680014366960,1194355314935623,-0.0100375,-0.2118875,-0.0559625
1680014366967,1194355317438007,-0.0100375,-0.210925,-0.0539
1680014366968,1194355319940238,-0.0121,-0.2088625,-0.0529375
1680014366968,1194355322442387,-0.013062499,-0.205975,-0.050875
1680014366970,1194355324944541,-0.014025,-0.20185,-0.04895
1680014366973,1194355327446925,-0.018975,-0.1989625,-0.0449625
1680014366974,1194355329949079,-0.0121,-0.1959375,-0.0419375
1680014366977,1194355332451541,-0.0149875,-0.1868625,-0.0419375
1680014366980,1194355334953714,-0.0160875,-0.1819125,-0.0419375
1680014366984,1194355337455945,-0.018975,-0.1749,-0.03795
1680014366986,1194355339958098,-0.0180125,-0.16995,-0.034925
1680014366988,1194355342460252,-0.0180125,-0.1639,-0.0339625
1680014366990,1194355344962618,-0.020075,-0.1538625,-0.0319
1680014366994,1194355347464849,-0.022,-0.1439625,-0.0279125
1680014366995,1194355349967002,-0.018975,-0.14093749,-0.0279125
1680014366999,1194355352469387,-0.0180125,-0.1299375,-0.0279125
1680014367000,1194355354971541,-0.0180125,-0.1219625,-0.0248875
1680014367003,1194355357474016,-0.0210375,-0.116875,-0.0209
1680014367005,1194355359976170,-0.018975,-0.1079375,-0.0188375
1680014367008,1194355362478324,-0.020075,-0.0969375,-0.01485
1680014367010,1194355364980555,-0.020075,-0.089925,-0.0119624995
1680014367013,1194355367482695,-0.0210375,-0.0878625,-0.01485
1680014367016,1194355369985079,-0.022,-0.0829125,-0.012925
1680014367017,1194355372487310,-0.0210375,-0.073975,-0.0099
1680014367021,1194355374989695,-0.0231,-0.0669625,-0.0119624995
1680014367024,1194355377491829,-0.022,-0.064899996,-0.0108624995
1680014367026,1194355379994059,-0.022,-0.0669625,-0.0089375
1680014367027,1194355382496213,-0.025024999,-0.0639375,-0.0089375
1680014367030,1194355384998367,-0.0270875,-0.0609125,-0.006875
1680014367033,1194355387500829,-0.025024999,-0.05995,-0.0078375
1680014367035,1194355390002983,-0.0270875,-0.0578875,-0.0089375
1680014367038,1194355392505136,-0.029975,-0.058849998,-0.0078375
1680014367040,1194355395007521,-0.02805,-0.056925,-0.006875
1680014367045,1194355397509675,-0.0290125,-0.0499125,-0.0059125
1680014367045,1194355400011829,-0.029975,-0.051975,-0.0028875
1680014367050,1194355402514060,-0.0320375,-0.051975,-0.00495
1680014367050,1194355405016521,-0.0270875,-0.047849998,-0.00495
1680014367053,1194355407518675,-0.02805,-0.047849998,-0.00385
1680014367055,1194355410020825,-0.031075,-0.0449625,-0.00495
1680014367059,1194355412523209,-0.029975,-0.0468875,-0.001925
1680014367062,1194355415025363,-0.0270875,-0.045925,-9.625E-4
1680014367063,1194355417527594,-0.0240625,-0.047849998,1.375E-4
1680014367065,1194355420029950,-0.0259875,-0.050875,0.0011
1680014367067,1194355422532103,-0.025024999,-0.0539,0.0011
1680014367070,1194355425034334,-0.025024999,-0.058849998,0.0011
1680014367074,1194355427536719,-0.025024999,-0.05995,0.0011
1680014367075,1194355430038873,-0.0240625,-0.0609125,0.0011
1680014367077,1194355432541041,-0.0259875,-0.064899996,0.0020625
1680014367080,1194355435043502,-0.025024999,-0.062975,0.0020625
1680014367083,1194355437545656,-0.022,-0.0768625,1.375E-4
1680014367085,1194355440047810,-0.0231,-0.0779625,0.0011
1680014367089,1194355442550046,-0.0270875,-0.08085,1.375E-4
1680014367090,1194355445052199,-0.0259875,-0.089925,1.375E-4
1680014367093,1194355447554353,-0.025024999,-0.0979,-9.625E-4
1680014367096,1194355450056815,-0.02805,-0.0988625,-9.625E-4
1680014367099,1194355452559194,-0.025024999,-0.0988625,1.375E-4
1680014367100,1194355455061348,-0.0259875,-0.106975,-0.0028875
1680014367103,1194355457563502,-0.0270875,-0.1109625,-0.00385
1680014367105,1194355460065733,-0.0259875,-0.1109625,-0.00385
1680014367108,1194355462567887,-0.02805,-0.1159125,-0.00495
1680014367110,1194355465070372,-0.031075,-0.1189375,-0.0028875
1680014367112,1194355467572526,-0.029975,-0.1199,-0.00385
1680014367116,1194355470074680,-0.02805,-0.116875,-0.00495
1680014367118,1194355472577065,-0.0270875,-0.11495,-0.0059125
1680014367121,1194355475079329,-0.02805,-0.11495,-0.0059125
1680014367124,1194355477581483,-0.0231,-0.1109625,-0.00495
1680014367125,1194355480083637,-0.025024999,-0.1098625,-0.0059125
1680014367127,1194355482586099,-0.0240625,-0.1049125,-0.00495
1680014367130,1194355485088253,-0.022,-0.100925,-0.0059125
1680014367134,1194355487590391,-0.025024999,-0.100925,-0.006875
1680014367136,1194355490092776,-0.0210375,-0.0939125,-0.0078375
1680014367138,1194355492594930,-0.018975,-0.089925,-0.006875
1680014367140,1194355495097161,-0.01705,-0.089925,-0.0059125
1680014367142,1194355497599545,-0.0160875,-0.084975,-0.0059125
1680014367145,1194355500101786,-0.0160875,-0.078925,-0.0028875
1680014367151,1194355502603940,-0.014025,-0.0759,-0.0028875
1680014367151,1194355505106094,-0.014025,-0.0669625,-0.0028875
1680014367153,1194355507608478,-0.01705,-0.0639375,-0.001925
1680014367155,1194355510110622,-0.0149875,-0.058849998,1.375E-4
1680014367157,1194355512613084,-0.014025,-0.050875,0.0011
1680014367160,1194355515115238,-0.0149875,-0.0468875,0.004125
1680014367163,1194355517617391,-0.0149875,-0.0429,0.00605
1680014367166,1194355520119637,-0.014025,-0.034925,0.00605
1680014367168,1194355522622022,-0.014025,-0.0309375,0.0081124995
1680014367173,1194355525124176,-0.0121,-0.02695,0.0111375
1680014367175,1194355527626407,-0.011,-0.0209,0.0121
1680014367176,1194355530128800,-0.014025,-0.01485,0.014162499
1680014367178,1194355532630954,-0.014025,-0.007975,0.0160875
1680014367180,1194355535133108,-0.014025,-0.001925,0.0191125
1680014367183,1194355537635339,-0.011,-9.625E-4,0.0191125
1680014367185,1194355540137492,-0.009075,0.004125,0.0221375
1680014367188,1194355542639969,-0.009075,0.0081124995,0.0251625
1680014367192,1194355545142123,-0.0121,0.013062499,0.0251625
1680014367194,1194355547644507,-0.009075,0.01815,0.026124999
1680014367195,1194355550146661,-0.00605,0.0210375,0.02915
1680014367197,1194355552648815,-0.007975,0.025024999,0.031075
1680014367201,1194355555151064,-0.0050875,0.031075,0.0320375
1680014367203,1194355557653218,-0.00605,0.0301125,0.0301125
1680014367205,1194355560155679,-0.0070125,0.0341,0.0341
1680014367209,1194355562657818,-0.003025,0.036025,0.0331375
1680014367212,1194355565159972,-0.0050875,0.039049998,0.0331375
1680014367214,1194355567662357,-0.0,0.04015,0.0320375
1680014367216,1194355570164587,-0.0,0.0411125,0.0320375
1680014367218,1194355572666741,0.001925,0.0460625,0.0320375
1680014367220,1194355575169141,0.0070125,0.047025,0.031075
1680014367223,1194355577671372,0.003025,0.048125,0.0320375
1680014367225,1194355580173526,0.003025,0.048125,0.0301125
1680014367227,1194355582675679,0.00495,0.050049998,0.02805
1680014367230,1194355585178054,0.0059125,0.047025,0.0270875
1680014367233,1194355587680208,0.0070125,0.047025,0.02805
1680014367235,1194355590182669,0.0099,0.0411125,0.0251625
1680014367237,1194355592684823,0.011,0.0460625,0.0240625
1680014367241,1194355595186982,0.011,0.0430375,0.0231
1680014367244,1194355597689213,0.012925,0.0411125,0.0240625
1680014367247,1194355600191367,0.0119624995,0.037125,0.0231
1680014367249,1194355602693751,0.011,0.0341,0.01705
1680014367252,1194355605195963,0.01595,0.0301125,0.0191125
1680014367253,1194355607698348,0.0180125,0.02805,0.013062499
1680014367255,1194355610200502,0.0180125,0.0240625,0.013062499
1680014367257,1194355612702655,0.0180125,0.0210375,0.014162499
1680014367260,1194355615204886,0.0199375,0.015125,0.0111375
1680014367263,1194355617707025,0.023924999,0.0111375,0.0081124995
1680014367265,1194355620209410,0.0209,0.0100375,0.009075
1680014367267,1194355622711641,0.0229625,0.00715,0.0081124995
1680014367270,1194355625214025,0.0229625,0.0020625,0.0081124995
1680014367273,1194355627716189,0.0229625,0.003025,0.0081124995
1680014367275,1194355630218343,0.0259875,0.0020625,0.00715
1680014367278,1194355632720574,0.0279125,-9.625E-4,0.0050875
1680014367281,1194355635222727,0.02695,1.375E-4,0.0050875
1680014367286,1194355637725155,0.0279125,-0.00385,0.0031625
1680014367287,1194355642727309,0.0279125,-0.00385,0.0050875
1680014367289,1194355642833463,0.029975,-0.0028875,0.00715
1680014367292,1194355645231847,0.029975,-0.006875,0.0050875
1680014367296,1194355647851025,0.0290125,-0.007975,0.004125
1680014367297,1194355650236256,0.033,-0.006875,0.004125
1680014367299,1194355652738641,0.0319,-0.0099,0.00605
1680014367300,1194355655240871,0.033,-0.006875,0.0031625
1680014367303,1194355657743025,0.033,-0.007975,0.004125
1680014367305,1194355660245179,0.0339625,-0.0059125,0.0050875
1680014367307,1194355662747564,0.033,-0.007975,0.00605
1680014367311,1194355665249718,0.033,-0.007975,0.00605
1680014367313,1194355667751948,0.034925,-0.007975,0.00715
1680014367317,1194355670254333,0.03795,-0.0059125,0.00715
1680014367319,1194355672756554,0.036025,-0.007975,0.00715
1680014367324,1194355675258708,0.036025,-0.001925,0.009075
1680014367326,1194355677759785,0.0389125,0.003025,0.0100375
1680014367326,1194355680260862,0.0389125,0.0020625,0.0100375
1680014367327,1194355682765477,0.036025,0.0081124995,0.0111375
1680014367330,1194355685267861,0.034925,0.0121,0.013062499
1680014367333,1194355687770015,0.03795,0.01815,0.0121
1680014367335,1194355690272169,0.0369875,0.0231,0.0160875
1680014367338,1194355692774400,0.040975,0.0270875,0.0160875
1680014367340,1194355695276713,0.0389125,0.0331375,0.015125
1680014367343,1194355697778866,0.03795,0.0380875,0.01705
1680014367345,1194355700281097,0.0419375,0.0441375,0.015125
1680014367348,1194355702783482,0.045925,0.048125,0.0210375
1680014367350,1194355705285622,0.0429,0.050049998,0.0210375
1680014367353,1194355707787775,0.047025,0.0521125,0.0221375
1680014367355,1194355710290006,0.051975,0.0551375,0.0210375
1680014367361,1194355712792160,0.0529375,0.058025,0.0231
1680014367364,1194355715294545,0.058025,0.0600875,0.0231
1680014367365,1194355717796776,0.058025,0.06215,0.0231
1680014367366,1194355720299160,0.0589875,0.06215,0.0251625
1680014367368,1194355722801314,0.064899996,0.06215,0.0231
1680014367370,1194355725303468,0.062975,0.064075,0.0231
1680014367373,1194355727805703,0.066,0.0631125,0.0270875
1680014367375,1194355730308087,0.066,0.0600875,0.0251625
1680014367378,1194355732810241,0.069025,0.06215,0.0270875
1680014367380,1194355735312472,0.0730125,0.0600875,0.02805
1680014367383,1194355737814642,0.073975,0.0570625,0.0270875
1680014367386,1194355740317026,0.069025,0.0551375,0.0270875
1680014367388,1194355742819257,0.0669625,0.05115,0.026124999
1680014367392,1194355745321642,0.066,0.050049998,0.02805
1680014367393,1194355747823796,0.062975,0.048125,0.0301125
1680014367400,1194355750325949,0.0609125,0.0451,0.02915
1680014367401,1194355752828180,0.0589875,0.039049998,0.02915
1680014367402,1194355755330570,0.056925,0.0411125,0.0301125
1680014367404,1194355757832724,0.0529375,0.039049998,0.02805
1680014367406,1194355760334954,0.0529375,0.036025,0.02915
1680014367408,1194355762837108,0.0510125,0.0320375,0.0270875
1680014367410,1194355765339493,0.044,0.0270875,0.026124999
1680014367413,1194355767841666,0.040975,0.0240625,0.0251625
1680014367416,1194355770344127,0.040975,0.0210375,0.0221375
1680014367418,1194355772846281,0.0419375,0.0191125,0.020075
1680014367420,1194355775348512,0.036025,0.0160875,0.020075
1680014367423,1194355777850680,0.033,0.00605,0.015125
1680014367426,1194355780352834,0.034925,0.003025,0.013062499
1680014367428,1194355782855218,0.029975,1.375E-4,0.0111375
1680014367430,1194355785357372,0.029975,-0.001925,0.0100375
1680014367435,1194355787859598,0.0290125,-0.00495,0.0050875
1680014367436,1194355790361983,0.023924999,-0.0108624995,0.0031625
1680014367438,1194355792864136,0.022,-0.0138875,0.0011
1680014367441,1194355795366367,0.022,-0.012925,0.0011
1680014367444,1194355797868521,0.025024999,-0.0108624995,-9.625E-4
1680014367445,1194355800370897,0.023924999,-0.0099,-0.0059125
1680014367449,1194355802873127,0.0199375,-0.0119624995,-0.0059125
1680014367450,1194355805375512,0.014025,-0.006875,-0.006875
1680014367453,1194355807877666,0.0180125,-0.0059125,-0.0108624995
1680014367455,1194355810379820,0.0169125,-0.0059125,-0.012925
1680014367458,1194355812882083,0.0169125,1.375E-4,-0.012925
1680014367460,1194355815384468,0.018975,0.0011,-0.01485
1680014367463,1194355817886699,0.0199375,0.0011,-0.01595
1680014367465,1194355820388853,0.0180125,0.0050875,-0.01595
1680014367468,1194355822891208,0.0199375,0.0100375,-0.0169125
1680014367472,1194355825393362,0.018975,0.01815,-0.017875
1680014367474,1194355827895516,0.014025,0.0231,-0.0188375
1680014367476,1194355830397752,0.0199375,0.0210375,-0.0199375
1680014367478,1194355832900136,0.022,0.0221375,-0.017875
1680014367481,1194355835402290,0.0169125,0.02805,-0.0188375
1680014367484,1194355837904521,0.0169125,0.0301125,-0.01595
1680014367486,1194355840406675,0.014025,0.0301125,-0.01485
1680014367488,1194355842909060,0.014025,0.0341,-0.012925
1680014367491,1194355845411213,0.012925,0.0341,-0.01485
1680014367493,1194355847913444,0.0099,0.0320375,-0.0108624995
1680014367495,1194355850415829,0.0059125,0.036025,-0.0059125
1680014367500,1194355852918075,0.0070125,0.0411125,-0.00385
1680014367501,1194355855420228,0.0089375,0.0430375,-0.00385
1680014367503,1194355857922382,0.003025,0.0430375,-0.00495
1680014367505,1194355860424767,-0.0,0.0460625,-0.00385
1680014367509,1194355862926997,-0.003025,0.047025,0.0011
1680014367513,1194355865429458,-0.0039875,0.048125,0.0031625
1680014367515,1194355867931612,-0.00605,0.05115,0.0050875
1680014367516,1194355870433843,-0.007975,0.05115,0.009075
1680014367519,1194355872935997,-0.009075,0.050049998,0.0100375
1680014367523,1194355875438136,-0.0100375,0.0540375,0.0100375
1680014367525,1194355877940520,-0.013062499,0.0570625,0.0121
1680014367526,1194355880442751,-0.013062499,0.0561,0.014162499
1680014367529,1194355882944905,-0.013062499,0.06215,0.015125
1680014367534,1194355885447286,-0.0160875,0.058025,0.01705
1680014367535,1194355887949516,-0.0160875,0.0551375,0.0160875
1680014367535,1194355890451670,-0.014025,0.058025,0.0191125
1680014367538,1194355892953824,-0.0121,0.0570625,0.0210375
1680014367540,1194355895456277,-0.011,0.0600875,0.0221375
1680014367543,1194355897958430,-0.013062499,0.058025,0.0240625
1680014367547,1194355900460815,-0.007975,0.0551375,0.0240625
1680014367549,1194355902962969,-0.00605,0.0551375,0.0240625
1680014367551,1194355905465127,-0.0070125,0.05115,0.026124999
1680014367553,1194355907967357,-0.0070125,0.048125,0.0251625
1680014367557,1194355910469742,-0.0050875,0.0411125,0.0251625
1680014367558,1194355912971973,-0.0039875,0.036025,0.0231
1680014367561,1194355915474142,-0.003025,0.0320375,0.0231
1680014367564,1194355917976526,-0.0039875,0.0240625,0.0231
1680014367566,1194355920478680,-0.0050875,0.0191125,0.0191125
1680014367568,1194355922980834,-0.0039875,0.014025,0.0191125
1680014367570,1194355925483065,-0.003025,0.0100375,0.015125
1680014367573,1194355927985468,-0.00605,0.003025,0.014162499
1680014367575,1194355930487622,-0.0070125,-0.001925,0.0111375
1680014367578,1194355932989853,-0.0070125,-0.00495,0.0121
1680014367580,1194355935492007,-0.007975,-0.012925,0.0111375
1680014367585,1194355937994402,-0.0121,-0.018975,0.0081124995
1680014367589,1194355940496555,-0.0149875,-0.0199375,0.00715
1680014367589,1194355942999017,-0.01705,-0.017875,0.0050875
1680014367592,1194355945501185,-0.018975,-0.0248875,0.004125
1680014367597,1194355948003416,-0.0180125,-0.029975,0.0031625
1680014367597,1194355950505569,-0.020075,-0.0339625,0.0011
1680014367600,1194355953007723,-0.01705,-0.0389125,1.375E-4
1680014367601,1194355955510108,-0.020075,-0.0429,-0.00385
1680014367604,1194355958012358,-0.020075,-0.045925,-0.00385
1680014367605,1194355960514742,-0.020075,-0.0499125,-0.00495
1680014367607,1194355963016896,-0.022,-0.050875,-0.0089375
1680014367612,1194355965519127,-0.022,-0.051975,-0.0119624995
1680014367613,1194355968021285,-0.020075,-0.0529375,-0.0089375
1680014367616,1194355970523439,-0.020075,-0.05995,-0.006875
1680014367618,1194355973025900,-0.018975,-0.061875,-0.0108624995
1680014367623,1194355975528054,-0.020075,-0.062975,-0.0089375
1680014367625,1194355978030199,-0.018975,-0.064899996,-0.0089375
1680014367626,1194355980532584,-0.0180125,-0.0609125,-0.0108624995
1680014367631,1194355983034737,-0.0180125,-0.0609125,-0.0108624995
1680014367634,1194355985536968,-0.0160875,-0.061875,-0.0089375
1680014367634,1194355988039353,-0.0160875,-0.062975,-0.0089375
1680014367635,1194355990541598,-0.014025,-0.05995,-0.0108624995
1680014367638,1194355993043751,-0.0121,-0.0539,-0.0089375
1680014367642,1194355995546136,-0.009075,-0.050875,-0.0078375
1680014367644,1194355998048290,-0.007975,-0.0529375,-0.0108624995
1680014367646,1194356000550439,-0.009075,-0.047849998,-0.0089375
1680014367649,1194356003052669,-0.00605,-0.0468875,-0.0089375
1680014367651,1194356005555054,-0.00605,-0.045925,-0.006875
1680014367653,1194356008057208,-0.0070125,-0.0419375,-0.0028875
1680014367655,1194356010559439,-0.0050875,-0.0438625,-0.0059125
1680014367661,1194356013061805,-0.00605,-0.040975,-0.00385
1680014367663,1194356015563959,-0.0070125,-0.036849998,-0.006875
1680014367664,1194356018066113,-0.0050875,-0.0358875,-0.0059125
1680014367666,1194356020568575,-0.007975,-0.0319,-9.625E-4
1680014367668,1194356023070728,-0.009075,-0.028875,-0.001925
1680014367674,1194356025572930,-0.009075,-0.0279125,-0.001925
1680014367675,1194356028075084,-0.009075,-0.017875,-0.006875
1680014367676,1194356030577238,-0.007975,-0.01595,-0.00385
1680014367678,1194356033079623,-0.014025,-0.01595,-0.0028875
1680014367686,1194356035581848,-0.0100375,-0.0119624995,0.0020625
1680014367687,1194356038084233,-0.0100375,-0.00385,0.0011
1680014367688,1194356040586387,-0.011,-9.625E-4,0.0011
1680014367689,1194356043088618,-0.011,0.0011,0.0011
1680014367691,1194356045590771,-0.0121,0.00605,-9.625E-4
1680014367694,1194356048092949,-0.0149875,0.00605,-9.625E-4
1680014367699,1194356050595411,-0.0180125,0.0111375,0.0031625
1680014367701,1194356053097565,-0.0149875,0.013062499,0.00605
1680014367703,1194356055599719,-0.0180125,0.01705,0.004125
1680014367704,1194356058102089,-0.0180125,0.0210375,0.0050875
1680014367706,1194356060604320,-0.0180125,0.020075,0.00715
1680014367712,1194356063106474,-0.0180125,0.020075,0.0081124995
1680014367712,1194356065608628,-0.0149875,0.020075,0.0100375
1680014367715,1194356068111089,-0.013062499,0.0231,0.0121
1680014367716,1194356070613228,-0.0149875,0.02915,0.014162499
1680014367720,1194356073115613,-0.0160875,0.02915,0.015125
1680014367723,1194356075617767,-0.0149875,0.031075,0.01705
1680014367725,1194356078119920,-0.0121,0.0301125,0.0191125
1680014367727,1194356080622161,-0.011,0.0221375,0.0210375
1680014367729,1194356083124546,-0.0100375,0.025024999,0.020075
1680014367733,1194356085626777,-0.009075,0.0221375,0.0231
1680014367736,1194356088128930,-0.009075,0.01705,0.0251625
1680014367738,1194356090631315,-0.007975,0.01815,0.0270875
1680014367739,1194356093133469,-0.009075,0.014025,0.02915
1680014367742,1194356095635623,-0.009075,0.0100375,0.02805
1680014367744,1194356098138084,-0.007975,0.0050875,0.0301125
1680014367745,1194356100640238,-0.0070125,-0.001925,0.0301125
1680014367749,1194356103142382,-0.0070125,-0.00385,0.0320375
1680014367752,1194356105644613,-0.00605,-0.0059125,0.0341
1680014367753,1194356108146997,-0.00605,-0.01485,0.0341
1680014367755,1194356110649151,-0.007975,-0.018975,0.0341
1680014367758,1194356113151373,-0.0121,-0.02585,0.0380875
1680014367765,1194356115653758,-0.0100375,-0.0309375,0.039049998
1680014367766,1194356118155911,-0.007975,-0.0358875,0.037125
1680014367767,1194356120658065,-0.007975,-0.0429,0.0331375
1680014367769,1194356123160272,-0.011,-0.047849998,0.0331375
1680014367773,1194356125662657,-0.0121,-0.0499125,0.0320375
1680014367775,1194356128164811,-0.011,-0.0539,0.0301125
1680014367777,1194356130667041,-0.009075,-0.0609125,0.026124999
1680014367779,1194356133169195,-0.007975,-0.064899996,0.0251625
1680014367783,1194356135671580,-0.0070125,-0.0688875,0.0240625
1680014367785,1194356138173811,-0.00605,-0.0719125,0.0221375
1680014367789,1194356140675964,-0.0050875,-0.07095,0.0231
1680014367790,1194356143178349,-0.0011,-0.0719125,0.0210375
1680014367792,1194356145680507,-0.0011,-0.0768625,0.0160875
1680014367794,1194356148182738,-0.0,-0.0779625,0.01705
1680014367796,1194356150684892,0.00495,-0.0798875,0.015125
1680014367798,1194356153187045,0.0070125,-0.078925,0.015125
1680014367803,1194356155689498,0.007975,-0.0798875,0.013062499
1680014367804,1194356158191652,0.014025,-0.08085,0.0121
1680014367806,1194356160694036,0.0119624995,-0.0759,0.014162499
1680014367812,1194356163196190,0.01595,-0.073975,0.013062499
1680014367815,1194356165698421,0.0180125,-0.0719125,0.0121
1680014367815,1194356168200575,0.0180125,-0.0688875,0.013062499
1680014367816,1194356170702960,0.018975,-0.064899996,0.0111375
1680014367818,1194356173205190,0.0199375,-0.0639375,0.009075
1680014367822,1194356175707344,0.0199375,-0.0578875,0.0081124995
1680014367824,1194356178209719,0.022,-0.0529375,0.0100375
1680014367825,1194356180711873,0.0229625,-0.047849998,0.00715
1680014367828,1194356183214103,0.0229625,-0.040975,0.00715
1680014367834,1194356185716502,0.023924999,-0.0319,0.00605
1680014367836,1194356188218733,0.0259875,-0.02585,0.0050875
1680014367836,1194356190720887,0.0209,-0.0199375,1.375E-4
1680014367838,1194356193223040,0.023924999,-0.0089375,1.375E-4
1680014367844,1194356195725454,0.0229625,1.375E-4,-9.625E-4
1680014367846,1194356198227608,0.02695,0.0011,-0.00385
1680014367849,1194356200729839,0.0290125,0.0100375,-0.00495
1680014367850,1194356203232223,0.029975,0.01705,-0.00495
1680014367852,1194356205734454,0.034925,0.0270875,-0.00495
1680014367854,1194356208236608,0.034925,0.0350625,-0.0078375
1680014367856,1194356210738762,0.0319,0.039049998,-0.0108624995
1680014367858,1194356213241146,0.0319,0.0430375,-0.012925
1680014367862,1194356215743377,0.0389125,0.05115,-0.0108624995
1680014367864,1194356218245531,0.0369875,0.058025,-0.012925
1680014367866,1194356220747892,0.03795,0.0650375,-0.0119624995
1680014367868,1194356223250046,0.0369875,0.0760375,-0.01485
1680014367874,1194356225752276,0.03795,0.0771375,-0.01595
1680014367875,1194356228254430,0.03795,0.080025,-0.01595
1680014367877,1194356230756603,0.036025,0.08415,-0.01485
1680014367879,1194356233259065,0.0369875,0.08415,-0.01485
1680014367886,1194356235761444,0.0389125,0.0900625,-0.012925
1680014367888,1194356238263598,0.036025,0.0930875,-0.0169125
1680014367890,1194356243265752,0.036025,0.09405,-0.0169125
1680014367891,1194356243515983,0.036025,0.09515,-0.01485
1680014367893,1194356245770137,0.0319,0.09405,-0.01485
1680014367895,1194356248336598,0.029975,0.0900625,-0.01595
1680014367897,1194356250774743,0.02695,0.091025,-0.01485
1680014367900,1194356253277128,0.02695,0.0891,-0.01485
1680014367903,1194356255779281,0.0259875,0.087037496,-0.017875
1680014367904,1194356258281435,0.023924999,0.08305,-0.0229625
1680014367906,1194356260783666,0.0229625,0.0820875,-0.0218625
1680014367908,1194356263286046,0.0209,0.080025,-0.0199375
1680014367916,1194356265788200,0.022,0.078099996,-0.0209
1680014367918,1194356268290430,0.0180125,0.069025,-0.0248875
1680014367919,1194356270792584,0.0169125,0.0650375,-0.02585
1680014367920,1194356273294954,0.01595,0.0661375,-0.02585
1680014367926,1194356275797108,0.011,0.0650375,-0.0298375
1680014367928,1194356278298223,0.011,0.053075,-0.0298375
1680014367928,1194356280799338,0.014025,0.0460625,-0.0319
1680014367932,1194356283303949,0.011,0.0441375,-0.0339625
1680014367934,1194356285806103,0.0099,0.0430375,-0.034925
1680014367935,1194356288308256,0.0070125,0.037125,-0.036849998
1680014367937,1194356290810641,0.0099,0.0331375,-0.039875
1680014367938,1194356293312795,0.007975,0.025024999,-0.0408375
1680014367942,1194356295815022,0.0089375,0.015125,-0.0389125
1680014367944,1194356298317406,0.011,0.013062499,-0.03795
1680014367946,1194356300819560,0.0070125,0.00605,-0.0429
1680014367949,1194356303321791,0.0089375,0.0020625,-0.0438625
1680014367952,1194356305823940,0.011,-9.625E-4,-0.045925
1680014367953,1194356308326324,0.011,-0.007975,-0.04895
1680014367956,1194356310828555,0.0070125,-0.0108624995,-0.04895
1680014367959,1194356313330709,0.0100375,-0.012925,-0.0518375
1680014367963,1194356315833094,0.011,-0.017875,-0.0518375
1680014367965,1194356318335248,0.011,-0.0209,-0.0529375
1680014367967,1194356320837478,0.011,-0.0248875,-0.056925
1680014367968,1194356323339632,0.012925,-0.02585,-0.0518375
1680014367972,1194356325842017,0.014025,-0.0279125,-0.0559625
1680014367973,1194356328344253,0.0089375,-0.029975,-0.058849998
1680014367976,1194356330846637,0.0169125,-0.0309375,-0.056925
1680014367979,1194356333348791,0.018975,-0.0339625,-0.056925
1680014367982,1194356335850945,0.0169125,-0.0328625,-0.058849998
1680014367983,1194356338353176,0.0169125,-0.0328625,-0.05995
1680014367986,1194356340855560,0.0180125,-0.0319,-0.061875
1680014367988,1194356343357714,0.022,-0.029975,-0.05995
1680014367992,1194356345859945,0.023924999,-0.029975,-0.058849998
1680014367993,1194356348362127,0.022,-0.0279125,-0.058849998
1680014367999,1194356350864511,0.0229625,-0.02585,-0.05995
1680014367999,1194356353366665,0.0229625,-0.0218625,-0.056925
1680014368002,1194356355869127,0.025024999,-0.0169125,-0.0548625
1680014368005,1194356358371272,0.0229625,-0.0169125,-0.0539
1680014368006,1194356360873425,0.022,-0.0119624995,-0.0539
1680014368008,1194356363375656,0.023924999,-0.007975,-0.0539
1680014368012,1194356365877810,0.025024999,-0.00495,-0.0518375
1680014368013,1194356368380195,0.0279125,1.375E-4,-0.04895
1680014368015,1194356370882334,0.025024999,0.0011,-0.0499125
1680014368018,1194356373384564,0.0290125,0.004125,-0.0499125
1680014368021,1194356375886949,0.029975,0.0111375,-0.04895
1680014368023,1194356378389180,0.0259875,0.0191125,-0.0408375
1680014368025,1194356380891329,0.0259875,0.020075,-0.0419375
1680014368028,1194356383393482,0.0279125,0.0191125,-0.0419375
1680014368032,1194356385895867,0.0279125,0.0270875,-0.03795
1680014368035,1194356388398098,0.0279125,0.0270875,-0.036849998
1680014368036,1194356390900267,0.0290125,0.02915,-0.0339625
1680014368040,1194356393402651,0.0290125,0.0350625,-0.034925
1680014368043,1194356395904805,0.0279125,0.036025,-0.0339625
1680014368044,1194356398407036,0.02695,0.037125,-0.0328625
1680014368046,1194356400909195,0.0259875,0.039049998,-0.0339625
1680014368048,1194356403411656,0.0290125,0.037125,-0.0319
1680014368052,1194356405913810,0.0259875,0.0411125,-0.0279125
1680014368053,1194356408416195,0.025024999,0.0441375,-0.0319
1680014368056,1194356410918368,0.02695,0.0430375,-0.028875
1680014368059,1194356413420522,0.0259875,0.0460625,-0.0248875
1680014368062,1194356415922752,0.029975,0.0490875,-0.02585
1680014368063,1194356418425137,0.033,0.0441375,-0.02585
1680014368066,1194356420927301,0.0320375,0.0430375,-0.0248875
1680014368068,1194356423429532,0.034925,0.04015,-0.02585
1680014368073,1194356425931916,0.036025,0.0411125,-0.02695
1680014368075,1194356428434070,0.033,0.0411125,-0.028875
1680014368077,1194356430936238,0.033,0.0331375,-0.0279125
1680014368079,1194356433438699,0.036025,0.0320375,-0.02695
1680014368084,1194356435940853,0.03795,0.0231,-0.0279125
1680014368085,1194356438443007,0.0339625,0.0240625,-0.02585
1680014368087,1194356440945238,0.036025,0.0191125,-0.0279125
1680014368089,1194356443447392,0.0419375,0.0121,-0.0298375
1680014368092,1194356445949776,0.0419375,0.0050875,-0.0279125
1680014368094,1194356448451930,0.0419375,-9.625E-4,-0.028875
1680014368096,1194356450954392,0.040975,-0.0059125,-0.0298375
1680014368101,1194356453456512,0.0430375,-0.01595,-0.02695
1680014368103,1194356455958742,0.0430375,-0.023924999,-0.028875
1680014368104,1194356458460896,0.0430375,-0.0319,-0.0298375
1680014368106,1194356460963050,0.0419375,-0.03795,-0.0358875
1680014368110,1194356463465445,0.0419375,-0.0449625,-0.036849998
1680014368113,1194356465967676,0.040975,-0.04895,-0.0358875
1680014368115,1194356468469829,0.0400125,-0.05995,-0.0389125
1680014368117,1194356470972214,0.0369875,-0.067925,-0.0389125
1680014368119,1194356473474445,0.0369875,-0.0749375,-0.0408375
1680014368125,1194356475976613,0.0339625,-0.0798875,-0.0408375
1680014368125,1194356478478766,0.034925,-0.0878625,-0.0408375
1680014368127,1194356480981228,0.029975,-0.095975,-0.0419375
1680014368128,1194356483483382,0.0320375,-0.1018875,-0.0438625
1680014368133,1194356485985541,0.023924999,-0.1098625,-0.039875
1680014368134,1194356488487925,0.023924999,-0.1159125,-0.0429
1680014368136,1194356490990079,0.025024999,-0.1199,-0.045925
1680014368138,1194356493492310,0.0229625,-0.12595,-0.0438625
1680014368141,1194356495994695,0.0210375,-0.127875,-0.0429
1680014368143,1194356498496848,0.018975,-0.1318625,-0.0449625
1680014368147,1194356500999079,0.0210375,-0.13695,-0.045925
1680014368150,1194356503501233,0.0210375,-0.13585,-0.0438625
1680014368153,1194356506003676,0.01595,-0.139975,-0.0438625
1680014368155,1194356508505829,0.014025,-0.139975,-0.0449625
1680014368160,1194356511007983,0.0119624995,-0.13585,-0.0438625
1680014368160,1194356513510368,0.0089375,-0.133925,-0.0419375
1680014368163,1194356516012507,0.0100375,-0.1318625,-0.0419375
1680014368164,1194356518514738,0.0100375,-0.1299375,-0.0419375
1680014368166,1194356521016891,0.0070125,-0.1199,-0.0389125
1680014368169,1194356523519353,0.0070125,-0.117975,-0.0319
1680014368171,1194356526021507,0.007975,-0.116875,-0.0319
1680014368174,1194356528523676,0.0039875,-0.111925,-0.0319
1680014368175,1194356531026060,0.001925,-0.10285,-0.0279125
1680014368178,1194356533528214,0.0039875,-0.0939125,-0.02585
1680014368183,1194356536030445,9.625E-4,-0.0859375,-0.02695
1680014368185,1194356538532815,-0.0,-0.08085,-0.0218625
1680014368187,1194356541034968,-0.003025,-0.073975,-0.0209
1680014368190,1194356543537199,-0.0039875,-0.064899996,-0.0199375
1680014368193,1194356546039353,-0.00605,-0.0548625,-0.017875
1680014368194,1194356548541738,-0.00605,-0.045925,-0.01485
1680014368196,1194356551043882,-0.007975,-0.0389125,-0.0119624995
1680014368200,1194356553546344,-0.0100375,-0.0319,-0.0089375
1680014368203,1194356556048498,-0.009075,-0.02695,-0.0078375
1680014368204,1194356558550652,-0.0100375,-0.0169125,-0.0059125
1680014368206,1194356561052863,-0.0149875,-0.0108624995,-0.0028875
1680014368208,1194356563555016,-0.0210375,-0.00495,-0.0028875
1680014368212,1194356566057401,-0.0210375,1.375E-4,0.0020625
1680014368214,1194356568559632,-0.018975,0.0100375,0.004125
1680014368217,1194356571061772,-0.020075,0.015125,0.00715
1680014368219,1194356573564156,-0.0229625,0.01705,0.00605
1680014368225,1194356576066310,-0.0240625,0.020075,0.009075
1680014368225,1194356578568541,-0.02805,0.025024999,0.009075
1680014368227,1194356581070685,-0.0259875,0.02915,0.0111375
1680014368229,1194356583573146,-0.0270875,0.031075,0.013062499
1680014368233,1194356586075300,-0.029975,0.031075,0.014162499
1680014368234,1194356588577454,-0.031075,0.0301125,0.015125
1680014368236,1194356591079839,-0.033,0.037125,0.01705
1680014368238,1194356593581967,-0.033,0.0331375,0.0191125
1680014368243,1194356596084198,-0.033,0.02805,0.020075
1680014368244,1194356598586352,-0.036025,0.02915,0.0210375
1680014368246,1194356601088814,-0.0350625,0.0301125,0.0210375
1680014368248,1194356603590963,-0.036025,0.025024999,0.0221375
1680014368252,1194356606093117,-0.0369875,0.0231,0.0231
1680014368254,1194356608595502,-0.039049998,0.0270875,0.0270875
1680014368255,1194356611097656,-0.039049998,0.0210375,0.02805
1680014368262,1194356613599872,-0.0380875,0.020075,0.02805
1680014368263,1194356616102256,-0.040975,0.015125,0.0240625
1680014368266,1194356618604410,-0.042075,0.0160875,0.0270875
1680014368267,1194356621106641,-0.042075,0.0111375,0.02805
1680014368269,1194356623608795,-0.042075,0.00605,0.02805
1680014368272,1194356626111203,-0.0430375,0.004125,0.02805
1680014368274,1194356628613357,-0.040975,0.0020625,0.026124999
1680014368276,1194356631115819,-0.0430375,-0.00385,0.0251625
1680014368279,1194356633617973,-0.0460625,-0.00495,0.0251625
1680014368283,1194356636120117,-0.0460625,-0.0138875,0.0240625
1680014368285,1194356638622348,-0.047025,-0.017875,0.020075
1680014368287,1194356641124733,-0.047025,-0.018975,0.0160875
1680014368289,1194356643626887,-0.047025,-0.02695,0.015125
1680014368292,1194356646129117,-0.0479875,-0.0358875,0.014162499
1680014368296,1194356648631482,-0.047025,-0.03795,0.014162499
1680014368297,1194356651133636,-0.0479875,-0.0429,0.0100375
1680014368300,1194356653635790,-0.0479875,-0.04895,0.009075
1680014368302,1194356656138021,-0.0449625,-0.056925,0.004125
1680014368304,1194356658640169,-0.0460625,-0.0548625,0.0020625
1680014368306,1194356661142631,-0.0460625,-0.0578875,0.0050875
1680014368308,1194356663644785,-0.044,-0.061875,1.375E-4
1680014368312,1194356666146939,-0.044,-0.0639375,-0.00495
1680014368314,1194356668649323,-0.042075,-0.0639375,-0.00495
1680014368317,1194356671151545,-0.040975,-0.0609125,-0.006875
1680014368319,1194356673653699,-0.0380875,-0.061875,-0.0059125
1680014368324,1194356676155853,-0.0380875,-0.058849998,-0.0078375
1680014368325,1194356678658328,-0.0350625,-0.0578875,-0.0089375
1680014368327,1194356681160482,-0.036025,-0.0548625,-0.006875
1680014368329,1194356683662636,-0.0350625,-0.051975,-0.0078375
1680014368333,1194356686165021,-0.029975,-0.050875,-0.0099
1680014368336,1194356688667174,-0.0320375,-0.047849998,-0.00495
1680014368337,1194356691169328,-0.02805,-0.0429,-0.00495
1680014368339,1194356693671790,-0.0270875,-0.0389125,-0.0078375
1680014368342,1194356696174021,-0.025024999,-0.0419375,-0.006875
1680014368344,1194356698676174,-0.025024999,-0.03795,-0.00385
1680014368346,1194356701178323,-0.0240625,-0.0319,-0.0059125
1680014368350,1194356703680708,-0.022,-0.0328625,-0.00495
1680014368352,1194356706182862,-0.018975,-0.028875,-9.625E-4
1680014368354,1194356708685323,-0.018975,-0.02695,-9.625E-4
1680014368356,1194356711187477,-0.020075,-0.0218625,0.0011
1680014368359,1194356713689670,-0.0160875,-0.0199375,1.375E-4
1680014368363,1194356716191901,-0.0160875,-0.018975,0.0011
1680014368364,1194356718694285,-0.018975,-0.01485,0.0020625
1680014368367,1194356721196443,-0.0180125,-0.0138875,0.0020625
1680014368368,1194356723698674,-0.014025,-0.0099,0.004125
1680014368374,1194356726201059,-0.011,-0.006875,0.004125
1680014368376,1194356728703213,-0.013062499,-0.0089375,0.0081124995
1680014368377,1194356731205381,-0.0119624995,-0.0089375,0.009075
1680014368379,1194356733707612,-0.011,-0.0089375,0.0111375
1680014368383,1194356736209766,-0.0100375,-0.006875,0.0111375
1680014368384,1194356738712151,-0.011,-0.00495,0.009075
1680014368386,1194356741214381,-0.0100375,-0.00385,0.0111375
1680014368389,1194356743716530,-0.0100375,-0.00385,0.014162499
1680014368392,1194356746218915,-0.0100375,-0.00385,0.0111375
1680014368394,1194356748721069,-0.007975,-0.001925,0.0121
1680014368396,1194356751223300,-0.011,-0.001925,0.0111375
1680014368399,1194356753725472,-0.0100375,-0.001925,0.0121
1680014368403,1194356756227934,-0.0070125,-9.625E-4,0.013062499
1680014368404,1194356758730088,-0.0,-0.00385,0.014162499
1680014368406,1194356761232242,-9.625E-4,-0.007975,0.013062499
1680014368410,1194356763734626,-0.0050875,-0.006875,0.013062499
1680014368413,1194356766236780,-0.0050875,-0.00495,0.0111375
1680014368416,1194356768739011,-0.003025,-0.0119624995,0.0081124995
1680014368417,1194356771241395,-0.0039875,-0.01485,0.00605
1680014368419,1194356773743626,-0.0039875,-0.0138875,0.004125
1680014368422,1194356776245775,-0.00605,-0.01485,0.00715
1680014368423,1194356778747929,-0.003025,-0.017875,0.0031625
1680014368426,1194356781250314,-0.0039875,-0.018975,0.0020625
1680014368429,1194356783752467,-0.0039875,-0.0218625,0.0020625
1680014368432,1194356786254713,-0.003025,-0.0248875,1.375E-4
1680014368434,1194356788757098,-0.003025,-0.02695,0.0011
1680014368436,1194356791259252,-9.625E-4,-0.029975,-0.001925
1680014368439,1194356793761482,-0.0,-0.0328625,-0.00385
1680014368442,1194356796263650,-9.625E-4,-0.040975,-0.0028875
1680014368444,1194356798766035,-0.003025,-0.0449625,-0.00385
1680014368448,1194356801268266,-0.0011,-0.0438625,-0.00495
1680014368450,1194356803770650,9.625E-4,-0.0449625,-0.0078375
1680014368453,1194356806272818,0.003025,-0.0499125,-0.0099
1680014368454,1194356808774972,-0.0,-0.051975,-0.006875
1680014368456,1194356811277203,-0.0011,-0.056925,-0.0108624995
1680014368458,1194356813779357,-0.003025,-0.056925,-0.0108624995
1680014368462,1194356816281741,-0.0,-0.061875,-0.0099
1680014368463,1194356818783987,0.001925,-0.0669625,-0.0119624995
1680014368466,1194356821286372,9.625E-4,-0.062975,-0.0089375
1680014368469,1194356823788526,-0.0,-0.0609125,-0.01595
1680014368472,1194356826290679,9.625E-4,-0.064899996,-0.01595
1680014368474,1194356828792919,0.00495,-0.0658625,-0.01485
1680014368476,1194356831295073,0.001925,-0.0669625,-0.0169125
1680014368479,1194356833797535,9.625E-4,-0.0688875,-0.01595
1680014368483,1194356836299688,9.625E-4,-0.062975,-0.01485
1680014368486,1194356838801852,0.003025,-0.0609125,-0.0188375
1680014368488,1194356841304237,0.00495,-0.0609125,-0.0169125
1680014368490,1194356843806391,0.00495,-0.0548625,-0.012925
1680014368494,1194356846308622,0.0059125,-0.0499125,-0.01595
1680014368495,1194356848811006,0.0099,-0.0499125,-0.01595
1680014368497,1194356851313222,0.0099,-0.04895,-0.01485
1680014368499,1194356853815376,0.0099,-0.0438625,-0.0119624995
1680014368501,1194356856317530,0.011,-0.0429,-0.01485
1680014368504,1194356858819914,0.011,-0.03795,-0.0108624995
1680014368506,1194356861322068,0.0089375,-0.0328625,-0.0089375
1680014368509,1194356863824299,0.0119624995,-0.0279125,-0.0089375
1680014368512,1194356866326683,0.012925,-0.02695,-0.0099
1680014368515,1194356868828914,0.014025,-0.0218625,-0.0078375
1680014368518,1194356871331068,0.012925,-0.0169125,-0.006875
1680014368520,1194356873833194,0.0119624995,-0.012925,-0.0059125
1680014368524,1194356876335579,0.014025,-0.0108624995,-0.001925
1680014368527,1194356878836693,0.0169125,-0.00385,-9.625E-4
1680014368527,1194356881337810,0.01595,1.375E-4,0.0011
1680014368529,1194356883842319,0.012925,0.0020625,0.0011
1680014368533,1194356886344473,0.014025,0.00715,0.0020625
1680014368534,1194356888846703,0.014025,0.013062499,0.004125
1680014368536,1194356891349088,0.0099,0.013062499,0.0031625
1680014368539,1194356893851246,0.012925,0.0160875,0.0050875
1680014368542,1194356896353477,0.01595,0.0210375,0.004125
1680014368543,1194356898855631,0.014025,0.0231,0.0050875
1680014368546,1194356901358015,0.011,0.0221375,0.004125
1680014368549,1194356903860169,0.0119624995,0.0240625,0.0050875
1680014368552,1194356906362405,0.012925,0.025024999,0.0050875
1680014368554,1194356908864789,0.014025,0.0270875,0.00715
1680014368556,1194356911366943,0.011,0.02915,0.0081124995
1680014368560,1194356913869097,0.007975,0.0301125,0.0050875
1680014368563,1194356916371343,0.007975,0.0301125,0.0050875
1680014368566,1194356918873728,0.011,0.031075,0.0081124995
1680014368567,1194356921375958,0.007975,0.0331375,0.004125
1680014368569,1194356923878112,0.0070125,0.031075,0.0081124995
1680014368572,1194356926380497,0.0059125,0.0301125,0.00605
1680014368574,1194356928882651,0.0059125,0.02805,0.0031625
1680014368576,1194356931384804,0.0039875,0.02805,0.004125
1680014368579,1194356933887035,0.0070125,0.0301125,0.0031625
1680014368583,1194356936389435,0.0070125,0.0231,0.0031625
1680014368585,1194356938891666,0.007975,0.0240625,0.0031625
1680014368586,1194356941393819,0.0059125,0.0221375,1.375E-4
1680014368589,1194356943896204,0.00495,0.0191125,-0.0028875
1680014368594,1194356946398344,0.0039875,0.01815,-0.001925
1680014368595,1194356948900575,0.00495,0.0121,-0.00385
1680014368599,1194356951402959,0.0059125,0.015125,-0.00495
1680014368600,1194356953905113,0.0059125,0.0111375,-0.0089375
1680014368605,1194356956407344,0.0059125,0.004125,-0.006875
1680014368607,1194356958909498,9.625E-4,0.0011,-0.0078375
1680014368608,1194356961411652,0.003025,1.375E-4,-0.0078375
1680014368610,1194356963914036,-0.0,-0.0028875,-0.0059125
1680014368612,1194356966416498,-0.0,-0.0099,-0.0078375
1680014368614,1194356968918652,-0.0011,-0.0108624995,-0.0078375
1680014368617,1194356971420820,-0.0,-0.0108624995,-0.0099
1680014368619,1194356973923050,0.003025,-0.0099,-0.0108624995
1680014368622,1194356976425204,0.00495,-0.0099,-0.0099
1680014368623,1194356978927358,-0.0011,-0.0108624995,-0.0078375
1680014368626,1194356981429733,-0.003025,-0.0119624995,-0.0099
1680014368629,1194356983931963,-0.0,-0.01485,-0.0108624995
1680014368632,1194356986434348,9.625E-4,-0.012925,-0.012925
1680014368636,1194356988936502,9.625E-4,-0.012925,-0.0089375
1680014368637,1194356991438729,0.001925,-0.012925,-0.0108624995
1680014368639,1194356993940883,0.0039875,-0.0108624995,-0.0119624995
1680014368643,1194356996443267,0.001925,-0.0119624995,-0.0119624995
1680014368645,1194356998945498,9.625E-4,-0.0108624995,-0.012925
1680014368647,1194357001447652,0.0039875,-0.0099,-0.0099
1680014368650,1194357003950026,0.0059125,-0.007975,-0.0119624995
1680014368652,1194357006452180,0.001925,-0.007975,-0.01485
1680014368653,1194357008954334,0.00495,-0.00495,-0.012925
1680014368656,1194357011456565,0.0059125,-0.00385,-0.0108624995
1680014368660,1194357013958916,0.0059125,-0.0028875,-0.0119624995
1680014368662,1194357016461146,0.0070125,0.0020625,-0.0119624995
1680014368664,1194357018963300,0.0070125,0.003025,-0.0108624995
1680014368666,1194357021465685,0.0070125,0.0081124995,-0.0099
1680014368669,1194357023967839,0.0059125,0.0121,-0.0089375
1680014368674,1194357026470016,0.0089375,0.0160875,-0.0108624995
1680014368676,1194357028972478,0.0099,0.020075,-0.0099
1680014368677,1194357031474632,0.012925,0.02805,-0.0099
1680014368679,1194357033976863,0.012925,0.031075,-0.0108624995
1680014368683,1194357036479016,0.012925,0.0320375,-0.0099
1680014368685,1194357038981401,0.011,0.039049998,-0.0078375
1680014368689,1194357041483555,0.0119624995,0.0441375,-0.0099
1680014368690,1194357043985786,0.012925,0.0490875,-0.006875
1680014368694,1194357046488194,0.01595,0.053075,-0.006875
1680014368695,1194357048990348,0.012925,0.0561,-0.0078375
1680014368697,1194357051492579,0.0119624995,0.0600875,-0.0059125
1680014368700,1194357053994733,0.0099,0.0631125,-0.00495
1680014368702,1194357056496902,0.0089375,0.0650375,-0.0028875
1680014368704,1194357058999286,0.0099,0.0671,-0.00385
1680014368707,1194357061501517,0.011,0.070125,-0.00385
1680014368710,1194357064003902,0.0089375,0.069025,-0.0028875
1680014368713,1194357066506051,0.007975,0.0710875,-0.001925
1680014368716,1194357069008281,0.0070125,0.07315,-0.001925
1680014368717,1194357071510435,0.0059125,0.0741125,-0.001925
1680014368721,1194357074012589,0.00495,0.07205,1.375E-4
1680014368724,1194357076515051,0.001925,0.0741125,1.375E-4
1680014368726,1194357079062771,0.0039875,0.07315,-9.625E-4
1680014368726,1194357081610436,0.00495,0.0710875,1.375E-4
1680014368729,1194357084021743,0.0039875,0.069025,0.0011
1680014368734,1194357086523911,0.00495,0.07315,0.0011
1680014368734,1194357089026142,0.003025,0.069025,0.0031625
1680014368736,1194357091528603,0.0039875,0.064075,0.0031625
1680014368738,1194357094030757,9.625E-4,0.0671,0.0011
1680014368742,1194357096532887,-0.0011,0.0671,0.0031625
1680014368743,1194357099035271,0.001925,0.058025,0.004125
1680014368748,1194357101537425,9.625E-4,0.0570625,0.0020625
1680014368750,1194357104039579,-0.0011,0.0551375,0.0020625
1680014368752,1194357106542026,-0.0011,0.0490875,0.0020625
1680014368754,1194357109044180,0.001925,0.0521125,0.004125
1680014368756,1194357111546410,-0.0,0.0570625,0.0011
1680014368759,1194357114048564,-0.00605,0.047025,0.0011
1680014368763,1194357116550978,-0.0039875,0.04015,0.0020625
1680014368764,1194357119053132,-0.003025,0.039049998,0.0011
1680014368766,1194357121555285,-0.003025,0.037125,-9.625E-4
1680014368769,1194357124057747,-0.0011,0.02915,-0.0028875
1680014368772,1194357126559901,-0.003025,0.0231,1.375E-4
1680014368774,1194357129062132,-0.003025,0.0191125,1.375E-4
1680014368776,1194357131564285,-0.0039875,0.014025,1.375E-4
1680014368781,1194357134066439,-0.0039875,0.013062499,-0.0028875
1680014368789,1194357136568824,-0.0039875,0.0050875,-0.00495
1680014368789,1194357139071271,-0.0050875,0.0011,-0.0028875
1680014368789,1194357141573424,-0.00605,-0.0028875,-0.00385
1680014368790,1194357144075578,-0.003025,-0.0099,-0.0078375
1680014368793,1194357146577809,-0.0039875,-0.012925,-0.006875
1680014368794,1194357149079963,-0.0039875,-0.0169125,-0.006875
1680014368796,1194357151582117,-0.0039875,-0.023924999,-0.0099
1680014368800,1194357154084578,-0.0039875,-0.0209,-0.0089375
1680014368803,1194357156586732,-0.003025,-0.02585,-0.0089375
1680014368804,1194357159089117,-0.0,-0.028875,-0.0078375
1680014368806,1194357161591286,9.625E-4,-0.0328625,-0.0108624995
1680014368808,1194357164093516,-0.0,-0.0319,-0.0108624995
1680014368812,1194357166595670,9.625E-4,-0.0339625,-0.0089375
1680014368814,1194357169098055,-0.0,-0.03795,-0.0089375
1680014368816,1194357171600300,-0.0,-0.0389125,-0.0099
1680014368819,1194357174102453,0.0039875,-0.034925,-0.0099
1680014368824,1194357176604838,0.003025,-0.0358875,-0.0099
1680014368825,1194357179106992,9.625E-4,-0.036849998,-0.0108624995
1680014368827,1194357181609180,0.001925,-0.0328625,-0.0099
1680014368829,1194357184111411,0.00495,-0.0319,-0.0108624995
1680014368834,1194357186613872,0.0070125,-0.029975,-0.0119624995
1680014368834,1194357189116026,0.007975,-0.023924999,-0.0108624995
1680014368836,1194357191618180,0.0089375,-0.0199375,-0.0099
1680014368839,1194357194120549,0.0070125,-0.0199375,-0.0078375
1680014368843,1194357196622703,0.0089375,-0.017875,-0.0099
1680014368844,1194357199124857,0.011,-0.0169125,-0.0108624995
1680014368847,1194357201627319,0.0099,-0.012925,-0.0108624995
1680014368849,1194357204129435,0.0099,-0.0108624995,-0.0099
1680014368852,1194357206631665,0.0119624995,-0.006875,-0.0108624995
1680014368856,1194357209133819,0.0099,-0.0028875,-0.012925
1680014368857,1194357211635973,0.0099,0.0011,-0.0078375
1680014368863,1194357214138348,0.0099,0.00605,-0.0078375
1680014368864,1194357216640809,0.0119624995,0.0081124995,-0.0099
1680014368866,1194357219142963,0.0119624995,0.0081124995,-0.012925
1680014368867,1194357221645117,0.0099,0.013062499,-0.0089375
1680014368869,1194357224147348,0.011,0.01705,-0.0059125
1680014368872,1194357226649506,0.012925,0.0221375,-0.0059125
1680014368874,1194357229151660,0.0099,0.0221375,-0.00495
1680014368876,1194357231654122,0.0119624995,0.0210375,-0.006875
1680014368881,1194357234156507,0.0089375,0.0270875,-0.0059125
1680014368883,1194357236658425,0.007975,0.0301125,-0.006875
1680014368885,1194357239160809,0.0070125,0.031075,-0.0089375
1680014368890,1194357241663040,0.0059125,0.0350625,-0.006875
1680014368890,1194357244165194,0.0039875,0.0380875,-0.0028875
1680014368893,1194357246667588,0.00495,0.0380875,-0.0059125
1680014368894,1194357249169819,0.003025,0.0430375,-0.0099
1680014368899,1194357251671973,0.00495,0.039049998,-0.00495
1680014368900,1194357254174358,9.625E-4,0.037125,-0.00495
1680014368903,1194357256676492,9.625E-4,0.037125,-0.0059125
1680014368904,1194357259178645,0.001925,0.036025,-0.0059125
1680014368909,1194357261680876,-0.0,0.0350625,-0.0059125
1680014368909,1194357264183338,9.625E-4,0.0301125,-0.006875
1680014368914,1194357266685507,0.001925,0.02915,-0.00495
1680014368916,1194357269187660,-0.0,0.0221375,-0.0078375
1680014368918,1194357271690045,-0.0,0.0240625,-0.0059125
1680014368919,1194357274192276,9.625E-4,0.0191125,-0.00385
1680014368924,1194357276694445,9.625E-4,0.015125,-0.00385
1680014368925,1194357279196599,-0.0011,0.0121,-0.0059125
1680014368927,1194357281698983,-0.003025,0.0050875,-0.00495
1680014368929,1194357284201137,-0.00605,-9.625E-4,-0.001925
1680014368935,1194357286703359,-0.007975,-0.00385,-0.0028875
1680014368936,1194357289205743,-0.0070125,-0.0099,-9.625E-4
1680014368938,1194357291707974,-0.0050875,-0.012925,-0.0028875
1680014368939,1194357294210128,-0.0070125,-0.018975,-0.001925
1680014368944,1194357296712513,-0.0070125,-0.0218625,-0.0028875
1680014368946,1194357299214667,-0.0070125,-0.02585,-0.001925
1680014368947,1194357301716834,-0.007975,-0.0319,-9.625E-4
1680014368949,1194357304219296,-0.0100375,-0.0389125,-0.0028875
1680014368952,1194357306721450,-0.011,-0.0419375,-0.00385
1680014368954,1194357309223681,-0.0119624995,-0.0438625,-0.00385
1680014368957,1194357311725829,-0.0100375,-0.04895,-0.00385
1680014368959,1194357314228214,-0.0119624995,-0.04895,-0.0059125
1680014368963,1194357316730368,-0.013062499,-0.0529375,-0.00495
1680014368966,1194357319232599,-0.0119624995,-0.0539,-0.0059125
1680014368967,1194357321734983,-0.0100375,-0.0529375,-0.0078375
1680014368969,1194357324237137,-0.0119624995,-0.0539,-0.006875
1680014368976,1194357326739291,-0.013062499,-0.0548625,-0.0059125
1680014368976,1194357329241522,-0.0070125,-0.056925,-0.0089375
1680014368978,1194357331743671,-0.0119624995,-0.0578875,-0.0108624995
1680014368979,1194357334246132,-0.0149875,-0.051975,-0.012925
1680014368983,1194357336748286,-0.0119624995,-0.0499125,-0.0099
1680014368984,1194357339250671,-0.0100375,-0.0539,-0.0108624995
1680014368987,1194357341752824,-0.011,-0.051975,-0.0108624995
1680014368989,1194357344255022,-0.011,-0.0529375,-0.0108624995
1680014368993,1194357346757176,-0.0100375,-0.0499125,-0.0099
1680014368994,1194357349259330,-0.0070125,-0.0438625,-0.0108624995
1680014368996,1194357351761791,-0.0070125,-0.0429,-0.0108624995
1680014368999,1194357354263945,-0.007975,-0.0429,-0.01485
1680014369003,1194357356766330,-0.0070125,-0.0438625,-0.012925
1680014369005,1194357359268484,-0.007975,-0.0419375,-0.012925
1680014369006,1194357361770715,-0.0050875,-0.036849998,-0.012925
1680014369011,1194357364272863,-9.625E-4,-0.0339625,-0.012925
1680014369014,1194357366775248,-0.0039875,-0.029975,-0.0119624995
1680014369016,1194357369277479,-0.0050875,-0.0248875,-0.01595
1680014369017,1194357371779633,-9.625E-4,-0.018975,-0.01595
1680014369019,1194357374282017,-0.003025,-0.01485,-0.0169125
1680014369022,1194357376784204,0.0039875,-0.006875,-0.0169125
1680014369024,1194357379286358,0.003025,-0.00495,-0.012925
1680014369027,1194357381788820,9.625E-4,-9.625E-4,-0.017875
1680014369029,1194357384290973,0.0039875,0.0081124995,-0.0188375
1680014369032,1194357386793233,0.0059125,0.0160875,-0.0229625
1680014369034,1194357389295387,0.0059125,0.0240625,-0.023924999
1680014369037,1194357391797772,0.0039875,0.0301125,-0.0229625
1680014369039,1194357394299925,0.007975,0.0331375,-0.0229625
1680014369043,1194357396802156,0.011,0.0350625,-0.02695
1680014369045,1194357399304541,0.0089375,0.0411125,-0.0279125
1680014369049,1194357401806695,0.0070125,0.0490875,-0.028875
1680014369051,1194357404308849,0.0070125,0.0521125,-0.028875
1680014369053,1194357406811108,0.0089375,0.0600875,-0.0298375
1680014369055,1194357409313262,0.0100375,0.058025,-0.0319
1680014369057,1194357411815724,0.0089375,0.0631125,-0.0319
1680014369060,1194357414317878,0.007975,0.0661375,-0.0328625
1680014369063,1194357416820262,0.0070125,0.070125,-0.0358875
1680014369064,1194357419322401,0.0059125,0.0671,-0.0328625
1680014369067,1194357421824632,0.0039875,0.0680625,-0.0339625
1680014369069,1194357424326786,0.0039875,0.069025,-0.0358875
1680014369072,1194357426828940,0.00495,0.0741125,-0.036849998
1680014369074,1194357429331401,0.0039875,0.0771375,-0.0358875
1680014369076,1194357431833570,9.625E-4,0.0771375,-0.03795
1680014369079,1194357434335955,-0.0,0.0771375,-0.036849998
1680014369083,1194357436838108,0.003025,0.0771375,-0.0389125
1680014369087,1194357439340334,-0.0,0.0710875,-0.036849998
1680014369089,1194357441842488,0.003025,0.0710875,-0.0358875
1680014369091,1194357444344873,0.001925,0.070125,-0.036849998
1680014369094,1194357446847103,-0.0,0.0650375,-0.03795
1680014369096,1194357449349257,0.001925,0.061049998,-0.0358875
1680014369099,1194357451851421,-9.625E-4,0.06215,-0.0358875
1680014369100,1194357454353806,0.0039875,0.0561,-0.0358875
1680014369103,1194357456856037,0.003025,0.05115,-0.036849998
1680014369105,1194357459358421,0.001925,0.048125,-0.0358875
1680014369107,1194357461860575,0.0039875,0.047025,-0.0358875
1680014369109,1194357464362801,0.0039875,0.0451,-0.0358875
1680014369116,1194357466864955,0.007975,0.037125,-0.0389125
1680014369117,1194357469367339,0.00495,0.0331375,-0.0358875
1680014369119,1194357471869493,0.007975,0.036025,-0.0389125
1680014369120,1194357474371695,0.0089375,0.02915,-0.039875
1680014369126,1194357476874080,0.0119624995,0.0221375,-0.0389125
1680014369128,1194357479375155,0.0119624995,0.0231,-0.0408375
1680014369128,1194357481876234,0.0119624995,0.020075,-0.0419375
1680014369131,1194357484380623,0.012925,0.014025,-0.0419375
1680014369133,1194357486883008,0.014025,0.013062499,-0.0429
1680014369135,1194357489385161,0.0180125,0.0100375,-0.0429
1680014369138,1194357491887392,0.0210375,0.003025,-0.0438625
1680014369139,1194357494389777,0.022,-0.0028875,-0.0449625
1680014369142,1194357496891940,0.0199375,-0.006875,-0.047849998
1680014369144,1194357499394094,0.018975,-0.0089375,-0.0499125
1680014369147,1194357501896324,0.0229625,-0.012925,-0.0499125
1680014369149,1194357504398478,0.023924999,-0.018975,-0.050875
1680014369152,1194357506900935,0.023924999,-0.0218625,-0.04895
1680014369154,1194357509403089,0.023924999,-0.0248875,-0.0518375
1680014369157,1194357511905473,0.023924999,-0.028875,-0.0529375
1680014369161,1194357514407647,0.025024999,-0.0319,-0.0539
1680014369166,1194357516909878,0.025024999,-0.0358875,-0.0559625
1680014369167,1194357519412032,0.025024999,-0.0358875,-0.056925
1680014369168,1194357521914416,0.0259875,-0.0319,-0.056925
1680014369170,1194357524416647,0.025024999,-0.034925,-0.056925
1680014369173,1194357526918801,0.025024999,-0.0328625,-0.061875
1680014369175,1194357529420955,0.025024999,-0.0319,-0.064899996
1680014369177,1194357531923339,0.0259875,-0.0319,-0.067925
1680014369179,1194357534425570,0.0259875,-0.02695,-0.0669625
1680014369183,1194357536927964,0.025024999,-0.02585,-0.0658625
1680014369185,1194357539430118,0.0229625,-0.023924999,-0.0658625
1680014369187,1194357541932348,0.023924999,-0.0209,-0.0658625
1680014369190,1194357544434502,0.0210375,-0.01595,-0.067925
1680014369193,1194357546936651,0.018975,-0.0108624995,-0.0669625
1680014369195,1194357549439036,0.022,-0.0059125,-0.067925
1680014369199,1194357551941267,0.022,0.0011,-0.0669625
1680014369201,1194357554443651,0.018975,0.0050875,-0.0628375
1680014369203,1194357556945772,0.0210375,0.0081124995,-0.0609125
1680014369205,1194357559448003,0.022,0.01815,-0.0609125
1680014369207,1194357561950157,0.0180125,0.0221375,-0.058849998
1680014369209,1194357564452541,0.018975,0.0320375,-0.0559625
1680014369212,1194357566954695,0.0199375,0.0350625,-0.0559625
1680014369215,1194357569456906,0.018975,0.0441375,-0.0559625
1680014369217,1194357571959291,0.0180125,0.047025,-0.0539
1680014369220,1194357574461444,0.018975,0.0540375,-0.0499125
1680014369222,1194357576963598,0.018975,0.0561,-0.045925
1680014369224,1194357579465825,0.018975,0.0650375,-0.0449625
1680014369227,1194357581968210,0.0169125,0.069025,-0.0419375
1680014369229,1194357584470440,0.01595,0.0771375,-0.039875
1680014369233,1194357586972594,0.0180125,0.081125,-0.03795
1680014369236,1194357589474983,0.014025,0.08305,-0.0339625
1680014369238,1194357591977137,0.01595,0.0891,-0.0319
1680014369240,1194357594479291,0.01595,0.0881375,-0.0328625
1680014369243,1194357596981521,0.01595,0.087037496,-0.0279125
1680014369245,1194357599483906,0.01595,0.0930875,-0.028875
1680014369247,1194357601986132,0.0169125,0.0930875,-0.0279125
1680014369249,1194357604488286,0.0169125,0.091025,-0.0248875
1680014369252,1194357606990670,0.018975,0.0930875,-0.0209
1680014369254,1194357609492824,0.018975,0.09405,-0.0199375
1680014369257,1194357611995046,0.0210375,0.0891,-0.0188375
1680014369259,1194357614497430,0.022,0.087037496,-0.0188375
1680014369262,1194357616999584,0.022,0.0881375,-0.0188375
1680014369264,1194357619501815,0.0229625,0.08415,-0.0199375
1680014369267,1194357622003959,0.02695,0.0790625,-0.0199375
1680014369269,1194357624506113,0.0279125,0.0760375,-0.0169125
1680014369274,1194357627008497,0.029975,0.07205,-0.01595
1680014369275,1194357629510959,0.0290125,0.064075,-0.01595
1680014369277,1194357632013118,0.029975,0.0521125,-0.01485
1680014369280,1194357634515272,0.0290125,0.0430375,-0.012925
1680014369284,1194357637017502,0.0279125,0.0341,-0.0108624995
1680014369285,1194357639519656,0.02695,0.02805,-0.012925
1680014369287,1194357642021810,0.023924999,0.01815,-0.012925
1680014369289,1194357644524238,0.022,0.0081124995,-0.0108624995
1680014369292,1194357647026469,0.0210375,1.375E-4,-0.0089375
1680014369294,1194357649528853,0.018975,-0.007975,-0.006875
1680014369297,1194357652031007,0.0169125,-0.01485,-0.0078375
1680014369300,1194357654533176,0.0169125,-0.0248875,-0.0089375
1680014369302,1194357657035407,0.011,-0.0328625,-0.0059125
1680014369306,1194357659537791,0.007975,-0.03795,-0.006875
1680014369307,1194357662039945,0.007975,-0.0438625,-0.0089375
1680014369311,1194357664542166,0.00495,-0.0449625,-0.0078375
1680014369314,1194357667044320,0.0039875,-0.04895,-0.00495
1680014369316,1194357669546704,0.001925,-0.051975,-0.006875
1680014369318,1194357672048935,9.625E-4,-0.0499125,-0.0078375
1680014369320,1194357674551089,-0.003025,-0.0539,-0.0089375
1680014369324,1194357677053464,-0.003025,-0.051975,-0.0078375
1680014369325,1194357679555694,-0.0,-0.0499125,-0.0089375
1680014369327,1194357682057848,-0.003025,-0.047849998,-0.012925
1680014369329,1194357684560002,-0.003025,-0.0429,-0.0099
1680014369333,1194357687062469,-0.0039875,-0.0358875,-0.0089375
1680014369334,1194357689564623,-0.0050875,-0.0319,-0.01595
1680014369336,1194357692066776,-0.0039875,-0.028875,-0.01485
1680014369339,1194357694569161,-0.0050875,-0.023924999,-0.0119624995
1680014369342,1194357697071315,-0.003025,-0.0108624995,-0.0089375
1680014369344,1194357699573546,-0.0050875,-0.001925,-0.012925
1680014369350,1194357702075930,-0.0039875,-9.625E-4,-0.012925
1680014369351,1194357704578084,-0.0050875,0.014025,-0.0099
1680014369352,1194357707080305,-0.0039875,0.0191125,-0.01595
1680014369354,1194357709582459,-0.0039875,0.0331375,-0.012925
1680014369357,1194357712084843,-0.0039875,0.039049998,-0.01595
1680014369359,1194357714586997,-0.0050875,0.0411125,-0.0108624995
1680014369363,1194357717089228,-0.0039875,0.05115,-0.0078375
1680014369364,1194357719591623,-0.0050875,0.0600875,-0.006875
1680014369367,1194357722093776,-0.0039875,0.0650375,-0.0078375
1680014369369,1194357724596007,-0.0039875,0.07205,-0.0089375
1680014369372,1194357727098161,-0.00605,0.081125,-0.0059125
1680014369374,1194357729600584,-0.0039875,0.086075,-0.0089375
1680014369376,1194357732102738,-0.0070125,0.0930875,-0.0059125
1680014369379,1194357734605199,-0.0070125,0.0991375,-0.0028875
1680014369383,1194357737107353,-0.0050875,0.102025,-0.00385
1680014369388,1194357739609540,-0.0039875,0.1071125,-0.001925
1680014369389,1194357742111771,-0.0039875,0.1111,-0.001925
1680014369390,1194357744613924,-0.0070125,0.1120625,-0.0028875
1680014369393,1194357747116309,-0.011,0.1150875,-0.001925
1680014369395,1194357749618540,-0.007975,0.11715,-0.0028875
1680014369399,1194357752120670,-0.007975,0.1150875,0.0031625
1680014369400,1194357754623054,-0.009075,0.11605,0.0011
1680014369403,1194357757125208,-0.011,0.114125,0.0011
1680014369408,1194357759627439,-0.009075,0.11605,0.0031625
1680014369411,1194357762129575,-0.007975,0.1120625,0.0031625
1680014369411,1194357764632036,-0.011,0.114125,0.0050875
1680014369413,1194357767134190,-0.009075,0.1150875,1.375E-4
1680014369414,1194357769636344,-0.00605,0.1120625,0.00605
1680014369417,1194357772138710,-0.0050875,0.1071125,0.00715
1680014369419,1194357774640863,-0.00605,0.108075,0.00715
1680014369423,1194357777143017,-0.00605,0.1040875,0.009075
1680014369425,1194357779645479,-0.0050875,0.098037496,0.0100375
1680014369427,1194357782147719,-0.0050875,0.09515,0.0111375
1680014369429,1194357784649873,-0.0,0.091025,0.009075
1680014369432,1194357787152026,-0.0,0.08415,0.009075
1680014369434,1194357789654411,9.625E-4,0.0760375,0.009075
1680014369437,1194357792156565,0.001925,0.0710875,0.0121
1680014369439,1194357794658781,0.001925,0.0661375,0.015125
1680014369443,1194357797161165,0.00495,0.058025,0.0160875
1680014369445,1194357799663319,0.0070125,0.053075,0.013062499
1680014369447,1194357802165550,0.0099,0.0460625,0.013062499
1680014369450,1194357804667718,0.007975,0.04015,0.0121
1680014369452,1194357807170102,0.0089375,0.0411125,0.0121
1680014369454,1194357809672256,0.014025,0.036025,0.013062499
1680014369457,1194357812174718,0.0169125,0.0301125,0.014162499
1680014369461,1194357814676838,0.01595,0.0240625,0.014162499
1680014369464,1194357817178991,0.01595,0.0240625,0.013062499
1680014369466,1194357819681222,0.0169125,0.0160875,0.0121
1680014369468,1194357822183376,0.0180125,0.014025,0.013062499
1680014369470,1194357824685530,0.0169125,0.0111375,0.0121
1680014369472,1194357827187963,0.014025,0.00715,0.0121
1680014369474,1194357829690117,0.01595,1.375E-4,0.0100375
1680014369477,1194357832192502,0.012925,1.375E-4,0.0100375
1680014369479,1194357834694656,0.012925,1.375E-4,0.0100375
1680014369483,1194357837196901,0.0119624995,-0.006875,0.009075
1680014369485,1194357839699054,0.0119624995,-0.0099,0.00715
1680014369488,1194357842201516,0.012925,-0.0138875,0.00605
1680014369490,1194357844703670,0.0180125,-0.01485,0.00605
1680014369493,1194357847205814,0.012925,-0.01485,0.00715
1680014369494,1194357849708198,0.0169125,-0.018975,0.009075
1680014369500,1194357852210352,0.014025,-0.0169125,0.004125
1680014369501,1194357854712583,0.01595,-0.01485,0.0050875
1680014369504,1194357857214954,0.01595,-0.018975,0.0081124995
1680014369505,1194357859717184,0.0169125,-0.018975,0.00605
1680014369507,1194357862219338,0.0169125,-0.0169125,0.00605
1680014369510,1194357864721492,0.0180125,-0.0199375,0.00715
1680014369512,1194357867223877,0.012925,-0.0169125,0.00605
1680014369514,1194357869726025,0.011,-0.0138875,0.00605
1680014369518,1194357872228179,0.0119624995,-0.0138875,0.00605
1680014369522,1194357874730641,0.0169125,-0.0119624995,0.00605
1680014369528,1194357877232882,0.0180125,-0.0108624995,0.00605
1680014369528,1194357879735036,0.0180125,-0.0138875,0.0011
1680014369530,1194357882237189,0.0199375,-0.0138875,0.0031625
1680014369531,1194357884739574,0.0199375,-0.0108624995,1.375E-4
1680014369533,1194357887241728,0.0229625,-0.0108624995,-0.001925
1680014369536,1194357889744198,0.02695,-0.0119624995,-0.00385
1680014369538,1194357892246352,0.0290125,-0.0108624995,-0.006875
1680014369541,1194357894748506,0.033,-0.0108624995,-0.0108624995
1680014369543,1194357897250737,0.03795,-0.0119624995,-0.01595
1680014369545,1194357899752891,0.0400125,-0.0119624995,-0.0209
1680014369547,1194357902255261,0.044,-0.017875,-0.02695
1680014369555,1194357904757492,0.047025,-0.023924999,-0.0298375
1680014369555,1194357907259877,0.0510125,-0.0279125,-0.0358875
1680014369557,1194357909762031,0.0539,-0.0358875,-0.0408375
1680014369558,1194357912264179,0.0559625,-0.0468875,-0.047849998
1680014369560,1194357914766410,0.062975,-0.056925,-0.047849998
1680014369563,1194357917268564,0.067925,-0.0688875,-0.0518375
1680014369566,1194357919771026,0.073975,-0.08085,-0.05995
1680014369567,1194357922273179,0.0829125,-0.0979,-0.0628375
1680014369570,1194357924775333,0.0889625,-0.1079375,-0.067925
1680014369576,1194357927277718,0.0950125,-0.1238875,-0.0719125
1680014369578,1194357929779872,0.100925,-0.14685,-0.0779625
1680014369578,1194357932282136,0.1079375,-0.16293749,-0.0859375
1680014369580,1194357934784289,0.1170125,-0.1819125,-0.089925
1680014369583,1194357937286751,0.124025,-0.2008875,-0.095837496
1680014369585,1194357939788905,0.133925,-0.216975,-0.1018875
1680014369587,1194357942291059,0.1390125,-0.2418625,-0.105875
1680014369590,1194357944793443,0.144925,-0.260975,-0.1079375
1680014369593,1194357947295597,0.1489125,-0.2849,-0.1159125
1680014369597,1194357949797751,0.1519375,-0.3108875,-0.1189375
1680014369598,1194357952300213,0.1519375,-0.33385,-0.1208625
1680014369599,1194357954802443,0.1529,-0.35694999,-0.12485
1680014369605,1194357957304602,0.150975,-0.3829375,-0.12595
1680014369606,1194357959806756,0.150975,-0.408925,-0.12595
1680014369607,1194357962309141,0.150975,-0.43285,-0.12485
1680014369611,1194357964811275,0.143,-0.45993748,-0.1219625
1680014369614,1194357967313737,0.1359875,-0.4849625,-0.1199
1680014369617,1194357969815891,0.1299375,-0.50888747,-0.1159125
1680014369619,1194357972318045,0.122925,-0.5339125,-0.111925
1680014369620,1194357974820275,0.108899996,-0.5608625,-0.105875
1680014369623,1194357977322410,0.100925,-0.5889125,-0.0988625
1680014369627,1194357979824795,0.086899996,-0.60885,-0.0889625
1680014369628,1194357982327026,0.0719125,-0.63195,-0.0829125
1680014369630,1194357984829410,0.0529375,-0.6469375,-0.0738375
1680014369633,1194357987331592,0.03795,-0.666875,-0.067925
1680014369635,1194357989833746,0.0209,-0.6809,-0.0578875
1680014369637,1194357992335977,0.00495,-0.6909375,-0.0529375
1680014369640,1194357994838131,-0.011,-0.6989125,-0.0449625
1680014369644,1194357997340520,-0.0210375,-0.699875,-0.039875
1680014369645,1194357999842751,-0.0369875,-0.7019375,-0.0328625
1680014369650,1194358002344905,-0.050049998,-0.69685,-0.0279125
1680014369651,1194358004847290,-0.062975,-0.689975,-0.0248875
1680014369654,1194358007349443,-0.07205,-0.6769125,-0.0229625
1680014369656,1194358009851674,-0.080025,-0.6628875,-0.017875
1680014369658,1194358012353828,-0.088,-0.6469375,-0.0169125
1680014369660,1194358014856290,-0.09405,-0.6268625,-0.012925
1680014369663,1194358017358443,-0.1010625,-0.606925,-0.0099
1680014369665,1194358019860607,-0.1040875,-0.5819,-0.0099
1680014369667,1194358022362992,-0.1060125,-0.5559125,-0.0059125
1680014369670,1194358024865146,-0.109037496,-0.529925,-0.00385
1680014369673,1194358027367377,-0.1150875,-0.5058625,-0.00385
1680014369675,1194358029869751,-0.1150875,-0.479875,-0.0028875
1680014369677,1194358032371982,-0.122099996,-0.45485,-9.625E-4
1680014369680,1194358034874136,-0.1260875,-0.425975,-9.625E-4
1680014369684,1194358037376290,-0.1280125,-0.3969625,-0.00385
1680014369689,1194358039878650,-0.132,-0.3689125,0.0011
1680014369690,1194358042380804,-0.135025,-0.3389375,-9.625E-4
1680014369692,1194358044883035,-0.139975,-0.3069,-9.625E-4
1680014369694,1194358047385420,-0.1441,-0.2778875,-9.625E-4
1680014369697,1194358049887573,-0.150975,-0.249975,1.375E-4
1680014369700,1194358052389722,-0.1560625,-0.2189,0.0020625
1680014369702,1194358054892184,-0.1610125,-0.1898875,0.0020625
1680014369703,1194358057394415,-0.16499999,-0.15895,0.004125
1680014369705,1194358059896568,-0.1750375,-0.133925,0.00605
1680014369707,1194358062398722,-0.1799875,-0.1079375,0.00605
1680014369710,1194358064901074,-0.179025,-0.0798875,0.009075
1680014369713,1194358067403228,-0.185075,-0.05995,0.0111375
1680014369714,1194358069905458,-0.1890625,-0.0319,0.013062499
1680014369718,1194358072407843,-0.19305,-0.0108624995,0.014162499
1680014369720,1194358074909997,-0.198,0.0111375,0.0160875
1680014369725,1194358077412228,-0.1991,0.02915,0.0191125
1680014369727,1194358082414382,-0.1991,0.0490875,0.0221375
1680014369729,1194358082576459,-0.2080375,0.0650375,0.0251625
1680014369732,1194358084918987,-0.20899999,0.0820875,0.02805
1680014369734,1194358087421141,-0.212025,0.097075,0.0301125
1680014369736,1194358089923525,-0.21807499,0.1120625,0.031075
1680014369737,1194358092425679,-0.22,0.124025,0.037125
1680014369740,1194358094927910,-0.223025,0.1370875,0.042075
1680014369742,1194358097430083,-0.229075,0.14905,0.0441375
1680014369745,1194358099932237,-0.2360875,0.16115,0.0460625
1680014369749,1194358102434698,-0.23705,0.1670625,0.0551375
1680014369752,1194358104937083,-0.2410375,0.1810875,0.0581625
1680014369754,1194358107439223,-0.2459875,0.1890625,0.0631125
1680014369755,1194358109941377,-0.251075,0.19813749,0.0671
1680014369757,1194358112443607,-0.2541,0.212025,0.0741125
1680014369761,1194358114945761,-0.256025,0.22715,0.081125
1680014369767,1194358117448156,-0.2600125,0.235125,0.0891
1680014369768,1194358119950387,-0.2630375,0.23815,0.0930875
1680014369770,1194358122452541,-0.267025,0.251075,0.0991375
1680014369771,1194358124954925,-0.267025,0.25905,0.10615
1680014369773,1194358127457088,-0.271975,0.2641375,0.114125
1680014369775,1194358129959242,-0.271975,0.2660625,0.119075
1680014369777,1194358132461703,-0.2740375,0.27307498,0.125125
1680014369781,1194358134963934,-0.2761,0.27513748,0.1310375
1680014369783,1194358137466088,-0.2761,0.279125,0.13915
1680014369785,1194358139968277,-0.2770625,0.28215,0.1450625
1680014369787,1194358142470662,-0.2770625,0.284075,0.15015
1680014369790,1194358144972815,-0.2761,0.284075,0.1551
1680014369793,1194358147475046,-0.278025,0.2880625,0.1590875
1680014369795,1194358149977421,-0.2761,0.2850375,0.163075
1680014369800,1194358152479575,-0.2740375,0.2861375,0.169125
1680014369802,1194358154981805,-0.271975,0.2850375,0.17105
1680014369805,1194358157483930,-0.264,0.2871,0.1731125
1680014369806,1194358159986315,-0.260975,0.2861375,0.1750375
1680014369808,1194358162488469,-0.256025,0.289025,0.1750375
1680014369810,1194358164990699,-0.2550625,0.290125,0.1780625
1680014369813,1194358167493084,-0.2520375,0.289025,0.18205
1680014369815,1194358169995233,-0.2440625,0.290125,0.185075
1680014369817,1194358172497464,-0.24007499,0.2941125,0.185075
1680014369820,1194358174999618,-0.2349875,0.295075,0.1871375
1680014369823,1194358177501771,-0.229075,0.2981,0.1871375
1680014369825,1194358180004219,-0.223025,0.2941125,0.1860375
1680014369827,1194358182506604,-0.2190375,0.290125,0.1871375
1680014369830,1194358185008757,-0.21505,0.29315,0.1901625
1680014369833,1194358187510911,-0.205975,0.2960375,0.191125
1680014369837,1194358190013147,-0.201025,0.29315,0.191125
1680014369838,1194358192515301,-0.198,0.29315,0.1920875
1680014369840,1194358195017686,-0.194975,0.29205,0.19305
1680014369843,1194358197519916,-0.19305,0.2880625,0.1951125
1680014369846,1194358200022301,-0.1890625,0.2871,0.1951125
1680014369847,1194358202524483,-0.1881,0.2850375,0.1951125
1680014369850,1194358205026637,-0.185075,0.28215,0.1951125
1680014369853,1194358207528867,-0.1860375,0.2770625,0.19607499
1680014369855,1194358210031252,-0.1860375,0.27005,0.1970375
1680014369858,1194358212533406,-0.18205,0.2651,0.1970375
1680014369861,1194358215035666,-0.18205,0.2651,0.1970375
1680014369864,1194358217537820,-0.1799875,0.262075,0.19415
1680014369866,1194358220040204,-0.1799875,0.2611125,0.19305
1680014369868,1194358222542353,-0.176,0.26015,0.1890625
1680014369870,1194358225044584,-0.17407499,0.25905,0.1871375
1680014369875,1194358227546968,-0.17105,0.256025,0.1871375
1680014369877,1194358230049199,-0.16499999,0.256025,0.18205
1680014369878,1194358232551387,-0.1579875,0.257125,0.17613749
1680014369881,1194358235053541,-0.1560625,0.2541,0.1731125
1680014369884,1194358237555926,-0.1530375,0.251075,0.17105
1680014369885,1194358240058079,-0.1480875,0.2531375,0.1681625
1680014369888,1194358242560310,-0.1441,0.2550625,0.163075
1680014369890,1194358245062681,-0.139975,0.2550625,0.1590875
1680014369893,1194358247564835,-0.135025,0.24805,0.1590875
1680014369895,1194358250067065,-0.1331,0.2470875,0.1551
1680014369897,1194358252569219,-0.12705,0.246125,0.147125
1680014369900,1194358255071604,-0.1260875,0.246125,0.1441
1680014369902,1194358257573835,-0.122099996,0.245025,0.13915
1680014369905,1194358260075988,-0.1230625,0.23815,0.1351625
1680014369908,1194358262578373,-0.117975,0.235125,0.1291125
1680014369911,1194358265080522,-0.1150875,0.2281125,0.1241625
1680014369914,1194358267582753,-0.113025,0.2211,0.11715
1680014369916,1194358270084907,-0.113025,0.2190375,0.1101375
1680014369919,1194358272587291,-0.1120625,0.2140875,0.10615
1680014369924,1194358275089498,-0.109037496,0.2101,0.103125
1680014369925,1194358280091883,-0.106975,0.213125,0.09515
1680014369927,1194358280191575,-0.1040875,0.207075,0.0911625
1680014369928,1194358282596190,-0.1010625,0.20405,0.0891
1680014369930,1194358285098421,-0.095975,0.2030875,0.0891
1680014369933,1194358287600806,-0.098037496,0.2030875,0.087037496
1680014369935,1194358290102960,-0.097075,0.2000625,0.086075
1680014369938,1194358292605190,-0.09405,0.201025,0.08305
1680014369940,1194358295107344,-0.091025,0.2091375,0.086075
1680014369943,1194358297609498,-0.0950125,0.2061125,0.087037496
1680014369945,1194358300111878,-0.091025,0.2110625,0.086075
1680014369950,1194358302614339,-0.088,0.2140875,0.0851125
1680014369952,1194358305116493,-0.08305,0.22013749,0.086075
1680014369954,1194358307618631,-0.084975,0.22715,0.087037496
1680014369956,1194358310120862,-0.0809875,0.2311375,0.0911625
1680014369957,1194358312623016,-0.075075,0.234025,0.0911625
1680014369961,1194358315125400,-0.0730125,0.2391125,0.092125
1680014369964,1194358317627569,-0.0699875,0.2440625,0.0961125
1680014369965,1194358320129800,-0.064075,0.246125,0.100099996
1680014369967,1194358322632184,-0.0620125,0.2470875,0.103125
1680014369970,1194358325134415,-0.055,0.2520375,0.10615
1680014369973,1194358327636569,-0.047025,0.2470875,0.1111
1680014369975,1194358330138732,-0.042075,0.251075,0.114125
1680014369978,1194358332641117,-0.033,0.251075,0.119075
1680014369980,1194358335143347,-0.0320375,0.2541,0.1260875
1680014369983,1194358337645501,-0.02805,0.251075,0.1310375
1680014369987,1194358340147901,-0.0231,0.2470875,0.13213749
1680014369989,1194358342650055,-0.01705,0.246125,0.13805
1680014369991,1194358345152208,-0.0160875,0.24805,0.1461625
1680014369993,1194358347654439,-0.0100375,0.23705,0.1480875
1680014369996,1194358350156901,-0.009075,0.234025,0.1530375
1680014369998,1194358352659084,-0.007975,0.235125,0.158125
1680014370001,1194358355161237,-0.0050875,0.2311375,0.1640375
1680014370004,1194358357663622,-0.0039875,0.2220625,0.17215
1680014370005,1194358360165776,-0.0039875,0.21505,0.17407499
1680014370008,1194358362668007,-0.003025,0.207075,0.1810875
1680014370010,1194358365170391,0.001925,0.1970375,0.1881
1680014370013,1194358367672545,-0.003025,0.1881,0.19305
1680014370016,1194358370174776,-0.0011,0.180125,0.19813749
1680014370017,1194358372677161,0.001925,0.179025,0.2061125
1680014370020,1194358375179290,9.625E-4,0.17407499,0.2121625
1680014370024,1194358377681444,-0.0,0.1661,0.21505
1680014370026,1194358380183675,0.003025,0.1640375,0.2211
1680014370028,1194358382686060,0.00495,0.1551,0.22605
1680014370031,1194358385188204,0.00495,0.15015,0.229075
1680014370038,1194358387690434,0.003025,0.1370875,0.23815
1680014370038,1194358390192588,9.625E-4,0.1340625,0.2440625
1680014370038,1194358392694973,0.001925,0.1331,0.24915
1680014370041,1194358395197122,9.625E-4,0.1291125,0.2561625
1680014370044,1194358397699583,9.625E-4,0.124025,0.262075
1680014370045,1194358400201737,9.625E-4,0.1310375,0.27307498
1680014370047,1194358402703968,0.001925,0.130075,0.28105
1680014370050,1194358405206122,9.625E-4,0.130075,0.29315
1680014370053,1194358407708247,-0.003025,0.135025,0.301125
1680014370055,1194358410210631,-0.00605,0.147125,0.3081375
1680014370057,1194358412712862,-0.014025,0.1551,0.31913748
1680014370062,1194358415215031,-0.0210375,0.168025,0.3290375
1680014370064,1194358417717415,-0.031075,0.18205,0.3400375
1680014370066,1194358420219646,-0.044,0.1951125,0.3460875
1680014370069,1194358422721800,-0.0561,0.20515,0.3570875
1680014370070,1194358425223954,-0.0699875,0.207075,0.3650625
1680014370073,1194358427726391,-0.087037496,0.2061125,0.3751
1680014370075,1194358430228545,-0.099,0.2061125,0.3851375
1680014370078,1194358432730699,-0.11,0.2061125,0.39214998
1680014370081,1194358435232853,-0.124025,0.201025,0.40315
1680014370084,1194358437735305,-0.1370875,0.1890625,0.411125
1680014370086,1194358440237689,-0.146025,0.1841125,0.4230875
1680014370088,1194358442739843,-0.157025,0.17407499,0.43614998
1680014370092,1194358445241997,-0.163075,0.1621125,0.444125
1680014370093,1194358447744228,-0.1689875,0.1560625,0.45815
1680014370095,1194358450246386,-0.1750375,0.146025,0.46805
1680014370101,1194358452748771,-0.179025,0.130075,0.477125
1680014370102,1194358455251002,-0.1881,0.1071125,0.4841375
1680014370104,1194358457753141,-0.1940125,0.1040875,0.49115
1680014370106,1194358460255525,-0.194975,0.0991375,0.50215
1680014370108,1194358462757679,-0.2030875,0.086075,0.510125
1680014370112,1194358465259910,-0.207075,0.0741125,0.5220875
1680014370113,1194358467762064,-0.2101,0.0661375,0.5300625
1680014370116,1194358470264453,-0.223025,0.047025,0.53405
1680014370118,1194358472766684,-0.2300375,0.031075,0.5421625
1680014370121,1194358475268838,-0.2431,0.0221375,0.5471125
1680014370124,1194358477771223,-0.251075,0.0240625,0.55715
1680014370126,1194358480273377,-0.2630375,0.020075,0.5691125
1680014370128,1194358482775530,-0.28105,0.01705,0.5751625
1680014370133,1194358485277992,-0.2981,0.01815,0.587125
1680014370134,1194358487780223,-0.31405,0.0231,0.5971625
1680014370137,1194358490282372,-0.33605,0.0210375,0.6061
1680014370139,1194358492784525,-0.3570875,0.020075,0.6161375
1680014370142,1194358495286910,-0.3760625,0.0231,0.6301625
1680014370144,1194358497789064,-0.396,0.0191125,0.64405
1680014370145,1194358500291295,-0.4170375,0.0231,0.6650875
1680014370149,1194358502793665,-0.43408749,0.0210375,0.6791125
1680014370151,1194358505295819,-0.4530625,0.01815,0.69107497
1680014370153,1194358507798050,-0.47905,0.0221375,0.7090875
1680014370155,1194358510300204,-0.5020125,0.0380875,0.7280625
1680014370158,1194358512802588,-0.5220875,0.0460625,0.7451125
1680014370161,1194358515304799,-0.54202497,0.0441375,0.76505
1680014370164,1194358517807184,-0.5630625,0.048125,0.7860875
1680014370166,1194358520309338,-0.5880875,0.05115,0.8041
1680014370167,1194358522811491,-0.605,0.0600875,0.823075
1680014370170,1194358525313722,-0.6230125,0.0631125,0.845075
1680014370175,1194358527815857,-0.641025,0.06215,0.8611625
1680014370177,1194358530318242,-0.6560125,0.0661375,0.8811
1680014370178,1194358532820473,-0.669075,0.078099996,0.9031
1680014370182,1194358535322852,-0.682,0.08305,0.9241375
1680014370183,1194358537825006,-0.693,0.078099996,0.9381625
1680014370186,1194358540327160,-0.704,0.0631125,0.95411247
1680014370188,1194358542829391,-0.713075,0.0521125,0.972125
1680014370193,1194358545331535,-0.7271,0.0441375,0.98505
1680014370194,1194358547833920,-0.740025,0.0231,0.9981125
1680014370195,1194358550336151,-0.74909997,1.375E-4,1.0121375
1680014370199,1194358552838305,-0.76505,-0.023924999,1.0220375
1680014370201,1194358555340689,-0.7821,-0.0578875,1.0280875
1680014370204,1194358557842857,-0.7931,-0.0988625,1.0351
1680014370206,1194358560345088,-0.810975,-0.13695,1.043075
1680014370207,1194358562847473,-0.8261,-0.161975,1.0570999
1680014370213,1194358565349708,-0.8430125,-0.1769625,1.0770375
1680014370216,1194358567851862,-0.8520875,-0.1868625,1.0971125
1680014370218,1194358570354016,-0.8591,-0.1969,1.1141624
1680014370218,1194358572856401,-0.8701,-0.20185,1.1331375
1680014370221,1194358575358555,-0.87505,-0.210925,1.1521125
1680014370223,1194358577861030,-0.8820625,-0.227975,1.1671
1680014370225,1194358580363184,-0.8930625,-0.243925,1.1771375
1680014370228,1194358582865415,-0.9010375,-0.259875,1.1900625
1680014370232,1194358585367569,-0.90805,-0.2809125,1.203125
1680014370234,1194358587869708,-0.9141,-0.3089625,1.2101375
1680014370235,1194358590372093,-0.916025,-0.32395,1.21605
1680014370238,1194358592874324,-0.91905,-0.3309625,1.2200375
1680014370242,1194358595376708,-0.9169875,-0.336875,1.2230625
1680014370244,1194358597878895,-0.9141,-0.3438875,1.2230625
1680014370245,1194358600381126,-0.911075,-0.3509,1.219075
1680014370249,1194358602883280,-0.9120375,-0.3609375,1.2181125
1680014370252,1194358605385434,-0.9169875,-0.36987498,1.2131625
1680014370254,1194358607887833,-0.92097497,-0.386925,1.2061499
1680014370255,1194358610390064,-0.9279875,-0.4019125,1.1980375
1680014370259,1194358612892449,-0.931975,-0.425975,1.192125
1680014370260,1194358615394603,-0.9400875,-0.4389,1.1881375
1680014370263,1194358617896833,-0.94105,-0.44494998,1.18415
1680014370267,1194358620398987,-0.9361,-0.458975,1.1820875
1680014370268,1194358622901372,-0.933075,-0.469975,1.1750749
1680014370272,1194358625403603,-0.931975,-0.4789125,1.1680624
1680014370274,1194358627905757,-0.9279875,-0.4838625,1.1631125
1680014370276,1194358630408160,-0.927025,-0.48785,1.1561
1680014370278,1194358632910314,-0.9260625,-0.4829,1.1490875
1680014370281,1194358635412468,-0.92303747,-0.47685,1.1441375
1680014370284,1194358637914699,-0.91905,-0.469975,1.1380875
1680014370287,1194358640417146,-0.9120375,-0.4508625,1.1341
1680014370290,1194358642919300,-0.905025,-0.430925,1.1301125
1680014370293,1194358645421454,-0.900075,-0.41195,1.1270875
1680014370295,1194358648055608,-0.8921,-0.3859625,1.1240625
1680014370297,1194358650425992,-0.887975,-0.353925,1.1251625
1680014370298,1194358652928141,-0.8820625,-0.3199625,1.1231
1680014370301,1194358655430603,-0.872025,-0.28187498,1.1231
1680014370303,1194358657932757,-0.865975,-0.2399375,1.1251625
1680014370305,1194358660434987,-0.8619875,-0.2039125,1.1251625
1680014370308,1194358662937141,-0.8591,-0.1648625,1.126125
1680014370310,1194358665439526,-0.8591,-0.1238875,1.1251625
1680014370314,1194358667941680,-0.8619875,-0.084975,1.1231
1680014370316,1194358670444141,-0.86405,-0.0499125,1.120075
1680014370318,1194358672946295,-0.86501247,-0.01485,1.11815
1680014370322,1194358675448453,-0.869,0.014025,1.1111375
1680014370327,1194358677950684,-0.865975,0.037125,1.10715
1680014370328,1194358680451760,-0.869,0.064075,1.1020625
1680014370328,1194358682952839,-0.8710625,0.0930875,1.098075
1680014370332,1194358685457376,-0.869,0.1120625,1.0901
1680014370334,1194358687959858,-0.8619875,0.13213749,1.0840499
1680014370335,1194358690462011,-0.8619875,0.152075,1.0811625
1680014370338,1194358692964165,-0.8591,0.1651375,1.076075
1680014370341,1194358695466396,-0.8520875,0.18315,1.07415
1680014370344,1194358697968781,-0.843975,0.201025,1.0720875
1680014370346,1194358700470708,-0.84205,0.2190375,1.071125
1680014370348,1194358702973169,-0.8399875,0.24213749,1.0770375
1680014370350,1194358705475554,-0.8399875,0.2660625,1.0830874
1680014370353,1194358707977708,-0.839025,0.2880625,1.0901
1680014370355,1194358710479867,-0.8410875,0.3100625,1.0990375
1680014370358,1194358712982097,-0.8490625,0.3350875,1.10605
1680014370362,1194358715484251,-0.858,0.355025,1.1160874
1680014370367,1194358717985501,-0.86405,0.38005,1.1251625
1680014370367,1194358720486732,-0.8680375,0.40205,1.1331375
1680014370370,1194358722991040,-0.8740875,0.421025,1.1411124
1680014370371,1194358725493424,-0.878075,0.438075,1.1540375
1680014370373,1194358727995578,-0.8850875,0.4640625,1.1631125
1680014370375,1194358730497795,-0.8870125,0.487025,1.1671
1680014370378,1194358733000179,-0.891,0.510125,1.1741124
1680014370381,1194358735502410,-0.90805,0.5380375,1.181125
1680014370383,1194358738004564,-0.9059875,0.5471125,1.18415
1680014370385,1194358740506723,-0.889075,0.54505,1.18305
1680014370388,1194358743009107,-0.88,0.5511,1.18415
1680014370392,1194358745511338,-0.878075,0.564025,1.1771375
1680014370395,1194358748013723,-0.8820625,0.5740625,1.1760375
1680014370396,1194358750515877,-0.878075,0.5880875,1.1710875
1680014370402,1194358753018093,-0.8760125,0.60005,1.1671
1680014370403,1194358755520246,-0.8760125,0.6040375,1.1631125
1680014370405,1194358758022400,-0.872025,0.61215,1.1540375
1680014370407,1194358760539554,-0.8591,0.6131125,1.13905
1680014370410,1194358763026939,-0.84205,0.6100875,1.1301125
1680014370412,1194358765529400,-0.823075,0.61105,1.11705
1680014370414,1194358768031554,-0.8050625,0.614075,1.1011
1680014370416,1194358770533785,-0.7880125,0.6180625,1.08515
1680014370418,1194358773035915,-0.7720625,0.63208747,1.0681
1680014370421,1194358775538299,-0.759,0.647075,1.0500875
1680014370424,1194358778040453,-0.7440125,0.6540875,1.032075
1680014370426,1194358780542684,-0.7330125,0.66715,1.0151625
1680014370427,1194358783045069,-0.7220125,0.67815,0.994125
1680014370433,1194358785547280,-0.711975,0.68805,0.9780375
1680014370435,1194358788049434,-0.7079875,0.7011125,0.9681375
1680014370437,1194358790551588,-0.7000125,0.7090875,0.95507497
1680014370439,1194358793054007,-0.693,0.7170625,0.9450375
1680014370443,1194358795556237,-0.6941,0.7231125,0.9381625
1680014370446,1194358798058391,-0.68805,0.729025,0.9290875
1680014370447,1194358800560776,-0.6870875,0.735075,0.92303747
1680014370451,1194358803062930,-0.6829625,0.7371375,0.91905
1680014370452,1194358805565151,-0.678975,0.7360375,0.91905
1680014370454,1194358808067304,-0.6780125,0.7360375,0.9161625
1680014370456,1194358810569766,-0.674025,0.73315,0.9141
1680014370458,1194358813071920,-0.6719625,0.7280625,0.911075
1680014370462,1194358815574055,-0.671,0.72105,0.9101125
1680014370464,1194358818076439,-0.6719625,0.72008747,0.9141
1680014370466,1194358820578670,-0.6749875,0.7170625,0.9141
1680014370468,1194358823081055,-0.678975,0.7151375,0.9141
1680014370472,1194358825583229,-0.6859875,0.71802497,0.917125
1680014370476,1194358828085459,-0.6939625,0.7170625,0.9150625
1680014370477,1194358830587613,-0.702075,0.7161,0.917125
1680014370479,1194358833089767,-0.707025,0.7231125,0.91905
1680014370483,1194358835592215,-0.713075,0.7261375,0.9161625
1680014370485,1194358838094368,-0.71802497,0.7261375,0.9180875
1680014370486,1194358840596522,-0.71802497,0.7310875,0.92303747
1680014370489,1194358843098907,-0.72105,0.7390625,0.9211125
1680014370492,1194358845601166,-0.724075,0.7420875,0.92303747
1680014370494,1194358848103320,-0.7189875,0.74909997,0.9260625
1680014370495,1194358850605473,-0.72105,0.7580375,0.92509997
1680014370498,1194358853107935,-0.72105,0.751025,0.9241375
1680014370501,1194358855610089,-0.72105,0.7451125,0.92015
1680014370504,1194358858112224,-0.7189875,0.741125,0.917125
1680014370506,1194358860614608,-0.71802497,0.7451125,0.9150625
1680014370508,1194358863116839,-0.715,0.7500625,0.9150625
1680014370513,1194358865618993,-0.713075,0.7601,0.9120375
1680014370515,1194358868121377,-0.71005,0.77605,0.9101125
1680014370517,1194358870623608,-0.7049625,0.7970875,0.911075
1680014370519,1194358873125762,-0.702075,0.8160625,0.9120375
1680014370522,1194358875628147,-0.6939625,0.83709997,0.90915
1680014370525,1194358878130301,-0.68901247,0.8591,0.9051625
1680014370527,1194358880632454,-0.6780125,0.8701,0.9010375
1680014370528,1194358883134916,-0.671,0.88605,0.89608747
1680014370531,1194358885637147,-0.6609625,0.89814997,0.8900375
1680014370533,1194358888139301,-0.652025,0.9021375,0.88605
1680014370535,1194358890641425,-0.6340125,0.9150625,0.8790375
1680014370538,1194358893143810,-0.619025,0.9180875,0.8710625
1680014370541,1194358895645964,-0.608025,0.92015,0.8600625
1680014370543,1194358898148195,-0.592075,0.92303747,0.851125
1680014370545,1194358900650608,-0.5740625,0.9180875,0.840125
1680014370550,1194358903152839,-0.5619625,0.9070875,0.8281625
1680014370552,1194358905654993,-0.553025,0.905025,0.8190875
1680014370554,1194358908157147,-0.54505,0.8991125,0.807125
1680014370556,1194358910659545,-0.5410625,0.8921,0.790075
1680014370558,1194358913161699,-0.537075,0.884125,0.7781125
1680014370562,1194358915663930,-0.5399625,0.878075,0.7610625
1680014370564,1194358918166315,-0.5399625,0.873125,0.746075
1680014370566,1194358920668479,-0.5429875,0.8701,0.730125
1680014370568,1194358923170709,-0.54408747,0.86515,0.7090875
1680014370572,1194358925672863,-0.54408747,0.85305,0.69313747
1680014370574,1194358928175248,-0.5490375,0.845075,0.6840625
1680014370576,1194358930677479,-0.55,0.83709997,0.66605
1680014370578,1194358933179877,-0.54408747,0.839025,0.647075
1680014370583,1194358935682031,-0.5410625,0.8361375,0.6351125
1680014370584,1194358938184185,-0.5399625,0.834075,0.6191625
1680014370587,1194358940686416,-0.537075,0.840125,0.6070625
1680014370589,1194358943188589,-0.53405,0.84205,0.5941375
1680014370592,1194358945690974,-0.528,0.8460375,0.5831375
1680014370594,1194358948193205,-0.5240125,0.845075,0.5721375
1680014370596,1194358950695590,-0.517,0.84205,0.5630625
1680014370598,1194358953197743,-0.5099875,0.834075,0.5531625
1680014370602,1194358955699892,-0.504075,0.834075,0.5490375
1680014370604,1194358958202123,-0.4940375,0.840125,0.54505
1680014370606,1194358960704508,-0.4879875,0.84315,0.5401
1680014370608,1194358963206661,-0.480975,0.84315,0.5330875
1680014370612,1194358965708892,-0.47808748,0.8410875,0.5330875
1680014370614,1194358968211017,-0.4769875,0.8410875,0.5330875
1680014370617,1194358970713402,-0.4739625,0.84205,0.5270375
1680014370618,1194358973215556,-0.46805,0.840125,0.5281375
