system_ts_ms, sensor_ts_ns, gyrX, gyrY, gyrZ
1680013658944,1193647298598310,-0.0111375,-0.10505,0.0012375
1680013658945,1193647301100464,-0.0111375,-0.102025,-0.005775
1680013658948,1193647303602618,-0.009075,-0.095975,-0.0116875
1680013658950,1193647306104772,-0.0081124995,-0.0950125,-0.0177375
1680013658955,1193647308606906,-0.0111375,-0.0950125,-0.0207625
1680013658967,1193647311109137,-0.0081124995,-0.086075,-0.0207625
1680013658967,1193647313611522,-0.00605,-0.088,-0.0198
1680013658967,1193647316113676,-0.0111375,-0.09295,-0.015675
1680013658968,1193647318615830,-0.0081124995,-0.091025,-0.0116875
1680013658968,1193647321118007,-0.009075,-0.1029875,-0.0067375
1680013658969,1193647323620161,-0.0121,-0.1120625,-6.875E-4
1680013658971,1193647326122623,-0.013062499,-0.1329625,0.011275
1680013658977,1193647328624777,-0.0160875,-0.15895,0.0232375
1680013658977,1193647331126931,-0.014025,-0.1780625,0.0323125
1680013658978,1193647333629084,-0.013062499,-0.185075,0.0433125
1680013658981,1193647336131238,-0.013062499,-0.19195,0.0532125
1680013658983,1193647338633469,-0.009075,-0.19305,0.0592625
1680013658986,1193647341135604,-0.009075,-0.194975,0.0642125
1680013658988,1193647343637988,-0.0100375,-0.19195,0.060225
1680013658993,1193647346140142,-0.0111375,-0.1970375,0.0592625
1680013658995,1193647348642296,-0.015125,-0.2019875,0.06325
1680013658997,1193647351144450,-0.015125,-0.205975,0.061325
1680013658999,1193647353646604,-0.0160875,-0.21807499,0.0672375
1680013659001,1193647356148835,-0.020075,-0.242,0.0763125
1680013659004,1193647358651219,-0.01815,-0.267025,0.0862125
1680013659005,1193647361153373,-0.0160875,-0.28105,0.0922625
1680013659010,1193647363655551,-0.01815,-0.29095,0.0983125
1680013659011,1193647366157705,-0.015125,-0.3009875,0.1062875
1680013659013,1193647368659859,-0.013062499,-0.3070375,0.1093125
1680013659017,1193647371162013,-0.014025,-0.3199625,0.115225
1680013659018,1193647373664483,-0.013062499,-0.34595,0.121275
1680013659020,1193647376166637,-0.013062499,-0.3840375,0.1172875
1680013659026,1193647378668791,-0.0111375,-0.3999875,0.121275
1680013659027,1193647381170945,-0.009075,-0.40301248,0.1122
1680013659030,1193647383673079,-0.0081124995,-0.392975,0.1032625
1680013659031,1193647386175310,9.625E-4,-0.3749625,0.093225
1680013659034,1193647388677695,0.006875,-0.3700125,0.088275
1680013659036,1193647391179849,0.007975,-0.366025,0.0792
1680013659038,1193647393682003,0.0108624995,-0.36107498,0.069299996
1680013659044,1193647396184146,0.018975,-0.350075,0.060225
1680013659044,1193647398686300,0.0209,-0.3419625,0.049225
1680013659045,1193647401188531,0.0229625,-0.32999998,0.0402875
1680013659048,1193647403690916,0.0138875,-0.315975,0.028324999
1680013659051,1193647406193066,0.012925,-0.3070375,0.0202125
1680013659054,1193647408695219,0.0059125,-0.30305,0.011275
1680013659055,1193647411197373,0.0089375,-0.2979625,0.005225
1680013659060,1193647413699604,0.0028875,-0.284075,0.0033
1680013659061,1193647416201786,0.0028875,-0.26895,-6.875E-4
1680013659064,1193647418703940,0.0039875,-0.25905,-0.005775
1680013659067,1193647421206324,9.625E-4,-0.245025,-0.0067375
1680013659069,1193647423708478,-0.003025,-0.2270125,-0.010725
1680013659070,1193647426210632,-0.004125,-0.216975,-0.0127875
1680013659076,1193647428712767,-0.0070125,-0.201025,-0.0127875
1680013659077,1193647431214998,-0.0081124995,-0.18095,-0.010725
1680013659078,1193647433717152,-0.0100375,-0.163075,-0.0097624995
1680013659080,1193647436219536,-0.0121,-0.146025,-0.005775
1680013659083,1193647438721709,-0.0121,-0.124025,-0.0037125
1680013659086,1193647441223863,-0.0100375,-0.10395,-6.875E-4
1680013659088,1193647443726094,-0.013062499,-0.088,0.0033
1680013659093,1193647446228171,-0.014025,-0.0760375,0.005225
1680013659094,1193647448730425,-0.0121,-0.058025,0.0092124995
1680013659096,1193647451232810,-0.01705,-0.0460625,0.011275
1680013659099,1193647453734964,-0.014025,-0.029975,0.0132
1680013659101,1193647456237118,-0.0111375,-0.020075,0.0143
1680013659106,1193647458739271,-0.0100375,-0.011,0.0132
1680013659109,1193647461241502,-0.0100375,9.625E-4,0.0143
1680013659110,1193647463743656,-0.00605,0.011,0.015262499
1680013659110,1193647466246041,-0.0011,0.014025,0.016224999
1680013659114,1193647468748186,-0.0011,0.0199375,0.0143
1680013659117,1193647471250339,0.001925,0.0309375,0.0122375
1680013659119,1193647473752493,0.0039875,0.034925,0.0122375
1680013659122,1193647476254696,0.0089375,0.040975,0.011275
1680013659126,1193647478756927,0.0099,0.0449625,0.011275
1680013659127,1193647481259312,0.0108624995,0.047025,0.0122375
1680013659128,1193647483761465,0.0108624995,0.050049998,0.0092124995
1680013659131,1193647486263619,0.0119624995,0.0529375,0.0092124995
1680013659134,1193647488765830,0.0138875,0.0529375,0.0092124995
1680013659136,1193647491267984,0.017875,0.0529375,0.00825
1680013659139,1193647493770138,0.018975,0.051975,0.011275
1680013659143,1193647496272292,0.017875,0.050049998,0.011275
1680013659144,1193647498774676,0.0199375,0.045925,0.0122375
1680013659146,1193647501276907,0.0218625,0.044,0.0103124995
1680013659148,1193647503778984,0.0229625,0.044,0.0132
1680013659151,1193647506281215,0.0229625,0.03795,0.0122375
1680013659153,1193647508783398,0.0209,0.0369875,0.011275
1680013659156,1193647511285551,0.0229625,0.0339625,0.0132
1680013659160,1193647513787936,0.023924999,0.02805,0.0143
1680013659160,1193647516290090,0.0229625,0.025024999,0.0122375
1680013659163,1193647518792331,0.0248875,0.0210375,0.0132
1680013659166,1193647521294484,0.0248875,0.012925,0.011275
1680013659168,1193647523796638,0.0259875,0.0070125,0.00825
1680013659171,1193647526298792,0.0259875,0.00495,0.00825
1680013659177,1193647528801167,0.0248875,-9.625E-4,0.0122375
1680013659177,1193647531303321,0.02695,-0.003025,0.0103124995
1680013659180,1193647533805475,0.0279125,-0.0100375,0.0072875
1680013659182,1193647536307628,0.02695,-0.0149875,0.0072875
1680013659185,1193647538809849,0.023924999,-0.018975,0.006325
1680013659187,1193647541312003,0.023924999,-0.022,0.006325
1680013659188,1193647543814388,0.0218625,-0.029975,0.006325
1680013659193,1193647546316541,0.0218625,-0.033,0.00825
1680013659194,1193647548818695,0.0209,-0.03795,0.0072875
1680013659197,1193647551320864,0.0199375,-0.040975,0.0092124995
1680013659198,1193647553823095,0.01595,-0.04895,0.0092124995
1680013659201,1193647556325480,0.01595,-0.0460625,0.0092124995
1680013659204,1193647558827633,0.012925,-0.050049998,0.011275
1680013659206,1193647561329787,0.0108624995,-0.051975,0.0092124995
1680013659212,1193647563831931,0.0108624995,-0.053075,0.0122375
1680013659212,1193647566334085,0.0099,-0.051975,0.0132
1680013659214,1193647568836547,0.0099,-0.055,0.0132
1680013659217,1193647571338470,0.006875,-0.0540375,0.0092124995
1680013659219,1193647573840854,0.00495,-0.053075,0.0092124995
1680013659221,1193647576343008,0.007975,-0.0510125,0.0072875
1680013659226,1193647578845162,0.0039875,-0.0510125,0.006325
1680013659227,1193647581347316,0.0028875,-0.0510125,0.0103124995
1680013659228,1193647583849470,0.001925,-0.0479875,0.0092124995
1680013659230,1193647586351926,-0.0011,-0.044,0.005225
1680013659233,1193647588854080,-0.0011,-0.040975,0.005225
1680013659236,1193647591356234,0.0028875,-0.0369875,0.0033
1680013659238,1193647593858388,-0.0011,-0.033,0.0012375
1680013659243,1193647596360542,-0.004125,-0.033,0.0022
1680013659244,1193647598862700,-0.0011,-0.031075,0.0012375
1680013659246,1193647601365162,-1.375E-4,-0.02805,0.0012375
1680013659248,1193647603867316,-0.003025,-0.031075,2.75E-4
1680013659251,1193647606369470,9.625E-4,-0.025024999,0.0033
1680013659255,1193647608871619,-1.375E-4,-0.0240625,-0.00275
1680013659257,1193647611373772,-1.375E-4,-0.0240625,-0.0037125
1680013659260,1193647613876003,-1.375E-4,-0.0210375,2.75E-4
1680013659260,1193647616378388,-0.0011,-0.0180125,-0.0037125
1680013659263,1193647618880542,9.625E-4,-0.018975,-0.004675
1680013659266,1193647621382695,9.625E-4,-0.01705,-0.0067375
1680013659268,1193647623884849,9.625E-4,-0.0180125,-0.005775
1680013659271,1193647626387003,0.0039875,-0.014025,-0.005775
1680013659274,1193647628889162,0.0028875,-0.013062499,-0.005775
1680013659277,1193647631391624,9.625E-4,-0.01595,-0.005775
1680013659278,1193647633893777,0.00495,-0.018975,-0.0067375
1680013659281,1193647636395931,0.0039875,-0.01705,-0.0077
1680013659284,1193647638898080,0.0039875,-0.01595,-0.010725
1680013659286,1193647641400234,0.0059125,-0.01595,-0.010725
1680013659289,1193647643902465,0.0039875,-0.0149875,-0.0097624995
1680013659294,1193647646404605,0.0039875,-0.0149875,-0.0097624995
1680013659295,1193647648906989,-0.0011,-0.01705,-0.0077
1680013659296,1193647651409143,-0.003025,-0.01595,-0.0077
1680013659298,1193647653911297,-0.0011,-0.0180125,-0.0088
1680013659301,1193647656413451,-0.003025,-0.018975,-0.004675
1680013659304,1193647658915624,-0.004125,-0.01705,-0.0067375
1680013659306,1193647661417854,-0.0050875,-0.01705,-0.004675
1680013659309,1193647663920239,-0.0100375,-0.0180125,-0.00275
1680013659311,1193647666422393,-0.0070125,-0.01595,-0.0037125
1680013659314,1193647668924560,-0.009075,-0.01595,-0.0037125
1680013659317,1193647671426714,-0.0121,-0.0100375,-6.875E-4
1680013659319,1193647673928944,-0.0111375,-0.011,-0.0017875
1680013659321,1193647676431021,-0.009075,-0.013062499,-0.00275
1680013659326,1193647678933470,-0.0111375,-0.011,-6.875E-4
1680013659327,1193647681435624,-0.0081124995,-0.0100375,0.0033
1680013659330,1193647683937778,-0.009075,-0.0119624995,-0.0037125
1680013659332,1193647686439931,-0.009075,-0.009075,-0.00275
1680013659334,1193647688942093,-0.0100375,-0.007975,-0.0037125
1680013659336,1193647691444324,-0.0070125,-0.009075,-0.0017875
1680013659339,1193647693946478,-0.009075,-0.009075,-0.005775
1680013659341,1193647696448863,-0.0100375,-0.0100375,-0.0037125
1680013659344,1193647698951016,-0.0121,-0.011,-0.0017875
1680013659346,1193647701453204,-0.0100375,-0.0100375,-0.0037125
1680013659349,1193647703955358,-0.0121,-0.0119624995,-0.0017875
1680013659351,1193647706457589,-0.013062499,-0.014025,-0.00275
1680013659354,1193647708959973,-0.009075,-0.01705,2.75E-4
1680013659357,1193647711462146,-0.013062499,-0.0210375,2.75E-4
1680013659359,1193647713964300,-0.0121,-0.0210375,-6.875E-4
1680013659361,1193647716466454,-0.0121,-0.022,-6.875E-4
1680013659364,1193647718968685,-0.013062499,-0.0240625,-6.875E-4
1680013659368,1193647721470839,-0.015125,-0.025024999,-0.00275
1680013659369,1193647723972993,-0.014025,-0.022,0.0022
1680013659371,1193647726475377,-0.015125,-0.0210375,0.0042625
1680013659374,1193647728977531,-0.014025,-0.025024999,0.005225
1680013659376,1193647731479685,-0.0160875,-0.020075,0.0033
1680013659380,1193647733981849,-0.0180125,-0.020075,0.0033
1680013659381,1193647736484079,-0.0160875,-0.0210375,0.005225
1680013659385,1193647738986233,-0.015125,-0.01595,0.005225
1680013659386,1193647741488618,-0.0121,-0.011,0.006325
1680013659388,1193647743990772,-0.0160875,-0.0149875,0.0072875
1680013659391,1193647746492926,-0.014025,-0.014025,0.006325
1680013659395,1193647748995156,-0.0121,-0.013062499,0.0042625
1680013659397,1193647751497233,-0.0111375,-0.0119624995,0.0033
1680013659399,1193647753999464,-0.009075,-0.009075,0.0042625
1680013659400,1193647756501854,-0.0081124995,-0.00605,-6.875E-4
1680013659405,1193647759004008,-0.00605,-0.00605,0.0012375
1680013659407,1193647761506161,-0.00605,-0.00495,0.005225
1680013659408,1193647764008315,-0.0070125,-0.00605,-6.875E-4
1680013659411,1193647766510560,-0.0070125,-0.0070125,-0.00275
1680013659414,1193647769012714,-0.0050875,-0.00605,-6.875E-4
1680013659416,1193647771515099,-0.004125,-0.0070125,2.75E-4
1680013659419,1193647774017252,-0.0050875,-0.00605,0.0022
1680013659421,1193647776519406,-0.0050875,-0.0070125,0.0042625
1680013659424,1193647779021608,-0.004125,-0.011,0.0042625
1680013659426,1193647781523685,-0.003025,-0.0119624995,0.006325
1680013659428,1193647784025916,-0.003025,-0.0100375,0.00825
1680013659431,1193647786528300,-0.0011,-0.009075,0.0103124995
1680013659434,1193647789030454,-1.375E-4,-0.009075,0.006325
1680013659438,1193647791532608,-0.0011,-0.009075,0.00825
1680013659439,1193647794034762,-1.375E-4,-0.00605,0.0122375
1680013659443,1193647796536988,9.625E-4,-0.0039875,0.011275
1680013659445,1193647799039142,0.0028875,-0.0020625,0.0132
1680013659447,1193647801541295,9.625E-4,-0.00605,0.0132
1680013659449,1193647804043680,0.0039875,-0.00605,0.0132
1680013659452,1193647806545834,0.0059125,-0.00605,0.0143
1680013659454,1193647809047969,0.0089375,-0.007975,0.016224999
1680013659457,1193647811550199,0.0089375,-0.0100375,0.017324999
1680013659460,1193647814052353,0.00495,-0.0100375,0.016224999
1680013659462,1193647816554507,0.0089375,-0.011,0.015262499
1680013659465,1193647819056892,0.0119624995,-0.014025,0.01925
1680013659466,1193647821559046,0.0119624995,-0.0149875,0.017324999
1680013659469,1193647824061276,0.0108624995,-0.01595,0.017324999
1680013659471,1193647826563430,0.012925,-0.0149875,0.016224999
1680013659474,1193647829065589,0.01595,-0.01595,0.016224999
1680013659477,1193647831567743,0.0138875,-0.0149875,0.017324999
1680013659480,1193647834070128,0.018975,-0.0180125,0.016224999
1680013659482,1193647836572281,0.0209,-0.018975,0.015262499
1680013659485,1193647839074415,0.0218625,-0.01595,0.0143
1680013659487,1193647841576646,0.0229625,-0.0180125,0.017324999
1680013659489,1193647844078800,0.0229625,-0.01595,0.01925
1680013659491,1193647846580954,0.0229625,-0.0119624995,0.0202125
1680013659494,1193647849083338,0.02695,-0.01595,0.017324999
1680013659496,1193647851585474,0.0328625,-0.018975,0.017324999
1680013659500,1193647854087705,0.0328625,-0.013062499,0.0213125
1680013659501,1193647856589782,0.0358875,-0.0180125,0.0232375
1680013659504,1193647859092244,0.034925,-0.01705,0.0232375
1680013659507,1193647861594138,0.0358875,-0.0180125,0.027224999
1680013659509,1193647864096522,0.0419375,-0.020075,0.028324999
1680013659511,1193647866598676,0.0449625,-0.018975,0.0292875
1680013659514,1193647869100830,0.0468875,-0.018975,0.03025
1680013659519,1193647871602936,0.0468875,-0.01595,0.0323125
1680013659522,1193647876605167,0.050875,-0.01705,0.0363
1680013659524,1193647876703013,0.0539,-0.0180125,0.033275
1680013659526,1193647879109705,0.0548625,-0.0180125,0.038225
1680013659528,1193647881796167,0.0578875,-0.020075,0.0422125
1680013659529,1193647884114023,0.05995,-0.0240625,0.0422125
1680013659532,1193647886616177,0.061875,-0.0259875,0.0462
1680013659535,1193647889118407,0.061875,-0.025024999,0.050325
1680013659538,1193647891620792,0.064899996,-0.02695,0.049225
1680013659539,1193647894122946,0.064899996,-0.02805,0.055275
1680013659541,1193647896625105,0.064899996,-0.02695,0.0592625
1680013659544,1193647899127259,0.062975,-0.02695,0.0653125
1680013659547,1193647901629412,0.0658625,-0.02805,0.0702625
1680013659549,1193647904131643,0.0669625,-0.0259875,0.072325
1680013659552,1193647906634018,0.0669625,-0.0259875,0.07425
1680013659556,1193647909136172,0.0699875,-0.029975,0.0752125
1680013659558,1193647911638325,0.0719125,-0.02805,0.0752125
1680013659559,1193647914140479,0.072875,-0.0259875,0.0803
1680013659561,1193647916642643,0.0759,-0.029975,0.0812625
1680013659564,1193647919144797,0.078925,-0.029975,0.082225
1680013659572,1193647921647259,0.0829125,-0.0259875,0.08525
1680013659577,1193647924149412,0.089925,-0.02805,0.083325
1680013659577,1193647926651556,0.095975,-0.025024999,0.0812625
1680013659577,1193647929153710,0.0939125,-0.025024999,0.082225
1680013659578,1193647931655864,0.0939125,-0.02695,0.08525
1680013659578,1193647934158095,0.0969375,-0.0240625,0.082225
1680013659580,1193647936660479,0.1018875,-0.0259875,0.0782375
1680013659584,1193647939162628,0.105875,-0.02695,0.077275
1680013659586,1193647941664782,0.1079375,-0.029975,0.0782375
1680013659588,1193647944166936,0.117975,-0.0240625,0.0782375
1680013659593,1193647946669177,0.1189375,-0.018975,0.0782375
1680013659595,1193647949171254,0.121,-0.018975,0.0763125
1680013659598,1193647951673484,0.1249875,-0.01595,0.082225
1680013659599,1193647954175869,0.12595,-0.0119624995,0.0812625
1680013659601,1193647956678023,0.127875,-0.0119624995,0.0862125
1680013659604,1193647959180177,0.128975,-0.011,0.0873125
1680013659606,1193647961682331,0.133925,-0.0100375,0.0902
1680013659609,1193647964184561,0.138875,-0.0119624995,0.093225
1680013659612,1193647966686715,0.144925,-0.007975,0.0952875
1680013659614,1193647969189090,0.1489125,-0.0089375,0.0983125
1680013659616,1193647971691244,0.1529,-0.0089375,0.1032625
1680013659618,1193647974193398,0.1549625,-0.00605,0.104225
1680013659621,1193647976695551,0.15895,-0.00495,0.1082125
1680013659624,1193647979197787,0.15895,-0.0,0.110275
1680013659626,1193647981699941,0.1689875,0.0070125,0.1192125
1680013659630,1193647984202326,0.171875,0.007975,0.1243
1680013659632,1193647986704480,0.1749,0.0070125,0.1252625
1680013659634,1193647989206628,0.1819125,0.0100375,0.127325
1680013659637,1193647991708782,0.1879625,0.018975,0.132275
1680013659639,1193647994211013,0.194975,0.025024999,0.1353
1680013659641,1193647996713167,0.194975,0.02695,0.137225
1680013659643,1193647999215551,0.2039125,0.0320375,0.1423125
1680013659646,1193648001717705,0.2099625,0.033,0.1472625
1680013659649,1193648004219859,0.2179375,0.040975,0.1502875
1680013659651,1193648006722013,0.2259125,0.0460625,0.15619999
1680013659654,1193648009224244,0.231,0.050049998,0.1582625
1680013659656,1193648011726389,0.231,0.055,0.16225
1680013659658,1193648014228773,0.2349875,0.0570625,0.165275
1680013659661,1193648016730927,0.238975,0.0559625,0.171325
1680013659663,1193648019233081,0.2409,0.061049998,0.176275
1680013659667,1193648021735316,0.243925,0.058025,0.1793
1680013659669,1193648024237393,0.24887499,0.055,0.181225
1680013659671,1193648026739623,0.249975,0.0620125,0.1882375
1680013659674,1193648029241777,0.2569875,0.061049998,0.19525
1680013659677,1193648031744162,0.2569875,0.05995,0.2013
1680013659679,1193648034246330,0.2649625,0.0620125,0.2052875
1680013659682,1193648036748484,0.260975,0.062975,0.2102375
1680013659685,1193648039250714,0.264,0.062975,0.2162875
1680013659687,1193648041752868,0.2679875,0.0650375,0.2222
1680013659689,1193648044255065,0.26895,0.066,0.2242625
1680013659692,1193648046757450,0.26895,0.0699875,0.23127499
1680013659695,1193648049259604,0.2729375,0.07095,0.237325
1680013659696,1193648051761834,0.2789875,0.077,0.2413125
1680013659700,1193648054263974,0.28393748,0.084975,0.2462625
1680013659702,1193648056766128,0.2888875,0.091025,0.2492875
1680013659706,1193648059268282,0.2979625,0.09405,0.253275
1680013659709,1193648061770667,0.3009875,0.0969375,0.2572625
1680013659710,1193648064272815,0.3059375,0.102025,0.26125
1680013659711,1193648066774969,0.3139125,0.11,0.26427498
1680013659714,1193648069277200,0.320925,0.11605,0.2652375
1680013659717,1193648071779354,0.3249125,0.1219625,0.269225
1680013659720,1193648074281532,0.337975,0.128975,0.2732125
1680013659722,1193648076783916,0.348975,0.1329625,0.275275
1680013659724,1193648079286070,0.3669875,0.13695,0.2783
1680013659727,1193648081788224,0.385,0.139975,0.2842125
1680013659728,1193648084290455,0.3999875,0.14795,0.286275
1680013659731,1193648086792618,0.41387498,0.1500125,0.291225
1680013659734,1193648089294772,0.425975,0.150975,0.2952125
1680013659736,1193648091797156,0.44288749,0.1530375,0.297275
1680013659740,1193648094299310,0.4549875,0.1560625,0.3012625
1680013659743,1193648096801551,0.4659875,0.16499999,0.303325
1680013659745,1193648099303705,0.4758875,0.1670625,0.3092375
1680013659747,1193648101805858,0.4829,0.1640375,0.313225
1680013659750,1193648104308012,0.48894998,0.1670625,0.314325
1680013659752,1193648106810166,0.491975,0.168025,0.3202375
1680013659755,1193648109312522,0.4959625,0.1720125,0.324225
1680013659758,1193648111814676,0.4939,0.172975,0.32725
1680013659760,1193648114316906,0.4939,0.1799875,0.3322
1680013659761,1193648116819060,0.490875,0.19305,0.3403125
1680013659766,1193648119321195,0.48688748,0.205975,0.3422375
1680013659767,1193648121823349,0.484,0.212025,0.3432
1680013659769,1193648124325734,0.479875,0.2239875,0.3532375
1680013659772,1193648126827964,0.4769875,0.2429625,0.3592875
1680013659774,1193648129330041,0.474925,0.25905,0.3623125
1680013659776,1193648131832262,0.469975,0.2729375,0.36519998
1680013659781,1193648134334416,0.469975,0.29205,0.369325
1680013659783,1193648136836570,0.4679125,0.3040125,0.374275
1680013659785,1193648139338954,0.4659875,0.31501248,0.380325
1680013659787,1193648141841123,0.4659875,0.3320625,0.3843125
1680013659789,1193648144343354,0.45993748,0.3449875,0.3883
1680013659791,1193648146845508,0.45787498,0.355025,0.390225
1680013659794,1193648149347662,0.45993748,0.366025,0.391325
1680013659798,1193648151849816,0.4569125,0.3760625,0.39325
1680013659799,1193648154352219,0.4629625,0.3810125,0.391325
1680013659801,1193648156854450,0.4648875,0.3810125,0.3892625
1680013659804,1193648159356527,0.45787498,0.385,0.3892625
1680013659806,1193648161858758,0.4609,0.3840375,0.3883
1680013659809,1193648164360912,0.4659875,0.3840375,0.3843125
1680013659812,1193648166863065,0.4629625,0.3829375,0.3773
1680013659818,1193648169365219,0.463925,0.3760625,0.37125
1680013659818,1193648171867604,0.4659875,0.370975,0.3702875
1680013659820,1193648174369811,0.4679125,0.366025,0.36519998
1680013659821,1193648176871965,0.468875,0.3620375,0.357225
1680013659824,1193648179374041,0.4629625,0.352,0.34925
1680013659826,1193648181876503,0.4609,0.34705,0.3452625
1680013659829,1193648184378657,0.4659875,0.3449875,0.3392125
1680013659832,1193648186880811,0.463925,0.337975,0.336325
1680013659834,1193648189382965,0.4648875,0.3309625,0.3322
1680013659837,1193648191885118,0.4609,0.326975,0.3293125
1680013659839,1193648194387349,0.4629625,0.3199625,0.325325
1680013659841,1193648196889503,0.4648875,0.319,0.3223
1680013659844,1193648199391888,0.45993748,0.31501248,0.3232625
1680013659846,1193648201894041,0.4609,0.3100625,0.319275
1680013659850,1193648204396195,0.458975,0.3100625,0.319275
1680013659852,1193648206898353,0.4549875,0.308,0.3202375
1680013659856,1193648209400507,0.451,0.3009875,0.3202375
1680013659857,1193648211902969,0.447975,0.297,0.3212
1680013659859,1193648214405122,0.4439875,0.2930125,0.3223
1680013659861,1193648216907276,0.4379375,0.286,0.324225
1680013659864,1193648219409435,0.4329875,0.2789875,0.324225
1680013659866,1193648221911589,0.4299625,0.2759625,0.325325
1680013659869,1193648224413820,0.424875,0.27005,0.32725
1680013659871,1193648226916204,0.4219875,0.267025,0.330275
1680013659874,1193648229418368,0.4189625,0.2569875,0.3312375
1680013659877,1193648231920522,0.41593748,0.249975,0.3293125
1680013659879,1193648234422676,0.41387498,0.2490125,0.330275
1680013659881,1193648236924830,0.414975,0.24695,0.3312375
1680013659884,1193648239427003,0.41593748,0.2440625,0.335225
1680013659887,1193648241929464,0.4169,0.2380125,0.335225
1680013659889,1193648244431618,0.41593748,0.231,0.336325
1680013659893,1193648246933738,0.4208875,0.2300375,0.335225
1680013659896,1193648249435892,0.4219875,0.223025,0.3342625
1680013659897,1193648251938123,0.4219875,0.2239875,0.330275
1680013659900,1193648254440199,0.424875,0.2220625,0.3293125
1680013659902,1193648256942430,0.4279,0.2190375,0.3293125
1680013659905,1193648259444806,0.4299625,0.216975,0.32725
1680013659907,1193648261946960,0.4318875,0.2160125,0.324225
1680013659909,1193648264449114,0.4329875,0.2129875,0.324225
1680013659911,1193648266951267,0.4379375,0.2110625,0.324225
1680013659915,1193648269453450,0.44288749,0.212025,0.3202375
1680013659918,1193648271955604,0.451,0.20899999,0.3172125
1680013659920,1193648274457989,0.458975,0.20899999,0.3183125
1680013659922,1193648276960143,0.4679125,0.2099625,0.319275
1680013659925,1193648279462329,0.4739625,0.2050125,0.3172125
1680013659927,1193648281964560,0.479875,0.20405,0.3113
1680013659930,1193648284466637,0.4879875,0.205975,0.3102
1680013659932,1193648286968868,0.4978875,0.20295,0.3152875
1680013659935,1193648289471252,0.502975,0.20295,0.313225
1680013659936,1193648291973440,0.513975,0.2019875,0.3122625
1680013659939,1193648294475594,0.5209875,0.20295,0.313225
1680013659941,1193648296977748,0.5259375,0.1970375,0.3172125
1680013659944,1193648299479979,0.53295,0.194975,0.3202375
1680013659946,1193648301982060,0.535975,0.19195,0.3223
1680013659949,1193648304484521,0.539,0.19195,0.325325
1680013659952,1193648306986675,0.5399625,0.18493749,0.3262875
1680013659954,1193648309488829,0.5399625,0.176,0.330275
1680013659957,1193648311990974,0.535975,0.1739375,0.3322
1680013659959,1193648314493128,0.534875,0.179025,0.3342625
1680013659961,1193648316995358,0.5289625,0.176,0.3342625
1680013659964,1193648319497743,0.5198875,0.1780625,0.336325
1680013659968,1193648321999868,0.512875,0.1769625,0.336325
1680013659970,1193648324502022,0.5069625,0.1830125,0.330275
1680013659973,1193648327004176,0.4978875,0.190025,0.3293125
1680013659975,1193648329506406,0.48894998,0.1970375,0.32725
1680013659977,1193648332008560,0.484,0.2050125,0.3262875
1680013659979,1193648334510714,0.468875,0.212025,0.3202375
1680013659981,1193648337013099,0.45993748,0.2209625,0.3183125
1680013659984,1193648339515330,0.447975,0.227975,0.313225
1680013659986,1193648342017406,0.4318875,0.234025,0.30525
1680013659989,1193648344519670,0.4189625,0.2429625,0.303325
1680013659992,1193648347021824,0.4019125,0.2490125,0.2992
1680013659995,1193648349523978,0.38995,0.256025,0.292325
1680013659997,1193648352026363,0.3779875,0.2569875,0.2872375
1680013660000,1193648354528516,0.375925,0.2600125,0.2783
1680013660002,1193648357030747,0.3689125,0.2649625,0.275275
1680013660006,1193648359532824,0.35694999,0.271975,0.27225
1680013660008,1193648362035055,0.3509,0.2770625,0.2682625
1680013660009,1193648364537209,0.347875,0.2729375,0.2682625
1680013660012,1193648367039589,0.3399,0.271975,0.2633125
1680013660014,1193648369541743,0.3389375,0.27101249,0.258225
1680013660016,1193648372043897,0.337975,0.271975,0.2563
1680013660020,1193648374546123,0.337975,0.27005,0.2512125
1680013660022,1193648377048277,0.337975,0.2660625,0.2492875
1680013660024,1193648379550431,0.337975,0.2660625,0.2462625
1680013660028,1193648382052815,0.336875,0.2630375,0.24419999
1680013660030,1193648384554969,0.336875,0.2569875,0.2402125
1680013660033,1193648387057185,0.336875,0.2569875,0.236225
1680013660035,1193648389559262,0.3359125,0.253,0.23127499
1680013660038,1193648392061492,0.3339875,0.249975,0.2292125
1680013660039,1193648394563646,0.3328875,0.249975,0.22825
1680013660043,1193648397065781,0.3339875,0.245025,0.226325
1680013660046,1193648399568166,0.331925,0.245025,0.22825
1680013660048,1193648402070320,0.3328875,0.23595,0.22825
1680013660049,1193648404572550,0.331925,0.2319625,0.22825
1680013660052,1193648407074627,0.3328875,0.231,0.23127499
1680013660054,1193648409576830,0.331925,0.223025,0.2352625
1680013660056,1193648412078984,0.3289,0.2190375,0.236225
1680013660059,1193648414581369,0.3289,0.212025,0.2382875
1680013660061,1193648417083522,0.32395,0.20899999,0.2382875
1680013660064,1193648419585753,0.3188625,0.20899999,0.23925
1680013660067,1193648422087893,0.31185,0.20899999,0.2402125
1680013660069,1193648424590047,0.3108875,0.20295,0.2432375
1680013660072,1193648427092201,0.3089625,0.20295,0.2432375
1680013660074,1193648429594585,0.3069,0.199925,0.242275
1680013660078,1193648432096816,0.3069,0.199925,0.2462625
1680013660081,1193648434598970,0.30195,0.198,0.247225
1680013660083,1193648437101124,0.298925,0.198,0.2453
1680013660086,1193648439603325,0.2949375,0.2019875,0.2453
1680013660088,1193648442105479,0.29095,0.2019875,0.24419999
1680013660090,1193648444607863,0.287925,0.210925,0.242275
1680013660092,1193648447110017,0.2858625,0.21505,0.23925
1680013660094,1193648449612248,0.2849,0.216975,0.236225
1680013660096,1193648452114388,0.2809125,0.22,0.2292125
1680013660100,1193648454616542,0.276925,0.22605,0.225225
1680013660102,1193648457118695,0.2759625,0.2319625,0.2212375
1680013660105,1193648459621080,0.270875,0.22893749,0.214225
1680013660107,1193648462123306,0.2668875,0.22893749,0.2123
1680013660109,1193648464625383,0.2638625,0.234025,0.2052875
1680013660112,1193648467127614,0.2619375,0.2319625,0.1992375
1680013660117,1193648469629767,0.25795,0.22893749,0.1962125
1680013660120,1193648472131917,0.2539625,0.22605,0.1892
1680013660122,1193648474632994,0.2509375,0.2190375,0.181225
1680013660122,1193648477134071,0.24585,0.210925,0.181225
1680013660125,1193648479638686,0.2418625,0.2019875,0.1772375
1680013660127,1193648482140840,0.2399375,0.19195,0.1742125
1680013660130,1193648484642994,0.2369125,0.18493749,0.170225
1680013660133,1193648487145148,0.232925,0.176,0.1692625
1680013660135,1193648489647302,0.23485,0.1720125,0.1662375
1680013660136,1193648492149763,0.232925,0.166925,0.1632125
1680013660139,1193648494651840,0.22893749,0.16005,0.160325
1680013660142,1193648497154085,0.2308625,0.1519375,0.1582625
1680013660144,1193648499656239,0.2319625,0.146025,0.1582625
1680013660147,1193648502158624,0.2319625,0.1390125,0.1533125
1680013660149,1193648504660777,0.232925,0.1310375,0.1533125
1680013660153,1193648507162916,0.23485,0.121,0.1533125
1680013660156,1193648509665070,0.2308625,0.1109625,0.1522125
1680013660159,1193648512167301,0.22893749,0.0969375,0.1502875
1680013660161,1193648514669455,0.232925,0.088,0.1502875
1680013660162,1193648517171839,0.22495,0.0809875,0.148225
1680013660166,1193648519673974,0.2308625,0.067925,0.1502875
1680013660166,1193648522176128,0.22893749,0.055,0.1502875
1680013660169,1193648524678359,0.2319625,0.047025,0.1533125
1680013660172,1193648527180436,0.23485,0.039049998,0.1573
1680013660176,1193648529682691,0.23485,0.02695,0.154275
1680013660176,1193648532185075,0.2338875,0.018975,0.160325
1680013660180,1193648534687229,0.23595,0.003025,0.16225
1680013660185,1193648537189378,0.2369125,-0.011,0.1662375
1680013660186,1193648539691532,0.23485,-0.022,0.170225
1680013660187,1193648542193763,0.2338875,-0.0320375,0.1742125
1680013660189,1193648544695916,0.2338875,-0.04895,0.1782
1680013660194,1193648547198301,0.2338875,-0.0650375,0.182325
1680013660205,1193648549700464,0.232925,-0.077,0.1832875
1680013660206,1193648552202618,0.2338875,-0.088,0.1863125
1680013660206,1193648554704772,0.22893749,-0.0999625,0.1892
1680013660206,1193648557207002,0.22687499,-0.121,0.192225
1680013660206,1193648559709156,0.22385,-0.1359875,0.1992375
1680013660207,1193648562211310,0.2179375,-0.146025,0.2013
1680013660209,1193648564713695,0.2149125,-0.1549625,0.203225
1680013660211,1193648567215849,0.2099625,-0.168025,0.2072125
1680013660214,1193648569718002,0.2079,-0.1799875,0.20625
1680013660217,1193648572220248,0.2039125,-0.1879625,0.2083125
1680013660219,1193648574722402,0.20185,-0.1989625,0.2072125
1680013660222,1193648577224556,0.1989625,-0.2080375,0.2072125
1680013660224,1193648579726940,0.1959375,-0.2190375,0.2022625
1680013660227,1193648582229108,0.1879625,-0.2300375,0.19525
1680013660234,1193648584731262,0.18287499,-0.24007499,0.1882375
1680013660234,1193648587233493,0.1819125,-0.2490125,0.1782
1680013660235,1193648589735647,0.1788875,-0.25795,0.1692625
1680013660238,1193648592237816,0.1788875,-0.2649625,0.1573
1680013660240,1193648594740200,0.1758625,-0.2759625,0.143275
1680013660242,1193648597242354,0.1769625,-0.2869625,0.1252625
1680013660244,1193648599744585,0.18095,-0.3009875,0.1122
1680013660246,1193648602246739,0.183975,-0.3100625,0.094325
1680013660250,1193648604748869,0.19085,-0.31295,0.0763125
1680013660252,1193648607251022,0.1989625,-0.319,0.0592625
1680013660255,1193648609753407,0.20295,-0.3320625,0.041249998
1680013660257,1193648612255638,0.2088625,-0.3430625,0.0242
1680013660259,1193648614757695,0.210925,-0.34705,0.0092124995
1680013660262,1193648617259926,0.2149125,-0.350075,-0.0037125
1680013660266,1193648619762079,0.2149125,-0.3529625,-0.014712499
1680013660269,1193648622264233,0.2099625,-0.35901248,-0.021724999
1680013660272,1193648624766609,0.20487499,-0.3639625,-0.0237875
1680013660273,1193648627268763,0.199925,-0.374,-0.027775
1680013660278,1193648629770994,0.194975,-0.3870625,-0.02475
1680013660278,1193648632273070,0.1879625,-0.38995,-0.0198
1680013660279,1193648634775301,0.1788875,-0.394075,-0.015675
1680013660282,1193648637277450,0.1739375,-0.40205,-0.0077
1680013660285,1193648639779604,0.161975,-0.4090625,-6.875E-4
1680013660288,1193648642281989,0.1538625,-0.4140125,0.00825
1680013660289,1193648644784142,0.1428625,-0.4189625,0.0202125
1680013660293,1193648647286387,0.128975,-0.427075,0.03025
1680013660295,1193648649788541,0.1199,-0.4310625,0.039325
1680013660296,1193648652290695,0.108899996,-0.43395,0.049225
1680013660300,1193648654792849,0.09295,-0.44,0.0592625
1680013660302,1193648657295233,0.08195,-0.4390375,0.0672375
1680013660306,1193648659797459,0.0688875,-0.43505,0.077275
1680013660308,1193648662299613,0.0539,-0.4310625,0.083325
1680013660310,1193648664801767,0.039875,-0.425975,0.0902
1680013660312,1193648667303921,0.02585,-0.4109875,0.094325
1680013660314,1193648669806075,0.01595,-0.39105,0.100237496
1680013660318,1193648672308459,0.0099,-0.3749625,0.1023
1680013660320,1193648674810690,0.00495,-0.352,0.1032625
1680013660323,1193648677312849,-0.004125,-0.3260125,0.09625
1680013660325,1193648679815003,-0.0081124995,-0.30195,0.0922625
1680013660327,1193648682317156,-0.009075,-0.275,0.0873125
1680013660329,1193648684819310,-0.013062499,-0.245025,0.083325
1680013660332,1193648687321772,-0.015125,-0.2160125,0.072325
1680013660335,1193648689823849,-0.014025,-0.1830125,0.0622875
1680013660337,1193648692326080,-0.0160875,-0.154,0.050325
1680013660339,1193648694828233,-0.0210375,-0.1249875,0.0372625
1680013660344,1193648697330387,-0.0210375,-0.095975,0.0232375
1680013660346,1193648699832527,-0.01705,-0.0680625,0.00825
1680013660348,1193648702334681,-0.013062499,-0.040975,-0.010725
1680013660349,1193648704837143,-0.013062499,-0.01705,-0.02475
1680013660352,1193648707339296,-0.009075,0.00605,-0.038775
1680013660355,1193648709841459,-0.0011,0.029975,-0.0556875
1680013660358,1193648712343613,0.00495,0.0479875,-0.0677875
1680013660360,1193648714845767,0.0089375,0.069025,-0.0748
1680013660363,1193648717347921,0.012925,0.087037496,-0.0858
1680013660365,1193648719850363,0.0199375,0.0969375,-0.0947375
1680013660367,1193648722352517,0.028875,0.1139875,-0.093775
1680013660370,1193648724854671,0.0358875,0.120037496,-0.0947375
1680013660373,1193648727356825,0.045925,0.1280125,-0.0977625
1680013660375,1193648729858979,0.056925,0.1310375,-0.0947375
1680013660377,1193648732361363,0.0658625,0.133925,-0.093775
1680013660380,1193648734863594,0.072875,0.1310375,-0.0917125
1680013660383,1193648737365748,0.0768625,0.1310375,-0.0917125
1680013660386,1193648739867902,0.0829125,0.12705,-0.09075
1680013660388,1193648742370056,0.0889625,0.1219625,-0.0858
1680013660390,1193648744872440,0.0908875,0.1139875,-0.081675
1680013660393,1193648747374363,0.0908875,0.099,-0.0807125
1680013660395,1193648749876825,0.0889625,0.0840125,-0.0748
1680013660397,1193648752378974,0.086899996,0.07095,-0.0727375
1680013660399,1193648754881128,0.0859375,0.050049998,-0.073699996
1680013660402,1193648757383282,0.0859375,0.0320375,-0.0748
1680013660404,1193648759885435,0.083875,0.011,-0.0776875
1680013660407,1193648762387820,0.0798875,-0.011,-0.081675
1680013660409,1193648764890085,0.0829125,-0.031075,-0.0847
1680013660412,1193648767392239,0.0829125,-0.055,-0.0917125
1680013660415,1193648769894392,0.0829125,-0.0760375,-0.095699996
1680013660418,1193648772396546,0.0829125,-0.09295,-0.0996875
1680013660420,1193648774898719,0.0829125,-0.119075,-0.1067
1680013660422,1193648777400873,0.084975,-0.1420375,-0.1117875
1680013660424,1193648779903258,0.084975,-0.16005,-0.115775
1680013660427,1193648782405488,0.0889625,-0.1780625,-0.1227875
1680013660429,1193648784907642,0.0908875,-0.1970375,-0.126775
1680013660432,1193648787409796,0.09185,-0.212025,-0.12773749
1680013660434,1193648789911950,0.0939125,-0.223025,-0.1287
1680013660438,1193648792414335,0.0999625,-0.2319625,-0.1287
1680013660440,1193648794916258,0.100925,-0.24007499,-0.1307625
1680013660442,1193648797418709,0.10285,-0.249975,-0.1247125
1680013660445,1193648799920863,0.105875,-0.2600125,-0.1197625
1680013660447,1193648802423017,0.105875,-0.264,-0.1106875
1680013660450,1193648804925171,0.10395,-0.26895,-0.1027125
1680013660452,1193648807427330,0.105875,-0.28105,-0.0917125
1680013660456,1193648809929714,0.1109625,-0.293975,-0.0787875
1680013660458,1193648812431945,0.1128875,-0.3070375,-0.065725
1680013660461,1193648814934099,0.1098625,-0.3199625,-0.0517
1680013660463,1193648817436253,0.106975,-0.339075,-0.0287375
1680013660466,1193648819938407,0.10395,-0.359975,-0.0127875
1680013660467,1193648822440791,0.0988625,-0.3810125,-0.0017875
1680013660470,1193648824942945,0.09295,-0.399025,0.0122375
1680013660472,1193648827445099,0.089925,-0.4250125,0.0253
1680013660474,1193648829947344,0.0829125,-0.44907498,0.038225
1680013660478,1193648832449498,0.078925,-0.469975,0.0473
1680013660480,1193648834951651,0.0759,-0.4879875,0.050325
1680013660483,1193648837454036,0.07095,-0.502975,0.061325
1680013660485,1193648839956200,0.0669625,-0.526075,0.066275
1680013660487,1193648842458354,0.05995,-0.535975,0.0702625
1680013660490,1193648844960584,0.0559625,-0.5539875,0.071225
1680013660494,1193648847462768,0.0468875,-0.5630625,0.0732875
1680013660496,1193648849964922,0.040975,-0.5729625,0.0732875
1680013660498,1193648852467307,0.0339625,-0.57805,0.077275
1680013660500,1193648854969461,0.0248875,-0.58905,0.0763125
1680013660502,1193648857471615,0.01595,-0.60005,0.07425
1680013660505,1193648859973821,0.0089375,-0.6089875,0.071225
1680013660510,1193648862475898,0.00385,-0.6150375,0.0672375
1680013660510,1193648864978129,-0.0011,-0.616,0.066275
1680013660513,1193648867480283,-0.0081124995,-0.6230125,0.06325
1680013660516,1193648869982681,-0.0100375,-0.62796247,0.0592625
1680013660518,1193648872484835,-0.013062499,-0.62796247,0.050325
1680013660521,1193648874986989,-0.01705,-0.625075,0.0433125
1680013660523,1193648877489220,-0.020075,-0.6260375,0.038225
1680013660525,1193648879991374,-0.026124999,-0.616,0.033275
1680013660528,1193648882493533,-0.02915,-0.601975,0.028324999
1680013660533,1193648884995917,-0.02915,-0.5960625,0.022275
1680013660534,1193648887498148,-0.02805,-0.5839625,0.0132
1680013660536,1193648890000220,-0.0231,-0.5710375,0.0042625
1680013660538,1193648892502451,-0.0221375,-0.5600375,-0.004675
1680013660539,1193648895004605,-0.0231,-0.546975,-0.0177375
1680013660542,1193648897506758,-0.0210375,-0.5289625,-0.026675
1680013660545,1193648900009143,-0.0191125,-0.51301247,-0.038775
1680013660547,1193648902511292,-0.015125,-0.49101248,-0.049775
1680013660550,1193648905013523,-0.013062499,-0.4690125,-0.065725
1680013660552,1193648907515677,-0.014025,-0.447975,-0.0757625
1680013660555,1193648910017830,-0.00605,-0.4299625,-0.0867625
1680013660558,1193648912519984,0.0028875,-0.407,-0.10175
1680013660560,1193648915022369,0.011,-0.381975,-0.11275
1680013660562,1193648917524523,0.018975,-0.35694999,-0.1247125
1680013660565,1193648920026677,0.029975,-0.33605,-0.136675
1680013660568,1193648922528912,0.0429,-0.308,-0.14575
1680013660570,1193648925031066,0.0559625,-0.278025,-0.15675
1680013660573,1193648927533220,0.067925,-0.253,-0.1656875
1680013660575,1193648930035374,0.083875,-0.2239875,-0.17173749
1680013660577,1193648932537759,0.094875,-0.1940125,-0.1777875
1680013660579,1193648935039974,0.1018875,-0.1659625,-0.1827375
1680013660583,1193648937542051,0.1109625,-0.139975,-0.1857625
1680013660585,1193648940044282,0.11495,-0.1170125,-0.1887875
1680013660588,1193648942546436,0.116875,-0.0950125,-0.18975
1680013660589,1193648945048576,0.122925,-0.080025,-0.192775
1680013660593,1193648947550960,0.1269125,-0.0639375,-0.192775
1680013660596,1193648950053114,0.1219625,-0.0510125,-0.19167499
1680013660601,1193648952555316,0.11495,-0.044,-0.1907125
1680013660601,1193648955057470,0.105875,-0.0369875,-0.18975
1680013660603,1193648957559624,0.1018875,-0.033,-0.1857625
1680013660608,1193648960061778,0.0969375,-0.0309375,-0.180675
1680013660609,1193648962564162,0.086899996,-0.029975,-0.175725
1680013660612,1193648965066412,0.0719125,-0.02805,-0.1727
1680013660612,1193648967568489,0.05995,-0.0369875,-0.1667875
1680013660616,1193648970070720,0.050875,-0.0510125,-0.1607375
1680013660617,1193648972572873,0.0389125,-0.0589875,-0.1557875
1680013660620,1193648975075027,0.0259875,-0.0680625,-0.147675
1680013660622,1193648977577397,0.011,-0.0790625,-0.1387375
1680013660626,1193648980079551,-0.0050875,-0.0919875,-0.1326875
1680013660630,1193648982581782,-0.0180125,-0.102025,-0.1247125
1680013660630,1193648985083935,-0.031075,-0.120037496,-0.114675
1680013660633,1193648987586089,-0.0460625,-0.1310375,-0.104775
1680013660635,1193648990088243,-0.058025,-0.14093749,-0.0947375
1680013660638,1193648992590628,-0.0741125,-0.1519375,-0.0897875
1680013660640,1193648995092859,-0.08305,-0.168025,-0.0787875
1680013660644,1193648997594945,-0.09405,-0.1830125,-0.073699996
1680013660646,1193649000097176,-0.1071125,-0.19195,-0.06875
1680013660648,1193649002599330,-0.119075,-0.1989625,-0.0666875
1680013660650,1193649005101484,-0.1310375,-0.212025,-0.0666875
1680013660652,1193649007603638,-0.1390125,-0.216975,-0.0647625
1680013660655,1193649010106008,-0.14905,-0.2179375,-0.065725
1680013660657,1193649012608239,-0.1560625,-0.223025,-0.06875
1680013660660,1193649015110393,-0.158125,-0.22,-0.070675
1680013660662,1193649017612547,-0.163075,-0.2190375,-0.0776875
1680013660665,1193649020114686,-0.1700875,-0.223025,-0.082775
1680013660667,1193649022616840,-0.176,-0.22,-0.0886875
1680013660670,1193649025119224,-0.179025,-0.216975,-0.093775
1680013660673,1193649027621455,-0.179025,-0.2099625,-0.10175
1680013660675,1193649030123633,-0.18205,-0.2019875,-0.104775
1680013660678,1193649032625787,-0.185075,-0.19305,-0.11275
1680013660681,1193649035127941,-0.187,-0.183975,-0.1216875
1680013660684,1193649037630094,-0.1890625,-0.1739375,-0.12773749
1680013660688,1193649040132465,-0.1920875,-0.1670625,-0.1326875
1680013660688,1193649042634696,-0.1920875,-0.1519375,-0.1387375
1680013660690,1193649045136850,-0.1890625,-0.14093749,-0.142725
1680013660692,1193649047639004,-0.18205,-0.1280125,-0.142725
1680013660695,1193649050141157,-0.1860375,-0.11495,-0.142725
1680013660697,1193649052643325,-0.1881,-0.102025,-0.142725
1680013660700,1193649055145710,-0.1860375,-0.087037496,-0.1408
1680013660704,1193649057647941,-0.1881,-0.073975,-0.1417625
1680013660705,1193649060150094,-0.1890625,-0.062975,-0.1387375
1680013660708,1193649062652267,-0.1881,-0.0479875,-0.136675
1680013660710,1193649065154421,-0.191125,-0.029975,-0.13475
1680013660713,1193649067656575,-0.19305,-0.018975,-0.126775
1680013660715,1193649070158960,-0.190025,-0.00605,-0.12375
1680013660720,1193649072661118,-0.187,0.0100375,-0.1188
1680013660722,1193649077663349,-0.187,0.025024999,-0.1167375
1680013660724,1193649077768811,-0.1860375,0.039049998,-0.1117875
1680013660727,1193649080167657,-0.1860375,0.0529375,-0.1007875
1680013660729,1193649082669811,-0.1881,0.07205,-0.0996875
1680013660731,1193649085171970,-0.187,0.0859375,-0.095699996
1680013660733,1193649087674431,-0.185075,0.099,-0.09075
1680013660735,1193649090176585,-0.1810875,0.1109625,-0.0858
1680013660737,1193649092678739,-0.176,0.124025,-0.0847
1680013660739,1193649095180893,-0.17105,0.1390125,-0.0837375
1680013660744,1193649097683028,-0.1661,0.146025,-0.0776875
1680013660745,1193649100185181,-0.1640375,0.150975,-0.0748
1680013660748,1193649102687566,-0.158125,0.15895,-0.0727375
1680013660750,1193649105189797,-0.154,0.161975,-0.0727375
1680013660753,1193649107691932,-0.1530375,0.1670625,-0.071775
1680013660756,1193649110194086,-0.14905,0.17105,-0.0727375
1680013660759,1193649112696239,-0.154,0.1769625,-0.070675
1680013660761,1193649115198393,-0.152075,0.1780625,-0.0727375
1680013660765,1193649117700874,-0.1441,0.176,-0.0757625
1680013660766,1193649120202951,-0.141075,0.1799875,-0.076725
1680013660768,1193649122705182,-0.1370875,0.1780625,-0.0776875
1680013660770,1193649125207335,-0.1331,0.179025,-0.081675
1680013660775,1193649127709508,-0.130075,0.179025,-0.082775
1680013660775,1193649130211662,-0.1230625,0.176,-0.0837375
1680013660778,1193649132714047,-0.1181125,0.1769625,-0.0837375
1680013660780,1193649135216277,-0.114125,0.1780625,-0.087725
1680013660783,1193649137718431,-0.11,0.179025,-0.0897875
1680013660785,1193649140220585,-0.1071125,0.18095,-0.09075
1680013660788,1193649142722739,-0.10505,0.183975,-0.0947375
1680013660790,1193649145224893,-0.102025,0.183975,-0.1007875
1680013660797,1193649147727307,-0.0950125,0.1860375,-0.1067
1680013660803,1193649150229460,-0.08305,0.183975,-0.1087625
1680013660803,1193649152731691,-0.080025,0.1830125,-0.109725
1680013660804,1193649155233845,-0.0730125,0.1830125,-0.115775
1680013660806,1193649157735999,-0.069025,0.18493749,-0.1167375
1680013660807,1193649160238383,-0.064075,0.18095,-0.1188
1680013660808,1193649162740527,-0.061049998,0.18205,-0.117699996
1680013660810,1193649165242681,-0.058025,0.1879625,-0.117699996
1680013660814,1193649167744835,-0.053075,0.1860375,-0.1247125
1680013660816,1193649170247066,-0.0460625,0.18205,-0.12375
1680013660819,1193649172749206,-0.0451,0.1799875,-0.1227875
1680013660823,1193649175251590,-0.0460625,0.1799875,-0.1227875
1680013660824,1193649177753744,-0.0430375,0.18205,-0.1216875
1680013660825,1193649180255898,-0.0400125,0.18095,-0.12375
1680013660827,1193649182758056,-0.039049998,0.1799875,-0.1216875
1680013660831,1193649185260210,-0.037125,0.1860375,-0.1197625
1680013660833,1193649187762440,-0.037125,0.1799875,-0.1197625
1680013660836,1193649190264825,-0.031075,0.1799875,-0.120725
1680013660838,1193649192766964,-0.031075,0.1890625,-0.114675
1680013660840,1193649195269118,-0.031075,0.190025,-0.115775
1680013660843,1193649197771272,-0.02805,0.19195,-0.11275
1680013660845,1193649200273502,-0.0240625,0.2000625,-0.11275
1680013660847,1193649202775656,-0.025024999,0.2019875,-0.114675
1680013660850,1193649205278027,-0.025024999,0.20693749,-0.114675
1680013660855,1193649207780181,-0.0231,0.2110625,-0.114675
1680013660855,1193649210282335,-0.02805,0.2050125,-0.115775
1680013660857,1193649212784488,-0.026124999,0.20693749,-0.1188
1680013660860,1193649215286651,-0.025024999,0.205975,-0.1167375
1680013660865,1193649217788882,-0.0301125,0.20295,-0.11275
1680013660866,1193649220291267,-0.0290125,0.2000625,-0.1117875
1680013660869,1193649222793421,-0.0301125,0.1890625,-0.1117875
1680013660870,1193649225295569,-0.033,0.1739375,-0.109725
1680013660873,1193649227797723,-0.039049998,0.16005,-0.1078
1680013660875,1193649230299877,-0.044,0.139975,-0.104775
1680013660878,1193649232802108,-0.0490875,0.1189375,-0.0996875
1680013660880,1193649235304262,-0.059125,0.095975,-0.0996875
1680013660883,1193649237806627,-0.0680625,0.066,-0.095699996
1680013660886,1193649240308781,-0.077,0.0320375,-0.092675
1680013660887,1193649242810935,-0.087037496,-9.625E-4,-0.0867625
1680013660890,1193649245313089,-0.099,-0.033,-0.082775
1680013660893,1193649247815325,-0.109037496,-0.07095,-0.0807125
1680013660895,1193649250317402,-0.120037496,-0.1170125,-0.0757625
1680013660898,1193649252819863,-0.12705,-0.1530375,-0.06875
1680013660900,1193649255322017,-0.135025,-0.1909875,-0.0627
1680013660907,1193649257824128,-0.143,-0.227975,-0.0587125
1680013660908,1193649260326282,-0.147125,-0.256025,-0.0528
1680013660911,1193649262828436,-0.1530375,-0.28393748,-0.048675
1680013660918,1193649265330661,-0.157025,-0.3089625,-0.048675
1680013660922,1193649267832815,-0.157025,-0.32793748,-0.0418
1680013660922,1193649270335200,-0.1610125,-0.3430625,-0.038775
1680013660922,1193649272837354,-0.1590875,-0.3609375,-0.0367125
1680013660922,1193649275339508,-0.1590875,-0.37193748,-0.032725
1680013660924,1193649277841661,-0.1551,-0.3829375,-0.0317625
1680013660928,1193649280343800,-0.1511125,-0.3870625,-0.0317625
1680013660928,1193649282846262,-0.1511125,-0.3920125,-0.027775
1680013660932,1193649285348416,-0.1450625,-0.399025,-0.026675
1680013660936,1193649287850569,-0.1441,-0.40094998,-0.0257125
1680013660936,1193649290352723,-0.1401125,-0.3999875,-0.0226875
1680013660937,1193649292854858,-0.136125,-0.40094998,-0.02475
1680013660940,1193649295357089,-0.1331,-0.40301248,-0.0237875
1680013660945,1193649297859243,-0.1310375,-0.4049375,-0.0237875
1680013660946,1193649300361627,-0.1280125,-0.4060375,-0.0287375
1680013660949,1193649302863796,-0.12705,-0.40301248,-0.0287375
1680013660950,1193649305365950,-0.1260875,-0.399025,-0.0317625
1680013660953,1193649307868104,-0.124025,-0.396,-0.0347875
1680013660955,1193649310370258,-0.122099996,-0.3999875,-0.038775
1680013660958,1193649312872489,-0.1230625,-0.3980625,-0.0427625
1680013660960,1193649315374873,-0.1230625,-0.3950375,-0.0477125
1680013660963,1193649317877027,-0.122099996,-0.38995,-0.049775
1680013660966,1193649320379181,-0.11605,-0.3829375,-0.054725
1680013660967,1193649322881335,-0.1181125,-0.37895,-0.05775
1680013660970,1193649325383460,-0.1150875,-0.36905,-0.0617375
1680013660973,1193649327885613,-0.1111,-0.359975,-0.0647625
1680013660975,1193649330388075,-0.1111,-0.3510375,-0.0677875
1680013660977,1193649332890229,-0.108075,-0.33605,-0.070675
1680013660982,1193649335392378,-0.10505,-0.3180375,-0.0727375
1680013660984,1193649337894532,-0.103125,-0.3089625,-0.0757625
1680013660986,1193649340396685,-0.099,-0.2960375,-0.0787875
1680013660988,1193649342898916,-0.0961125,-0.282975,-0.081675
1680013660993,1193649345401084,-0.0950125,-0.2679875,-0.0837375
1680013660994,1193649347903469,-0.091025,-0.2569875,-0.0858
1680013660995,1193649350405623,-0.086075,-0.2429625,-0.082775
1680013660998,1193649352907776,-0.0851125,-0.223025,-0.0847
1680013660999,1193649355409930,-0.08305,-0.201025,-0.087725
1680013661006,1193649357912089,-0.080025,-0.183975,-0.0897875
1680013661007,1193649360414551,-0.078099996,-0.16499999,-0.0886875
1680013661008,1193649362916704,-0.0760375,-0.1420375,-0.087725
1680013661010,1193649365418858,-0.070125,-0.1280125,-0.087725
1680013661013,1193649367921012,-0.066,-0.11,-0.0847
1680013661017,1193649370423176,-0.0631125,-0.087037496,-0.082775
1680013661019,1193649372925330,-0.0600875,-0.0699875,-0.081675
1680013661021,1193649375427484,-0.0561,-0.0589875,-0.0787875
1680013661024,1193649377929945,-0.0521125,-0.0430375,-0.0757625
1680013661025,1193649380432099,-0.0451,-0.0199375,-0.0727375
1680013661027,1193649382934287,-0.042075,-0.0089375,-0.0677875
1680013661031,1193649385436441,-0.0350625,0.0070125,-0.0677875
1680013661033,1193649387938595,-0.0301125,0.02695,-0.0697125
1680013661035,1193649390440825,-0.0231,0.0449625,-0.0647625
1680013661039,1193649392942960,-0.0180125,0.058025,-0.059675
1680013661040,1193649395445345,-0.014025,0.077,-0.0567875
1680013661045,1193649397947499,-0.011,0.095975,-0.054725
1680013661046,1193649400449653,-0.0100375,0.1109625,-0.054725
1680013661048,1193649402951807,-0.003025,0.12705,-0.0537625
1680013661050,1193649405453955,-0.0,0.143,-0.0477125
1680013661053,1193649407956417,-0.0,0.1519375,-0.0477125
1680013661057,1193649410458571,0.0039875,0.16005,-0.0446875
1680013661058,1193649412960725,0.00495,0.168025,-0.0418
1680013661060,1193649415462883,0.0059125,0.1739375,-0.043725
1680013661064,1193649417965037,0.0108624995,0.1799875,-0.043725
1680013661066,1193649420467191,0.01595,0.1860375,-0.0446875
1680013661068,1193649422969422,0.018975,0.18493749,-0.0477125
1680013661070,1193649425471807,0.0218625,0.1890625,-0.0507375
1680013661073,1193649427973950,0.0248875,0.1940125,-0.0528
1680013661075,1193649430476104,0.0248875,0.194975,-0.0537625
1680013661080,1193649432978258,0.023924999,0.1959375,-0.049775
1680013661081,1193649435480465,0.0248875,0.1940125,-0.049775
1680013661083,1193649437982927,0.02695,0.190025,-0.0528
1680013661086,1193649440484850,0.0218625,0.18205,-0.049775
1680013661089,1193649442987234,0.0209,0.1720125,-0.0477125
1680013661090,1193649445489411,0.0169125,0.1659625,-0.048675
1680013661095,1193649447991565,0.0138875,0.1549625,-0.048675
1680013661097,1193649450493719,0.007975,0.14795,-0.0446875
1680013661099,1193649452995873,0.0059125,0.135025,-0.0457875
1680013661100,1193649455498334,0.00495,0.121,-0.0477125
1680013661103,1193649458000522,9.625E-4,0.1120625,-0.0457875
1680013661105,1193649460502676,-0.0070125,0.1029875,-0.0446875
1680013661107,1193649463004830,-0.0100375,0.088,-0.0427625
1680013661110,1193649465506984,-0.013062499,0.08195,-0.0418
1680013661113,1193649468009243,-0.0160875,0.069025,-0.038775
1680013661115,1193649470511397,-0.0180125,0.058025,-0.037675
1680013661119,1193649473013551,-0.01705,0.051975,-0.0347875
1680013661121,1193649475515705,-0.0210375,0.040975,-0.032725
1680013661124,1193649478017844,-0.0240625,0.039049998,-0.032725
1680013661125,1193649480520228,-0.0210375,0.0339625,-0.027775
1680013661128,1193649483022459,-0.01705,0.0309375,-0.0226875
1680013661132,1193649485524613,-0.015125,0.0309375,-0.02475
1680013661134,1193649488026782,-0.0121,0.02695,-0.0226875
1680013661136,1193649490528936,-0.0081124995,0.0290125,-0.0226875
1680013661138,1193649493031090,-0.003025,0.0240625,-0.0207625
1680013661140,1193649495533551,0.001925,0.02695,-0.0207625
1680013661143,1193649498035656,0.0089375,0.02695,-0.021724999
1680013661145,1193649500537887,0.0099,0.022,-0.021724999
1680013661147,1193649503040041,0.012925,0.02695,-0.0207625
1680013661150,1193649505542195,0.0169125,0.0320375,-0.0226875
1680013661153,1193649508044348,0.0209,0.025024999,-0.02475
1680013661156,1193649510546733,0.023924999,0.033,-0.0257125
1680013661162,1193649513048964,0.02695,0.0350625,-0.0297
1680013661163,1193649515551089,0.028875,0.039049998,-0.0287375
1680013661164,1193649518053242,0.0328625,0.0430375,-0.032725
1680013661166,1193649520555396,0.0339625,0.04895,-0.0336875
1680013661169,1193649523057550,0.0328625,0.051975,-0.0317625
1680013661173,1193649525560012,0.0328625,0.0570625,-0.0297
1680013661174,1193649528062080,0.0339625,0.0620125,-0.0287375
1680013661176,1193649530564310,0.0319,0.066,-0.026675
1680013661177,1193649533066464,0.02695,0.0730125,-0.027775
1680013661182,1193649535568618,0.0279125,0.080025,-0.02475
1680013661184,1193649538070792,0.02695,0.08305,-0.0237875
1680013661186,1193649540572946,0.023924999,0.0900625,-0.0226875
1680013661189,1193649543075407,0.023924999,0.095975,-0.0187
1680013661190,1193649545577484,0.0248875,0.0950125,-0.0177375
1680013661194,1193649548079715,0.0218625,0.0999625,-0.016775
1680013661195,1193649550581850,0.0218625,0.0999625,-0.014712499
1680013661199,1193649553084004,0.018975,0.0999625,-0.0116875
1680013661200,1193649555586158,0.0169125,0.0969375,-0.0116875
1680013661203,1193649558088542,0.0108624995,0.09295,-0.0088
1680013661207,1193649560590787,0.007975,0.0889625,-0.010725
1680013661208,1193649563092941,0.0028875,0.08195,-0.0067375
1680013661210,1193649565595095,-0.0011,0.069025,-0.005775
1680013661213,1193649568097249,-0.003025,0.066,-0.0037125
1680013661215,1193649570599402,-0.009075,0.055,-0.00275
1680013661218,1193649573101854,-0.013062499,0.0369875,-6.875E-4
1680013661221,1193649575603931,-0.0160875,0.0309375,-6.875E-4
1680013661225,1193649578106162,-0.0240625,0.0229625,-0.0017875
1680013661225,1193649580608316,-0.0221375,0.007975,0.0033
1680013661228,1193649583110465,-0.025024999,-0.0039875,0.0012375
1680013661231,1193649585612619,-0.0290125,-0.0149875,2.75E-4
1680013661233,1193649588115004,-0.026124999,-0.0180125,0.0042625
1680013661235,1193649590617235,-0.026124999,-0.0240625,0.0033
1680013661240,1193649593119307,-0.026124999,-0.0369875,0.0042625
1680013661242,1193649595621537,-0.026124999,-0.0479875,0.0042625
1680013661248,1193649598123691,-0.0240625,-0.055,0.006325
1680013661249,1193649600625816,-0.0210375,-0.061049998,0.0033
1680013661250,1193649603128201,-0.0191125,-0.0639375,0.0033
1680013661251,1193649605630355,-0.0191125,-0.0699875,0.005225
1680013661253,1193649608132585,-0.015125,-0.0809875,0.005225
1680013661255,1193649610634739,-0.0160875,-0.0859375,0.005225
1680013661258,1193649613136893,-0.013062499,-0.087037496,0.006325
1680013661260,1193649615639042,-0.0100375,-0.09295,0.006325
1680013661263,1193649618141196,-0.009075,-0.09405,0.0103124995
1680013661265,1193649620643657,-0.0081124995,-0.09405,0.0103124995
1680013661268,1193649623145734,-0.0050875,-0.09295,0.011275
1680013661270,1193649625647965,-0.0011,-0.09295,0.0103124995
1680013661274,1193649628150119,-0.0011,-0.0950125,0.0132
1680013661275,1193649630652273,-0.003025,-0.0900625,0.016224999
1680013661279,1193649633154427,-0.0011,-0.08305,0.01925
1680013661282,1193649635656797,-0.003025,-0.080025,0.016224999
1680013661284,1193649638159028,9.625E-4,-0.0760375,0.01925
1680013661286,1193649640661105,-0.003025,-0.066,0.0213125
1680013661289,1193649643163336,-0.0070125,-0.0650375,0.0213125
1680013661291,1193649645665489,-0.00605,-0.055,0.022275
1680013661294,1193649648167657,-0.0050875,-0.050049998,0.0242
1680013661295,1193649650670042,-0.0081124995,-0.0430375,0.027224999
1680013661298,1193649653172196,-0.0100375,-0.039049998,0.0262625
1680013661301,1193649655674427,-0.0100375,-0.0309375,0.0253
1680013661303,1193649658176565,-0.0111375,-0.0240625,0.027224999
1680013661306,1193649660678719,-0.014025,-0.018975,0.027224999
1680013661308,1193649663180873,-0.015125,-0.01595,0.0242
1680013661311,1193649665683258,-0.0180125,-0.0089375,0.0213125
1680013661313,1193649668185398,-0.0191125,-0.00605,0.022275
1680013661316,1193649670687551,-0.0221375,-0.003025,0.017324999
1680013661322,1193649673189782,-0.0221375,-9.625E-4,0.0143
1680013661323,1193649675691936,-0.0210375,0.003025,0.011275
1680013661326,1193649678192994,-0.0210375,0.00495,0.0092124995
1680013661326,1193649680694071,-0.020075,0.011,0.0092124995
1680013661328,1193649683198609,-0.0191125,0.01595,0.0042625
1680013661330,1193649685700763,-0.020075,0.0180125,0.0012375
1680013661334,1193649688202994,-0.0240625,0.0199375,-0.00275
1680013661336,1193649690705148,-0.0240625,0.018975,-0.004675
1680013661338,1193649693207302,-0.0221375,0.0199375,-0.0077
1680013661340,1193649695709456,-0.020075,0.025024999,-0.010725
1680013661344,1193649698211840,-0.01705,0.0240625,-0.014712499
1680013661345,1193649700713994,-0.015125,0.022,-0.015675
1680013661348,1193649703216225,-0.014025,0.018975,-0.0177375
1680013661350,1193649705718379,-0.013062499,0.018975,-0.0187
1680013661354,1193649708220533,-0.0111375,0.0149875,-0.0187
1680013661357,1193649710722671,-0.0100375,0.0149875,-0.0198
1680013661361,1193649713225056,-0.00605,0.011,-0.0207625
1680013661362,1193649715727210,-0.0050875,0.00605,-0.0187
1680013661364,1193649718229364,-0.003025,9.625E-4,-0.0177375
1680013661368,1193649720731581,-0.003025,-0.0,-0.015675
1680013661368,1193649723233734,9.625E-4,-9.625E-4,-0.010725
1680013661371,1193649725735888,-1.375E-4,-0.0070125,-0.0116875
1680013661374,1193649728238273,-1.375E-4,-0.0100375,-0.014712499
1680013661376,1193649730740427,0.0028875,-0.013062499,-0.0097624995
1680013661378,1193649733242576,0.006875,-0.011,-0.0077
1680013661381,1193649735744806,0.0089375,-0.01595,-0.0077
1680013661384,1193649738246960,0.0089375,-0.01595,-0.0077
1680013661386,1193649740749114,0.0108624995,-0.0180125,-0.0088
1680013661389,1193649743251518,0.012925,-0.01595,-0.0067375
1680013661390,1193649745753671,0.01595,-0.0149875,-0.005775
1680013661395,1193649748255825,0.01595,-0.01705,-0.0067375
1680013661397,1193649750758056,0.01595,-0.01595,-0.005775
1680013661400,1193649753260229,0.0169125,-0.01595,-0.0037125
1680013661401,1193649755762383,0.01595,-0.0180125,-0.0037125
1680013661403,1193649758264537,0.012925,-0.0149875,-0.0037125
1680013661405,1193649760766921,0.012925,-0.011,-0.0037125
1680013661408,1193649763269075,0.0099,-0.0119624995,2.75E-4
1680013661410,1193649765771234,0.0099,-0.0119624995,-6.875E-4
1680013661414,1193649768273388,0.0099,-0.014025,2.75E-4
1680013661415,1193649770775619,0.007975,-0.013062499,0.005225
1680013661419,1193649773277772,0.00495,-0.013062499,0.0042625
1680013661420,1193649775780172,-1.375E-4,-0.01595,0.0042625
1680013661423,1193649778282326,-0.0050875,-0.014025,0.0072875
1680013661425,1193649780784480,-0.0081124995,-0.018975,0.0072875
1680013661428,1193649783286711,-0.0111375,-0.022,0.00825
1680013661432,1193649785788883,-0.013062499,-0.0199375,0.0092124995
1680013661434,1193649788291268,-0.0160875,-0.0240625,0.011275
1680013661436,1193649790793422,-0.0191125,-0.0290125,0.0103124995
1680013661438,1193649793295576,-0.0210375,-0.0240625,0.00825
1680013661440,1193649795797730,-0.0210375,-0.01705,0.00825
1680013661446,1193649798299863,-0.026124999,-0.018975,0.006325
1680013661451,1193649800802094,-0.0270875,-0.01705,0.006325
1680013661451,1193649803304248,-0.0270875,-0.011,0.0022
1680013661451,1193649805806633,-0.0270875,-0.0100375,-0.00275
1680013661453,1193649808308768,-0.0290125,-0.013062499,-0.00275
1680013661455,1193649810810921,-0.0301125,-0.0089375,-0.005775
1680013661457,1193649813313075,-0.026124999,-0.0089375,-0.0088
1680013661461,1193649815815306,-0.026124999,-0.0089375,-0.0097624995
1680013661463,1193649818317475,-0.026124999,-0.0070125,-0.014712499
1680013661465,1193649820819860,-0.0240625,-0.003025,-0.0198
1680013661469,1193649823322013,-0.0231,-9.625E-4,-0.0198
1680013661470,1193649825824167,-0.0210375,0.0020625,-0.02475
1680013661473,1193649828326335,-0.0191125,0.0020625,-0.0287375
1680013661475,1193649830828566,-0.0160875,-0.0,-0.0317625
1680013661479,1193649833330720,-0.013062499,0.0020625,-0.0317625
1680013661480,1193649835833104,-0.013062499,-9.625E-4,-0.0297
1680013661483,1193649838335258,-0.0081124995,0.0039875,-0.0297
1680013661486,1193649840837422,-0.004125,0.0020625,-0.0287375
1680013661487,1193649843339576,-0.0050875,-0.0039875,-0.026675
1680013661490,1193649845841730,-0.004125,-0.0,-0.027775
1680013661494,1193649848343961,9.625E-4,-0.0020625,-0.0257125
1680013661495,1193649850846128,0.001925,-0.0070125,-0.0237875
1680013661497,1193649853348513,0.006875,-0.00605,-0.021724999
1680013661500,1193649855850667,0.0099,-0.007975,-0.0198
1680013661504,1193649858352826,0.0089375,-0.011,-0.016775
1680013661508,1193649860854980,0.012925,-0.0119624995,-0.0088
1680013661508,1193649863357210,0.0169125,-0.0149875,-0.0097624995
1680013661510,1193649865859364,0.0138875,-0.0180125,-0.0097624995
1680013661514,1193649868361532,0.01595,-0.0180125,-0.0067375
1680013661516,1193649870863917,0.01595,-0.0210375,-0.0037125
1680013661521,1193649873366070,0.01595,-0.0180125,-0.004675
1680013661522,1193649875868224,0.018975,-0.0210375,-0.00275
1680013661524,1193649878370445,0.0169125,-0.0210375,2.75E-4
1680013661526,1193649880872599,0.0218625,-0.0199375,-6.875E-4
1680013661528,1193649883374984,0.023924999,-0.0199375,-0.0037125
1680013661533,1193649885876907,0.0248875,-0.0240625,-0.0017875
1680013661533,1193649888379291,0.023924999,-0.022,-6.875E-4
1680013661535,1193649890881449,0.0259875,-0.0240625,-0.0037125
1680013661538,1193649893383680,0.0259875,-0.025024999,-0.005775
1680013661540,1193649895885834,0.023924999,-0.02695,-0.005775
1680013661546,1193649898387979,0.0248875,-0.02695,-0.004675
1680013661547,1193649900890363,0.023924999,-0.02695,-0.0067375
1680013661549,1193649903392517,0.0229625,-0.02695,-0.0077
1680013661550,1193649905894671,0.0218625,-0.025024999,-0.0088
1680013661554,1193649908396825,0.0199375,-0.025024999,-0.0127875
1680013661555,1193649910899037,0.0169125,-0.0240625,-0.0067375
1680013661559,1193649913401190,0.011,-0.0240625,-0.0067375
1680013661560,1193649915903344,0.0089375,-0.0240625,-0.005775
1680013661564,1193649918405729,0.011,-0.0290125,-0.004675
1680013661568,1193649920907892,0.0099,-0.0259875,0.0012375
1680013661569,1193649923410046,0.0089375,-0.0290125,2.75E-4
1680013661570,1193649925912276,0.006875,-0.0309375,0.0042625
1680013661573,1193649928414430,0.007975,-0.0350625,0.0092124995
1680013661575,1193649930916815,0.00495,-0.02805,0.00825
1680013661579,1193649933418724,0.001925,-0.029975,0.0132
1680013661583,1193649935921109,0.001925,-0.029975,0.011275
1680013661585,1193649938423262,9.625E-4,-0.0309375,0.01925
1680013661587,1193649940925493,-0.0011,-0.02805,0.015262499
1680013661588,1193649943427647,-0.003025,-0.02805,0.016224999
1680013661591,1193649945929815,-0.004125,-0.02695,0.016224999
1680013661594,1193649948432200,-0.003025,-0.025024999,0.017324999
1680013661601,1193649950934305,-0.004125,-0.0259875,0.0213125
1680013661601,1193649953436459,-0.0100375,-0.022,0.0213125
1680013661602,1193649955938690,-0.0121,-0.018975,0.0213125
1680013661604,1193649958440844,-0.013062499,-0.0210375,0.0213125
1680013661605,1193649960942998,-0.013062499,-0.0180125,0.022275
1680013661608,1193649963445152,-0.0121,-0.01705,0.01925
1680013661611,1193649965947555,-0.014025,-0.0180125,0.0202125
1680013661614,1193649968449709,-0.014025,-0.01705,0.0202125
1680013661616,1193649970951940,-0.0121,-0.0149875,0.01925
1680013661620,1193649973454094,-0.013062499,-0.0199375,0.01925
1680013661621,1193649975956281,-0.013062499,-0.0199375,0.022275
1680013661624,1193649978458435,-0.0100375,-0.0199375,0.0232375
1680013661626,1193649980960589,-0.011,-0.025024999,0.0202125
1680013661628,1193649983462974,-0.011,-0.0240625,0.0213125
1680013661631,1193649985965128,-0.009075,-0.0240625,0.0232375
1680013661634,1193649988467324,-0.0070125,-0.02695,0.0232375
1680013661636,1193649990969478,-0.004125,-0.0309375,0.0292875
1680013661639,1193649993471632,-0.003025,-0.0339625,0.0323125
1680013661640,1193649995973786,9.625E-4,-0.0350625,0.0342375
1680013661643,1193649998476171,0.001925,-0.033,0.0342375
1680013661645,1193650000978324,0.00495,-0.033,0.0363
1680013661648,1193650003480555,0.0099,-0.036025,0.038225
1680013661650,1193650005982709,0.011,-0.036025,0.0402875
1680013661654,1193650008485065,0.0138875,-0.0350625,0.0422125
1680013661657,1193650010986988,0.017875,-0.039049998,0.044275
1680013661659,1193650013489142,0.022,-0.039049998,0.0473
1680013661660,1193650015991526,0.0229625,-0.044,0.049225
1680013661663,1193650018493777,0.023924999,-0.047025,0.049225
1680013661666,1193650020995931,0.0248875,-0.047025,0.0543125
1680013661668,1193650023498085,0.0279125,-0.0510125,0.0583
1680013661671,1193650026000239,0.0279125,-0.0529375,0.0592625
1680013661674,1193650028502416,0.029975,-0.058025,0.0592625
1680013661675,1193650031004801,0.0259875,-0.066,0.0622875
1680013661679,1193650033507032,0.0248875,-0.07205,0.0642125
1680013661680,1193650036009186,0.0229625,-0.077,0.0653125
1680013661684,1193650038511340,0.0209,-0.0809875,0.0672375
1680013661685,1193650041013483,0.022,-0.0919875,0.0672375
1680013661688,1193650043515637,0.0199375,-0.099,0.071225
1680013661690,1193650046018022,0.0169125,-0.102025,0.07425
1680013661697,1193650048520152,0.01595,-0.109037496,0.0763125
1680013661697,1193650051022383,0.012925,-0.11605,0.077275
1680013661699,1193650053524536,0.012925,-0.1219625,0.082225
1680013661701,1193650056026690,0.00495,-0.1299375,0.082225
1680013661704,1193650058528844,0.00495,-0.1329625,0.083325
1680013661705,1193650061030998,-0.0,-0.13805,0.08525
1680013661708,1193650063533397,-0.004125,-0.146025,0.08525
1680013661710,1193650066035627,-0.0070125,-0.1519375,0.082225
1680013661714,1193650068537781,-0.0081124995,-0.157025,0.0862125
1680013661718,1193650071039964,-0.0121,-0.161975,0.0873125
1680013661719,1193650073542118,-0.015125,-0.16293749,0.0873125
1680013661722,1193650076044272,-0.0180125,-0.1659625,0.082225
1680013661724,1193650078546426,-0.0210375,-0.16995,0.0803
1680013661726,1193650081048887,-0.0231,-0.1739375,0.0792
1680013661728,1193650083551051,-0.026124999,-0.16995,0.0803
1680013661732,1193650086053205,-0.0290125,-0.1739375,0.077275
1680013661734,1193650088555359,-0.033,-0.1769625,0.07425
1680013661736,1193650091057513,-0.0320375,-0.1769625,0.072325
1680013661738,1193650093559882,-0.0350625,-0.176,0.0732875
1680013661741,1193650096062036,-0.037125,-0.17105,0.069299996
1680013661744,1193650098564267,-0.039049998,-0.168025,0.0672375
1680013661745,1193650101066421,-0.042075,-0.16995,0.0672375
1680013661748,1193650103568598,-0.039049998,-0.1689875,0.066275
1680013661751,1193650106070983,-0.042075,-0.16293749,0.0653125
1680013661753,1193650108573137,-0.0460625,-0.16005,0.0653125
1680013661757,1193650111075291,-0.044,-0.1610125,0.0653125
1680013661759,1193650113577431,-0.044,-0.1579875,0.0653125
1680013661760,1193650116079585,-0.044,-0.157025,0.066275
1680013661763,1193650118581738,-0.044,-0.14905,0.0653125
1680013661767,1193650121084200,-0.044,-0.1469875,0.0642125
1680013661770,1193650123586359,-0.0430375,-0.1439625,0.061325
1680013661771,1193650126088513,-0.0400125,-0.14093749,0.0583
1680013661774,1193650128590666,-0.0451,-0.13805,0.0583
1680013661776,1193650131092820,-0.0411125,-0.1359875,0.0562375
1680013661778,1193650133594974,-0.0400125,-0.1310375,0.055275
1680013661780,1193650136097137,-0.0411125,-0.1310375,0.052249998
1680013661783,1193650138599599,-0.0411125,-0.1280125,0.049225
1680013661786,1193650141101752,-0.039049998,-0.1219625,0.0473
1680013661788,1193650143603906,-0.0350625,-0.1189375,0.041249998
1680013661791,1193650146106046,-0.0290125,-0.120037496,0.0402875
1680013661794,1193650148608200,-0.0320375,-0.1189375,0.0372625
1680013661796,1193650151110431,-0.02805,-0.1170125,0.033275
1680013661798,1193650153612585,-0.0240625,-0.11495,0.0312125
1680013661801,1193650156114969,-0.0210375,-0.11,0.0262625
1680013661804,1193650158617137,-0.0240625,-0.106975,0.0202125
1680013661807,1193650161119291,-0.020075,-0.106975,0.017324999
1680013661808,1193650163621445,-0.0191125,-0.1029875,0.015262499
1680013661811,1193650166123585,-0.0180125,-0.1029875,0.015262499
1680013661814,1193650168626046,-0.013062499,-0.10395,0.011275
1680013661816,1193650171128200,-0.011,-0.1010625,0.0092124995
1680013661819,1193650173630354,-0.0081124995,-0.0999625,0.005225
1680013661821,1193650176132527,-0.0070125,-0.1010625,0.005225
1680013661824,1193650178634681,-0.004125,-0.102025,0.0022
1680013661825,1193650181136834,-0.0070125,-0.099,0.0012375
1680013661829,1193650183639065,-0.0050875,-0.0999625,-0.00275
1680013661830,1193650186141450,-0.0050875,-0.102025,-0.0077
1680013661834,1193650188643575,-0.004125,-0.1029875,-0.0097624995
1680013661837,1193650191145729,-0.003025,-0.098037496,-0.0088
1680013661839,1193650193647882,-0.003025,-0.09295,-0.0116875
1680013661841,1193650196150036,-0.004125,-0.0919875,-0.014712499
1680013661846,1193650198652483,-0.003025,-0.0859375,-0.015675
1680013661847,1193650201154406,-0.003025,-0.08305,-0.014712499
1680013661850,1193650203656791,-0.0011,-0.0809875,-0.014712499
1680013661851,1193650206158944,-0.003025,-0.077,-0.0116875
1680013661854,1193650208661118,-0.0,-0.0669625,-0.010725
1680013661856,1193650211163272,-0.003025,-0.0589875,-0.010725
1680013661858,1193650213665426,-0.0,-0.055,-0.0116875
1680013661861,1193650216167887,-0.003025,-0.050049998,-0.0116875
1680013661864,1193650218670069,-0.0050875,-0.039049998,-0.010725
1680013661867,1193650221172223,-0.0011,-0.029975,-0.0127875
1680013661868,1193650223674377,-0.0,-0.02695,-0.014712499
1680013661871,1193650226176531,-0.0,-0.0199375,-0.014712499
1680013661873,1193650228678685,-0.003025,-0.0089375,-0.016775
1680013661876,1193650231180920,-0.0011,-0.00495,-0.0177375
1680013661878,1193650233683305,9.625E-4,-0.0,-0.0198
1680013661883,1193650236185459,9.625E-4,0.00495,-0.0207625
1680013661885,1193650238687613,-0.003025,0.0119624995,-0.0187
1680013661887,1193650241189767,-0.0,0.013062499,-0.021724999
1680013661889,1193650243691921,0.001925,0.01705,-0.0237875
1680013661891,1193650246194382,0.0028875,0.018975,-0.0207625
1680013661893,1193650248696305,0.0028875,0.0210375,-0.026675
1680013661896,1193650251198695,0.0028875,0.022,-0.0317625
1680013661900,1193650253700849,0.001925,0.0229625,-0.0287375
1680013661901,1193650256203002,9.625E-4,0.022,-0.0287375
1680013661904,1193650258705156,9.625E-4,0.0180125,-0.032725
1680013661905,1193650261207377,9.625E-4,0.013062499,-0.0297
1680013661909,1193650263709762,0.0028875,0.007975,-0.0297
1680013661911,1193650266211916,0.0039875,0.00495,-0.0317625
1680013661913,1193650268714069,0.0028875,-0.0,-0.0297
1680013661917,1193650271216218,0.0039875,-0.00495,-0.0317625
1680013661922,1193650273718372,0.006875,-0.00605,-0.032725
1680013661926,1193650276219486,0.0059125,-0.00495,-0.0297
1680013661926,1193650278720603,0.006875,-0.007975,-0.027775
1680013661927,1193650281224911,0.007975,-0.011,-0.0287375
1680013661929,1193650283727295,0.0089375,-0.013062499,-0.027775
1680013661931,1193650286229449,0.0099,-0.01705,-0.026675
1680013661934,1193650288731603,0.0089375,-0.0199375,-0.026675
1680013661936,1193650291233757,0.011,-0.0199375,-0.02475
1680013661938,1193650293736032,0.0119624995,-0.0180125,-0.0207625
1680013661941,1193650296238185,0.012925,-0.018975,-0.0198
1680013661944,1193650298740339,0.012925,-0.018975,-0.0198
1680013661946,1193650301242724,0.017875,-0.022,-0.0198
1680013661948,1193650303744868,0.0169125,-0.022,-0.016775
1680013661951,1193650306247022,0.012925,-0.0210375,-0.016775
1680013661954,1193650308749252,0.011,-0.0259875,-0.015675
1680013661958,1193650311251420,0.0099,-0.022,-0.0127875
1680013661960,1193650313753805,0.012925,-0.025024999,-0.014712499
1680013661962,1193650316255959,0.0119624995,-0.02805,-0.0127875
1680013661964,1193650318758113,0.0039875,-0.0290125,-0.0077
1680013661966,1193650321260266,0.0059125,-0.029975,-0.010725
1680013661969,1193650323762502,0.007975,-0.029975,-0.010725
1680013661970,1193650326264656,0.0059125,-0.033,-0.0088
1680013661973,1193650328766810,0.0059125,-0.0290125,-0.0097624995
1680013661976,1193650331269194,9.625E-4,-0.0259875,-0.0088
1680013661978,1193650333771343,-0.0,-0.0259875,-0.0088
1680013661981,1193650336273497,-0.0050875,-0.0180125,-0.0088
1680013661984,1193650338775728,-0.0070125,-0.01595,-0.0067375
1680013661986,1193650341277882,-0.00605,-0.014025,-0.0037125
1680013661988,1193650343780036,-0.0,-0.013062499,-0.005775
1680013661991,1193650346282190,-0.0,-0.011,-0.0077
1680013661996,1193650348784574,-0.003025,-0.007975,-0.0067375
1680013661997,1193650351286728,-0.0050875,-0.007975,-0.004675
1680013662000,1193650353788882,-0.003025,-0.00495,-0.004675
1680013662001,1193650356291113,-0.004125,-0.00495,-0.0077
1680013662004,1193650358793266,-0.0050875,-0.007975,-0.0067375
1680013662006,1193650361295651,-0.0011,-0.0070125,-0.004675
1680013662008,1193650363797574,-0.0081124995,-0.0020625,-0.0088
1680013662011,1193650366299954,-0.0081124995,-0.003025,-0.0088
1680013662013,1193650368802108,-0.0100375,-0.0020625,-0.004675
1680013662016,1193650371304338,-0.0081124995,0.0039875,-0.005775
1680013662019,1193650373806492,-0.011,0.0020625,-0.005775
1680013662021,1193650376308637,-0.0100375,9.625E-4,-0.0037125
1680013662024,1193650378811022,-0.011,9.625E-4,-6.875E-4
1680013662026,1193650381313176,-0.014025,0.00495,2.75E-4
1680013662029,1193650383815329,-0.0121,0.0020625,2.75E-4
1680013662033,1193650386317560,-0.011,0.0020625,0.0022
1680013662035,1193650388819714,-0.0121,0.00495,0.005225
1680013662038,1193650391322099,-0.014025,0.00495,0.006325
1680013662039,1193650393824022,-0.015125,0.0020625,0.006325
1680013662042,1193650396326406,-0.015125,0.0039875,0.00825
1680013662045,1193650398828550,-0.0160875,0.0070125,0.0103124995
1680013662046,1193650401330781,-0.015125,0.0100375,0.011275
1680013662048,1193650403832935,-0.0191125,0.00605,0.011275
1680013662050,1193650406335089,-0.020075,0.00605,0.0143
1680013662054,1193650408837243,-0.0180125,0.0070125,0.015262499
1680013662056,1193650411339396,-0.020075,0.00495,0.0143
1680013662058,1193650413841781,-0.020075,0.0039875,0.0143
1680013662061,1193650416344012,-0.020075,0.0070125,0.0202125
1680013662063,1193650418846157,-0.01705,0.0100375,0.0213125
1680013662066,1193650421348311,-0.0160875,0.00605,0.01925
1680013662071,1193650423850464,-0.0160875,0.00605,0.0202125
1680013662077,1193650426352849,-0.0160875,0.0070125,0.0213125
1680013662077,1193650428855027,-0.014025,0.00605,0.022275
1680013662077,1193650431357258,-0.014025,0.003025,0.0213125
1680013662079,1193650433859412,-0.013062499,0.0020625,0.0213125
1680013662081,1193650436361565,-0.009075,0.007975,0.0202125
1680013662084,1193650438863719,-0.011,0.0070125,0.0202125
1680013662086,1193650441365873,-0.0070125,0.003025,0.01925
1680013662088,1193650443868335,-0.011,0.003025,0.017324999
1680013662091,1193650446370412,-0.0100375,0.00495,0.0143
1680013662094,1193650448872642,-0.009075,0.00605,0.0143
1680013662096,1193650451374796,-0.0100375,0.00605,0.0143
1680013662098,1193650453876950,-0.007975,0.00495,0.0122375
1680013662101,1193650456379104,-0.0070125,0.00605,0.0122375
1680013662104,1193650458881488,-0.0039875,0.00495,0.0122375
1680013662108,1193650461383690,-0.0050875,0.00605,0.0092124995
1680013662109,1193650463885767,-0.0050875,0.00495,0.0072875
1680013662111,1193650466387921,-0.0,0.00605,0.006325
1680013662114,1193650468890152,9.625E-4,0.0070125,0.005225
1680013662117,1193650471392306,-0.0,0.00605,0.0033
1680013662119,1193650473894699,-0.0,0.00605,0.0033
1680013662121,1193650476396853,-0.0039875,0.0119624995,-6.875E-4
1680013662123,1193650478899007,-0.0039875,0.0119624995,2.75E-4
1680013662126,1193650481401238,9.625E-4,0.0119624995,0.0012375
1680013662128,1193650483903368,0.0039875,0.0149875,-0.0017875
1680013662131,1193650486405521,9.625E-4,0.01705,-0.0037125
1680013662133,1193650488907906,-0.0039875,0.014025,-0.0037125
1680013662136,1193650491410060,-0.003025,0.0180125,-0.0017875
1680013662138,1193650493912214,-0.0039875,0.0210375,-0.0017875
1680013662141,1193650496414373,-0.0039875,0.0210375,-0.0017875
1680013662146,1193650498916603,-0.0050875,0.022,0.0012375
1680013662147,1193650501418680,-0.0050875,0.025024999,-0.0017875
1680013662150,1193650503921161,-0.0050875,0.02805,2.75E-4
1680013662151,1193650506423315,-0.007975,0.0320375,0.0012375
1680013662155,1193650508925469,-0.0070125,0.0350625,0.0022
1680013662156,1193650511427622,-0.007975,0.03795,0.0022
1680013662158,1193650513929776,-0.007975,0.044,0.006325
1680013662161,1193650516431993,-0.009075,0.044,0.005225
1680013662164,1193650518934147,-0.007975,0.0479875,0.0042625
1680013662167,1193650521436532,-0.007975,0.0540375,0.00825
1680013662169,1193650523938685,-0.007975,0.055,0.0072875
1680013662171,1193650526440839,-0.007975,0.0570625,0.00825
1680013662175,1193650528943070,-0.009075,0.0529375,0.0092124995
1680013662176,1193650531445147,-0.0121,0.055,0.0092124995
1680013662179,1193650533947378,-0.0100375,0.0570625,0.0092124995
1680013662182,1193650536449772,-0.009075,0.055,0.0092124995
1680013662185,1193650538951926,-0.0121,0.055,0.0103124995
1680013662188,1193650541454080,-0.0121,0.0540375,0.011275
1680013662189,1193650543956234,-0.013062499,0.0540375,0.00825
1680013662191,1193650546458465,-0.014025,0.051975,0.0072875
1680013662194,1193650548960619,-0.0149875,0.047025,0.005225
1680013662197,1193650551463003,-0.013062499,0.0449625,0.0042625
1680013662198,1193650553965157,-0.013062499,0.0479875,0.0033
1680013662201,1193650556467311,-0.013062499,0.0449625,-0.0017875
1680013662204,1193650558969527,-0.0100375,0.044,-0.00275
1680013662206,1193650561471604,-0.009075,0.040975,-0.0037125
1680013662208,1193650563973834,-0.0121,0.03795,-0.0077
1680013662211,1193650566476219,-0.007975,0.0320375,-0.0097624995
1680013662214,1193650568978373,-0.0100375,0.02695,-0.0088
1680013662216,1193650571480532,-0.0100375,0.0210375,-0.010725
1680013662220,1193650573982686,-0.0100375,0.0149875,-0.014712499
1680013662222,1193650576484916,-0.007975,0.011,-0.0127875
1680013662225,1193650578986969,-0.0070125,0.0020625,-0.0127875
1680013662226,1193650581489200,-0.0011,-0.0020625,-0.0177375
1680013662228,1193650583991585,-0.0011,-0.0070125,-0.016775
1680013662231,1193650586493738,-0.0050875,-0.0089375,-0.016775
1680013662234,1193650588995892,-0.0050875,-0.014025,-0.015675
1680013662237,1193650591498036,-0.0,-0.0199375,-0.0177375
1680013662239,1193650594000267,-0.0039875,-0.022,-0.016775
1680013662241,1193650596502421,9.625E-4,-0.022,-0.0116875
1680013662244,1193650599004805,-0.0,-0.0240625,-0.0127875
1680013662246,1193650601506959,-0.003025,-0.022,-0.0116875
1680013662248,1193650604009080,-0.0039875,-0.0199375,-0.0116875
1680013662251,1193650606511234,-0.0039875,-0.01705,-0.010725
1680013662254,1193650609013388,-0.003025,-0.01595,-0.010725
1680013662258,1193650611515542,9.625E-4,-0.0070125,-0.0088
1680013662259,1193650614017988,-0.003025,-0.00495,-0.0077
1680013662262,1193650616520142,-0.003025,-0.0020625,-0.0097624995
1680013662264,1193650619022296,-0.0050875,0.003025,-0.0127875
1680013662267,1193650621524450,-0.0039875,0.0070125,-0.0088
1680013662269,1193650624026604,-0.0011,0.0119624995,-0.0097624995
1680013662271,1193650626528773,-0.0,0.0149875,-0.0088
1680013662274,1193650629031003,9.625E-4,0.01705,-0.004675
1680013662277,1193650631533388,9.625E-4,0.022,-0.0088
1680013662279,1193650634035542,-0.003025,0.0240625,-0.010725
1680013662281,1193650636537710,-0.003025,0.0309375,-0.005775
1680013662284,1193650639039863,-0.0039875,0.0350625,-0.0067375
1680013662286,1193650641542017,-0.0050875,0.03795,-0.0097624995
1680013662288,1193650644044479,-0.0050875,0.0400125,-0.0097624995
1680013662291,1193650646546392,-0.00605,0.0449625,-0.0067375
1680013662295,1193650649048777,-0.00605,0.047025,-0.004675
1680013662297,1193650651550930,-0.0100375,0.050049998,-0.005775
1680013662299,1193650654053084,-0.009075,0.050049998,-0.005775
1680013662301,1193650656555248,-0.011,0.0510125,-0.005775
1680013662304,1193650659057402,-0.009075,0.0529375,-0.0077
1680013662306,1193650661559864,-0.007975,0.0540375,-0.005775
1680013662308,1193650664061787,-0.0100375,0.0510125,-0.0067375
1680013662311,1193650666564166,-0.0121,0.0510125,-0.0077
1680013662314,1193650669066320,-0.0100375,0.0559625,-0.0067375
1680013662317,1193650671568474,-0.0070125,0.04895,-0.0088
1680013662320,1193650674070628,-0.0100375,0.0460625,-0.0088
1680013662322,1193650676572840,-0.0100375,0.0449625,-0.0077
1680013662325,1193650679075224,-0.009075,0.0369875,-0.0077
1680013662326,1193650681577378,-0.0100375,0.036025,-0.004675
1680013662329,1193650684079532,-0.0100375,0.0290125,-0.004675
1680013662333,1193650686581681,-0.0100375,0.0229625,-0.0037125
1680013662335,1193650689083835,-0.0121,0.0180125,-0.004675
1680013662337,1193650691586296,-0.0149875,0.00605,-0.004675
1680013662339,1193650694088219,-0.0149875,0.0039875,-0.0017875
1680013662341,1193650696590604,-0.014025,-9.625E-4,0.0012375
1680013662344,1193650699092753,-0.018975,-0.011,0.0012375
1680013662346,1193650701594907,-0.01705,-0.0119624995,0.0012375
1680013662348,1193650704097060,-0.0149875,-0.01705,0.0033
1680013662352,1193650706599291,-0.01705,-0.025024999,0.0033
1680013662354,1193650709101671,-0.0180125,-0.022,0.0103124995
1680013662357,1193650711603825,-0.0160875,-0.0240625,0.00825
1680013662359,1193650714105978,-0.01705,-0.0290125,0.011275
1680013662361,1193650716608132,-0.0180125,-0.0309375,0.0103124995
1680013662364,1193650719110286,-0.0180125,-0.033,0.0103124995
1680013662366,1193650721612517,-0.0210375,-0.029975,0.0092124995
1680013662370,1193650724114671,-0.020075,-0.0309375,0.0103124995
1680013662372,1193650726617055,-0.018975,-0.02695,0.0092124995
1680013662375,1193650729119209,-0.0160875,-0.02695,0.0092124995
1680013662376,1193650731621393,-0.0160875,-0.02805,0.0103124995
1680013662379,1193650734123547,-0.0180125,-0.02695,0.0103124995
1680013662381,1193650736625701,-0.01705,-0.0240625,0.011275
1680013662384,1193650739127932,-0.0149875,-0.0240625,0.0103124995
1680013662386,1193650741630085,-0.0149875,-0.018975,0.0103124995
1680013662389,1193650744132248,-0.009075,-0.0100375,0.0092124995
1680013662392,1193650746634402,-0.009075,-0.0100375,0.0103124995
1680013662394,1193650749136864,-0.0070125,-0.0070125,0.00825
1680013662397,1193650751638941,-0.0070125,-0.003025,0.00825
1680013662399,1193650754141167,-0.009075,-0.0020625,0.011275
1680013662401,1193650756643321,-0.0070125,9.625E-4,0.0132
1680013662404,1193650759145475,-0.0039875,0.00605,0.015262499
1680013662411,1193650761647629,-0.0039875,0.007975,0.015262499
1680013662411,1193650764150038,-0.0,0.0119624995,0.015262499
1680013662412,1193650766652268,-0.003025,0.01595,0.015262499
1680013662415,1193650769154422,-0.0050875,0.0180125,0.0132
1680013662417,1193650771656576,-0.0,0.0180125,0.0132
1680013662419,1193650774158730,-0.0011,0.01705,0.0132
1680013662421,1193650776660903,-0.0039875,0.018975,0.0132
1680013662423,1193650779163287,-0.0039875,0.018975,0.011275
1680013662426,1193650781665441,0.001925,0.0180125,0.0122375
1680013662428,1193650784167672,0.001925,0.018975,0.0122375
1680013662431,1193650786669840,-0.0,0.01595,0.0122375
1680013662434,1193650789171994,-0.0,0.0149875,0.0122375
1680013662437,1193650791674148,9.625E-4,0.011,0.011275
1680013662439,1193650794176532,-0.0011,0.0039875,0.0132
1680013662442,1193650796678681,-0.003025,0.0039875,0.0122375
1680013662446,1193650799180835,-0.003025,0.0039875,0.016224999
1680013662447,1193650801683066,-0.0039875,-0.0039875,0.016224999
1680013662449,1193650804185220,-0.003025,-0.003025,0.017324999
1680013662451,1193650806687373,-0.0,-0.007975,0.01925
1680013662454,1193650809189758,-0.0039875,-0.0070125,0.0232375
1680013662456,1193650811691912,-0.00605,-0.011,0.0213125
1680013662459,1193650814194066,-0.0039875,-0.011,0.0213125
1680013662461,1193650816696297,-0.0050875,-0.013062499,0.0213125
1680013662464,1193650819198388,-0.0070125,-0.013062499,0.0232375
1680013662466,1193650821700619,-0.011,-0.013062499,0.0232375
1680013662469,1193650824202773,-0.007975,-0.0149875,0.0242
1680013662471,1193650826705158,-0.011,-0.0180125,0.028324999
1680013662474,1193650829207326,-0.0149875,-0.01595,0.0312125
1680013662477,1193650831709479,-0.0160875,-0.018975,0.028324999
1680013662479,1193650834211710,-0.0160875,-0.0240625,0.0262625
1680013662483,1193650836713787,-0.01705,-0.018975,0.027224999
1680013662485,1193650839216018,-0.0180125,-0.018975,0.028324999
1680013662487,1193650841718402,-0.018975,-0.0240625,0.0253
1680013662490,1193650844220556,-0.020075,-0.02695,0.0253
1680013662492,1193650846722710,-0.020075,-0.02695,0.0253
1680013662494,1193650849224869,-0.022,-0.02695,0.0253
1680013662496,1193650851727100,-0.0231,-0.02805,0.0242
1680013662500,1193650854229254,-0.0210375,-0.0240625,0.0253
1680013662501,1193650856731638,-0.0240625,-0.0259875,0.0253
1680013662504,1193650859233797,-0.0240625,-0.0259875,0.0242
1680013662506,1193650861735951,-0.0231,-0.0259875,0.0242
1680013662508,1193650864238182,-0.0240625,-0.022,0.0232375
1680013662512,1193650866740259,-0.0210375,-0.0210375,0.0213125
1680013662514,1193650869242489,-0.022,-0.0210375,0.0213125
1680013662517,1193650871744879,-0.0240625,-0.0199375,0.01925
1680013662521,1193650874247033,-0.0240625,-0.0240625,0.017324999
1680013662527,1193650876749187,-0.022,-0.022,0.016224999
1680013662527,1193650879251326,-0.0210375,-0.018975,0.017324999
1680013662528,1193650881753556,-0.020075,-0.01595,0.016224999
1680013662529,1193650884255633,-0.0210375,-0.01705,0.016224999
1680013662531,1193650886757864,-0.0231,-0.01595,0.0143
1680013662534,1193650889260249,-0.020075,-0.011,0.0132
1680013662537,1193650891762389,-0.0180125,-0.0089375,0.015262499
1680013662539,1193650894264542,-0.018975,-0.007975,0.0143
1680013662541,1193650896766696,-0.0180125,-0.0039875,0.0132
1680013662544,1193650899268927,-0.0149875,-0.0020625,0.0132
1680013662546,1193650901771071,-0.0149875,-9.625E-4,0.0132
1680013662549,1193650904273456,-0.013062499,9.625E-4,0.0132
1680013662551,1193650906775609,-0.0121,0.0020625,0.0132
1680013662554,1193650909277763,-0.0100375,0.0100375,0.0132
1680013662559,1193650911779874,-0.0070125,0.0070125,0.015262499
1680013662560,1193650914282028,-0.0050875,0.0100375,0.015262499
1680013662562,1193650916784259,-0.0081124995,0.011,0.016224999
1680013662565,1193650919286643,-0.00605,0.0119624995,0.011275
1680013662567,1193650921788797,-0.0011,0.0149875,0.011275
1680013662569,1193650924290951,-0.0011,0.0180125,0.0122375
1680013662572,1193650926793105,0.001925,0.0180125,0.0103124995
1680013662574,1193650929295259,0.0028875,0.0199375,0.0072875
1680013662576,1193650931797490,9.625E-4,0.0210375,0.0042625
1680013662579,1193650934299859,9.625E-4,0.022,0.006325
1680013662582,1193650936802013,0.00495,0.0229625,0.0022
1680013662584,1193650939304167,0.0028875,0.0210375,0.0022
1680013662587,1193650941806321,9.625E-4,0.0210375,2.75E-4
1680013662589,1193650944308480,0.001925,0.0199375,2.75E-4
1680013662591,1193650946810633,-0.004125,0.0180125,-0.0017875
1680013662595,1193650949313095,-0.0011,0.014025,-0.004675
1680013662598,1193650951815018,-0.0050875,0.014025,-0.004675
1680013662600,1193650954317369,-0.00605,0.007975,-0.004675
1680013662602,1193650956819523,-0.00605,0.001925,-0.005775
1680013662605,1193650959321676,-0.0070125,-0.0,-0.005775
1680013662607,1193650961823830,-0.0121,-0.0020625,-0.004675
1680013662609,1193650964325984,-0.0121,-0.00605,-0.0097624995
1680013662611,1193650966828437,-0.013062499,-0.0100375,-0.0067375
1680013662615,1193650969330590,-0.01705,-0.0149875,-0.0088
1680013662617,1193650971832744,-0.020075,-0.014025,-0.0097624995
1680013662618,1193650974334898,-0.0221375,-0.01705,-0.0067375
1680013662621,1193650976837037,-0.020075,-0.0210375,-0.010725
1680013662624,1193650979339268,-0.0221375,-0.01705,-0.0077
1680013662626,1193650981841422,-0.0210375,-0.0180125,-0.0067375
1680013662628,1193650984343806,-0.0231,-0.018975,-0.0097624995
1680013662633,1193650986845955,-0.0240625,-0.020075,-0.0127875
1680013662635,1193650989348109,-0.0240625,-0.018975,-0.0088
1680013662638,1193650991850263,-0.0231,-0.022,-0.005775
1680013662640,1193650994352417,-0.0231,-0.0180125,-0.00275
1680013662643,1193650996854878,-0.0240625,-0.018975,-0.0017875
1680013662645,1193650999356782,-0.025024999,-0.01595,-0.0037125
1680013662647,1193651001859167,-0.0270875,-0.0180125,-0.0017875
1680013662650,1193651004361321,-0.025024999,-0.020075,2.75E-4
1680013662651,1193651006863475,-0.025024999,-0.020075,0.0022
1680013662654,1193651009365615,-0.0240625,-0.01705,0.0033
1680013662656,1193651011867845,-0.0240625,-0.013062499,0.0012375
1680013662659,1193651014370230,-0.0240625,-0.013062499,0.0022
1680013662662,1193651016872384,-0.0290125,-0.014025,0.0042625
1680013662664,1193651019374538,-0.0290125,-0.0100375,0.0033
1680013662667,1193651021876691,-0.0240625,-0.007975,2.75E-4
1680013662671,1193651024378845,-0.026124999,-0.0070125,0.0022
1680013662673,1193651026881307,-0.0270875,-0.00605,0.0042625
1680013662675,1193651029383230,-0.0270875,-0.0039875,0.0033
1680013662678,1193651031885615,-0.0270875,-0.0039875,-6.875E-4
1680013662679,1193651034387768,-0.026124999,-0.003025,0.0022
1680013662682,1193651036889922,-0.026124999,-0.0,-6.875E-4
1680013662684,1193651039392076,-0.02805,0.00495,-0.0037125
1680013662687,1193651041894253,-0.0270875,0.003025,2.75E-4
1680013662689,1193651044396484,-0.026124999,0.001925,-0.00275
1680013662691,1193651046898638,-0.0240625,0.0039875,-0.004675
1680013662696,1193651049400791,-0.026124999,0.00495,-0.0017875
1680013662701,1193651051903176,-0.025024999,0.00495,-6.875E-4
1680013662701,1193651054405345,-0.0240625,0.0070125,-0.004675
1680013662701,1193651056907499,-0.0240625,0.007975,-0.0017875
1680013662704,1193651059409730,-0.0231,0.007975,-0.0017875
1680013662707,1193651061911893,-0.0240625,0.00605,-6.875E-4
1680013662710,1193651064414047,-0.0221375,0.00605,-0.00275
1680013662711,1193651066916201,-0.0221375,0.00495,-0.0017875
1680013662714,1193651069418663,-0.0231,0.0039875,0.0022
1680013662717,1193651071920816,-0.0290125,9.625E-4,0.0042625
1680013662719,1193651074422954,-0.026124999,0.00605,0.0042625
1680013662722,1193651076925108,-0.0231,0.003025,0.0042625
1680013662725,1193651079427262,-0.0240625,9.625E-4,0.005225
1680013662727,1193651081929416,-0.026124999,0.0039875,0.0012375
1680013662728,1193651084431840,-0.0270875,-0.0020625,0.0022
1680013662731,1193651086934070,-0.026124999,-0.0039875,0.0033
1680013662734,1193651089436224,-0.025024999,-0.0039875,0.005225
1680013662736,1193651091938378,-0.025024999,-0.0,0.0033
1680013662738,1193651094440560,-0.025024999,-0.00495,0.0012375
1680013662742,1193651096942714,-0.0210375,-9.625E-4,0.0033
1680013662746,1193651099445175,-0.0231,-0.0039875,0.0022
1680013662747,1193651101947252,-0.0231,-0.007975,0.0042625
1680013662750,1193651104449493,-0.0210375,-0.003025,0.0022
1680013662752,1193651106951647,-0.0210375,-0.00495,0.0012375
1680013662754,1193651109453801,-0.0221375,-0.003025,2.75E-4
1680013662757,1193651111955955,-0.0210375,-0.0020625,0.0012375
1680013662759,1193651114458103,-0.020075,-0.0070125,2.75E-4
1680013662761,1193651116960565,-0.0180125,-0.0070125,-0.0017875
1680013662764,1193651119462642,-0.020075,-0.007975,0.0022
1680013662766,1193651121964873,-0.020075,-0.0119624995,0.0022
1680013662770,1193651124467026,-0.020075,-0.014025,-0.0017875
1680013662771,1193651126969195,-0.0191125,-0.0210375,0.0012375
1680013662774,1193651129471349,-0.0160875,-0.022,2.75E-4
1680013662776,1193651131973734,-0.014025,-0.0210375,0.0022
1680013662778,1193651134475965,-0.015125,-0.0240625,0.0042625
1680013662784,1193651136978108,-0.01705,-0.02695,0.005225
1680013662786,1193651139480262,-0.013062499,-0.022,0.00825
1680013662788,1193651141982416,-0.0160875,-0.020075,0.0072875
1680013662790,1193651144484570,-0.014025,-0.018975,0.0092124995
1680013662792,1193651146987032,-0.014025,-0.013062499,0.00825
1680013662795,1193651149489122,-0.0121,-0.007975,0.011275
1680013662797,1193651151991353,-0.0111375,-0.00495,0.0132
1680013662799,1193651154493507,-0.0111375,-0.003025,0.0103124995
1680013662802,1193651156995661,-0.0100375,-0.0020625,0.0092124995
1680013662804,1193651159497815,-0.0100375,-0.0,0.0122375
1680013662806,1193651162000204,-0.0081124995,0.007975,0.0103124995
1680013662809,1193651164502358,-0.0070125,0.012925,0.0072875
1680013662811,1193651167004512,-0.0070125,0.011,0.00825
1680013662814,1193651169506743,-0.004125,0.012925,0.0072875
1680013662816,1193651172008892,-0.009075,0.014025,0.0072875
1680013662821,1193651174511046,-0.0081124995,0.01595,0.0072875
1680013662823,1193651177013430,-0.0081124995,0.018975,0.006325
1680013662825,1193651179515584,-0.009075,0.0210375,0.0072875
1680013662827,1193651182017811,-0.0100375,0.025024999,0.006325
1680013662829,1193651184519965,-0.0100375,0.023924999,0.0092124995
1680013662831,1193651187022119,-0.0111375,0.023924999,0.0072875
1680013662834,1193651189524272,-0.0111375,0.025024999,0.0092124995
1680013662837,1193651192026426,-0.0100375,0.029975,0.0122375
1680013662839,1193651194528825,-0.0100375,0.02695,0.0103124995
1680013662841,1193651197030979,-0.009075,0.0290125,0.0122375
1680013662845,1193651199533209,-0.0100375,0.029975,0.0122375
1680013662846,1193651202035363,-0.014025,0.034925,0.015262499
1680013662849,1193651204537517,-0.014025,0.036025,0.015262499
1680013662852,1193651207039671,-0.0121,0.036025,0.016224999
1680013662855,1193651209542056,-0.0111375,0.0339625,0.016224999
1680013662858,1193651212044210,-0.0111375,0.039049998,0.0143
1680013662860,1193651214546339,-0.0111375,0.040975,0.0122375
1680013662862,1193651217048493,-0.013062499,0.040975,0.0122375
1680013662864,1193651219550724,-0.014025,0.0400125,0.0122375
1680013662866,1193651222052878,-0.0121,0.0430375,0.0092124995
1680013662869,1193651224555262,-0.0121,0.0430375,0.00825
1680013662871,1193651227057397,-0.014025,0.0430375,0.0092124995
1680013662875,1193651229559551,-0.014025,0.036025,0.006325
1680013662877,1193651232061782,-0.014025,0.0339625,0.0033
1680013662879,1193651234563859,-0.0160875,0.0320375,0.0033
1680013662881,1193651237066109,-0.0160875,0.029975,-6.875E-4
1680013662885,1193651239568493,-0.0121,0.0290125,-0.00275
1680013662886,1193651242070647,-0.013062499,0.02695,-0.00275
1680013662889,1193651244572801,-0.013062499,0.0210375,-0.0037125
1680013662891,1193651247074960,-0.013062499,0.018975,-0.004675
1680013662896,1193651249577191,-0.013062499,0.011,-0.0077
1680013662898,1193651252079344,-0.0100375,0.0039875,-0.00275
1680013662900,1193651254581729,-0.0100375,-0.003025,-6.875E-4
1680013662901,1193651257083873,-0.0100375,-0.00605,-0.0017875
1680013662904,1193651259586027,-0.0121,-0.011,0.0012375
1680013662906,1193651262088258,-0.0121,-0.0180125,0.0033
1680013662909,1193651264590334,-0.013062499,-0.022,0.0033
1680013662911,1193651267092565,-0.013062499,-0.022,0.0033
1680013662914,1193651269594700,-0.013062499,-0.025024999,0.006325
1680013662917,1193651272097085,-0.015125,-0.031075,0.00825
1680013662920,1193651274599239,-0.0111375,-0.033,0.0132
1680013662922,1193651277101392,-0.0070125,-0.031075,0.0143
1680013662925,1193651279603546,-0.013062499,-0.033,0.016224999
1680013662927,1193651282105700,-0.015125,-0.0320375,0.017324999
1680013662929,1193651284607931,-0.013062499,-0.0350625,0.0202125
1680013662933,1193651287110306,-0.015125,-0.0350625,0.01925
1680013662936,1193651289612459,-0.015125,-0.0339625,0.01925
1680013662938,1193651292114613,-0.013062499,-0.0290125,0.0213125
1680013662939,1193651294616767,-0.013062499,-0.025024999,0.01925
1680013662941,1193651297118921,-0.015125,-0.0210375,0.0202125
1680013662944,1193651299621166,-0.013062499,-0.022,0.0202125
1680013662947,1193651302123320,-0.013062499,-0.0180125,0.01925
1680013662950,1193651304625704,-0.014025,-0.0119624995,0.016224999
1680013662951,1193651307127858,-0.014025,-0.009075,0.0132
1680013662955,1193651309630022,-0.0160875,-0.0100375,0.011275
1680013662957,1193651312132176,-0.0121,-0.0070125,0.011275
1680013662959,1193651314634330,-0.0100375,-0.0020625,0.00825
1680013662962,1193651317136791,-0.0081124995,-0.0,0.0092124995
1680013662965,1193651319638700,-0.0050875,0.00605,0.006325
1680013662967,1193651322141085,-0.0050875,0.00605,0.005225
1680013662971,1193651324643239,-0.0070125,0.011,0.005225
1680013662973,1193651327145393,-0.003025,0.0149875,0.0042625
1680013662975,1193651329647531,9.625E-4,0.0149875,0.0022
1680013662977,1193651332149685,-0.003025,0.014025,0.0042625
1680013662979,1193651334652147,9.625E-4,0.0180125,0.0042625
1680013662981,1193651337154301,0.001925,0.01705,2.75E-4
1680013662984,1193651339656455,0.0039875,0.022,2.75E-4
1680013662987,1193651342158632,9.625E-4,0.025024999,-6.875E-4
1680013662989,1193651344660786,9.625E-4,0.025024999,0.0012375
1680013662992,1193651347163017,9.625E-4,0.025024999,-6.875E-4
1680013662994,1193651349665171,9.625E-4,0.0229625,2.75E-4
1680013662997,1193651352167575,-0.0011,0.025024999,-6.875E-4
1680013662999,1193651354669729,-1.375E-4,0.0290125,0.0022
1680013663002,1193651357171883,-0.003025,0.033,0.005225
1680013663004,1193651359674037,-0.0050875,0.02805,0.005225
1680013663008,1193651362176176,-0.004125,0.025024999,0.0022
1680013663010,1193651364678637,-0.00605,0.02805,-6.875E-4
1680013663012,1193651367180561,-0.0081124995,0.025024999,0.0042625
1680013663014,1193651369682945,-0.0081124995,0.022,0.0042625
1680013663017,1193651372185099,-0.0081124995,0.023924999,0.0072875
1680013663019,1193651374687248,-0.0121,0.025024999,0.0022
1680013663021,1193651377189402,-0.0121,0.022,0.0022
1680013663024,1193651379691632,-0.009075,0.0210375,0.0033
1680013663026,1193651382193786,-0.009075,0.014025,0.0012375
1680013663029,1193651384695940,-0.0121,0.0119624995,0.0033
1680013663031,1193651387198109,-0.014025,0.00605,0.0042625
1680013663034,1193651389700494,-0.014025,0.00605,0.0012375
1680013663038,1193651392202724,-0.013062499,0.001925,0.0033
1680013663039,1193651394704902,-0.015125,-0.0,0.0072875
1680013663042,1193651397207056,-0.015125,-0.0039875,0.0072875
1680013663046,1193651399709210,-0.015125,-0.011,0.006325
1680013663048,1193651402211364,-0.014025,-0.013062499,0.005225
1680013663051,1193651404713805,-0.0160875,-0.013062499,0.006325
1680013663052,1193651407215882,-0.0191125,-0.0180125,0.0072875
1680013663054,1193651409718113,-0.015125,-0.0210375,0.00825
1680013663057,1193651412220267,-0.0121,-0.0259875,0.0072875
1680013663059,1193651414722421,-0.0160875,-0.0290125,0.0072875
1680013663062,1193651417224580,-0.0121,-0.031075,0.0122375
1680013663064,1193651419726733,-0.013062499,-0.0320375,0.0122375
1680013663067,1193651422229195,-0.0160875,-0.0339625,0.0103124995
1680013663069,1193651424731349,-0.013062499,-0.033,0.0092124995
1680013663072,1193651427233508,-0.013062499,-0.0350625,0.0103124995
1680013663074,1193651429735662,-0.0121,-0.0350625,0.0092124995
1680013663077,1193651432237815,-0.0111375,-0.040975,0.0092124995
1680013663080,1193651434739969,-0.0121,-0.039049998,0.0103124995
1680013663083,1193651437242359,-0.0121,-0.039049998,0.0092124995
1680013663086,1193651439744513,-0.014025,-0.040975,0.0103124995
1680013663088,1193651442246744,-0.013062499,-0.03795,0.0092124995
1680013663090,1193651444748897,-0.0111375,-0.040975,0.011275
1680013663092,1193651447251051,-0.013062499,-0.039049998,0.0122375
1680013663095,1193651449753214,-0.014025,-0.0339625,0.0132
1680013663097,1193651452255599,-0.013062499,-0.0320375,0.0132
1680013663101,1193651454757753,-0.014025,-0.0339625,0.0143
1680013663101,1193651457259983,-0.014025,-0.036025,0.015262499
1680013663104,1193651459762132,-0.0160875,-0.033,0.0143
1680013663107,1193651462264286,-0.014025,-0.02805,0.0143
1680013663109,1193651464766440,-0.014025,-0.02805,0.015262499
1680013663112,1193651467268825,-0.0121,-0.025024999,0.01925
1680013663115,1193651469770978,-0.0100375,-0.0180125,0.01925
1680013663118,1193651472273209,-0.014025,-0.01595,0.016224999
1680013663122,1193651474775286,-0.0160875,-0.0100375,0.0143
1680013663126,1193651477276382,-0.0160875,-0.00605,0.015262499
1680013663126,1193651479777499,-0.014025,-0.0020625,0.015262499
1680013663127,1193651482282036,-0.0100375,0.00495,0.0143
1680013663129,1193651484784190,-0.0121,0.007975,0.0143
1680013663132,1193651487286344,-0.013062499,0.0119624995,0.0132
1680013663134,1193651489788575,-0.0121,0.014025,0.0143
1680013663136,1193651492290652,-0.0111375,0.01705,0.0122375
1680013663139,1193651494792883,-0.0121,0.0210375,0.00825
1680013663142,1193651497295036,-0.0111375,0.0210375,0.005225
1680013663145,1193651499797421,-0.0111375,0.0229625,0.0022
1680013663147,1193651502299589,-0.0121,0.022,0.0033
1680013663149,1193651504801743,-0.014025,0.02695,0.005225
1680013663152,1193651507303973,-0.0111375,0.0229625,0.0033
1680013663154,1193651509806127,-0.0121,0.02805,0.0042625
1680013663159,1193651512308262,-0.014025,0.02695,0.0012375
1680013663161,1193651514810647,-0.0111375,0.023924999,0.0022
1680013663164,1193651517312801,-0.014025,0.02805,-6.875E-4
1680013663166,1193651519814954,-0.0160875,0.02805,-6.875E-4
1680013663168,1193651522317108,-0.01815,0.0199375,0.0033
1680013663169,1193651524819339,-0.01815,0.0210375,0.0012375
1680013663172,1193651527321493,-0.020075,0.023924999,0.0042625
1680013663174,1193651529823878,-0.025024999,0.023924999,0.006325
1680013663177,1193651532326031,-0.026124999,0.022,0.0072875
1680013663179,1193651534828180,-0.026124999,0.018975,0.006325
1680013663182,1193651537330334,-0.0320375,0.023924999,0.005225
1680013663185,1193651539832488,-0.0350625,0.0210375,0.0072875
1680013663187,1193651542334719,-0.036025,0.023924999,0.011275
1680013663189,1193651544837118,-0.039049998,0.0199375,0.0122375
1680013663192,1193651547339272,-0.04015,0.018975,0.0143
1680013663197,1193651549841426,-0.042075,0.014025,0.015262499
1680013663198,1193651552343580,-0.042075,0.0119624995,0.0202125
1680013663201,1193651554845734,-0.048125,0.0070125,0.0213125
1680013663204,1193651557347965,-0.0490875,0.00605,0.0213125
1680013663206,1193651559850118,-0.0490875,0.00605,0.0202125
1680013663207,1193651562352503,-0.048125,9.625E-4,0.022275
1680013663210,1193651564854657,-0.050049998,-0.003025,0.0242
1680013663212,1193651567356820,-0.0521125,-0.00495,0.0232375
1680013663214,1193651569858974,-0.048125,-0.00605,0.01925
1680013663217,1193651572361127,-0.048125,-0.009075,0.0213125
1680013663220,1193651574863358,-0.048125,-0.01595,0.0253
1680013663222,1193651577365743,-0.047025,-0.0149875,0.022275
1680013663225,1193651579867916,-0.0460625,-0.014025,0.022275
1680013663227,1193651582370070,-0.047025,-0.014025,0.017324999
1680013663229,1193651584872223,-0.0460625,-0.01595,0.016224999
1680013663234,1193651587374363,-0.042075,-0.01705,0.015262499
1680013663236,1193651589876517,-0.0380875,-0.0210375,0.0143
1680013663239,1193651592378979,-0.036025,-0.022,0.0103124995
1680013663240,1193651594881133,-0.0380875,-0.025024999,0.0072875
1680013663242,1193651597383286,-0.036025,-0.0240625,0.006325
1680013663244,1193651599885440,-0.025024999,-0.025024999,0.005225
1680013663247,1193651602387594,-0.0270875,-0.0240625,0.005225
1680013663250,1193651604889825,-0.025024999,-0.0210375,0.0033
1680013663252,1193651607391979,-0.020075,-0.018975,-0.00275
1680013663256,1193651609894339,-0.020075,-0.01705,-0.00275
1680013663257,1193651612396493,-0.0210375,-0.018975,-0.00275
1680013663260,1193651614898647,-0.0160875,-0.0149875,-0.005775
1680013663263,1193651617400801,-0.0160875,-0.013062499,-0.0077
1680013663265,1193651619902955,-0.015125,-0.009075,-0.010725
1680013663267,1193651622405411,-0.0111375,-0.007975,-0.014712499
1680013663271,1193651624907565,-0.0111375,0.001925,-0.0187
1680013663273,1193651627409719,-0.0100375,-0.0020625,-0.0177375
1680013663275,1193651629911873,-0.009075,0.0039875,-0.0187
1680013663278,1193651632414037,-0.00605,0.007975,-0.0207625
1680013663279,1193651634916191,-0.00605,0.011,-0.0226875
1680013663282,1193651637418344,-0.00605,0.014025,-0.0226875
1680013663285,1193651639920806,-0.00605,0.01705,-0.0237875
1680013663287,1193651642422964,-0.0011,0.022,-0.0226875
1680013663290,1193651644925118,-0.00605,0.023924999,-0.0257125
1680013663292,1193651647427271,-0.003025,0.022,-0.026675
1680013663295,1193651649929425,-0.0050875,0.025024999,-0.0257125
1680013663297,1193651652431579,-0.00605,0.025024999,-0.0237875
1680013663300,1193651654933825,-0.004125,0.023924999,-0.0237875
1680013663302,1193651657435979,-0.0050875,0.018975,-0.0226875
1680013663305,1193651659938363,-0.00605,0.018975,-0.0226875
1680013663309,1193651662440545,-0.0081124995,0.0199375,-0.0207625
1680013663310,1193651664942699,-0.009075,0.01705,-0.016775
1680013663312,1193651667444853,-0.0081124995,0.0149875,-0.016775
1680013663315,1193651669947084,-0.0111375,0.01595,-0.0116875
1680013663318,1193651672449440,-0.0111375,0.01595,-0.0116875
1680013663321,1193651674951363,-0.009075,0.012925,-0.0127875
1680013663326,1193651677453748,-0.0121,0.011,-0.010725
1680013663327,1193651679955902,-0.0121,0.0100375,-0.0088
1680013663327,1193651682458056,-0.0121,0.00605,-0.0077
1680013663330,1193651684960277,-0.0121,0.001925,-0.005775
1680013663332,1193651687462430,-0.0100375,-0.0,-0.0067375
1680013663334,1193651689964815,-0.0111375,-0.003025,-0.0067375
1680013663337,1193651692466969,-0.0111375,-0.00495,-0.0067375
1680013663339,1193651694969133,-0.013062499,-0.00495,-0.0067375
1680013663342,1193651697471287,-0.0121,-0.007975,-0.0088
1680013663346,1193651699973517,-0.014025,-0.0100375,-0.0088
1680013663347,1193651702475671,-0.013062499,-0.013062499,-0.0077
1680013663350,1193651704977829,-0.0121,-0.01595,-0.0077
1680013663353,1193651707479983,-0.0100375,-0.020075,-0.0097624995
1680013663355,1193651709982368,-0.0100375,-0.0259875,-0.0127875
1680013663358,1193651712484598,-0.009075,-0.0259875,-0.014712499
1680013663361,1193651714986752,-0.00605,-0.0259875,-0.0088
1680013663364,1193651717488906,-0.004125,-0.025024999,-0.0116875
1680013663366,1193651719991060,-0.00605,-0.0240625,-0.014712499
1680013663367,1193651722493214,-0.003025,-0.025024999,-0.0127875
1680013663370,1193651724995598,-0.003025,-0.0210375,-0.0127875
1680013663372,1193651727497767,-0.003025,-0.01595,-0.0127875
1680013663374,1193651729999998,0.001925,-0.01705,-0.0097624995
1680013663378,1193651732502152,0.001925,-0.013062499,-0.0088
1680013663380,1193651735004306,-1.375E-4,-0.00605,-0.0077
1680013663385,1193651737506436,-1.375E-4,-0.00605,-0.005775
1680013663386,1193651740008589,9.625E-4,-0.0039875,-0.005775
1680013663390,1193651742510974,0.00495,0.0039875,-0.0037125
1680013663391,1193651745013205,0.00495,0.011,-0.0017875
1680013663398,1193651747515344,0.00495,0.0149875,-6.875E-4
1680013663398,1193651750017497,0.007975,0.0210375,2.75E-4
1680013663398,1193651752519651,0.00385,0.0229625,0.0033
1680013663401,1193651755021805,0.0059125,0.0229625,0.005225
1680013663402,1193651757524190,0.0059125,0.033,0.005225
1680013663407,1193651760026354,0.0059125,0.033,0.0072875
1680013663408,1193651762528584,0.006875,0.036025,0.0092124995
1680013663410,1193651765030661,0.0089375,0.03795,0.011275
1680013663413,1193651767532892,0.00495,0.03795,0.0122375
1680013663417,1193651770035046,0.0028875,0.03795,0.016224999
1680013663417,1193651772537411,0.0028875,0.036025,0.016224999
1680013663423,1193651775039564,9.625E-4,0.034925,0.017324999
1680013663424,1193651777541718,9.625E-4,0.036025,0.01925
1680013663426,1193651780043949,-0.003025,0.0320375,0.0202125
1680013663427,1193651782546127,-0.004125,0.029975,0.0202125
1680013663429,1193651785048281,-0.0050875,0.022,0.0202125
1680013663432,1193651787550665,-0.00605,0.018975,0.0202125
1680013663434,1193651790052819,-0.0081124995,0.01705,0.0213125
1680013663438,1193651792555060,-0.0100375,0.014025,0.022275
1680013663440,1193651795057137,-0.0121,0.0070125,0.0213125
1680013663442,1193651797559368,-0.014025,0.003025,0.022275
1680013663444,1193651800061522,-0.015125,-0.0020625,0.022275
1680013663447,1193651802563675,-0.01815,-0.00605,0.017324999
1680013663449,1193651805066074,-0.01705,-0.011,0.017324999
1680013663452,1193651807568228,-0.0210375,-0.0149875,0.015262499
1680013663454,1193651810070459,-0.0231,-0.01705,0.0143
1680013663459,1193651812572536,-0.0231,-0.022,0.0143
1680013663460,1193651815074781,-0.0231,-0.02695,0.0103124995
1680013663463,1193651817576935,-0.025024999,-0.031075,0.0072875
1680013663465,1193651820079320,-0.026124999,-0.029975,0.006325
1680013663467,1193651822581474,-0.025024999,-0.029975,0.0033
1680013663470,1193651825083628,-0.0240625,-0.0339625,0.0042625
1680013663472,1193651827585863,-0.025024999,-0.0350625,0.0022
1680013663475,1193651830088017,-0.025024999,-0.033,-6.875E-4
1680013663478,1193651832590171,-0.026124999,-0.036025,-6.875E-4
1680013663479,1193651835092556,-0.0240625,-0.0350625,-0.0017875
1680013663482,1193651837594695,-0.0221375,-0.03795,-0.005775
1680013663485,1193651840096848,-0.01815,-0.0369875,-0.004675
1680013663487,1193651842599002,-0.0191125,-0.033,-0.005775
1680013663489,1193651845101156,-0.01705,-0.0320375,-0.004675
1680013663492,1193651847603406,-0.01705,-0.0350625,-0.0088
1680013663496,1193651850105791,-0.014025,-0.0290125,-0.005775
1680013663500,1193651852607944,-0.0121,-0.033,-0.0077
1680013663502,1193651855110098,-0.0111375,-0.0290125,-0.0077
1680013663503,1193651857612267,-0.0081124995,-0.0290125,-0.0097624995
1680013663504,1193651860114421,-0.00715,-0.0259875,-0.0077
1680013663507,1193651862616575,-1.375E-4,-0.0259875,-0.0067375
1680013663509,1193651865118806,-1.375E-4,-0.025024999,-0.0088
1680013663513,1193651867621185,-0.0011,-0.0210375,-0.0088
1680013663516,1193651870123339,9.625E-4,-0.0180125,-0.0077
1680013663518,1193651872625493,0.006875,-0.0149875,-0.0088
1680013663521,1193651875127647,0.0089375,-0.014025,-0.0088
1680013663523,1193651877629877,0.0089375,-0.0119624995,-0.0088
1680013663525,1193651880131954,0.0089375,-0.0100375,-0.0088
1680013663528,1193651882634416,0.007975,-0.009075,-0.0097624995
1680013663530,1193651885136570,0.0099,-0.0070125,-0.0097624995
1680013663535,1193651887638719,0.0108624995,-0.0070125,-0.0077
1680013663536,1193651890140873,0.0089375,-0.007975,-0.0088
1680013663538,1193651892643026,0.007975,-0.00605,-0.005775
1680013663540,1193651895145257,0.007975,-0.0070125,-0.0067375
1680013663543,1193651897647642,0.007975,-0.007975,-0.005775
1680013663545,1193651900149782,0.006875,-0.0070125,-0.0037125
1680013663547,1193651902651935,0.001925,-0.009075,-0.00275
1680013663550,1193651905154089,0.00385,-0.0100375,-0.00275
1680013663553,1193651907656243,0.00385,-0.013062499,-6.875E-4
1680013663555,1193651910158397,-1.375E-4,-0.013062499,-0.0017875
1680013663558,1193651912660873,-0.003025,-0.011,-6.875E-4
1680013663559,1193651915163026,-0.0011,-0.018975,0.0022
1680013663564,1193651917665180,-0.003025,-0.020075,0.0022
1680013663565,1193651920167334,-0.0050875,-0.020075,0.0042625
1680013663567,1193651922669502,-0.0070125,-0.0259875,0.0033
1680013663571,1193651925171656,-0.0081124995,-0.0320375,0.005225
1680013663573,1193651927673887,-0.00605,-0.031075,0.00825
1680013663575,1193651930176276,-0.0050875,-0.0350625,0.006325
1680013663577,1193651932678430,-0.0081124995,-0.039049998,0.0072875
1680013663580,1193651935180584,-0.0100375,-0.039049998,0.0092124995
1680013663583,1193651937682738,-0.0100375,-0.0460625,0.0132
1680013663585,1193651940184892,-0.0111375,-0.050049998,0.0132
1680013663587,1193651942687045,-0.0111375,-0.051975,0.0143
1680013663590,1193651945189507,-0.0111375,-0.055,0.016224999
1680013663593,1193651947691430,-0.013062499,-0.058025,0.0232375
1680013663595,1193651950193815,-0.013062499,-0.0620125,0.0253
1680013663598,1193651952695969,-0.0160875,-0.0650375,0.0292875
1680013663600,1193651955198122,-0.0191125,-0.0680625,0.0312125
1680013663603,1193651957700276,-0.0221375,-0.0680625,0.0312125
1680013663605,1193651960202507,-0.025024999,-0.075075,0.033275
1680013663608,1193651962704873,-0.0221375,-0.0779625,0.0363
1680013663610,1193651965207027,-0.025024999,-0.077,0.033275
1680013663613,1193651967709180,-0.0270875,-0.0809875,0.0372625
1680013663615,1193651970211334,-0.02805,-0.0840125,0.0372625
1680013663618,1193651972713488,-0.0301125,-0.086075,0.0372625
1680013663621,1193651975215705,-0.0290125,-0.084975,0.0363
1680013663624,1193651977717859,-0.031075,-0.08195,0.0363
1680013663625,1193651980220243,-0.0320375,-0.0760375,0.038225
1680013663627,1193651982722397,-0.031075,-0.0779625,0.0372625
1680013663630,1193651985224536,-0.02805,-0.0760375,0.03025
1680013663633,1193651987726690,-0.0270875,-0.073975,0.0312125
1680013663635,1193651990228921,-0.025024999,-0.069025,0.028324999
1680013663638,1193651992731075,-0.0191125,-0.066,0.027224999
1680013663639,1193651995233228,-0.01705,-0.061049998,0.022275
1680013663643,1193651997735613,-0.015125,-0.0589875,0.01925
1680013663646,1193652000237767,-0.0100375,-0.0540375,0.017324999
1680013663648,1193652002739921,-0.00605,-0.051975,0.015262499
1680013663650,1193652005242146,-1.375E-4,-0.0479875,0.0092124995
1680013663653,1193652007744300,0.00495,-0.047025,0.0072875
1680013663655,1193652010246454,0.007975,-0.042075,0.005225
1680013663659,1193652012748839,0.0108624995,-0.042075,-6.875E-4
1680013663659,1193652015250762,0.0119624995,-0.042075,-0.0017875
1680013663663,1193652017753152,0.01595,-0.0320375,-0.00275
1680013663665,1193652020255382,0.0169125,-0.02805,-0.0037125
1680013663667,1193652022757536,0.017875,-0.0259875,-0.0037125
1680013663671,1193652025259704,0.0199375,-0.0240625,-0.005775
1680013663673,1193652027761858,0.0209,-0.025024999,-0.0067375
1680013663675,1193652030264012,0.0199375,-0.022,-0.0067375
1680013663678,1193652032766396,0.0199375,-0.0180125,-0.00275
1680013663679,1193652035268550,0.0209,-0.013062499,-0.00275
1680013663684,1193652037770791,0.018975,-0.011,-0.004675
1680013663687,1193652040272945,0.0169125,-0.007975,-0.004675
1680013663689,1193652042775099,0.012925,-0.0070125,-0.0017875
1680013663690,1193652045277263,0.012925,-0.009075,-6.875E-4
1680013663694,1193652047779647,0.0119624995,-0.0,0.0012375
1680013663695,1193652050281801,0.007975,-0.0,2.75E-4
1680013663698,1193652052783955,0.0059125,-0.003025,2.75E-4
1680013663700,1193652055286109,0.0028875,-0.00495,0.0022
1680013663703,1193652057788344,-0.004125,-0.0020625,0.0022
1680013663705,1193652060290498,-0.0050875,-0.0,2.75E-4
1680013663707,1193652062792883,-0.0081124995,-9.625E-4,0.0042625
1680013663709,1193652065295037,-0.0100375,-0.003025,0.0033
1680013663713,1193652067797191,-0.014025,-0.007975,0.0022
1680013663715,1193652070299421,-0.01705,-0.0039875,0.0042625
1680013663718,1193652072801498,-0.0191125,-0.00605,0.0042625
1680013663722,1193652075303729,-0.020075,-0.011,0.0042625
1680013663724,1193652077806114,-0.0240625,-0.014025,0.006325
1680013663726,1193652080308268,-0.0270875,-0.011,0.0072875
1680013663728,1193652082810421,-0.0270875,-0.0119624995,0.006325
1680013663730,1193652085312575,-0.026124999,-0.014025,0.006325
1680013663733,1193652087814806,-0.0301125,-0.013062499,0.00825
1680013663735,1193652090316863,-0.0301125,-0.0119624995,0.0092124995
1680013663737,1193652092819094,-0.031075,-0.0070125,0.011275
1680013663740,1193652095321478,-0.0320375,-0.007975,0.0103124995
1680013663743,1193652097823632,-0.0331375,-0.009075,0.00825
1680013663745,1193652100325777,-0.0350625,-0.00495,0.011275
1680013663747,1193652102827931,-0.0380875,-0.003025,0.011275
1680013663750,1193652105330162,-0.0380875,-0.0020625,0.0103124995
1680013663753,1193652107832316,-0.037125,-0.0,0.0092124995
1680013663755,1193652110334719,-0.037125,-0.0,0.0092124995
1680013663760,1193652112836873,-0.0380875,9.625E-4,0.0092124995
1680013663761,1193652115339027,-0.039049998,0.00605,0.00825
1680013663763,1193652117841181,-0.037125,0.007975,0.006325
1680013663766,1193652120343330,-0.037125,0.0119624995,0.0092124995
1680013663767,1193652122845483,-0.0320375,0.0149875,0.0092124995
1680013663770,1193652125347945,-0.0350625,0.01705,0.006325
1680013663774,1193652127850099,-0.0350625,0.018975,0.005225
1680013663775,1193652130352253,-0.0290125,0.0199375,0.0033
1680013663777,1193652132854412,-0.026124999,0.0199375,0.0012375
1680013663779,1193652135356565,-0.025024999,0.023924999,0.0012375
1680013663783,1193652137858719,-0.0240625,0.023924999,2.75E-4
1680013663785,1193652140360950,-0.020075,0.02695,-6.875E-4
1680013663788,1193652142863335,-0.01705,0.0309375,-0.0017875
1680013663790,1193652145365489,-0.013062499,0.034925,-0.005775
1680013663793,1193652147867642,-0.009075,0.0369875,-0.005775
1680013663796,1193652150369796,-0.0100375,0.0369875,-0.005775
1680013663800,1193652152871950,-0.0081124995,0.03795,-0.004675
1680013663801,1193652155374412,-0.00605,0.0400125,-0.0077
1680013663803,1193652157876335,-0.004125,0.034925,-0.0088
1680013663805,1193652160378719,-0.00605,0.0339625,-0.0097624995
1680013663807,1193652162880873,-0.004125,0.034925,-0.0097624995
1680013663810,1193652165383027,-0.003025,0.033,-0.0097624995
1680013663813,1193652167885181,-0.0050875,0.0309375,-0.0116875
1680013663815,1193652170387335,-0.004125,0.033,-0.0116875
1680013663817,1193652172889791,-0.003025,0.0290125,-0.0127875
1680013663820,1193652175391945,-0.00605,0.025024999,-0.0127875
1680013663823,1193652177894099,-0.0050875,0.02695,-0.0116875
1680013663825,1193652180396253,-0.0070125,0.023924999,-0.0116875
1680013663827,1193652182898407,-0.0081124995,0.0199375,-0.010725
1680013663830,1193652185400637,-0.0081124995,0.01705,-0.0077
1680013663835,1193652187902791,-0.0081124995,0.011,-0.0067375
1680013663836,1193652190405176,-0.009075,0.0039875,-0.005775
1680013663839,1193652192907315,-0.0111375,0.00495,-0.004675
1680013663840,1193652195409469,-0.0121,0.001925,-0.0037125
1680013663844,1193652197911622,-0.015125,-0.00495,-0.0037125
1680013663845,1193652200413776,-0.01705,-0.011,-0.00275
1680013663847,1193652202916007,-0.0180125,-0.0100375,-0.0017875
1680013663850,1193652205418147,-0.0180125,-0.014025,-0.0017875
1680013663853,1193652207920301,-0.0191125,-0.0180125,2.75E-4
1680013663855,1193652210422685,-0.020075,-0.01595,2.75E-4
1680013663857,1193652212924839,-0.0210375,-0.020075,-0.00275
1680013663860,1193652215426988,-0.020075,-0.0240625,-6.875E-4
1680013663864,1193652217929219,-0.0221375,-0.022,2.75E-4
1680013663865,1193652220431373,-0.0240625,-0.020075,-0.0017875
1680013663867,1193652222933757,-0.0240625,-0.020075,-0.0017875
1680013663872,1193652225435916,-0.025024999,-0.01705,0.0012375
1680013663874,1193652227938070,-0.025024999,-0.01705,0.0012375
1680013663875,1193652230440224,-0.025024999,-0.014025,2.75E-4
1680013663878,1193652232942455,-0.025024999,-0.0119624995,2.75E-4
1680013663879,1193652235444609,-0.025024999,-0.009075,2.75E-4
1680013663884,1193652237946776,-0.0240625,-0.009075,0.0012375
1680013663885,1193652240449161,-0.0210375,-0.0070125,-6.875E-4
1680013663888,1193652242951084,-0.0180125,-0.00495,-0.0017875
1680013663890,1193652245453469,-0.020075,0.001925,2.75E-4
1680013663893,1193652247955614,-0.0231,0.0100375,-0.0037125
1680013663897,1193652250457844,-0.0210375,0.011,-0.005775
1680013663898,1193652252959998,-0.0191125,0.012925,-0.0077
1680013663901,1193652255462152,-0.01705,0.018975,-0.0077
1680013663905,1193652257964541,-0.0180125,0.0210375,-0.0088
