system_ts_ms, sensor_ts_ns, gyrX, gyrY, gyrZ
1680017038287,1197026640106325,0.0213125,0.0710875,0.0160875
1680017038288,1197026642608710,0.01925,0.064075,0.020075
1680017038290,1197026645110864,0.02035,0.061049998,0.021175
1680017038292,1197026647613094,0.02035,0.0479875,0.0231
1680017038295,1197026650115253,0.02035,0.0380875,0.0270875
1680017038298,1197026652617715,0.0182875,0.033,0.02805
1680017038312,1197026655120100,0.0253,0.0210375,0.02915
1680017038313,1197026657622253,0.023375,0.011,0.031075
1680017038313,1197026660124407,0.0273625,0.0070125,0.02805
1680017038313,1197026662626638,0.033275,0.007975,0.031075
1680017038313,1197026665129023,0.03135,0.013062499,0.02915
1680017038313,1197026667631176,0.0363,0.0100375,0.0301125
1680017038315,1197026670133407,0.0383625,0.003025,0.0301125
1680017038319,1197026672635787,0.0383625,0.0100375,0.0270875
1680017038323,1197026675138018,0.04235,0.029975,0.013062499
1680017038325,1197026677639084,0.0592625,0.0510125,-0.00385
1680017038325,1197026680140161,0.0683375,0.0350625,-0.00495
1680017038328,1197026682644700,0.0683375,0.0240625,-8.25E-4
1680017038330,1197026685147162,0.07535,0.0119624995,0.004125
1680017038334,1197026687649315,0.0793375,-0.0149875,0.009075
1680017038335,1197026690151546,0.083325,-0.0589875,0.014162499
1680017038338,1197026692653719,0.089375,-0.080025,0.015125
1680017038340,1197026695156104,0.0922625,-0.0859375,0.0121
1680017038342,1197026697658257,0.0933625,-0.091025,0.015125
1680017038344,1197026700160719,0.0983125,-0.0829125,0.014162499
1680017038347,1197026702662950,0.100375,-0.07095,0.00605
1680017038351,1197026705165104,0.1043625,-0.0589875,-0.001925
1680017038352,1197026707667257,0.1013375,-0.0719125,-0.0078375
1680017038355,1197026710169642,0.094325,-0.0950125,-0.012925
1680017038359,1197026712671869,0.088275,-0.106975,-0.01595
1680017038360,1197026715174254,0.07535,-0.120037496,-0.01595
1680017038362,1197026717676484,0.067375,-0.133925,-0.011825
1680017038364,1197026720178638,0.0592625,-0.1469875,-0.0099
1680017038368,1197026722681023,0.0482625,-0.1579875,-0.0099
1680017038370,1197026725183177,0.04235,-0.1640375,-0.0078375
1680017038372,1197026727685407,0.0402875,-0.1640375,-0.0059125
1680017038375,1197026730187792,0.0363,-0.1599125,-0.001925
1680017038379,1197026732690023,0.03135,-0.1750375,-8.25E-4
1680017038380,1197026735192181,0.03025,-0.1929125,0.0011
1680017038385,1197026737694565,0.03025,-0.2129875,0.0011
1680017038385,1197026740196796,0.0363,-0.2239875,0.0020625
1680017038388,1197026742698950,0.04235,-0.2300375,0.0020625
1680017038390,1197026745201080,0.0512875,-0.234025,0.0050875
1680017038393,1197026747703541,0.0592625,-0.234025,0.010175
1680017038396,1197026750205926,0.06435,-0.2300375,0.0160875
1680017038402,1197026752708080,0.0702625,-0.216975,0.0251625
1680017038402,1197026755210234,0.0732875,-0.2039125,0.032175
1680017038402,1197026757712695,0.0763125,-0.187,0.0331375
1680017038404,1197026760214849,0.089375,-0.18493749,0.031075
1680017038407,1197026762717080,0.0983125,-0.16293749,0.02805
1680017038410,1197026765219464,0.105325,-0.1530375,0.02915
1680017038412,1197026767721632,0.122375,-0.1750375,0.0301125
1680017038418,1197026770223786,0.1423125,-0.2129875,0.032175
1680017038419,1197026772726248,0.1683,-0.256025,0.0331375
1680017038420,1197026775228478,0.1793,-0.28393748,0.039049998
1680017038422,1197026777730863,0.18933749,-0.3199625,0.039049998
1680017038425,1197026780232997,0.1912625,-0.3389375,0.0301125
1680017038428,1197026782735151,0.1942875,-0.3669875,0.0231
1680017038430,1197026785237382,0.2013,-0.3939375,0.015125
1680017038435,1197026787739766,0.2063875,-0.4129125,0.0111375
1680017038436,1197026790241997,0.2052875,-0.4170375,0.010175
1680017038438,1197026792744382,0.2003375,-0.4129125,0.0111375
1680017038440,1197026795246535,0.2033625,-0.419925,0.0111375
1680017038442,1197026797748689,0.2123,-0.4409625,0.010175
1680017038445,1197026800250935,0.210375,-0.4329875,0.009075
1680017038447,1197026802753397,0.20927499,-0.4349125,0.009075
1680017038455,1197026805255550,0.20735,-0.430925,0.00605
1680017038455,1197026807757935,0.2063875,-0.44701248,0.00605
1680017038456,1197026810260074,0.21133749,-0.451,0.0050875
1680017038458,1197026812762305,0.2052875,-0.4379375,0.0050875
1680017038460,1197026815264459,0.2013,-0.44,0.0121
1680017038463,1197026817766920,0.2022625,-0.4349125,0.013062499
1680017038468,1197026820269079,0.19635,-0.425975,0.0111375
1680017038469,1197026822771464,0.1942875,-0.4269375,0.009075
1680017038471,1197026825273694,0.1912625,-0.4269375,0.010175
1680017038473,1197026827775848,0.18933749,-0.42295,0.0111375
1680017038476,1197026830278233,0.1843875,-0.41195,0.0111375
1680017038477,1197026832780392,0.1683,-0.3909125,0.01705
1680017038479,1197026835282622,0.160325,-0.3969625,0.0251625
1680017038485,1197026837785007,0.1623875,-0.396,0.0240625
1680017038486,1197026840287238,0.16335,-0.4060375,0.0221375
1680017038488,1197026842789368,0.1623875,-0.408925,0.01705
1680017038491,1197026845291522,0.1623875,-0.4109875,0.0111375
1680017038492,1197026847793906,0.1643125,-0.4129125,0.00715
1680017038497,1197026850296368,0.16733749,-0.4219875,-8.25E-4
1680017038498,1197026852798522,0.1692625,-0.42295,-0.0089375
1680017038506,1197026855300752,0.16733749,-0.4299625,-0.006875
1680017038507,1197026857802906,0.1692625,-0.4360125,-0.01485
1680017038508,1197026860305291,0.171325,-0.443025,-0.0199375
1680017038511,1197026862807503,0.1692625,-0.4489375,-0.02585
1680017038511,1197026865309887,0.160325,-0.43395,-0.02585
1680017038513,1197026867812041,0.1593625,-0.4299625,-0.0218625
1680017038518,1197026870314272,0.1623875,-0.443025,-0.028875
1680017038519,1197026872816656,0.1623875,-0.44701248,-0.034925
1680017038520,1197026875318796,0.166375,-0.451,-0.0389125
1680017038522,1197026877821027,0.1593625,-0.447975,-0.0419375
1680017038526,1197026880323412,0.1582625,-0.4610375,-0.044825
1680017038528,1197026882825566,0.1573,-0.45595,-0.0518375
1680017038530,1197026885327796,0.149325,-0.451,-0.056925
1680017038535,1197026887830190,0.143275,-0.4569125,-0.0539
1680017038537,1197026890332344,0.1392875,-0.452925,-0.0578875
1680017038539,1197026892834575,0.1343375,-0.4519625,-0.058849998
1680017038541,1197026895336728,0.127325,-0.4379375,-0.058849998
1680017038543,1197026897839200,0.1252625,-0.4390375,-0.055825
1680017038548,1197026900341585,0.1203125,-0.4269375,-0.055825
1680017038552,1197026902843738,0.1183875,-0.42295,-0.050875
1680017038553,1197026905345892,0.111375,-0.41593748,-0.04895
1680017038553,1197026907848099,0.1023,-0.40301248,-0.0419375
1680017038555,1197026910350484,0.09735,-0.3939375,-0.0358875
1680017038559,1197026912852714,0.0933625,-0.3829375,-0.033825
1680017038560,1197026915354868,0.089375,-0.3730375,-0.0298375
1680017038562,1197026917857253,0.0853875,-0.35901248,-0.022824999
1680017038568,1197026920359503,0.077275,-0.3419625,-0.01595
1680017038569,1197026922861657,0.07535,-0.32793748,-0.011825
1680017038570,1197026925364041,0.077275,-0.3229875,-0.0089375
1680017038573,1197026927866272,0.077275,-0.31501248,-0.006875
1680017038577,1197026930368623,0.072325,-0.3070375,-0.0028875
1680017038579,1197026932870776,0.072325,-0.2960375,0.0011
1680017038580,1197026935373007,0.0743875,-0.293975,-8.25E-4
1680017038585,1197026937875161,0.0702625,-0.2789875,0.004125
1680017038587,1197026940377542,0.072325,-0.2679875,0.0050875
1680017038590,1197026942879772,0.0713625,-0.2619375,0.0031625
1680017038591,1197026945382157,0.067375,-0.2479125,0.009075
1680017038593,1197026947884388,0.066275,-0.2300375,0.01705
1680017038595,1197026950386542,0.06435,-0.22893749,0.01705
1680017038598,1197026952888710,0.066275,-0.2179375,0.020075
1680017038603,1197026955391094,0.0603625,-0.2039125,0.01705
1680017038603,1197026957893556,0.0583,-0.1989625,0.015125
1680017038606,1197026960395710,0.0603625,-0.1940125,0.014162499
1680017038608,1197026962897940,0.05335,-0.18095,0.013062499
1680017038610,1197026965400094,0.0523875,-0.16995,0.013062499
1680017038613,1197026967902479,0.0543125,-0.1689875,0.013062499
1680017038621,1197026970404633,0.0573375,-0.166925,0.0121
1680017038622,1197026972906849,0.0523875,-0.1469875,0.014162499
1680017038624,1197026975409234,0.0473,-0.13695,0.014162499
1680017038625,1197026977911465,0.050325,-0.1359875,0.014162499
1680017038627,1197026980413619,0.0482625,-0.1379125,0.0111375
1680017038628,1197026982916003,0.0473,-0.1379125,0.010175
1680017038630,1197026985418238,0.0463375,-0.12595,0.013062499
1680017038635,1197026987920392,0.0463375,-0.121,0.0111375
1680017038636,1197026990422777,0.044275,-0.1219625,0.010175
1680017038638,1197026992925007,0.04235,-0.1139875,0.0121
1680017038640,1197026995427378,0.04235,-0.113025,0.013062499
1680017038642,1197026997929532,0.039325,-0.1159125,0.0121
1680017038646,1197027000431763,0.0402875,-0.120037496,0.0081124995
1680017038647,1197027002933916,0.039325,-0.1189375,0.010175
1680017038653,1197027005436378,0.04235,-0.120037496,0.009075
1680017038653,1197027007938537,0.039325,-0.1249875,0.0081124995
1680017038658,1197027010440921,0.0402875,-0.133925,0.004125
1680017038660,1197027012943075,0.04235,-0.1439625,0.004125
1680017038662,1197027015445320,0.0433125,-0.1519375,0.0020625
1680017038664,1197027017947474,0.0413875,-0.1579875,-0.0028875
1680017038668,1197027020449935,0.0402875,-0.166925,-0.001925
1680017038669,1197027022952320,0.039325,-0.176,-0.001925
1680017038670,1197027025454474,0.0383625,-0.18095,-0.00495
1680017038673,1197027027956628,0.0383625,-0.187,-0.001925
1680017038676,1197027030458859,0.0372625,-0.1929125,-0.0028875
1680017038678,1197027032961243,0.0363,-0.212025,-0.0028875
1680017038680,1197027035463474,0.0363,-0.2179375,-0.00495
1680017038683,1197027037965873,0.03135,-0.22495,-0.0059125
1680017038687,1197027040468026,0.0292875,-0.23595,-0.006875
1680017038688,1197027042970257,0.028324999,-0.2459875,-0.00495
1680017038690,1197027045472411,0.0243375,-0.256025,-0.0078375
1680017038693,1197027047974825,0.023375,-0.2630375,-0.0078375
1680017038699,1197027050477055,0.02035,-0.2699125,-0.00385
1680017038700,1197027052978248,0.02035,-0.278025,-0.00495
1680017038701,1197027055479441,0.02035,-0.289025,-0.006875
1680017038702,1197027057983840,0.02035,-0.300025,-0.00385
1680017038708,1197027060486224,0.0193875,-0.3029125,-0.0028875
1680017038708,1197027062988378,0.02035,-0.31501248,-0.0028875
1680017038711,1197027065490532,0.0193875,-0.3249125,1.375E-4
1680017038713,1197027067992999,0.0193875,-0.32999998,0.0031625
1680017038716,1197027070495229,0.0182875,-0.3400375,0.00715
1680017038718,1197027072997383,0.012375,-0.34595,0.009075
1680017038721,1197027075499537,0.0072875,-0.352,0.0191125
1680017038723,1197027078001941,0.0053625,-0.363,0.0251625
1680017038727,1197027080504171,0.0042625,-0.3730375,0.0240625
1680017038728,1197027083006633,0.0033,-0.374,0.0240625
1680017038730,1197027085508787,0.0033,-0.3730375,0.0251625
1680017038734,1197027088010955,0.001375,-0.3749625,0.0240625
1680017038737,1197027090513339,0.0072875,-0.375925,0.0251625
1680017038739,1197027093015570,0.0053625,-0.37895,0.0240625
1680017038741,1197027095517724,0.0033,-0.3829375,0.0240625
1680017038743,1197027098020185,0.0042625,-0.3799125,0.0240625
1680017038746,1197027100522373,0.00935,-0.377025,0.021175
1680017038748,1197027103024527,0.0072875,-0.3700125,0.0221375
1680017038750,1197027105526912,0.0072875,-0.374,0.021175
1680017038752,1197027108029143,0.011275,-0.3689125,0.01705
1680017038756,1197027110531296,0.0143,-0.366025,0.0160875
1680017038758,1197027113033464,0.012375,-0.36795,0.013062499
1680017038760,1197027115535926,0.0133375,-0.3609375,0.0111375
1680017038763,1197027118038310,0.015262499,-0.3579125,0.0121
1680017038766,1197027120540444,0.0193875,-0.3529625,0.0111375
1680017038768,1197027123042675,0.02035,-0.352,0.00715
1680017038772,1197027125544829,0.02035,-0.348975,0.00605
1680017038774,1197027128047214,0.0213125,-0.344025,0.004125
1680017038776,1197027130549665,0.0262625,-0.3339875,0.0011
1680017038779,1197027133051819,0.0262625,-0.326975,0.0011
1680017038780,1197027135553973,0.028324999,-0.32395,0.0020625
1680017038783,1197027138056204,0.0273625,-0.3169375,1.375E-4
1680017038786,1197027140558588,0.0262625,-0.3089625,-0.001925
1680017038788,1197027143060737,0.0303875,-0.3089625,-0.001925
1680017038791,1197027145563199,0.033275,-0.298925,-0.001925
1680017038793,1197027148065352,0.033275,-0.2960375,-8.25E-4
1680017038796,1197027150567583,0.0363,-0.293975,-0.0028875
1680017038798,1197027153069761,0.0363,-0.289025,-0.0059125
1680017038800,1197027155572146,0.0363,-0.2809125,-0.006875
1680017038803,1197027158074300,0.0402875,-0.278025,-0.0059125
1680017038807,1197027160576761,0.044275,-0.2759625,-0.0089375
1680017038811,1197027163078906,0.04235,-0.2729375,-0.0089375
1680017038811,1197027165581137,0.0433125,-0.26895,-0.0108624995
1680017038814,1197027168083521,0.0413875,-0.265925,-0.011825
1680017038817,1197027170585675,0.045375,-0.2649625,-0.012925
1680017038819,1197027173087829,0.0433125,-0.264,-0.01485
1680017038820,1197027175590291,0.044275,-0.2600125,-0.0169125
1680017038823,1197027178092444,0.0482625,-0.256025,-0.0188375
1680017038826,1197027180594598,0.0512875,-0.256025,-0.0218625
1680017038828,1197027183096829,0.0482625,-0.260975,-0.022824999
1680017038830,1197027185599291,0.0523875,-0.2539625,-0.0248875
1680017038833,1197027188101434,0.055275,-0.2520375,-0.02585
1680017038836,1197027190603819,0.055275,-0.2509375,-0.028875
1680017038838,1197027193105973,0.055275,-0.253,-0.033825
1680017038840,1197027195608204,0.0583,-0.253,-0.0389125
1680017038843,1197027198110588,0.0603625,-0.2569875,-0.044825
1680017038848,1197027200612742,0.061325,-0.2569875,-0.045925
1680017038850,1197027203114973,0.0633875,-0.25795,-0.047849998
1680017038851,1197027205617348,0.067375,-0.2539625,-0.0539
1680017038854,1197027208119578,0.067375,-0.2569875,-0.055825
1680017038857,1197027210621732,0.067375,-0.253,-0.056925
1680017038858,1197027213124117,0.067375,-0.2539625,-0.056925
1680017038860,1197027215626271,0.0702625,-0.2539625,-0.05995
1680017038863,1197027218128492,0.0683375,-0.2569875,-0.061875
1680017038868,1197027220630877,0.0683375,-0.25795,-0.061875
1680017038870,1197027223133108,0.069299996,-0.256025,-0.0628375
1680017038871,1197027225635262,0.0683375,-0.253,-0.0658625
1680017038872,1197027228137655,0.0683375,-0.2520375,-0.0688875
1680017038876,1197027230639809,0.0702625,-0.2520375,-0.066825
1680017038878,1197027233142271,0.069299996,-0.253,-0.0658625
1680017038880,1197027235644502,0.072325,-0.253,-0.0688875
1680017038885,1197027238146650,0.0713625,-0.2490125,-0.0688875
1680017038890,1197027240648804,0.0713625,-0.2490125,-0.07095
1680017038891,1197027243151189,0.072325,-0.2539625,-0.06985
1680017038892,1197027245653420,0.072325,-0.2459875,-0.06985
1680017038896,1197027248155804,0.072325,-0.243925,-0.0759
1680017038897,1197027250657958,0.077275,-0.245025,-0.0749375
1680017038900,1197027253160189,0.078375,-0.23595,-0.077825
1680017038901,1197027255662573,0.077275,-0.2410375,-0.078925
1680017038903,1197027258164727,0.0793375,-0.2399375,-0.078925
1680017038907,1197027260666954,0.0812625,-0.231,-0.078925
1680017038909,1197027263169339,0.0812625,-0.227975,-0.083875
1680017038914,1197027265671570,0.0853875,-0.22495,-0.0829125
1680017038914,1197027268173723,0.0842875,-0.22,-0.0768625
1680017038916,1197027270676108,0.08635,-0.223025,-0.0719125
1680017038918,1197027273178343,0.0853875,-0.2259125,-0.064899996
1680017038922,1197027275680497,0.083325,-0.22495,-0.064899996
1680017038924,1197027278182650,0.0812625,-0.22495,-0.066825
1680017038926,1197027280685117,0.0842875,-0.2209625,-0.07095
1680017038928,1197027283187502,0.08525,-0.223025,-0.072875
1680017038930,1197027285689655,0.08635,-0.2149125,-0.07095
1680017038933,1197027288191809,0.088275,-0.21395,-0.0719125
1680017038936,1197027290694040,0.089375,-0.21395,-0.0749375
1680017038939,1197027293196425,0.0933625,-0.210925,-0.0749375
1680017038941,1197027295698656,0.09735,-0.210925,-0.0768625
1680017038943,1197027298201040,0.100375,-0.205975,-0.08195
1680017038946,1197027300703194,0.100375,-0.20295,-0.08085
1680017038948,1197027303205425,0.1032625,-0.20295,-0.083875
1680017038951,1197027305707589,0.10725,-0.201025,-0.0859375
1680017038952,1197027308209973,0.1062875,-0.1989625,-0.086899996
1680017038956,1197027310712204,0.1062875,-0.1989625,-0.08195
1680017038960,1197027313214560,0.10725,-0.1970375,-0.083875
1680017038961,1197027315716713,0.10835,-0.2019875,-0.083875
1680017038963,1197027318218944,0.1093125,-0.1970375,-0.0878625
1680017038968,1197027320721329,0.111375,-0.1989625,-0.0908875
1680017038968,1197027323223483,0.1062875,-0.198,-0.0908875
1680017038971,1197027325725670,0.1062875,-0.1970375,-0.0939125
1680017038975,1197027328228055,0.110275,-0.1970375,-0.0939125
1680017038976,1197027330730286,0.116325,-0.1970375,-0.095837496
1680017038981,1197027333232444,0.113299996,-0.1959375,-0.0988625
1680017038981,1197027335734828,0.116325,-0.1959375,-0.100925
1680017038982,1197027338236982,0.113299996,-0.198,-0.1018875
1680017038987,1197027340739444,0.113299996,-0.1970375,-0.10395
1680017038989,1197027343241598,0.1142625,-0.1989625,-0.105875
1680017038992,1197027345743838,0.116325,-0.1989625,-0.110825
1680017038993,1197027348245992,0.113299996,-0.1989625,-0.1128875
1680017038997,1197027350748377,0.113299996,-0.2039125,-0.1189375
1680017038999,1197027353250531,0.11935,-0.20899999,-0.1208625
1680017039001,1197027355752761,0.11935,-0.2129875,-0.12595
1680017039004,1197027358255160,0.11825,-0.2129875,-0.1318625
1680017039006,1197027360757391,0.116325,-0.22,-0.13695
1680017039009,1197027363259545,0.11825,-0.22495,-0.144925
1680017039010,1197027365761929,0.11825,-0.231,-0.1508375
1680017039013,1197027368264146,0.11935,-0.234025,-0.1519375
1680017039016,1197027370766300,0.11825,-0.23595,-0.1568875
1680017039018,1197027373268762,0.1172875,-0.2399375,-0.1639
1680017039020,1197027375770915,0.111375,-0.245025,-0.165825
1680017039024,1197027378273305,0.110275,-0.2490125,-0.16885
1680017039029,1197027380775459,0.10835,-0.2619375,-0.16885
1680017039031,1197027383277690,0.1032625,-0.264,-0.1749
1680017039034,1197027385779843,0.1023,-0.2679875,-0.1819125
1680017039035,1197027388282305,0.100375,-0.278025,-0.18493749
1680017039037,1197027390784459,0.0952875,-0.282975,-0.1838375
1680017039042,1197027393286844,0.0952875,-0.2850375,-0.1868625
1680017039042,1197027395789074,0.088275,-0.29095,-0.1898875
1680017039043,1197027398291228,0.088275,-0.2979625,-0.193875
1680017039046,1197027400793348,0.0903375,-0.300025,-0.1948375
1680017039048,1197027403295810,0.0842875,-0.3089625,-0.1978625
1680017039051,1197027405798194,0.0793375,-0.311025,-0.199925
1680017039053,1197027408300348,0.078375,-0.31501248,-0.2039125
1680017039056,1197027410802584,0.07535,-0.3199625,-0.2058375
1680017039058,1197027413304738,0.0732875,-0.3229875,-0.2088625
1680017039060,1197027415807122,0.0732875,-0.32793748,-0.2058375
1680017039063,1197027418309353,0.06435,-0.3309625,-0.2058375
1680017039066,1197027420811723,0.067375,-0.3359125,-0.20693749
1680017039068,1197027423313876,0.066275,-0.3389375,-0.20185
1680017039072,1197027425816107,0.0583,-0.3400375,-0.18493749
1680017039074,1197027428318261,0.056375,-0.344025,-0.1648625
1680017039077,1197027430820637,0.0543125,-0.3499375,-0.160875
1680017039078,1197027433322791,0.05335,-0.359975,-0.15895
1680017039080,1197027435825252,0.052249998,-0.3730375,-0.15895
1680017039083,1197027438327406,0.0512875,-0.3749625,-0.1599125
1680017039087,1197027440829637,0.052249998,-0.3810125,-0.160875
1680017039089,1197027443332002,0.05335,-0.3840375,-0.1599125
1680017039092,1197027445834156,0.055275,-0.3939375,-0.160875
1680017039094,1197027448336310,0.0603625,-0.3920125,-0.1618375
1680017039097,1197027450838772,0.06435,-0.40094998,-0.1639
1680017039099,1197027453341002,0.069299996,-0.408925,-0.165825
1680017039100,1197027455843156,0.0732875,-0.410025,-0.1639
1680017039103,1197027458345541,0.07535,-0.4129125,-0.160875
1680017039107,1197027460847695,0.077275,-0.4170375,-0.1639
1680017039110,1197027463349906,0.08525,-0.41593748,-0.1639
1680017039111,1197027465852367,0.089375,-0.419925,-0.1648625
1680017039113,1197027468354521,0.0922625,-0.4219875,-0.166925
1680017039116,1197027470856675,0.0983125,-0.4219875,-0.1639
1680017039119,1197027473359059,0.1032625,-0.425975,-0.1678875
1680017039121,1197027475861290,0.10835,-0.425975,-0.16885
1680017039123,1197027478363444,0.111375,-0.4269375,-0.16885
1680017039126,1197027480865906,0.11825,-0.4269375,-0.16885
1680017039128,1197027483368059,0.1252625,-0.4299625,-0.1678875
1680017039132,1197027485870223,0.1313125,-0.4280375,-0.16885
1680017039134,1197027488372608,0.138325,-0.42295,-0.171875
1680017039136,1197027490874839,0.1423125,-0.42295,-0.171875
1680017039139,1197027493376993,0.1463,-0.42295,-0.1678875
1680017039140,1197027495879377,0.149325,-0.419925,-0.16885
1680017039143,1197027498381618,0.155375,-0.42295,-0.16885
1680017039148,1197027500884003,0.1573,-0.419925,-0.1678875
1680017039150,1197027503386233,0.1593625,-0.4129125,-0.171875
1680017039151,1197027505888387,0.16733749,-0.4140125,-0.1739375
1680017039153,1197027508390536,0.1692625,-0.414975,-0.16995
1680017039156,1197027510892921,0.1722875,-0.4109875,-0.16995
1680017039158,1197027513395382,0.171325,-0.4079625,-0.16885
1680017039161,1197027515897536,0.17325,-0.4079625,-0.1709125
1680017039163,1197027518399767,0.177375,-0.4129125,-0.1709125
1680017039166,1197027520901930,0.176275,-0.4109875,-0.1739375
1680017039168,1197027523404314,0.176275,-0.41195,-0.1749
1680017039171,1197027525906468,0.1793,-0.41799998,-0.177925
1680017039175,1197027528408930,0.18425,-0.419925,-0.177925
1680017039178,1197027530911099,0.1802625,-0.4219875,-0.1819125
1680017039179,1197027533413329,0.182325,-0.42295,-0.1859
1680017039181,1197027535915483,0.18535,-0.4239125,-0.18493749
1680017039185,1197027538417868,0.1863125,-0.429,-0.1838375
1680017039187,1197027540920113,0.188375,-0.4379375,-0.1898875
1680017039189,1197027543422497,0.1912625,-0.4409625,-0.1929125
1680017039192,1197027545924651,0.1912625,-0.443025,-0.1969
1680017039194,1197027548426882,0.1903,-0.44494998,-0.198825
1680017039196,1197027550929266,0.1942875,-0.447975,-0.1969
1680017039198,1197027553431420,0.19525,-0.4580125,-0.198825
1680017039200,1197027555933651,0.19525,-0.4629625,-0.198825
1680017039203,1197027558435805,0.19525,-0.4659875,-0.198825
1680017039207,1197027560938261,0.2003375,-0.476025,-0.2008875
1680017039208,1197027563440415,0.2033625,-0.4849625,-0.2008875
1680017039211,1197027565942800,0.2022625,-0.4929375,-0.20295
1680017039214,1197027568444954,0.2033625,-0.49995,-0.2079
1680017039216,1197027570947219,0.210375,-0.507925,-0.20693749
1680017039218,1197027573449372,0.2162875,-0.5160375,-0.20693749
1680017039222,1197027575951834,0.2162875,-0.5240125,-0.2079
1680017039224,1197027578454219,0.21725,-0.52195,-0.2039125
1680017039226,1197027580956372,0.21835,-0.5240125,-0.199925
1680017039228,1197027583458526,0.221375,-0.5270375,-0.1898875
1680017039231,1197027585960757,0.2223375,-0.5350125,-0.188925
1680017039233,1197027588463142,0.2233,-0.5429875,-0.187825
1680017039236,1197027590965372,0.226325,-0.5479375,-0.1898875
1680017039241,1197027593467771,0.226325,-0.5570125,-0.19195
1680017039242,1197027595969925,0.2352625,-0.5669125,-0.1978625
1680017039243,1197027598472079,0.2343,-0.568975,-0.20295
1680017039247,1197027600974531,0.24035,-0.5779125,-0.20487499
1680017039248,1197027603476762,0.2413125,-0.5839625,-0.2058375
1680017039251,1197027605978916,0.2413125,-0.5889125,-0.20693749
1680017039254,1197027608481301,0.243375,-0.595925,-0.2088625
1680017039258,1197027610983468,0.2492875,-0.605,-0.2118875
1680017039260,1197027613485699,0.253275,-0.605,-0.215875
1680017039262,1197027615988084,0.2563,-0.6139375,-0.2179375
1680017039264,1197027618490315,0.2563,-0.616,-0.221925
1680017039266,1197027620992468,0.2602875,-0.6230125,-0.2228875
1680017039268,1197027623494834,0.265375,-0.627,-0.220825
1680017039272,1197027625996988,0.26633748,-0.62796247,-0.221925
1680017039273,1197027628499219,0.2673,-0.6329125,-0.220825
1680017039276,1197027631001680,0.2673,-0.6340125,-0.221925
1680017039278,1197027633503863,0.2693625,-0.6389625,-0.2259125
1680017039280,1197027636006248,0.27225,-0.6469375,-0.2308625
1680017039284,1197027638508402,0.2743125,-0.6469375,-0.231825
1680017039288,1197027641010628,0.2743125,-0.652025,-0.2338875
1680017039289,1197027643512782,0.2743125,-0.65793747,-0.237875
1680017039291,1197027646015167,0.276375,-0.6590375,-0.2388375
1680017039294,1197027648517398,0.276375,-0.661925,-0.2409
1680017039300,1197027651019810,0.275275,-0.6659125,-0.2409
1680017039300,1197027653521964,0.2783,-0.671,-0.24695
1680017039302,1197027656024195,0.2783,-0.6749875,-0.253825
1680017039304,1197027658526349,0.2822875,-0.67595,-0.2589125
1680017039308,1197027661028733,0.2803625,-0.6780125,-0.259875
1680017039308,1197027663530964,0.276375,-0.682,-0.2619375
1680017039311,1197027666033368,0.275275,-0.678975,-0.2608375
1680017039313,1197027668535598,0.2773375,-0.6810375,-0.259875
1680017039316,1197027671037752,0.2743125,-0.683925,-0.2608375
1680017039320,1197027673539906,0.27335,-0.68901247,-0.264825
1680017039322,1197027676042310,0.27225,-0.685025,-0.26785
1680017039324,1197027678544771,0.2712875,-0.682,-0.2668875
1680017039327,1197027681047002,0.2693625,-0.689975,-0.2699125
1680017039329,1197027683549156,0.27335,-0.696025,-0.2729375
1680017039331,1197027686051310,0.27335,-0.69795,-0.2828375
1680017039336,1197027688553684,0.2743125,-0.700975,-0.28985
1680017039338,1197027691055915,0.27335,-0.704,-0.2938375
1680017039340,1197027693688838,0.27335,-0.7049625,-0.30085
1680017039342,1197027696060454,0.276375,-0.7049625,-0.3059375
1680017039343,1197027698562684,0.2773375,-0.7049625,-0.3069
1680017039346,1197027701064820,0.2712875,-0.700975,-0.3108875
1680017039348,1197027703567205,0.270325,-0.704,-0.309925
1680017039351,1197027706069436,0.275275,-0.705925,-0.3108875
1680017039353,1197027708571820,0.276375,-0.704,-0.3158375
1680017039356,1197027711074051,0.27335,-0.705925,-0.31295
1680017039359,1197027713576218,0.2743125,-0.707025,-0.3108875
1680017039361,1197027716078603,0.276375,-0.707025,-0.308825
1680017039363,1197027718580833,0.28325,-0.7049625,-0.314875
1680017039367,1197027721082974,0.28435,-0.70895,-0.319825
1680017039368,1197027723585128,0.28435,-0.7099125,-0.3249125
1680017039373,1197027726087590,0.287375,-0.705925,-0.32793748
1680017039375,1197027728589974,0.2913625,-0.70895,-0.33495
1680017039377,1197027731092137,0.29535,-0.7099125,-0.3249125
1680017039379,1197027733594368,0.3223,-0.7599625,-0.14795
1680017039381,1197027736096522,0.4142875,-0.957,0.230175
1680017039384,1197027738598906,0.4882625,-1.0789624,0.40507498
1680017039386,1197027741101137,0.4763,-1.0080125,0.3091
1680017039388,1197027743603508,0.4032875,-0.8199125,0.12815
1680017039391,1197027746105662,0.3353625,-0.6219125,-0.00495
1680017039393,1197027748607892,0.3023625,-0.4959625,-0.089925
1680017039396,1197027751110046,0.303325,-0.44494998,-0.1508375
1680017039399,1197027753612431,0.320375,-0.4299625,-0.1929125
1680017039401,1197027756114892,0.3403125,-0.41799998,-0.220825
1680017039403,1197027758617046,0.34925,-0.4019125,-0.2448875
1680017039407,1197027761119200,0.35227498,-0.374,-0.26785
1680017039410,1197027763621397,0.3513125,-0.341,-0.2809125
1680017039411,1197027766123781,0.3513125,-0.3139125,-0.28187498
1680017039415,1197027768625935,0.34925,-0.289025,-0.2729375
1680017039417,1197027771128397,0.3482875,-0.2539625,-0.259875
1680017039420,1197027773630547,0.3452625,-0.212025,-0.2409
1680017039421,1197027776132777,0.3452625,-0.1799875,-0.221925
1680017039424,1197027778634931,0.3443,-0.1519375,-0.19195
1680017039427,1197027781137316,0.3433375,-0.124025,-0.166925
1680017039428,1197027783639470,0.341275,-0.102025,-0.1398375
1680017039431,1197027786141931,0.336325,-0.073975,-0.1098625
1680017039433,1197027788644085,0.3333,-0.058025,-0.0829125
1680017039436,1197027791146316,0.3243625,-0.047025,-0.05995
1680017039438,1197027793648701,0.319275,-0.0369875,-0.0419375
1680017039440,1197027796150854,0.320375,-0.0369875,-0.034925
1680017039443,1197027798653003,0.3183125,-0.0479875,-0.03795
1680017039448,1197027801155234,0.31735,-0.044,-0.039875
1680017039449,1197027803657696,0.3122625,-0.0419375,-0.0438625
1680017039451,1197027806159833,0.309375,-0.0479875,-0.0548625
1680017039454,1197027808662218,0.3133625,-0.0540375,-0.0628375
1680017039456,1197027811164372,0.31735,-0.0609125,-0.06985
1680017039459,1197027813666603,0.31625,-0.0609125,-0.072875
1680017039461,1197027816168757,0.31625,-0.0529375,-0.0768625
1680017039463,1197027818671209,0.319275,-0.0540375,-0.0848375
1680017039467,1197027821173363,0.3232625,-0.073975,-0.09295
1680017039468,1197027823675748,0.3333,-0.0950125,-0.10285
1680017039471,1197027826177901,0.342375,-0.095975,-0.1098625
1680017039474,1197027828680127,0.3342625,-0.0829125,-0.11495
1680017039476,1197027831182512,0.32835,-0.0719125,-0.1189375
1680017039478,1197027833684743,0.3323375,-0.087037496,-0.12595
1680017039480,1197027836187127,0.3353625,-0.098037496,-0.1269125
1680017039485,1197027838689266,0.336325,-0.095975,-0.132825
1680017039488,1197027841191497,0.330275,-0.0840125,-0.1288375
1680017039491,1197027843693882,0.32725,-0.0840125,-0.122925
1680017039492,1197027846196035,0.3293125,-0.1029875,-0.121825
1680017039494,1197027848698266,0.3372875,-0.1189375,-0.1269125
1680017039496,1197027851200632,0.33825,-0.117975,-0.1348875
1680017039499,1197027853702863,0.330275,-0.1139875,-0.1348875
1680017039501,1197027856205016,0.3232625,-0.1109625,-0.1348875
1680017039503,1197027858707170,0.32725,-0.1269125,-0.1318625
1680017039507,1197027861209550,0.3293125,-0.1489125,-0.133925
1680017039508,1197027863711704,0.3293125,-0.16293749,-0.133925
1680017039511,1197027866214165,0.3293125,-0.1799875,-0.13585
1680017039513,1197027868716396,0.32725,-0.199925,-0.13585
1680017039516,1197027871218555,0.3262875,-0.212025,-0.1379125
1680017039519,1197027873720939,0.3323375,-0.243925,-0.14093749
1680017039525,1197027876223093,0.3433375,-0.2930125,-0.1519375
1680017039526,1197027878725310,0.35035,-0.3229875,-0.165825
1680017039528,1197027881227772,0.35227498,-0.341,-0.171875
1680017039530,1197027883729926,0.3433375,-0.344025,-0.16995
1680017039531,1197027886232079,0.32835,-0.3529625,-0.16885
1680017039535,1197027888734464,0.3223,-0.3620375,-0.165825
1680017039542,1197027891236699,0.3213375,-0.3779875,-0.160875
1680017039542,1197027893738853,0.319275,-0.3909125,-0.1599125
1680017039542,1197027896241314,0.31625,-0.4060375,-0.1618375
1680017039543,1197027898743468,0.319275,-0.4239125,-0.16995
1680017039546,1197027901245853,0.319275,-0.432025,-0.1728375
1680017039548,1197027903748006,0.3152875,-0.4349125,-0.1709125
1680017039551,1197027906250237,0.30635,-0.43395,-0.166925
1680017039553,1197027908752391,0.292325,-0.429,-0.15785
1680017039556,1197027911254791,0.2853125,-0.430925,-0.149875
1680017039560,1197027913757022,0.28325,-0.443025,-0.149875
1680017039561,1197027916259406,0.28325,-0.4489375,-0.1508375
1680017039563,1197027918761637,0.2822875,-0.4500375,-0.1489125
1680017039566,1197027921263791,0.275275,-0.44,-0.1489125
1680017039568,1197027923765945,0.2633125,-0.4189625,-0.1419
1680017039571,1197027926268406,0.2572625,-0.410025,-0.1318625
1680017039574,1197027928770791,0.254375,-0.397925,-0.1309
1680017039576,1197027931272978,0.2462625,-0.3840375,-0.1199
1680017039579,1197027933775208,0.24035,-0.3700125,-0.105875
1680017039581,1197027936277362,0.23925,-0.359975,-0.100925
1680017039583,1197027938779747,0.2343,-0.35694999,-0.0979
1680017039588,1197027941281930,0.2253625,-0.3370125,-0.09295
1680017039589,1197027943784391,0.21835,-0.3169375,-0.0878625
1680017039591,1197027946286545,0.2132625,-0.3040125,-0.088825
1680017039594,1197027948788776,0.21725,-0.3040125,-0.095837496
1680017039597,1197027951290940,0.2123,-0.2899875,-0.0988625
1680017039599,1197027953793324,0.204325,-0.264,-0.095837496
1680017039601,1197027956295478,0.2022625,-0.2459875,-0.095837496
1680017039604,1197027958797940,0.204325,-0.231,-0.0939125
1680017039607,1197027961300094,0.2022625,-0.2239875,-0.0908875
1680017039608,1197027963802319,0.19635,-0.2209625,-0.0939125
1680017039611,1197027966304704,0.193325,-0.2080375,-0.09295
1680017039614,1197027968806858,0.18535,-0.19195,-0.0908875
1680017039616,1197027971309012,0.176275,-0.1830125,-0.089925
1680017039619,1197027973811473,0.17325,-0.187,-0.088825
1680017039621,1197027976313704,0.1692625,-0.179025,-0.086899996
1680017039623,1197027978815858,0.1573,-0.1579875,-0.08085
1680017039626,1197027981318243,0.144375,-0.14093749,-0.077825
1680017039628,1197027983820396,0.1343375,-0.117975,-0.0749375
1680017039631,1197027986322641,0.1252625,-0.109037496,-0.07095
1680017039635,1197027988825026,0.1203125,-0.106975,-0.066825
1680017039637,1197027991327257,0.1123375,-0.100925,-0.061875
1680017039640,1197027993829391,0.110275,-0.091025,-0.0628375
1680017039641,1197027996331776,0.10835,-0.0969375,-0.0658625
1680017039643,1197027998833930,0.10725,-0.0969375,-0.072875
1680017039647,1197028001336161,0.10835,-0.106975,-0.0738375
1680017039648,1197028003838545,0.1032625,-0.102025,-0.0749375
1680017039651,1197028006340800,0.105325,-0.111925,-0.0749375
1680017039654,1197028008843185,0.1023,-0.1139875,-0.072875
1680017039657,1197028011345339,0.0922625,-0.0999625,-0.0768625
1680017039659,1197028013847569,0.0903375,-0.1079375,-0.0768625
1680017039660,1197028016349737,0.089375,-0.1159125,-0.077825
1680017039664,1197028018852122,0.083325,-0.10395,-0.07095
1680017039667,1197028021354353,0.0803,-0.1029875,-0.0738375
1680017039668,1197028023856506,0.083325,-0.111925,-0.08085
1680017039674,1197028026358896,0.0803,-0.1109625,-0.0859375
1680017039674,1197028028861050,0.0793375,-0.1139875,-0.089925
1680017039677,1197028031363511,0.08525,-0.1219625,-0.09295
1680017039679,1197028033865742,0.08635,-0.1219625,-0.0939125
1680017039680,1197028036367896,0.0873125,-0.1219625,-0.094875
1680017039684,1197028038870262,0.0812625,-0.1109625,-0.0979
1680017039687,1197028041372416,0.0763125,-0.109037496,-0.100925
1680017039688,1197028043874646,0.077275,-0.1139875,-0.1049125
1680017039691,1197028046377031,0.078375,-0.11495,-0.100925
1680017039694,1197028048879233,0.07425,-0.10395,-0.095837496
1680017039696,1197028051381387,0.06325,-0.0859375,-0.089925
1680017039699,1197028053883771,0.0583,-0.0699875,-0.0908875
1680017039701,1197028056385925,0.0543125,-0.0719125,-0.0939125
1680017039704,1197028058888156,0.0482625,-0.0840125,-0.094875
1680017039706,1197028061390632,0.056375,-0.0829125,-0.0988625
1680017039710,1197028063892786,0.0543125,-0.0829125,-0.0979
1680017039712,1197028066394940,0.0473,-0.0749375,-0.09295
1680017039713,1197028068897325,0.0433125,-0.0699875,-0.089925
1680017039716,1197028071399550,0.0363,-0.0699875,-0.0848375
1680017039719,1197028073901704,0.03025,-0.07095,-0.08195
1680017039721,1197028076404089,0.023375,-0.062975,-0.08195
1680017039724,1197028078906320,0.015262499,-0.0609125,-0.077825
1680017039727,1197028081408684,0.00825,-0.055,-0.0719125
1680017039728,1197028083910838,0.001375,-0.0449625,-0.066825
1680017039732,1197028086413069,-0.0067375,-0.0419375,-0.061875
1680017039734,1197028088915223,-0.0086624995,-0.04895,-0.061875
1680017039737,1197028091417598,-0.0116875,-0.056925,-0.061875
1680017039739,1197028093919829,-0.0116875,-0.055,-0.061875
1680017039741,1197028096422214,-0.0177375,-0.0529375,-0.056925
1680017039744,1197028098924368,-0.02475,-0.056925,-0.0529375
1680017039748,1197028101426579,-0.0287375,-0.0620125,-0.050875
1680017039749,1197028103928733,-0.031625,-0.058025,-0.045925
1680017039753,1197028106431118,-0.0367125,-0.0609125,-0.0429
1680017039754,1197028108933579,-0.0386375,-0.07095,-0.045925
1680017039756,1197028111435733,-0.0367125,-0.0859375,-0.050875
1680017039759,1197028113937872,-0.0407,-0.0840125,-0.0419375
1680017039762,1197028116440103,-0.0446875,-0.07095,-0.03795
1680017039764,1197028118942488,-0.04675,-0.073975,-0.0358875
1680017039766,1197028121444641,-0.0507375,-0.073975,-0.0328625
1680017039768,1197028123947093,-0.0517,-0.07095,-0.033825
1680017039771,1197028126449247,-0.053625,-0.0760375,-0.0328625
1680017039775,1197028128951478,-0.0517,-0.080025,-0.033825
1680017039778,1197028131453631,-0.0507375,-0.0829125,-0.034925
1680017039779,1197028133956031,-0.0517,-0.0809875,-0.0389125
1680017039781,1197028136458185,-0.048675,-0.0829125,-0.03795
1680017039786,1197028138960646,-0.0477125,-0.087037496,-0.0389125
1680017039788,1197028141462800,-0.0507375,-0.087037496,-0.0429
1680017039790,1197028143965031,-0.0477125,-0.089925,-0.045925
1680017039792,1197028146467416,-0.043725,-0.089925,-0.044825
1680017039794,1197028148969570,-0.042625,-0.091025,-0.044825
1680017039799,1197028151471723,-0.045649998,-0.088,-0.044825
1680017039799,1197028153974185,-0.043725,-0.084975,-0.04895
1680017039801,1197028156476411,-0.045649998,-0.084975,-0.0529375
1680017039803,1197028158978565,-0.0416625,-0.0859375,-0.0518375
1680017039808,1197028161480949,-0.0416625,-0.084975,-0.0518375
1680017039809,1197028163983103,-0.0407,-0.0829125,-0.0529375
1680017039812,1197028166485344,-0.0397375,-0.077,-0.055825
1680017039815,1197028168987498,-0.0407,-0.0749375,-0.0539
1680017039819,1197028171489959,-0.0407,-0.067925,-0.0518375
1680017039819,1197028173992113,-0.03575,-0.067925,-0.050875
1680017039825,1197028176494469,-0.026675,-0.08195,-0.0548625
1680017039826,1197028178996699,-0.0187,-0.0950125,-0.0628375
1680017039827,1197028181498853,-0.0037125,-0.12595,-0.0688875
1680017039829,1197028184001238,0.0023375,-0.13695,-0.072875
1680017039831,1197028186503469,0.0103124995,-0.1519375,-0.0749375
1680017039833,1197028189005623,0.0143,-0.157025,-0.0738375
1680017039836,1197028191508012,0.0133375,-0.16499999,-0.07095
1680017039841,1197028194010243,0.015262499,-0.172975,-0.072875
1680017039842,1197028196512397,0.017324999,-0.177925,-0.0738375
1680017039844,1197028199014781,0.01925,-0.1819125,-0.072875
1680017039847,1197028201517026,0.0213125,-0.1879625,-0.0768625
1680017039849,1197028204019411,0.0262625,-0.198,-0.0738375
1680017039851,1197028206521642,0.023375,-0.190025,-0.0688875
1680017039855,1197028209023795,0.0243375,-0.1959375,-0.0688875
1680017039858,1197028211525978,0.0243375,-0.2039125,-0.067925
1680017039862,1197028214028363,0.0243375,-0.20693749,-0.0628375
1680017039863,1197028216530824,0.01925,-0.2099625,-0.05995
1680017039865,1197028219032978,0.00825,-0.20693749,-0.047849998
1680017039867,1197028221535252,0.00825,-0.20693749,-0.0389125
1680017039869,1197028224037406,0.0103124995,-0.2179375,-0.0419375
1680017039871,1197028226539791,0.006325,-0.2319625,-0.0408375
1680017039874,1197028229041944,0.0072875,-0.2369125,-0.039875
1680017039877,1197028231544396,0.0042625,-0.2399375,-0.0408375
1680017039879,1197028234046550,0.0023375,-0.2429625,-0.0419375
1680017039881,1197028236548781,0.0053625,-0.253,-0.0438625
1680017039884,1197028239050934,0.00825,-0.265925,-0.0438625
1680017039887,1197028241553329,0.0042625,-0.267025,-0.0429
1680017039889,1197028244055560,0.001375,-0.2630375,-0.0438625
1680017039893,1197028246557714,0.001375,-0.265925,-0.0429
1680017039895,1197028249060098,0.001375,-0.2729375,-0.0429
1680017039899,1197028251562343,2.75E-4,-0.2740375,-0.045925
1680017039900,1197028254064728,-0.0056375,-0.2759625,-0.044825
1680017039904,1197028256566882,-0.0086624995,-0.276925,-0.0419375
1680017039904,1197028259069112,-0.01375,-0.2759625,-0.0419375
1680017039908,1197028261571266,-0.01375,-0.2809125,-0.0438625
1680017039908,1197028264073738,-0.01375,-0.282975,-0.044825
1680017039911,1197028266575892,-0.01375,-0.2869625,-0.044825
1680017039914,1197028269078276,-0.015675,-0.2850375,-0.0429
1680017039916,1197028271580430,-0.0177375,-0.2809125,-0.0408375
1680017039919,1197028274082675,-0.021724999,-0.2789875,-0.039875
1680017039921,1197028276584829,-0.02365,-0.278025,-0.0408375
1680017039924,1197028279087290,-0.0196625,-0.28393748,-0.03795
1680017039926,1197028281589675,-0.0196625,-0.278025,-0.0389125
1680017039928,1197028284091829,-0.021724999,-0.2739,-0.0429
1680017039931,1197028286593978,-0.0226875,-0.275,-0.044825
1680017039936,1197028289096208,-0.020624999,-0.275,-0.0499125
1680017039938,1197028291598593,-0.013612499,-0.2809125,-0.0518375
1680017039941,1197028294191593,-0.010725,-0.27995,-0.0548625
1680017039942,1197028296603218,-0.0116875,-0.275,-0.0578875
1680017039944,1197028299105372,-0.013612499,-0.2679875,-0.05995
1680017039946,1197028301607603,-0.009625,-0.265925,-0.058849998
1680017039948,1197028304109757,-0.0086624995,-0.265925,-0.0609125
1680017039952,1197028306612151,-0.0037125,-0.265925,-0.066825
1680017039954,1197028309114305,-0.0026125,-0.2619375,-0.064899996
1680017039956,1197028311616767,-0.00165,-0.2619375,-0.066825
1680017039959,1197028314118921,-0.00165,-0.2589125,-0.06985
1680017039961,1197028316621151,0.0033,-0.256025,-0.066825
1680017039964,1197028319123319,0.0033,-0.2479125,-0.0658625
1680017039966,1197028321625704,2.75E-4,-0.2459875,-0.067925
1680017039968,1197028324127858,0.0023375,-0.2459875,-0.0688875
1680017039973,1197028326630319,0.0042625,-0.245025,-0.0719125
1680017039976,1197028329132555,0.0042625,-0.249975,-0.0738375
1680017039978,1197028331634709,0.0053625,-0.253,-0.0759
1680017039980,1197028334137094,0.0042625,-0.2509375,-0.072875
1680017039981,1197028336639247,0.0023375,-0.2399375,-0.0719125
1680017039984,1197028339141478,0.0033,-0.232925,-0.0719125
1680017039987,1197028341643949,0.0023375,-0.232925,-0.06985
1680017039990,1197028344146103,0.0033,-0.2380125,-0.06985
1680017039992,1197028346648256,0.0042625,-0.2429625,-0.07095
1680017039995,1197028349150641,0.0042625,-0.242,-0.067925
1680017039997,1197028351652795,0.0053625,-0.2369125,-0.064899996
1680017039999,1197028354155031,0.0042625,-0.23595,-0.0658625
1680017040002,1197028356657415,0.0042625,-0.2380125,-0.061875
1680017040004,1197028359159646,0.006325,-0.242,-0.067925
1680017040008,1197028361661776,0.0072875,-0.2369125,-0.067925
1680017040010,1197028364164161,0.0072875,-0.23595,-0.067925
1680017040012,1197028366666391,0.0042625,-0.2409,-0.064899996
1680017040015,1197028369168545,0.001375,-0.2349875,-0.0628375
1680017040017,1197028371670897,0.0033,-0.22893749,-0.05995
1680017040019,1197028374173128,0.0042625,-0.231,-0.066825
1680017040021,1197028376675512,0.0033,-0.234025,-0.0658625
1680017040024,1197028379177743,0.0042625,-0.234025,-0.0628375
1680017040027,1197028381679897,0.0053625,-0.23595,-0.064899996
1680017040029,1197028384182037,0.0072875,-0.2399375,-0.066825
1680017040032,1197028386684421,0.0072875,-0.2409,-0.06985
1680017040034,1197028389186883,0.0072875,-0.2369125,-0.06985
1680017040037,1197028391689037,0.00935,-0.231,-0.06985
1680017040039,1197028394191162,0.00935,-0.23595,-0.0688875
1680017040042,1197028396693392,0.012375,-0.2380125,-0.06985
1680017040044,1197028399195546,0.015262499,-0.2299,-0.0719125
1680017040048,1197028401697931,0.0143,-0.2239875,-0.066825
1680017040050,1197028404200402,0.011275,-0.2239875,-0.0658625
1680017040052,1197028406702556,0.0083875,-0.2160125,-0.0609125
1680017040055,1197028409204710,0.0053625,-0.2079,-0.0518375
1680017040057,1197028411706941,0.0072875,-0.1989625,-0.0518375
1680017040059,1197028414209325,0.0072875,-0.20295,-0.04895
1680017040061,1197028416711469,0.0083875,-0.190025,-0.0429
1680017040064,1197028419213931,0.006325,-0.1819125,-0.045925
1680017040067,1197028421716085,0.0083875,-0.179025,-0.04895
1680017040069,1197028424218316,0.0103124995,-0.1769625,-0.04895
1680017040071,1197028426720671,0.0083875,-0.1659625,-0.0438625
1680017040074,1197028429222825,0.00935,-0.150975,-0.0419375
1680017040077,1197028431724979,0.0072875,-0.144925,-0.0429
1680017040079,1197028434227440,0.0072875,-0.1359875,-0.04895
1680017040081,1197028436729671,0.006325,-0.12595,-0.0529375
1680017040085,1197028439231825,0.001375,-0.1159125,-0.0548625
1680017040088,1197028441734210,0.001375,-0.108899996,-0.056925
1680017040091,1197028444236363,0.0053625,-0.1029875,-0.056925
1680017040092,1197028446738604,0.001375,-0.084975,-0.0609125
1680017040095,1197028449240989,-0.0056375,-0.069025,-0.061875
1680017040097,1197028451743143,-0.00165,-0.05995,-0.0628375
1680017040099,1197028454245373,-0.0056375,-0.0479875,-0.0658625
1680017040101,1197028456747758,-0.010725,-0.029975,-0.067925
1680017040103,1197028459249993,-0.0086624995,-0.018975,-0.06985
1680017040106,1197028461752147,-0.009625,-0.0089375,-0.0719125
1680017040109,1197028464254531,-0.013612499,0.00605,-0.072875
1680017040112,1197028466756762,-0.0196625,0.011,-0.0738375
1680017040114,1197028469258897,-0.0177375,0.0210375,-0.0749375
1680017040117,1197028471761282,-0.020624999,0.031075,-0.0749375
1680017040119,1197028474263435,-0.02365,0.0290125,-0.078925
1680017040123,1197028476765897,-0.02365,0.0290125,-0.083875
1680017040125,1197028479268119,-0.0246125,0.031075,-0.0878625
1680017040127,1197028481770273,-0.021724999,0.0341,-0.0908875
1680017040129,1197028484272426,-0.0257125,0.036025,-0.09185
1680017040131,1197028486774811,-0.02365,0.0240625,-0.09295
1680017040134,1197028489277042,-0.0257125,0.0180125,-0.094875
1680017040137,1197028491779411,-0.0276375,0.013062499,-0.0988625
1680017040139,1197028494281641,-0.0306625,0.0,-0.099825
1680017040141,1197028496783795,-0.034649998,-0.0099,-0.099825
1680017040144,1197028499286180,-0.0397375,-0.0209,-0.0908875
1680017040147,1197028501788320,-0.0407,-0.0369875,-0.089925
1680017040149,1197028504290550,-0.043725,-0.051975,-0.09295
1680017040151,1197028506792935,-0.042625,-0.0669625,-0.086899996
1680017040154,1197028509295166,-0.0446875,-0.0829125,-0.086899996
1680017040156,1197028511797324,-0.045649998,-0.102025,-0.0859375
1680017040162,1197028514299708,-0.0477125,-0.11495,-0.0829125
1680017040165,1197028516801939,-0.0466125,-0.132,-0.078925
1680017040165,1197028519304093,-0.0477125,-0.150975,-0.0768625
1680017040166,1197028521806488,-0.0446875,-0.1659625,-0.0768625
1680017040168,1197028524308718,-0.045649998,-0.1799875,-0.072875
1680017040171,1197028526811103,-0.0466125,-0.1909875,-0.066825
1680017040174,1197028529313257,-0.053625,-0.1940125,-0.058849998
1680017040177,1197028531815498,-0.056649998,-0.210925,-0.0548625
1680017040179,1197028534317651,-0.054725,-0.2259125,-0.0499125
1680017040181,1197028536820036,-0.054725,-0.23595,-0.0419375
1680017040184,1197028539322267,-0.053625,-0.24695,-0.0358875
1680017040187,1197028541824651,-0.0556875,-0.25795,-0.028875
1680017040189,1197028544326824,-0.056649998,-0.27101249,-0.0279125
1680017040191,1197028546829055,-0.0556875,-0.289025,-0.023924999
1680017040194,1197028549331209,-0.0517,-0.300025,-0.0209
1680017040198,1197028551833602,-0.0517,-0.3069,-0.0169125
1680017040200,1197028554336064,-0.0526625,-0.308,-0.012925
1680017040201,1197028556838218,-0.0526625,-0.31295,-0.0108624995
1680017040203,1197028559340372,-0.0517,-0.315975,-0.00385
1680017040206,1197028561842603,-0.054725,-0.3139125,0.0011
1680017040209,1197028564345011,-0.054725,-0.311025,0.00605
1680017040211,1197028566847165,-0.054725,-0.3119875,0.010175
1680017040215,1197028569349396,-0.0556875,-0.3069,0.0191125
1680017040217,1197028571851780,-0.0587125,-0.298925,0.0191125
1680017040219,1197028574354011,-0.0587125,-0.2979625,0.021175
1680017040221,1197028576856165,-0.0576125,-0.2959,0.0240625
1680017040225,1197028579358550,-0.0576125,-0.2899875,0.0251625
1680017040227,1197028581860703,-0.056649998,-0.278025,0.02805
1680017040229,1197028584363165,-0.053625,-0.2699125,0.02805
1680017040231,1197028586865310,-0.0507375,-0.27101249,0.020075
1680017040235,1197028589367541,-0.0507375,-0.265925,0.015125
1680017040238,1197028591869695,-0.045649998,-0.260975,0.010175
1680017040239,1197028594372098,-0.043725,-0.260975,0.0020625
1680017040241,1197028596874252,-0.042625,-0.2539625,-0.0078375
1680017040244,1197028599376714,-0.042625,-0.2380125,-0.006875
1680017040247,1197028601878944,-0.0397375,-0.227975,-0.0108624995
1680017040249,1197028604381098,-0.0397375,-0.223025,-0.017875
1680017040251,1197028606883262,-0.0407,-0.212025,-0.0199375
1680017040254,1197028609385647,-0.037675,-0.201025,-0.0279125
1680017040259,1197028611887877,-0.0367125,-0.1879625,-0.034925
1680017040260,1197028614390031,-0.034649998,-0.1749,-0.036849998
1680017040261,1197028616892488,-0.034649998,-0.1639,-0.0419375
1680017040264,1197028619394642,-0.0336875,-0.1529,-0.04895
1680017040267,1197028621897026,-0.0336875,-0.13695,-0.050875
1680017040269,1197028624399180,-0.031625,-0.128975,-0.056925
1680017040275,1197028626901411,-0.0276375,-0.1189375,-0.061875
1680017040275,1197028629403565,-0.0287375,-0.10395,-0.066825
1680017040277,1197028631906026,-0.0297,-0.0919875,-0.0719125
1680017040279,1197028634408180,-0.0306625,-0.0809875,-0.0738375
1680017040282,1197028636910565,-0.0297,-0.0719125,-0.072875
1680017040284,1197028639412791,-0.0257125,-0.066,-0.0759
1680017040289,1197028641914944,-0.0257125,-0.0539,-0.08085
1680017040291,1197028644417098,-0.0287375,-0.045925,-0.0829125
1680017040292,1197028646919560,-0.026675,-0.0319,-0.0829125
1680017040295,1197028649421944,-0.0276375,-0.025024999,-0.0848375
1680017040297,1197028651924098,-0.026675,-0.0180125,-0.089925
1680017040300,1197028654426329,-0.026675,-0.0119624995,-0.094875
1680017040302,1197028656928483,-0.0257125,-0.0070125,-0.095837496
1680017040304,1197028659430868,-0.026675,-0.003025,-0.099825
1680017040308,1197028661933344,-0.0306625,0.0070125,-0.1018875
1680017040310,1197028664435498,-0.026675,0.0050875,-0.10285
1680017040312,1197028666937652,-0.0306625,0.013062499,-0.10285
1680017040314,1197028669439883,-0.031625,0.0240625,-0.100925
1680017040318,1197028671942051,-0.0356125,0.022,-0.0939125
1680017040321,1197028674444436,-0.0416625,0.0341,-0.077825
1680017040322,1197028676946898,-0.0446875,0.0400125,-0.07095
1680017040325,1197028679449051,-0.043725,0.039049998,-0.0738375
1680017040327,1197028681951186,-0.043725,0.0350625,-0.0719125
1680017040329,1197028684453417,-0.042625,0.0320375,-0.0759
1680017040331,1197028686955802,-0.0397375,0.022,-0.083875
1680017040334,1197028689457956,-0.0386375,0.020075,-0.0829125
1680017040338,1197028691960185,-0.0397375,0.020075,-0.088825
1680017040342,1197028694462570,-0.0367125,0.0160875,-0.09295
1680017040344,1197028696964801,-0.0356125,0.011,-0.094875
1680017040346,1197028699466955,-0.0367125,0.0070125,-0.094875
1680017040348,1197028701969344,-0.0386375,-9.625E-4,-0.100925
1680017040351,1197028704471498,-0.034649998,-0.0099,-0.100925
1680017040352,1197028706973729,-0.0297,-0.0149875,-0.10395
1680017040354,1197028709476190,-0.0336875,-0.0259875,-0.105875
1680017040358,1197028711978344,-0.0356125,-0.0279125,-0.1049125
1680017040359,1197028714480493,-0.0306625,-0.0339625,-0.106837496
1680017040362,1197028716982878,-0.0336875,-0.0429,-0.1049125
1680017040364,1197028719485032,-0.0356125,-0.0479875,-0.105875
1680017040367,1197028721987262,-0.0386375,-0.0510125,-0.100925
1680017040369,1197028724489720,-0.0367125,-0.058025,-0.099825
1680017040372,1197028726991874,-0.0356125,-0.067925,-0.1018875
1680017040375,1197028729494028,-0.0336875,-0.0749375,-0.10285
1680017040378,1197028731996412,-0.031625,-0.078925,-0.1049125
1680017040380,1197028734498614,-0.0287375,-0.086899996,-0.1049125
1680017040382,1197028737000768,-0.034649998,-0.091025,-0.1049125
1680017040387,1197028739503229,-0.031625,-0.0950125,-0.105875
1680017040391,1197028742005383,-0.0306625,-0.100925,-0.105875
1680017040392,1197028744507777,-0.0287375,-0.1079375,-0.1018875
1680017040393,1197028747010008,-0.0287375,-0.108899996,-0.100925
1680017040395,1197028749512161,-0.0306625,-0.11,-0.1018875
1680017040398,1197028752014315,-0.031625,-0.11,-0.10285
1680017040399,1197028754516700,-0.0336875,-0.11495,-0.100925
1680017040401,1197028757019176,-0.0336875,-0.11495,-0.0988625
1680017040404,1197028759521330,-0.031625,-0.113025,-0.0939125
1680017040408,1197028762023561,-0.034649998,-0.1139875,-0.094875
1680017040409,1197028764525715,-0.034649998,-0.1170125,-0.0939125
1680017040412,1197028767027869,-0.034649998,-0.124025,-0.09295
1680017040415,1197028769530253,-0.0356125,-0.1170125,-0.0908875
1680017040418,1197028772032715,-0.0386375,-0.1159125,-0.0878625
1680017040420,1197028774534869,-0.0397375,-0.1170125,-0.0859375
1680017040423,1197028777037076,-0.0397375,-0.1219625,-0.0848375
1680017040425,1197028779539229,-0.0397375,-0.121,-0.0848375
1680017040428,1197028782041614,-0.0386375,-0.1170125,-0.078925
1680017040430,1197028784543845,-0.0407,-0.1170125,-0.0749375
1680017040431,1197028787046229,-0.0416625,-0.1170125,-0.077825
1680017040434,1197028789548392,-0.043725,-0.113025,-0.0768625
1680017040437,1197028792050623,-0.043725,-0.113025,-0.08085
1680017040442,1197028794553008,-0.0407,-0.11,-0.0829125
1680017040444,1197028797055162,-0.0407,-0.1109625,-0.08195
1680017040446,1197028799557402,-0.043725,-0.111925,-0.078925
1680017040447,1197028802059787,-0.043725,-0.10395,-0.077825
1680017040449,1197028804562018,-0.043725,-0.102025,-0.08195
1680017040452,1197028807064172,-0.045649998,-0.0979,-0.0829125
1680017040457,1197028809566551,-0.0466125,-0.0939125,-0.08195
1680017040458,1197028812068705,-0.0477125,-0.0939125,-0.08195
1680017040461,1197028814570936,-0.0477125,-0.091025,-0.083875
1680017040463,1197028817073320,-0.048675,-0.088,-0.0859375
1680017040465,1197028819575551,-0.0517,-0.0829125,-0.083875
1680017040468,1197028822077936,-0.0507375,-0.0719125,-0.0829125
1680017040470,1197028824580090,-0.0507375,-0.069025,-0.086899996
1680017040471,1197028827082244,-0.053625,-0.0669625,-0.0878625
1680017040476,1197028829584474,-0.053625,-0.0639375,-0.088825
1680017040477,1197028832086844,-0.0526625,-0.05995,-0.09185
1680017040479,1197028834589075,-0.0517,-0.051975,-0.09185
1680017040482,1197028837091459,-0.053625,-0.040975,-0.09185
1680017040485,1197028839593613,-0.0556875,-0.03795,-0.089925
1680017040487,1197028842095839,-0.0576125,-0.0309375,-0.0878625
1680017040489,1197028844597993,-0.0666875,-0.0169125,-0.0759
1680017040491,1197028847100377,-0.070675,-0.003025,-0.056925
1680017040495,1197028849602608,-0.0716375,0.0011,-0.0499125
1680017040499,1197028852105007,-0.0716375,0.0,-0.0518375
1680017040501,1197028854607161,-0.0716375,-9.625E-4,-0.050875
1680017040504,1197028857109391,-0.0727375,0.0,-0.050875
1680017040506,1197028859611776,-0.0807125,-0.001925,-0.0529375
1680017040508,1197028862113930,-0.0807125,-9.625E-4,-0.0518375
1680017040509,1197028864616166,-0.0776875,-9.625E-4,-0.0529375
1680017040511,1197028867118550,-0.0807125,0.0020625,-0.0529375
1680017040514,1197028869620704,-0.0796125,0.0,-0.0539
1680017040519,1197028872122935,-0.075625,-0.003025,-0.0548625
1680017040521,1197028874625325,-0.070675,-0.001925,-0.058849998
1680017040523,1197028877127555,-0.075625,-0.003025,-0.0578875
1680017040525,1197028879629709,-0.076725,-0.00495,-0.055825
1680017040528,1197028882132094,-0.075625,-0.0059125,-0.055825
1680017040529,1197028884634248,-0.0776875,-0.001925,-0.0548625
1680017040532,1197028887136473,-0.0746625,-0.001925,-0.0529375
1680017040537,1197028889638935,-0.0746625,-0.003025,-0.0539
1680017040539,1197028892141089,-0.076725,-0.007975,-0.0529375
1680017040541,1197028894841089,-0.0746625,-0.00495,-0.0529375
1680017040543,1197028897145617,-0.0727375,-0.007975,-0.0539
1680017040545,1197028899647848,-0.0727375,-0.012925,-0.0548625
1680017040547,1197028902150002,-0.0727375,-0.01595,-0.050875
1680017040549,1197028904652463,-0.0727375,-0.0199375,-0.0518375
1680017040552,1197028907154617,-0.0697125,-0.018975,-0.0518375
1680017040554,1197028909656997,-0.0716375,-0.022,-0.0539
1680017040557,1197028912159151,-0.070675,-0.0209,-0.0539
1680017040559,1197028914661382,-0.0686125,-0.022,-0.0518375
1680017040562,1197028917163535,-0.06765,-0.0309375,-0.0518375
1680017040564,1197028919665916,-0.0636625,-0.0319,-0.0518375
1680017040568,1197028922168147,-0.0606375,-0.0309375,-0.0529375
1680017040569,1197028924670531,-0.0606375,-0.0389125,-0.0539
1680017040575,1197028927172728,-0.0606375,-0.0449625,-0.055825
1680017040576,1197028929674882,-0.059675,-0.0419375,-0.0578875
1680017040579,1197028932177036,-0.0617375,-0.036025,-0.0539
1680017040580,1197028934679421,-0.059675,-0.0389125,-0.050875
1680017040582,1197028937181882,-0.0576125,-0.0449625,-0.0518375
1680017040584,1197028939684026,-0.0576125,-0.0429,-0.0518375
1680017040587,1197028942186257,-0.0587125,-0.0429,-0.04895
1680017040590,1197028944688411,-0.0606375,-0.0449625,-0.045925
1680017040592,1197028947190795,-0.0617375,-0.0419375,-0.0438625
1680017040594,1197028949692949,-0.0617375,-0.044,-0.0438625
1680017040597,1197028952195411,-0.059675,-0.047025,-0.047849998
1680017040600,1197028954697564,-0.0587125,-0.0539,-0.0499125
1680017040602,1197028957199795,-0.056649998,-0.056925,-0.0499125
1680017040605,1197028959701949,-0.0556875,-0.058025,-0.0499125
1680017040607,1197028962204310,-0.0556875,-0.05995,-0.0518375
1680017040611,1197028964706540,-0.0556875,-0.0589875,-0.0518375
1680017040613,1197028967208925,-0.0556875,-0.055,-0.050875
1680017040615,1197028969711065,-0.0526625,-0.0609125,-0.04895
1680017040618,1197028972213296,-0.0477125,-0.064899996,-0.047849998
1680017040620,1197028974715680,-0.0466125,-0.0639375,-0.050875
1680017040622,1197028977217834,-0.0477125,-0.07095,-0.0499125
1680017040625,1197028979720065,-0.0477125,-0.069025,-0.050875
1680017040627,1197028982222228,-0.0507375,-0.067925,-0.0529375
1680017040629,1197028984724689,-0.045649998,-0.07095,-0.050875
1680017040631,1197028987227074,-0.042625,-0.077,-0.045925
1680017040634,1197028989729228,-0.0466125,-0.0749375,-0.04895
1680017040637,1197028992231377,-0.0407,-0.0719125,-0.045925
1680017040639,1197028994733607,-0.0397375,-0.077,-0.045925
1680017040642,1197028997235761,-0.037675,-0.0809875,-0.04895
1680017040644,1197028999738223,-0.0367125,-0.084975,-0.047849998
1680017040648,1197029002240628,-0.0386375,-0.078925,-0.04895
1680017040650,1197029004742782,-0.0356125,-0.0859375,-0.0419375
1680017040652,1197029007244936,-0.0386375,-0.088,-0.044825
1680017040655,1197029009747167,-0.037675,-0.088,-0.047849998
1680017040658,1197029012249552,-0.0306625,-0.091025,-0.045925
1680017040660,1197029014751772,-0.0306625,-0.09295,-0.0518375
1680017040662,1197029017254157,-0.0287375,-0.0999625,-0.050875
1680017040664,1197029019756311,-0.026675,-0.1049125,-0.0529375
1680017040667,1197029022258542,-0.0257125,-0.1079375,-0.050875
1680017040669,1197029024760926,-0.021724999,-0.106975,-0.0518375
1680017040672,1197029027263085,-0.0196625,-0.106975,-0.0539
1680017040674,1197029029765316,-0.0177375,-0.10395,-0.050875
1680017040677,1197029032267700,-0.014712499,-0.108899996,-0.050875
1680017040680,1197029034769916,-0.015675,-0.1109625,-0.0499125
1680017040682,1197029037272070,-0.014712499,-0.11,-0.04895
1680017040686,1197029039774455,-0.0086624995,-0.113025,-0.050875
1680017040689,1197029042276609,-0.004675,-0.1170125,-0.0529375
1680017040691,1197029044779070,-0.0026125,-0.12595,-0.0518375
1680017040693,1197029047281224,0.001375,-0.128975,-0.0539
1680017040695,1197029049783455,0.001375,-0.124025,-0.056925
1680017040699,1197029052285609,0.0033,-0.1269125,-0.0539
1680017040700,1197029054787993,0.006325,-0.133925,-0.055825
1680017040702,1197029057290142,0.006325,-0.1329625,-0.0548625
1680017040704,1197029059792373,0.006325,-0.132,-0.0548625
1680017040708,1197029062294834,0.0053625,-0.133925,-0.0539
1680017040710,1197029064796988,0.0072875,-0.14093749,-0.0499125
1680017040712,1197029067299373,0.00935,-0.1419,-0.04895
1680017040714,1197029069801508,0.00935,-0.139975,-0.0539
1680017040717,1197029072303739,0.0083875,-0.144925,-0.0548625
1680017040720,1197029074805892,0.00935,-0.14795,-0.0548625
1680017040726,1197029077308383,0.0072875,-0.1489125,-0.055825
1680017040727,1197029079810537,0.0053625,-0.14795,-0.055825
1680017040729,1197029082312921,0.00935,-0.154,-0.055825
1680017040730,1197029084815075,0.0072875,-0.1519375,-0.058849998
1680017040732,1197029087317306,0.0083875,-0.1579875,-0.05995
1680017040736,1197029089819681,0.00935,-0.1610125,-0.061875
1680017040738,1197029092321911,0.006325,-0.1659625,-0.061875
1680017040739,1197029094824065,0.0053625,-0.16499999,-0.0628375
1680017040742,1197029097326450,0.006325,-0.16499999,-0.064899996
1680017040744,1197029099828681,0.0083875,-0.1739375,-0.066825
1680017040747,1197029102330864,0.001375,-0.168025,-0.0688875
1680017040750,1197029104833017,0.0053625,-0.16499999,-0.066825
1680017040752,1197029107335479,0.0042625,-0.16995,-0.07095
1680017040755,1197029109837864,0.0053625,-0.1659625,-0.0749375
1680017040757,1197029112340022,0.0042625,-0.1689875,-0.0768625
1680017040761,1197029114842253,0.0033,-0.1659625,-0.077825
1680017040763,1197029117344407,0.0023375,-0.16499999,-0.086899996
1680017040765,1197029119846792,0.001375,-0.16293749,-0.095837496
1680017040768,1197029122349046,2.75E-4,-0.1599125,-0.1049125
1680017040770,1197029124851431,2.75E-4,-0.1610125,-0.10395
1680017040772,1197029127353662,2.75E-4,-0.1659625,-0.10395
1680017040777,1197029129855816,0.0053625,-0.1709125,-0.100925
1680017040779,1197029132357988,0.0042625,-0.1739375,-0.09185
1680017040780,1197029134860373,0.0033,-0.1749,-0.086899996
1680017040782,1197029137362604,0.0053625,-0.1799875,-0.0749375
1680017040788,1197029139864989,0.0053625,-0.1819125,-0.0688875
1680017040794,1197029142367219,0.001375,-0.190025,-0.064899996
1680017040794,1197029144869364,2.75E-4,-0.19195,-0.058849998
1680017040794,1197029147371749,0.0053625,-0.199925,-0.055825
1680017040795,1197029149873903,0.006325,-0.201025,-0.050875
1680017040799,1197029152376137,2.75E-4,-0.205975,-0.04895
1680017040800,1197029154878522,0.0053625,-0.210925,-0.0438625
1680017040802,1197029157380753,0.0053625,-0.210925,-0.0429
1680017040804,1197029159882907,0.006325,-0.20899999,-0.0408375
1680017040808,1197029162385291,0.0042625,-0.2099625,-0.0358875
1680017040809,1197029164887522,0.0033,-0.212025,-0.0358875
1680017040813,1197029167389676,0.0033,-0.210925,-0.034925
1680017040815,1197029169892061,0.0033,-0.205975,-0.034925
1680017040818,1197029172394291,0.0072875,-0.2019875,-0.03795
1680017040819,1197029174896686,0.0072875,-0.199925,-0.036849998
1680017040822,1197029177398840,0.0072875,-0.198,-0.0319
1680017040825,1197029179900994,0.0083875,-0.1909875,-0.0279125
1680017040828,1197029182403224,0.0072875,-0.1830125,-0.0248875
1680017040830,1197029184905710,0.0042625,-0.177925,-0.0248875
1680017040832,1197029187408095,0.0042625,-0.1749,-0.02585
1680017040836,1197029189910248,0.0042625,-0.166925,-0.022824999
1680017040839,1197029192412402,0.0053625,-0.16293749,-0.022824999
1680017040841,1197029194914638,0.006325,-0.161975,-0.02585
1680017040842,1197029197417023,0.0042625,-0.1579875,-0.0248875
1680017040844,1197029199919177,0.0023375,-0.1519375,-0.02695
1680017040848,1197029202421638,0.0033,-0.144925,-0.02585
1680017040850,1197029204923792,0.0033,-0.1439625,-0.02585
1680017040854,1197029207426003,0.0023375,-0.139975,-0.028875
1680017040856,1197029209928157,0.0033,-0.13695,-0.0218625
1680017040858,1197029212430541,-0.004675,-0.133925,-0.0218625
1680017040860,1197029214932695,-0.00165,-0.1280125,-0.0218625
1680017040862,1197029217435157,-0.00165,-0.133925,-0.022824999
1680017040866,1197029219937306,-0.0026125,-0.133925,-0.0248875
1680017040868,1197029222439537,-0.0067375,-0.1329625,-0.0218625
1680017040870,1197029224941922,-0.0037125,-0.1299375,-0.022824999
1680017040875,1197029227444076,-0.004675,-0.128975,-0.0218625
1680017040876,1197029229946306,-0.0067375,-0.133925,-0.022824999
1680017040878,1197029232448691,-0.0056375,-0.1359875,-0.023924999
1680017040882,1197029234950922,-0.0067375,-0.13695,-0.0248875
1680017040882,1197029237453076,-0.0056375,-0.1379125,-0.028875
1680017040885,1197029239955460,-0.0086624995,-0.1379125,-0.0279125
1680017040888,1197029242457623,-0.0067375,-0.1359875,-0.02695
1680017040892,1197029244959854,-0.0056375,-0.1329625,-0.0279125
1680017040896,1197029247462239,-0.0056375,-0.1379125,-0.02695
1680017040896,1197029249964469,-0.0077,-0.13695,-0.02585
1680017040899,1197029252466614,-0.0067375,-0.1359875,-0.0279125
1680017040900,1197029254968999,-0.0077,-0.1309,-0.02585
1680017040902,1197029257471153,-0.0037125,-0.132,-0.02585
1680017040905,1197029259973383,-0.0026125,-0.132,-0.017875
1680017040908,1197029262475845,-0.0056375,-0.12595,-0.0188375
1680017040911,1197029264977984,-0.0067375,-0.1269125,-0.017875
1680017040913,1197029267480138,-0.009625,-0.12595,-0.0099
1680017040915,1197029269982522,-0.009625,-0.121,-0.0089375
1680017040918,1197029272484753,-0.0086624995,-0.1189375,-0.0089375
1680017040920,1197029274986907,-0.0037125,-0.1219625,-0.0059125
1680017040922,1197029277489278,-0.0037125,-0.1139875,-0.00495
1680017040925,1197029279991508,-0.0026125,-0.1139875,-0.00495
1680017040928,1197029282493893,-0.0026125,-0.113025,-0.0028875
1680017040930,1197029284996047,0.0023375,-0.108899996,-0.001925
1680017040932,1197029287498263,0.0042625,-0.1109625,-0.001925
1680017040935,1197029290000416,0.0033,-0.1049125,-0.006875
1680017040938,1197029292502878,0.0072875,-0.11,-0.00495
1680017040941,1197029295005032,0.012375,-0.106975,-0.0078375
1680017040943,1197029297507406,0.0143,-0.106975,-0.0099
1680017040945,1197029300009560,0.0182875,-0.11,-0.011825
1680017040949,1197029302511791,0.0213125,-0.1049125,-0.01485
1680017040951,1197029305014176,0.0273625,-0.0999625,-0.01485
1680017040952,1197029307516406,0.034375,-0.100925,-0.0169125
1680017040955,1197029310018560,0.0383625,-0.1029875,-0.017875
1680017040957,1197029312520945,0.04235,-0.0999625,-0.0209
1680017040960,1197029315023176,0.050325,-0.0999625,-0.0279125
1680017040962,1197029317525330,0.055275,-0.102025,-0.0298375
1680017040964,1197029320027743,0.0573375,-0.099,-0.0328625
1680017040967,1197029322529974,0.0573375,-0.0979,-0.0358875
1680017040970,1197029325032359,0.061325,-0.0979,-0.036849998
1680017040972,1197029327534512,0.06435,-0.099,-0.036849998
1680017040975,1197029330036743,0.0622875,-0.0939125,-0.034925
1680017040979,1197029332538897,0.067375,-0.09295,-0.036849998
1680017040980,1197029335041359,0.0732875,-0.0919875,-0.033825
1680017040982,1197029337543512,0.0732875,-0.089925,-0.033825
1680017040987,1197029340045902,0.0763125,-0.0840125,-0.0358875
1680017040989,1197029342548133,0.0763125,-0.086899996,-0.0358875
1680017040992,1197029345050287,0.0732875,-0.086899996,-0.0358875
1680017040994,1197029347552441,0.077275,-0.0859375,-0.036849998
1680017040996,1197029350054902,0.077275,-0.086899996,-0.0358875
1680017040998,1197029352557262,0.0763125,-0.086899996,-0.0328625
1680017040999,1197029355059416,0.072325,-0.0859375,-0.0298375
1680017041002,1197029357561646,0.069299996,-0.089925,-0.02695
1680017041006,1197029360063800,0.069299996,-0.0919875,-0.02585
1680017041009,1197029362566185,0.067375,-0.088,-0.022824999
1680017041010,1197029365068416,0.0633875,-0.09295,-0.0218625
1680017041012,1197029367570800,0.067375,-0.0969375,-0.0209
1680017041016,1197029370072954,0.0683375,-0.0950125,-0.0188375
1680017041019,1197029372575180,0.06435,-0.0979,-0.01485
1680017041020,1197029375077334,0.0622875,-0.102025,-0.01485
1680017041025,1197029377579718,0.0622875,-0.0999625,-0.01485
1680017041027,1197029380081949,0.061325,-0.1049125,-0.0108624995
1680017041029,1197029382584382,0.0592625,-0.108899996,-0.0108624995
1680017041030,1197029385086536,0.0592625,-0.113025,-0.0099
1680017041032,1197029387588766,0.0573375,-0.1139875,-0.0089375
1680017041035,1197029390091151,0.056375,-0.1189375,-0.0078375
1680017041038,1197029392593305,0.056375,-0.1199,-0.0059125
1680017041041,1197029395095536,0.056375,-0.1219625,-0.0028875
1680017041042,1197029397597920,0.0523875,-0.1219625,-0.001925
1680017041045,1197029400100151,0.0523875,-0.124025,-0.0028875
1680017041047,1197029402602536,0.050325,-0.1269125,1.375E-4
1680017041050,1197029405104703,0.0473,-0.128975,-0.0028875
1680017041053,1197029407606857,0.0463375,-0.1280125,-8.25E-4
1680017041056,1197029410109088,0.045375,-0.128975,1.375E-4
1680017041058,1197029412611550,0.045375,-0.1269125,-0.001925
1680017041062,1197029415113718,0.045375,-0.1280125,0.0011
1680017041063,1197029417616103,0.04235,-0.128975,1.375E-4
1680017041067,1197029420118257,0.0402875,-0.1269125,0.0031625
1680017041069,1197029422620411,0.0413875,-0.1280125,0.004125
1680017041070,1197029425122642,0.0402875,-0.1199,0.0050875
1680017041072,1197029427625107,0.0383625,-0.121,0.00605
1680017041075,1197029430127261,0.0363,-0.121,0.00605
1680017041078,1197029432629646,0.0363,-0.1189375,0.00605
1680017041080,1197029435131799,0.034375,-0.117975,0.00715
1680017041082,1197029437634050,0.0353375,-0.1249875,0.0050875
1680017041085,1197029440136435,0.0353375,-0.1170125,0.0050875
1680017041088,1197029442638589,0.034375,-0.11495,0.0050875
1680017041091,1197029445140819,0.0292875,-0.11495,0.00605
1680017041092,1197029447643218,0.0273625,-0.117975,0.004125
1680017041095,1197029450145449,0.0262625,-0.1159125,0.00605
1680017041100,1197029452647603,0.0262625,-0.1139875,0.0050875
1680017041102,1197029455149987,0.0243375,-0.111925,0.0031625
1680017041103,1197029457652160,0.0253,-0.113025,0.0031625
1680017041106,1197029460154622,0.023375,-0.113025,0.0031625
1680017041108,1197029462656776,0.0253,-0.1109625,0.0011
1680017041110,1197029465159006,0.0243375,-0.1109625,0.0011
1680017041112,1197029467661391,0.0243375,-0.111925,0.004125
1680017041115,1197029470163531,0.0243375,-0.111925,0.0020625
1680017041119,1197029472665685,0.022275,-0.111925,0.0020625
1680017041121,1197029475168146,0.023375,-0.1139875,0.0031625
1680017041123,1197029477670377,0.022275,-0.1109625,0.004125
1680017041125,1197029480172540,0.022275,-0.11,0.00605
1680017041128,1197029482674924,0.022275,-0.113025,0.0031625
1680017041130,1197029485177078,0.0213125,-0.1109625,0.0020625
1680017041132,1197029487679309,0.02035,-0.11,0.0031625
1680017041138,1197029490181680,0.0213125,-0.1159125,0.0050875
1680017041141,1197029495183911,0.0182875,-0.117975,0.004125
1680017041143,1197029495366987,0.0182875,-0.121,0.0031625
1680017041145,1197029497688449,0.02035,-0.1199,0.0050875
1680017041146,1197029500190603,0.0193875,-0.12595,0.0031625
1680017041148,1197029502692834,0.017324999,-0.1280125,0.0031625
1680017041150,1197029505195218,0.0182875,-0.1309,0.0020625
1680017041152,1197029507697449,0.02035,-0.1329625,1.375E-4
1680017041155,1197029510199603,0.0213125,-0.128975,-0.001925
1680017041157,1197029512701987,0.023375,-0.1329625,-0.001925
1680017041160,1197029515204203,0.022275,-0.133925,-0.0059125
1680017041163,1197029517706357,0.02035,-0.1359875,-0.0089375
1680017041165,1197029520208742,0.022275,-0.133925,-0.0108624995
1680017041167,1197029522710973,0.023375,-0.132,-0.011825
1680017041169,1197029525213377,0.0213125,-0.1359875,-0.01485
1680017041174,1197029527715608,0.0213125,-0.139975,-0.0199375
1680017041177,1197029530217762,0.022275,-0.1379125,-0.0199375
1680017041179,1197029532719916,0.023375,-0.139975,-0.0169125
1680017041181,1197029535222301,0.0213125,-0.139975,-0.017875
1680017041183,1197029537724532,0.02035,-0.143,-0.0188375
1680017041185,1197029540226917,0.0213125,-0.143,-0.017875
1680017041188,1197029542729147,0.022275,-0.144925,-0.01485
1680017041190,1197029545231301,0.02035,-0.144925,-0.012925
1680017041192,1197029547733450,0.0193875,-0.1469875,-0.01485
1680017041195,1197029550235835,0.023375,-0.1519375,-0.01485
1680017041198,1197029552738296,0.023375,-0.1579875,-0.017875
1680017041200,1197029555240527,0.022275,-0.1659625,-0.022824999
1680017041205,1197029557742652,0.02035,-0.1769625,-0.0218625
1680017041206,1197029560244806,0.022275,-0.18493749,-0.02585
1680017041207,1197029562747190,0.0193875,-0.1929125,-0.0328625
1680017041212,1197029565249411,0.0193875,-0.1969,-0.033825
1680017041213,1197029567751796,0.0182875,-0.20693749,-0.0328625
1680017041216,1197029570254027,0.017324999,-0.21395,-0.036849998
1680017041218,1197029572756180,0.0193875,-0.2189,-0.0389125
1680017041220,1197029575258565,0.02035,-0.223025,-0.0408375
1680017041222,1197029577760715,0.0213125,-0.2270125,-0.0419375
1680017041225,1197029580262946,0.0213125,-0.22893749,-0.0429
1680017041227,1197029582765099,0.023375,-0.2299,-0.039875
1680017041230,1197029585267561,0.0253,-0.2299,-0.036849998
1680017041232,1197029587769676,0.0253,-0.2319625,-0.0358875
1680017041236,1197029590272061,0.0262625,-0.2349875,-0.03795
1680017041238,1197029592774291,0.028324999,-0.2380125,-0.03795
1680017041240,1197029595276445,0.028324999,-0.2349875,-0.034925
1680017041243,1197029597778599,0.028324999,-0.2399375,-0.0298375
1680017041246,1197029600281061,0.0273625,-0.2409,-0.028875
1680017041249,1197029602783445,0.0273625,-0.2409,-0.0279125
1680017041251,1197029605285599,0.0292875,-0.2459875,-0.02695
1680017041253,1197029607787845,0.033275,-0.24695,-0.0279125
1680017041258,1197029610289999,0.0292875,-0.2479125,-0.0328625
1680017041259,1197029612792383,0.028324999,-0.2459875,-0.0358875
1680017041260,1197029615294614,0.0273625,-0.243925,-0.0298375
1680017041262,1197029617796999,0.0253,-0.2399375,-0.0298375
1680017041266,1197029620299148,0.0243375,-0.2399375,-0.028875
1680017041268,1197029622801378,0.0213125,-0.2369125,-0.02585
1680017041270,1197029625303532,0.0182875,-0.23595,-0.0248875
1680017041272,1197029627805917,0.017324999,-0.2349875,-0.0248875
1680017041277,1197029630308378,0.0143,-0.234025,-0.0248875
1680017041278,1197029632810532,0.011275,-0.231,-0.0199375
1680017041280,1197029635312686,0.00935,-0.2270125,-0.0188375
1680017041282,1197029637814917,0.0083875,-0.2259125,-0.0209
1680017041288,1197029640317286,0.0072875,-0.2259125,-0.017875
1680017041290,1197029642819440,0.0033,-0.2270125,-0.012925
1680017041292,1197029645321671,0.0053625,-0.2259125,-0.011825
1680017041294,1197029647824056,-0.0026125,-0.22,-0.0108624995
1680017041297,1197029650326286,-0.0056375,-0.2189,-0.011825
1680017041299,1197029652828411,-0.0067375,-0.2160125,-0.0099
1680017041301,1197029655330796,-0.0077,-0.2179375,-0.0059125
1680017041303,1197029657832950,-0.0067375,-0.2149125,-0.006875
1680017041306,1197029660335181,-0.0086624995,-0.2179375,-0.00385
1680017041308,1197029662837565,-0.009625,-0.2179375,-0.006875
1680017041310,1197029665339797,-0.010725,-0.2129875,-0.00385
1680017041313,1197029667842182,-0.0116875,-0.2189,-0.0028875
1680017041316,1197029670344335,-0.01265,-0.2149125,-0.00495
1680017041320,1197029672846493,-0.015675,-0.2160125,1.375E-4
1680017041322,1197029675348724,-0.014712499,-0.2179375,0.0011
1680017041326,1197029677851186,-0.014712499,-0.212025,1.375E-4
1680017041327,1197029680353339,-0.014712499,-0.2149125,0.0011
1680017041329,1197029682855724,-0.015675,-0.2129875,0.0020625
1680017041330,1197029685357878,-0.01265,-0.2160125,0.004125
1680017041333,1197029687860138,-0.015675,-0.2149125,0.0020625
1680017041337,1197029690362522,-0.013612499,-0.210925,0.0031625
1680017041339,1197029692864753,-0.010725,-0.2079,0.00605
1680017041342,1197029695367138,-0.01265,-0.20899999,0.00715
1680017041343,1197029697869282,-0.0116875,-0.20693749,0.009075
1680017041347,1197029700371435,-0.0086624995,-0.205975,0.0121
1680017041348,1197029702873666,-0.009625,-0.2039125,0.015125
1680017041352,1197029705376032,-0.0067375,-0.201025,0.020075
1680017041353,1197029707878263,-0.0056375,-0.2079,0.021175
1680017041356,1197029710380647,-0.0067375,-0.2129875,0.0221375
1680017041358,1197029712882801,-0.004675,-0.21395,0.021175
1680017041362,1197029715384921,-0.0037125,-0.212025,0.0251625
1680017041363,1197029717887382,2.75E-4,-0.2099625,0.0251625
1680017041366,1197029720389536,0.0033,-0.2099625,0.021175
1680017041368,1197029722891767,0.0083875,-0.210925,0.0231
1680017041370,1197029725394152,0.011275,-0.212025,0.020075
1680017041373,1197029727896292,0.012375,-0.21395,0.015125
1680017041376,1197029730398445,0.015262499,-0.216975,0.014162499
1680017041379,1197029732900676,0.022275,-0.216975,0.013062499
1680017041380,1197029735403138,0.023375,-0.223025,0.010175
1680017041383,1197029737905302,0.023375,-0.22495,0.00715
1680017041385,1197029740407686,0.0253,-0.22893749,0.0111375
1680017041388,1197029742909840,0.0273625,-0.2299,0.0121
1680017041390,1197029745412071,0.03135,-0.227975,0.014162499
1680017041392,1197029747914455,0.0303875,-0.2259125,0.014162499
1680017041396,1197029750416681,0.0273625,-0.22495,0.014162499
1680017041400,1197029752918835,0.0273625,-0.227975,0.014162499
1680017041401,1197029755421220,0.033275,-0.2270125,0.0111375
1680017041403,1197029757923412,0.0372625,-0.22893749,0.00605
1680017041406,1197029760425642,0.0383625,-0.22893749,0.004125
1680017041408,1197029762928027,0.0372625,-0.227975,0.0031625
1680017041411,1197029765430258,0.039325,-0.2270125,-8.25E-4
1680017041416,1197029767932412,0.039325,-0.2239875,-0.0028875
1680017041418,1197029770434791,0.0413875,-0.2179375,-0.0059125
1680017041418,1197029772937022,0.04235,-0.2160125,-0.006875
1680017041420,1197029775439176,0.0433125,-0.20899999,-0.006875
1680017041423,1197029777941560,0.0433125,-0.20899999,-0.0099
1680017041427,1197029780443791,0.0473,-0.20693749,-0.0108624995
1680017041428,1197029782946162,0.0473,-0.2079,-0.01595
1680017041430,1197029785448393,0.0473,-0.201025,-0.0169125
1680017041433,1197029787950546,0.0482625,-0.198,-0.0188375
1680017041437,1197029790452685,0.0523875,-0.1969,-0.0209
1680017041439,1197029792955070,0.05335,-0.1959375,-0.022824999
1680017041441,1197029795457531,0.0482625,-0.1969,-0.028875
1680017041443,1197029797959685,0.0512875,-0.199925,-0.0358875
1680017041446,1197029800461916,0.0543125,-0.2019875,-0.03795
1680017041448,1197029802964056,0.0512875,-0.201025,-0.0438625
1680017041451,1197029805466210,0.0482625,-0.20295,-0.047849998
1680017041453,1197029807968594,0.050325,-0.201025,-0.050875
1680017041457,1197029810470825,0.0512875,-0.2039125,-0.0518375
1680017041458,1197029812973297,0.0523875,-0.2019875,-0.0518375
1680017041460,1197029815475451,0.0473,-0.2019875,-0.0539
1680017041462,1197029817977604,0.045375,-0.199925,-0.0578875
1680017041467,1197029820479989,0.044275,-0.2019875,-0.058849998
1680017041468,1197029822982220,0.04235,-0.2039125,-0.05995
1680017041470,1197029825484369,0.04235,-0.20899999,-0.066825
1680017041475,1197029827986830,0.0402875,-0.2129875,-0.0688875
1680017041477,1197029830488984,0.0383625,-0.210925,-0.06985
1680017041479,1197029832991369,0.0372625,-0.216975,-0.072875
1680017041480,1197029835493508,0.0363,-0.2239875,-0.078925
1680017041482,1197029837995738,0.033275,-0.2270125,-0.08085
1680017041486,1197029840497892,0.0253,-0.2239875,-0.08085
1680017041489,1197029843000354,0.0253,-0.2319625,-0.0829125
1680017041491,1197029845502508,0.0253,-0.2349875,-0.0859375
1680017041492,1197029848004863,0.0213125,-0.23595,-0.0908875
1680017041497,1197029850507094,0.02035,-0.242,-0.094875
1680017041498,1197029853009248,0.0182875,-0.2429625,-0.100925
1680017041500,1197029855511627,0.015262499,-0.242,-0.099825
1680017041502,1197029858013858,0.0133375,-0.2369125,-0.0979
1680017041506,1197029860516243,0.012375,-0.2369125,-0.0988625
1680017041508,1197029863018397,0.0133375,-0.232925,-0.0979
1680017041512,1197029865520637,0.00935,-0.2319625,-0.094875
1680017041514,1197029868022791,0.0083875,-0.234025,-0.0939125
1680017041516,1197029870525176,0.0072875,-0.2319625,-0.094875
1680017041520,1197029873027407,0.0072875,-0.22893749,-0.09185
1680017041522,1197029875529791,0.0083875,-0.2299,-0.088825
1680017041525,1197029878032022,0.006325,-0.2319625,-0.0859375
1680017041527,1197029880534176,0.001375,-0.2299,-0.0848375
1680017041528,1197029883036330,0.0053625,-0.231,-0.0859375
1680017041531,1197029885538714,0.0033,-0.22893749,-0.086899996
1680017041533,1197029888040988,-0.0026125,-0.22893749,-0.083875
1680017041536,1197029890543373,-0.00165,-0.22893749,-0.0829125
1680017041538,1197029893045527,0.0033,-0.2270125,-0.0829125
1680017041540,1197029895547757,0.0042625,-0.2259125,-0.0759
1680017041543,1197029898050142,0.0033,-0.2259125,-0.0738375
1680017041546,1197029900552402,0.0033,-0.2270125,-0.0738375
1680017041550,1197029903054556,0.0053625,-0.22893749,-0.067925
1680017041551,1197029905556940,0.0042625,-0.223025,-0.064899996
1680017041553,1197029908059171,0.0083875,-0.22495,-0.0658625
1680017041556,1197029910561561,0.011275,-0.2299,-0.0609125
1680017041559,1197029913063715,0.0133375,-0.2399375,-0.0578875
1680017041561,1197029915565945,0.011275,-0.2429625,-0.061875
1680017041563,1197029918068099,0.012375,-0.2349875,-0.05995
1680017041567,1197029920570489,0.0133375,-0.22893749,-0.056925
1680017041568,1197029923072720,0.0182875,-0.22495,-0.055825
1680017041570,1197029925575104,0.0243375,-0.22495,-0.0548625
1680017041573,1197029928077335,0.0243375,-0.223025,-0.0548625
1680017041576,1197029930579503,0.0273625,-0.22,-0.0548625
1680017041578,1197029933081657,0.028324999,-0.2209625,-0.055825
1680017041580,1197029935584118,0.028324999,-0.2189,-0.045925
1680017041583,1197029938086503,0.0262625,-0.2189,-0.050875
1680017041588,1197029940588648,0.0253,-0.2189,-0.0548625
1680017041590,1197029943090802,0.0253,-0.223025,-0.055825
1680017041592,1197029945593032,0.0262625,-0.227975,-0.0578875
1680017041594,1197029948095417,0.0262625,-0.2299,-0.0548625
1680017041597,1197029950597571,0.023375,-0.2319625,-0.055825
1680017041598,1197029953100031,0.0213125,-0.22893749,-0.0548625
1680017041603,1197029955602185,0.023375,-0.234025,-0.055825
1680017041603,1197029958104416,0.023375,-0.23595,-0.055825
1680017041610,1197029960606590,0.02035,-0.2299,-0.0548625
1680017041610,1197029963108974,0.0193875,-0.2299,-0.04895
1680017041611,1197029965611205,0.0182875,-0.22893749,-0.047849998
1680017041614,1197029968113590,0.0193875,-0.2259125,-0.045925
1680017041616,1197029970615744,0.023375,-0.22495,-0.047849998
1680017041618,1197029973117999,0.0213125,-0.223025,-0.0518375
1680017041620,1197029975620383,0.0213125,-0.216975,-0.050875
1680017041624,1197029978122537,0.0262625,-0.216975,-0.0499125
1680017041627,1197029980624691,0.0262625,-0.21395,-0.0499125
1680017041628,1197029983127166,0.0303875,-0.2129875,-0.050875
1680017041630,1197029985629397,0.0353375,-0.2079,-0.0518375
1680017041633,1197029988131551,0.0363,-0.205975,-0.0539
1680017041636,1197029990633936,0.039325,-0.20693749,-0.0578875
1680017041638,1197029993136089,0.044275,-0.20693749,-0.0578875
1680017041641,1197029995638339,0.04235,-0.2039125,-0.055825
1680017041643,1197029998140724,0.04235,-0.2039125,-0.055825
1680017041646,1197030000642955,0.0482625,-0.2079,-0.0578875
1680017041648,1197030003145339,0.05335,-0.205975,-0.061875
1680017041651,1197030005647498,0.055275,-0.2039125,-0.066825
1680017041654,1197030008149652,0.0592625,-0.205975,-0.07095
1680017041656,1197030010651883,0.0592625,-0.2079,-0.0719125
1680017041658,1197030013154344,0.061325,-0.20295,-0.0749375
1680017041663,1197030015656498,0.06435,-0.20693749,-0.078925
1680017041665,1197030018158883,0.0683375,-0.2019875,-0.083875
1680017041667,1197030020661037,0.067375,-0.1989625,-0.086899996
1680017041668,1197030023163267,0.072325,-0.1989625,-0.089925
1680017041671,1197030025665421,0.072325,-0.201025,-0.09185
1680017041673,1197030028167792,0.0763125,-0.2019875,-0.095837496
1680017041677,1197030030670023,0.0763125,-0.201025,-0.099825
1680017041679,1197030033172407,0.078375,-0.20295,-0.0988625
1680017041680,1197030035674561,0.0812625,-0.2039125,-0.1018875
1680017041683,1197030038176782,0.083325,-0.205975,-0.0988625
1680017041686,1197030040679167,0.0853875,-0.210925,-0.1018875
1680017041689,1197030043181320,0.089375,-0.2149125,-0.105875
1680017041691,1197030045683551,0.088275,-0.2149125,-0.105875
1680017041694,1197030048185931,0.089375,-0.212025,-0.1079375
1680017041696,1197030050688162,0.094325,-0.2129875,-0.108899996
1680017041700,1197030053190315,0.0963875,-0.2129875,-0.1098625
1680017041702,1197030055692700,0.0983125,-0.2129875,-0.1128875
1680017041703,1197030058194854,0.1013375,-0.20295,-0.116875
1680017041708,1197030060697305,0.1032625,-0.1969,-0.1199
1680017041709,1197030063199536,0.1043625,-0.1940125,-0.121825
1680017041711,1197030065701690,0.10835,-0.1929125,-0.1238875
1680017041713,1197030068204075,0.111375,-0.1879625,-0.12485
1680017041716,1197030070706229,0.113299996,-0.1830125,-0.1269125
1680017041719,1197030073208459,0.1142625,-0.177925,-0.127875
1680017041720,1197030075710844,0.11935,-0.1769625,-0.1288375
1680017041724,1197030078213075,0.1172875,-0.1749,-0.1309
1680017041726,1197030080715224,0.121275,-0.166925,-0.133925
1680017041728,1197030083217377,0.1233375,-0.161975,-0.1398375
1680017041730,1197030085719762,0.121275,-0.157025,-0.1428625
1680017041734,1197030088221993,0.1243,-0.1519375,-0.143825
1680017041738,1197030090724450,0.127325,-0.1489125,-0.1508375
1680017041739,1197030093226604,0.1243,-0.1439625,-0.1538625
1680017041742,1197030095728758,0.1243,-0.14093749,-0.15785
1680017041743,1197030098231143,0.11935,-0.133925,-0.1618375
1680017041746,1197030100733373,0.1203125,-0.1329625,-0.166925
1680017041748,1197030103235498,0.122375,-0.132,-0.1678875
1680017041750,1197030105737883,0.1183875,-0.1329625,-0.171875
1680017041753,1197030108240114,0.1142625,-0.1299375,-0.1739375
1680017041756,1197030110742498,0.116325,-0.12595,-0.176825
1680017041759,1197030113244661,0.113299996,-0.1199,-0.1819125
1680017041760,1197030115746892,0.111375,-0.1199,-0.1819125
1680017041763,1197030118249046,0.111375,-0.121,-0.1788875
1680017041767,1197030120751430,0.1062875,-0.11495,-0.177925
1680017041769,1197030123253647,0.1043625,-0.11495,-0.177925
1680017041770,1197030125756032,0.1023,-0.1170125,-0.1758625
1680017041775,1197030128258263,0.1013375,-0.113025,-0.176825
1680017041778,1197030130760416,0.1032625,-0.1189375,-0.176825
1680017041780,1197030133437565,0.0963875,-0.12595,-0.1758625
1680017041782,1197030135764950,0.0963875,-0.128975,-0.1758625
1680017041783,1197030138267411,0.0952875,-0.1299375,-0.1749
1680017041787,1197030140769565,0.0922625,-0.133925,-0.1728375
1680017041789,1197030143271772,0.0922625,-0.1419,-0.171875
1680017041791,1197030145773926,0.091299996,-0.1469875,-0.16885
1680017041793,1197030148276311,0.0933625,-0.1489125,-0.16885
1680017041796,1197030150778541,0.0963875,-0.1549625,-0.165825
1680017041798,1197030153280926,0.0952875,-0.1599125,-0.16885
1680017041800,1197030155783080,0.0952875,-0.1610125,-0.166925
1680017041803,1197030158285311,0.0952875,-0.16995,-0.1639
1680017041806,1197030160787464,0.094325,-0.1749,-0.160875
1680017041808,1197030163289926,0.0933625,-0.1749,-0.1568875
1680017041812,1197030165792061,0.0933625,-0.18095,-0.1568875
1680017041816,1197030168294445,0.0963875,-0.1859,-0.154825
1680017041817,1197030170796599,0.094325,-0.1830125,-0.154825
1680017041819,1197030173298830,0.094325,-0.194975,-0.1538625
1680017041821,1197030175800984,0.094325,-0.201025,-0.1519375
1680017041823,1197030178303388,0.0933625,-0.2079,-0.1508375
1680017041826,1197030180805849,0.0903375,-0.2160125,-0.1489125
1680017041828,1197030183308003,0.0952875,-0.2189,-0.143825
1680017041831,1197030185810157,0.0952875,-0.2209625,-0.1458875
1680017041833,1197030188312402,0.09735,-0.227975,-0.14795
1680017041836,1197030190814786,0.1013375,-0.2349875,-0.14795
1680017041838,1197030193316940,0.100375,-0.2399375,-0.1458875
1680017041841,1197030195819402,0.1013375,-0.2429625,-0.14795
1680017041843,1197030198321546,0.1013375,-0.2459875,-0.1458875
1680017041846,1197030200823777,0.1032625,-0.2490125,-0.1458875
1680017041850,1197030203325931,0.105325,-0.2490125,-0.144925
1680017041852,1197030205828316,0.1032625,-0.2509375,-0.14795
1680017041854,1197030208330541,0.10835,-0.2569875,-0.143825
1680017041857,1197030210832926,0.10835,-0.25795,-0.1458875
1680017041863,1197030213335080,0.1093125,-0.2619375,-0.149875
1680017041863,1197030215837311,0.1142625,-0.2600125,-0.14795
1680017041865,1197030218339695,0.1123375,-0.2619375,-0.1489125
1680017041866,1197030220841863,0.113299996,-0.264,-0.14795
1680017041868,1197030223344017,0.111375,-0.2729375,-0.149875
1680017041871,1197030225846479,0.1123375,-0.2759625,-0.1519375
1680017041873,1197030228348709,0.113299996,-0.2759625,-0.154825
1680017041876,1197030230851080,0.1142625,-0.2739,-0.154825
1680017041878,1197030233353234,0.1172875,-0.2729375,-0.1599125
1680017041881,1197030235855388,0.111375,-0.2729375,-0.1618375
1680017041883,1197030238357618,0.110275,-0.26895,-0.166925
1680017041888,1197030240859998,0.1073875,-0.27101249,-0.1728375
1680017041890,1197030243362229,0.1093125,-0.26895,-0.1758625
1680017041892,1197030245864613,0.1073875,-0.2679875,-0.177925
1680017041894,1197030248366767,0.1013375,-0.2649625,-0.1838375
1680017041897,1197030250868921,0.0983125,-0.267025,-0.187825
1680017041899,1197030253371142,0.0963875,-0.267025,-0.193875
1680017041900,1197030255873527,0.0933625,-0.2679875,-0.198825
1680017041903,1197030258375757,0.089375,-0.265925,-0.20295
1680017041907,1197030260877911,0.0853875,-0.2600125,-0.20487499
1680017041908,1197030263380296,0.0803,-0.264,-0.2058375
1680017041911,1197030265882518,0.077275,-0.2619375,-0.2118875
1680017041914,1197030268384671,0.072325,-0.2539625,-0.2118875
1680017041917,1197030270887056,0.0713625,-0.2509375,-0.2118875
1680017041920,1197030273389287,0.069299996,-0.2490125,-0.2149125
1680017041922,1197030275891690,0.0633875,-0.2459875,-0.21395
1680017041925,1197030278393921,0.0603625,-0.242,-0.2118875
1680017041928,1197030280896075,0.0592625,-0.2349875,-0.2088625
1680017041930,1197030283557844,0.0583,-0.232925,-0.2088625
1680017041932,1197030285900619,0.056375,-0.232925,-0.2149125
1680017041934,1197030288402849,0.0543125,-0.22893749,-0.2149125
1680017041937,1197030290905234,0.0543125,-0.223025,-0.215875
1680017041939,1197030293407465,0.0523875,-0.2239875,-0.2118875
1680017041941,1197030295909619,0.0512875,-0.2239875,-0.209825
1680017041943,1197030298412017,0.0512875,-0.2209625,-0.20487499
1680017041947,1197030300914171,0.045375,-0.2179375,-0.20185
1680017041948,1197030303416633,0.04235,-0.2129875,-0.199925
1680017041951,1197030305918863,0.0402875,-0.212025,-0.1969
1680017041953,1197030308421022,0.0413875,-0.2129875,-0.19195
1680017041956,1197030310923176,0.0402875,-0.20899999,-0.1859
1680017041958,1197030313425561,0.039325,-0.20899999,-0.18095
1680017041962,1197030315927791,0.0374,-0.210925,-0.1728375
1680017041964,1197030318430190,0.039325,-0.21395,-0.16885
1680017041967,1197030320932421,0.04235,-0.2149125,-0.1618375
1680017041968,1197030323434575,0.0402875,-0.2129875,-0.1599125
1680017041971,1197030325936959,0.0374,-0.20899999,-0.1538625
1680017041975,1197030328439104,0.0413875,-0.20899999,-0.149875
1680017041977,1197030330941335,0.04235,-0.212025,-0.144925
1680017041978,1197030333443489,0.0383625,-0.210925,-0.1419
1680017041981,1197030335945950,0.033275,-0.212025,-0.138875
1680017041983,1197030338448104,0.0353375,-0.2179375,-0.13695
1680017041987,1197030340950508,0.034375,-0.216975,-0.13695
1680017041989,1197030343452739,0.033275,-0.2129875,-0.133925
1680017041991,1197030345954892,0.033275,-0.2149125,-0.1288375
1680017041994,1197030348457046,0.028324999,-0.22,-0.12595
1680017041997,1197030350959498,0.028324999,-0.2259125,-0.1238875
1680017042000,1197030353461882,0.0253,-0.22893749,-0.1199
1680017042002,1197030355964036,0.0243375,-0.2299,-0.121825
1680017042004,1197030358466190,0.02035,-0.2319625,-0.1208625
1680017042006,1197030360968431,0.022275,-0.232925,-0.117837496
1680017042009,1197030363470816,0.0182875,-0.2380125,-0.1199
1680017042011,1197030365973046,0.0154,-0.2409,-0.110825
1680017042014,1197030368475431,0.0143,-0.2429625,-0.1098625
1680017042017,1197030370977599,0.0133375,-0.2409,-0.108899996
1680017042018,1197030373479830,0.011275,-0.2380125,-0.1018875
1680017042021,1197030375981983,0.00935,-0.23595,-0.0988625
1680017042023,1197030378484368,0.0083875,-0.2380125,-0.0908875
1680017042027,1197030380986830,0.0083875,-0.2380125,-0.088825
1680017042028,1197030383488993,0.011275,-0.23595,-0.0859375
1680017042031,1197030385991147,0.012375,-0.2349875,-0.08195
1680017042033,1197030388493378,0.0143,-0.232925,-0.08195
1680017042041,1197030390995763,0.0143,-0.22495,-0.08195
1680017042045,1197030393497912,0.0133375,-0.2239875,-0.078925
1680017042045,1197030396000142,0.012375,-0.223025,-0.0759
1680017042045,1197030398502527,0.0182875,-0.216975,-0.0738375
1680017042046,1197030401004758,0.017324999,-0.2160125,-0.07095
1680017042048,1197030403506893,0.017324999,-0.210925,-0.066825
1680017042051,1197030406009277,0.0133375,-0.2039125,-0.066825
1680017042054,1197030408511431,0.0154,-0.2019875,-0.0628375
1680017042058,1197030411013662,0.0182875,-0.199925,-0.056925
1680017042058,1197030413516065,0.0133375,-0.198,-0.055825
1680017042061,1197030416018296,0.00935,-0.19195,-0.0539
1680017042063,1197030418520681,0.00935,-0.183975,-0.04895
1680017042067,1197030421022835,0.0103124995,-0.176,-0.045925
1680017042068,1197030423525003,0.0103124995,-0.1689875,-0.0429
1680017042071,1197030426027233,0.011275,-0.16499999,-0.0408375
1680017042075,1197030428529695,0.0143,-0.157025,-0.034925
1680017042078,1197030431031849,0.011275,-0.1469875,-0.028875
1680017042079,1197030433534258,0.011275,-0.133925,-0.023924999
1680017042081,1197030436036412,0.0133375,-0.121,-0.0188375
1680017042083,1197030438538643,0.0143,-0.1170125,-0.01595
1680017042087,1197030441041028,0.017324999,-0.10395,-0.0089375
1680017042088,1197030443543258,0.0143,-0.0939125,-0.0078375
1680017042092,1197030446045407,0.0133375,-0.0840125,-0.00385
1680017042094,1197030448547792,0.0154,-0.0779625,1.375E-4
1680017042096,1197030451049946,0.0143,-0.066,0.0050875
1680017042098,1197030453552176,0.017324999,-0.056925,0.010175
1680017042101,1197030456054541,0.017324999,-0.0449625,0.0121
1680017042103,1197030458556772,0.022275,-0.0339625,0.015125
1680017042106,1197030461058926,0.0243375,-0.0259875,0.0191125
1680017042108,1197030463561310,0.023375,-0.012925,0.0221375
1680017042112,1197030466063527,0.0264,-0.0089375,0.026124999
1680017042114,1197030468565681,0.0253,-0.001925,0.031075
1680017042117,1197030471068066,0.0264,0.007975,0.0361625
1680017042120,1197030473570219,0.0264,0.011,0.037125
1680017042121,1197030476072681,0.0273625,0.0160875,0.0361625
1680017042123,1197030478574912,0.028324999,0.022,0.037125
1680017042126,1197030481077066,0.0303875,0.025024999,0.04015
1680017042128,1197030483579219,0.0303875,0.029975,0.0361625
1680017042130,1197030486081604,0.034375,0.029975,0.0361625
1680017042134,1197030488583830,0.0363,0.0290125,0.0361625
1680017042137,1197030491086215,0.0353375,0.0320375,0.032175
1680017042138,1197030493588445,0.0353375,0.0350625,0.032175
1680017042141,1197030496090599,0.0363,0.0341,0.032175
1680017042143,1197030498592753,0.0353375,0.036025,0.032175
1680017042146,1197030501095133,0.0374,0.0320375,0.031075
1680017042150,1197030503597363,0.0374,0.036025,0.02915
1680017042152,1197030506099748,0.039325,0.0369875,0.031075
1680017042154,1197030508601979,0.039325,0.0350625,0.0301125
1680017042156,1197030511104133,0.039325,0.0320375,0.026124999
1680017042158,1197030513606517,0.0413875,0.031075,0.0270875
1680017042161,1197030516108748,0.0413875,0.029975,0.0240625
1680017042163,1197030518610902,0.0433125,0.031075,0.0240625
1680017042166,1197030521113272,0.044275,0.031075,0.0240625
1680017042168,1197030523615503,0.0433125,0.031075,0.0221375
1680017042171,1197030526117888,0.0413875,0.0240625,0.0221375
1680017042175,1197030528620042,0.0433125,0.02805,0.020075
1680017042176,1197030531122273,0.0473,0.0270875,0.021175
1680017042180,1197030533624426,0.0484,0.0210375,0.0191125
1680017042181,1197030536126888,0.0473,0.0210375,0.014162499
1680017042183,1197030538629042,0.0484,0.020075,0.013062499
1680017042190,1197030541131406,0.0473,0.01705,0.010175
1680017042192,1197030543633560,0.0473,0.014025,0.009075
1680017042193,1197030546135791,0.044275,0.011,0.009075
1680017042194,1197030548637945,0.04235,0.0100375,0.0081124995
1680017042197,1197030551140329,0.045375,0.0050875,0.0081124995
1680017042199,1197030553642791,0.0463375,0.0011,0.0081124995
1680017042200,1197030556144936,0.0463375,0.0011,0.0031625
1680017042203,1197030558647090,0.0473,-0.001925,0.004125
1680017042207,1197030561149321,0.0484,-0.001925,0.004125
1680017042209,1197030563651705,0.0473,-0.003025,0.0020625
1680017042211,1197030566153844,0.0473,-0.0089375,0.0050875
1680017042215,1197030568656075,0.0473,-0.0099,0.0020625
1680017042217,1197030571158459,0.0484,-0.0149875,1.375E-4
1680017042218,1197030573660613,0.0473,-0.018975,1.375E-4
1680017042220,1197030576162878,0.0512875,-0.0180125,-8.25E-4
1680017042226,1197030578665263,0.0523875,-0.018975,-0.0028875
1680017042228,1197030581167493,0.0543125,-0.0209,-0.0028875
1680017042230,1197030583669878,0.055275,-0.023924999,-0.00495
1680017042232,1197030586172018,0.056375,-0.0259875,-0.00495
1680017042233,1197030588674172,0.0543125,-0.025024999,-0.006875
1680017042236,1197030591176403,0.0543125,-0.033,-0.006875
1680017042238,1197030593678864,0.05335,-0.0339625,-0.011825
1680017042242,1197030596181018,0.0543125,-0.034925,-0.012925
1680017042243,1197030598683407,0.055275,-0.0369875,-0.0108624995
1680017042246,1197030601185560,0.0543125,-0.0419375,-0.011825
1680017042249,1197030603687791,0.0543125,-0.0369875,-0.01485
1680017042252,1197030606189945,0.050325,-0.0429,-0.0188375
1680017042254,1197030608692393,0.050325,-0.045925,-0.0209
1680017042257,1197030611194546,0.050325,-0.047025,-0.02695
1680017042259,1197030613696931,0.0484,-0.0479875,-0.0279125
1680017042263,1197030616199085,0.050325,-0.0510125,-0.0358875
1680017042264,1197030618701316,0.0473,-0.0529375,-0.03795
1680017042267,1197030621203700,0.044275,-0.0529375,-0.039875
1680017042269,1197030623705854,0.0473,-0.0529375,-0.0429
1680017042271,1197030626208085,0.0463375,-0.0589875,-0.0438625
1680017042273,1197030628710470,0.04235,-0.0639375,-0.045925
1680017042276,1197030631212705,0.0413875,-0.0620125,-0.047849998
1680017042278,1197030633714859,0.0402875,-0.062975,-0.0499125
1680017042281,1197030636217244,0.0353375,-0.0639375,-0.0499125
1680017042284,1197030638719398,0.0383625,-0.0639375,-0.047849998
1680017042287,1197030641221873,0.0363,-0.0699875,-0.050875
1680017042289,1197030643724027,0.034375,-0.069025,-0.050875
1680017042291,1197030646226258,0.033275,-0.0639375,-0.0529375
1680017042294,1197030648728412,0.0273625,-0.0699875,-0.0539
1680017042297,1197030651230791,0.022275,-0.0699875,-0.050875
1680017042301,1197030653732945,0.0143,-0.064899996,-0.039875
1680017042302,1197030656235407,0.011275,-0.0620125,-0.02695
1680017042304,1197030658737637,0.00935,-0.0620125,-0.022824999
1680017042307,1197030661239791,0.0053625,-0.05995,-0.02695
1680017042309,1197030663741945,0.0053625,-0.05995,-0.02695
1680017042311,1197030666244330,0.0053625,-0.0609125,-0.02585
1680017042314,1197030668746561,0.0044,-0.066,-0.028875
1680017042317,1197030671248955,0.0033,-0.07095,-0.0279125
1680017042319,1197030673751186,0.001375,-0.067925,-0.0279125
1680017042322,1197030676253340,-0.0037125,-0.0749375,-0.028875
1680017042324,1197030678755724,-0.0026125,-0.0779625,-0.0298375
1680017042327,1197030681257878,-0.004675,-0.077,-0.0328625
1680017042328,1197030683760109,-0.0056375,-0.077,-0.0279125
1680017042331,1197030686262494,-0.0066,-0.0779625,-0.0279125
1680017042334,1197030688764724,-0.0077,-0.0759,-0.0298375
1680017042339,1197030691266873,-0.0077,-0.077,-0.0298375
1680017042340,1197030693769258,-0.0086624995,-0.080025,-0.0298375
1680017042342,1197030696271489,-0.0077,-0.0840125,-0.0279125
1680017042344,1197030698773643,-0.0086624995,-0.0840125,-0.0319
1680017042347,1197030701276027,-0.0086624995,-0.080025,-0.0319
1680017042349,1197030703778263,-0.0056375,-0.084975,-0.0328625
1680017042351,1197030706280648,-0.0086624995,-0.089925,-0.0319
1680017042354,1197030708782801,-0.0077,-0.091025,-0.0319
1680017042357,1197030711285032,-0.004675,-0.0919875,-0.0319
1680017042358,1197030713787186,-0.004675,-0.09295,-0.0298375
1680017042361,1197030716289599,-0.004675,-0.0950125,-0.0298375
1680017042363,1197030718791829,-0.0037125,-0.0979,-0.0298375
1680017042368,1197030721294214,0.001375,-0.095975,-0.0298375
1680017042370,1197030723796373,0.001375,-0.0969375,-0.028875
1680017042371,1197030726298604,0.001375,-0.0999625,-0.0279125
1680017042376,1197030728800758,0.0044,-0.099,-0.02695
1680017042378,1197030731303142,0.0033,-0.0999625,-0.0279125
1680017042380,1197030733877085,0.0053625,-0.099,-0.022824999
1680017042382,1197030736307778,0.0083875,-0.0969375,-0.023924999
1680017042384,1197030738809931,0.0072875,-0.0999625,-0.02695
1680017042389,1197030741312147,0.0103124995,-0.10395,-0.028875
1680017042391,1197030743814532,0.012375,-0.106975,-0.028875
1680017042393,1197030746316763,0.0133375,-0.10395,-0.02695
1680017042394,1197030748819147,0.0182875,-0.1109625,-0.0248875
1680017042397,1197030751321301,0.0182875,-0.1139875,-0.023924999
1680017042399,1197030753823532,0.0193875,-0.11,-0.0209
1680017042401,1197030756325916,0.0213125,-0.1199,-0.0199375
1680017042403,1197030758828070,0.0213125,-0.121,-0.0188375
1680017042407,1197030761330224,0.0264,-0.117975,-0.012925
1680017042409,1197030763832686,0.0273625,-0.1219625,-0.0108624995
1680017042412,1197030766334902,0.028324999,-0.128975,-0.006875
1680017042415,1197030768837056,0.03135,-0.1309,-0.00385
1680017042418,1197030771339441,0.03135,-0.132,-0.00385
1680017042419,1197030773841595,0.034375,-0.13695,-8.25E-4
1680017042421,1197030776343826,0.0363,-0.143,0.0031625
1680017042424,1197030778845959,0.0383625,-0.1439625,0.0031625
1680017042426,1197030781348421,0.039325,-0.146025,0.0050875
1680017042428,1197030783850806,0.0402875,-0.150975,0.00715
1680017042431,1197030786352959,0.0413875,-0.154,0.010175
1680017042434,1197030788855113,0.0433125,-0.1579875,0.0111375
1680017042437,1197030791357344,0.044275,-0.161975,0.0121
1680017042439,1197030793859729,0.0463375,-0.1659625,0.015125
1680017042441,1197030796361959,0.045375,-0.168025,0.0160875
1680017042444,1197030798864113,0.0463375,-0.172975,0.0160875
1680017042446,1197030801366498,0.045375,-0.179025,0.015125
1680017042450,1197030803868729,0.045375,-0.18095,0.0160875
1680017042452,1197030806370883,0.0433125,-0.18095,0.015125
1680017042454,1197030808873282,0.0463375,-0.1819125,0.013062499
1680017042457,1197030811375513,0.045375,-0.18493749,0.013062499
1680017042459,1197030813877898,0.0463375,-0.1879625,0.0111375
1680017042462,1197030816380051,0.050325,-0.190025,0.00715
1680017042464,1197030818882282,0.0482625,-0.190025,0.0020625
1680017042467,1197030821384441,0.0463375,-0.1909875,0.00605
1680017042469,1197030823886826,0.045375,-0.19195,0.0031625
1680017042471,1197030826389056,0.044275,-0.1909875,0.0020625
1680017042476,1197030828891441,0.0433125,-0.187,0.0020625
1680017042477,1197030831393686,0.0413875,-0.1859,0.0031625
1680017042479,1197030833895840,0.04235,-0.18493749,0.0011
1680017042482,1197030836397994,0.044275,-0.1830125,0.0011
1680017042484,1197030838900378,0.0433125,-0.1879625,0.0031625
1680017042490,1197030841402633,0.0402875,-0.1859,0.0031625
1680017042491,1197030843905018,0.04235,-0.18493749,0.0020625
1680017042492,1197030846407248,0.04235,-0.1830125,0.0020625
1680017042495,1197030848909402,0.04235,-0.18095,0.0011
1680017042498,1197030851411787,0.0402875,-0.183975,1.375E-4
1680017042499,1197030853913941,0.0402875,-0.1830125,1.375E-4
1680017042501,1197030856416171,0.04235,-0.18095,0.0011
1680017042503,1197030858918556,0.0433125,-0.1830125,0.0020625
1680017042509,1197030861420806,0.04235,-0.1819125,0.0011
1680017042510,1197030863922960,0.0413875,-0.1799875,-0.001925
1680017042512,1197030866425344,0.0372625,-0.18095,-0.001925
1680017042514,1197030868927575,0.0363,-0.1769625,1.375E-4
1680017042517,1197030871429729,0.034375,-0.1709125,1.375E-4
1680017042520,1197030873932200,0.034375,-0.168025,-0.001925
1680017042522,1197030876434354,0.034375,-0.1659625,0.0020625
1680017042526,1197030878936739,0.034375,-0.16499999,0.00605
1680017042528,1197030881438869,0.03135,-0.157025,0.00605
1680017042530,1197030883941100,0.0303875,-0.1529,0.0050875
1680017042531,1197030886443253,0.0303875,-0.1529,0.004125
1680017042534,1197030888945715,0.034375,-0.14795,0.0081124995
1680017042537,1197030891447869,0.03135,-0.139975,0.00605
1680017042539,1197030893950242,0.0353375,-0.135025,0.0081124995
1680017042541,1197030896452396,0.033275,-0.132,0.0081124995
1680017042543,1197030898954627,0.0292875,-0.1269125,0.0081124995
1680017042547,1197030901456781,0.0363,-0.1219625,0.0081124995
1680017042549,1197030903959228,0.0372625,-0.1170125,0.0050875
1680017042551,1197030906461613,0.0353375,-0.111925,0.0011
1680017042553,1197030908963767,0.033275,-0.113025,0.0011
1680017042556,1197030911465921,0.0303875,-0.1079375,0.0031625
1680017042559,1197030913968161,0.0363,-0.1049125,0.0031625
1680017042563,1197030916470545,0.0372625,-0.106975,0.004125
1680017042564,1197030918972776,0.0372625,-0.1029875,0.0020625
1680017042568,1197030921475161,0.0402875,-0.099,-0.001925
1680017042569,1197030923977314,0.04235,-0.099,-0.00385
1680017042572,1197030926479545,0.0463375,-0.0939125,-0.001925
1680017042575,1197030928981930,0.0463375,-0.0859375,0.0011
1680017042578,1197030931484084,0.0482625,-0.08195,1.375E-4
1680017042579,1197030933986314,0.0523875,-0.0829125,-0.00385
1680017042581,1197030936488690,0.0543125,-0.0829125,-0.00495
1680017042584,1197030938990844,0.0603625,-0.084975,-0.006875
1680017042587,1197030941493075,0.061325,-0.08195,-0.011825
1680017042589,1197030943995459,0.0633875,-0.084975,-0.0108624995
1680017042592,1197030946497637,0.067375,-0.0859375,-0.0099
1680017042594,1197030948999791,0.0683375,-0.086899996,-0.011825
1680017042596,1197030951502253,0.0713625,-0.089925,-0.0108624995
1680017042601,1197030954004478,0.078375,-0.086899996,-0.00495
1680017042602,1197030956506632,0.0842875,-0.0919875,-0.001925
1680017042604,1197030959009017,0.088275,-0.0859375,-8.25E-4
1680017042607,1197030961511171,0.089375,-0.0919875,0.0031625
1680017042609,1197030964013401,0.0922625,-0.0939125,0.00715
1680017042611,1197030966515882,0.0963875,-0.09295,0.0111375
1680017042616,1197030969018036,0.1013375,-0.086899996,0.014162499
1680017042618,1197030971520420,0.1062875,-0.088,0.021175
1680017042619,1197030974022574,0.1123375,-0.09295,0.026124999
1680017042621,1197030976524781,0.116325,-0.0939125,0.0301125
1680017042626,1197030979026935,0.1183875,-0.089925,0.0361625
1680017042627,1197030981529397,0.122375,-0.088,0.042075
1680017042629,1197030984031550,0.1243,-0.099,0.0441375
1680017042631,1197030986533935,0.1282875,-0.0969375,0.048125
1680017042634,1197030989036089,0.133375,-0.0999625,0.0551375
1680017042641,1197030991538320,0.1343375,-0.102025,0.0600875
1680017042642,1197030994040704,0.1343375,-0.102025,0.064075
1680017042643,1197030996542925,0.1373625,-0.1049125,0.065175
1680017042644,1197030999045079,0.14135,-0.11,0.0691625
1680017042647,1197031001547233,0.14135,-0.113025,0.0671
1680017042649,1197031004049617,0.144375,-0.113025,0.070125
1680017042652,1197031006551848,0.1472625,-0.1170125,0.0710875
1680017042654,1197031009054219,0.1502875,-0.117975,0.07315
1680017042657,1197031011556450,0.1513875,-0.1189375,0.075075
1680017042659,1197031014058603,0.1472625,-0.121,0.076175
1680017042664,1197031016560988,0.1513875,-0.121,0.0771375
1680017042668,1197031019063219,0.154275,-0.1249875,0.078099996
1680017042669,1197031021565368,0.1593625,-0.124025,0.0820875
1680017042669,1197031024067829,0.1573,-0.1249875,0.081125
1680017042671,1197031026569983,0.1582625,-0.1309,0.081125
1680017042675,1197031029072363,0.160325,-0.1299375,0.0820875
1680017042678,1197031031574516,0.160325,-0.1299375,0.08305
1680017042679,1197031034076747,0.160325,-0.128975,0.0900625
1680017042681,1197031036578901,0.1643125,-0.1280125,0.0881375
1680017042684,1197031039081363,0.1683,-0.1249875,0.087175
1680017042687,1197031041583508,0.1683,-0.12595,0.0881375
1680017042689,1197031044085892,0.1692625,-0.1269125,0.087175
1680017042692,1197031046588046,0.1733875,-0.128975,0.087175
1680017042695,1197031049090277,0.17435,-0.1299375,0.0891
1680017042697,1197031051592431,0.1793,-0.128975,0.086075
1680017042699,1197031054094892,0.1802625,-0.132,0.0790625
1680017042701,1197031056597277,0.1863125,-0.1309,0.078099996
1680017042704,1197031059099431,0.18933749,-0.1359875,0.0771375
1680017042707,1197031061601671,0.188375,-0.143,0.075075
1680017042711,1197031064103825,0.1903,-0.144925,0.0741125
1680017042713,1197031066606210,0.193325,-0.1489125,0.065175
1680017042715,1197031069108364,0.1912625,-0.1529,0.06215
1680017042718,1197031071610839,0.1973125,-0.1610125,0.061049998
1680017042720,1197031074112993,0.2013,-0.1659625,0.0570625
1680017042722,1197031076615224,0.199375,-0.172975,0.0570625
1680017042724,1197031079117378,0.199375,-0.1769625,0.054175
1680017042727,1197031081619762,0.2003375,-0.176,0.0551375
1680017042729,1197031084121984,0.2022625,-0.1749,0.0551375
1680017042731,1197031086624369,0.2033625,-0.18095,0.0570625
1680017042736,1197031089126523,0.20735,-0.1830125,0.054175
1680017042738,1197031091628753,0.20927499,-0.187,0.053075
1680017042739,1197031094131138,0.21133749,-0.1909875,0.0521125
1680017042742,1197031096633292,0.210375,-0.19195,0.053075
1680017042744,1197031099135446,0.2123,-0.1969,0.053075
1680017042747,1197031101637907,0.2162875,-0.201025,0.0490875
1680017042750,1197031104140138,0.2173875,-0.2039125,0.0460625
1680017042752,1197031106642292,0.2173875,-0.210925,0.0460625
1680017042756,1197031109144677,0.2193125,-0.2189,0.042075
1680017042757,1197031111646830,0.2223375,-0.22,0.0411125
1680017042759,1197031114149061,0.221375,-0.2270125,0.032175
1680017042762,1197031116651446,0.2242625,-0.234025,0.026124999
1680017042764,1197031119153677,0.2253625,-0.2409,0.021175
1680017042767,1197031121656061,0.22935,-0.2429625,0.020075
1680017042769,1197031124158215,0.2283875,-0.2479125,0.014162499
1680017042771,1197031126660374,0.226325,-0.2509375,0.009075
1680017042775,1197031129162605,0.2253625,-0.2569875,0.0050875
1680017042778,1197031131665066,0.2283875,-0.264,-8.25E-4
1680017042779,1197031134167220,0.2303125,-0.2679875,-0.0089375
1680017042781,1197031136669595,0.232375,-0.2739,-0.01595
1680017042784,1197031139171749,0.23333749,-0.2759625,-0.022824999
1680017042788,1197031141673979,0.23333749,-0.2820125,-0.0319
1680017042790,1197031144176364,0.237325,-0.2930125,-0.0408375
1680017042792,1197031146678537,0.2343,-0.3009875,-0.0499125
1680017042794,1197031149180768,0.2382875,-0.309925,-0.058849998
1680017042797,1197031151683152,0.243375,-0.31295,-0.066825
1680017042799,1197031154185306,0.2413125,-0.315975,-0.077825
1680017042801,1197031156687537,0.2443375,-0.3199625,-0.0859375
1680017042804,1197031159189902,0.243375,-0.3309625,-0.094875
1680017042809,1197031161692056,0.2473625,-0.333025,-0.10285
1680017042811,1197031164194287,0.2523125,-0.33495,-0.105875
1680017042813,1197031166696672,0.253275,-0.3370125,-0.110825
1680017042815,1197031169198892,0.25135,-0.342925,-0.116875
1680017042818,1197031171701046,0.2553375,-0.3449875,-0.117837496
1680017042819,1197031174203431,0.2523125,-0.3419625,-0.1189375
1680017042821,1197031176705585,0.2473625,-0.342925,-0.116875
1680017042825,1197031179208046,0.25135,-0.342925,-0.1159125
1680017042828,1197031181710277,0.2523125,-0.344025,-0.1199
1680017042830,1197031184212431,0.25135,-0.344025,-0.1208625
1680017042832,1197031186714585,0.2462625,-0.341,-0.1208625
1680017042834,1197031189216969,0.2462625,-0.3419625,-0.1199
1680017042836,1197031191719195,0.2443375,-0.3389375,-0.1199
1680017042840,1197031194221580,0.243375,-0.3389375,-0.1238875
1680017042844,1197031196723811,0.242275,-0.3370125,-0.122925
1680017042845,1197031199225964,0.242275,-0.341,-0.1199
1680017042847,1197031201728123,0.2413125,-0.3419625,-0.121825
1680017042849,1197031204230508,0.24035,-0.3419625,-0.1199
1680017042851,1197031206732739,0.237325,-0.3389375,-0.1199
1680017042856,1197031209235123,0.232375,-0.3399,-0.1199
1680017042859,1197031211737354,0.22935,-0.3359125,-0.116875
1680017042860,1197031214239508,0.2233,-0.3339875,-0.117837496
1680017042863,1197031216741893,0.2242625,-0.3309625,-0.1159125
1680017042865,1197031219244046,0.2193125,-0.32999998,-0.1098625
1680017042868,1197031221746296,0.2132625,-0.3229875,-0.10395
1680017042870,1197031224248450,0.210375,-0.31501248,-0.0979
1680017042871,1197031226750912,0.2063875,-0.3119875,-0.09295
1680017042875,1197031229253296,0.20735,-0.3119875,-0.09295
1680017042877,1197031231755450,0.2083125,-0.3040125,-0.09185
1680017042879,1197031234257647,0.2033625,-0.308,-0.089925
1680017042881,1197031236759801,0.2022625,-0.3119875,-0.088825
1680017042884,1197031239262185,0.2022625,-0.311025,-0.0878625
1680017042887,1197031241764416,0.2003375,-0.31501248,-0.0859375
1680017042889,1197031244266815,0.2022625,-0.31501248,-0.0829125
1680017042891,1197031246768969,0.2063875,-0.3139125,-0.078925
1680017042895,1197031249271199,0.2022625,-0.3089625,-0.0768625
1680017042900,1197031251773353,0.2033625,-0.3040125,-0.072875
1680017042902,1197031254275738,0.204325,-0.3009875,-0.07095
1680017042903,1197031256778199,0.2052875,-0.2959,-0.066825
1680017042905,1197031259280353,0.2033625,-0.2930125,-0.0628375
1680017042907,1197031261782507,0.2052875,-0.2869625,-0.0609125
1680017042909,1197031264284738,0.2083125,-0.278025,-0.056925
1680017042912,1197031266787088,0.210375,-0.2759625,-0.055825
1680017042914,1197031269289242,0.2123,-0.26895,-0.0539
1680017042917,1197031271791704,0.2143625,-0.2759625,-0.0539
1680017042919,1197031274293858,0.21835,-0.276925,-0.05995
1680017042921,1197031276796093,0.2193125,-0.27101249,-0.0628375
1680017042924,1197031279298247,0.221375,-0.2679875,-0.0609125
1680017042930,1197031281800632,0.22935,-0.265925,-0.0658625
1680017042930,1197031284302786,0.2303125,-0.2629,-0.066825
1680017042932,1197031286805017,0.2303125,-0.267025,-0.0719125
1680017042934,1197031289307401,0.2343,-0.2699125,-0.0738375
1680017042939,1197031291809632,0.2382875,-0.2679875,-0.0749375
1680017042940,1197031294311786,0.243375,-0.264,-0.0768625
1680017042942,1197031296814160,0.2473625,-0.264,-0.077825
1680017042944,1197031299316314,0.2503875,-0.2569875,-0.078925
1680017042950,1197031301818545,0.253275,-0.260975,-0.08085
1680017042950,1197031304321007,0.2572625,-0.267025,-0.08085
1680017042951,1197031306823160,0.26235,-0.267025,-0.08195
1680017042954,1197031309325550,0.2682625,-0.27101249,-0.08195
1680017042956,1197031311827704,0.27335,-0.2699125,-0.0848375
1680017042959,1197031314329935,0.276375,-0.2759625,-0.0908875
1680017042962,1197031316832089,0.2773375,-0.2820125,-0.094875
1680017042964,1197031319334540,0.2803625,-0.289025,-0.099825
1680017042967,1197031321836694,0.2822875,-0.2949375,-0.10395
1680017042969,1197031324339079,0.2853125,-0.297,-0.108899996
1680017042971,1197031326841232,0.28435,-0.298925,-0.117837496
1680017042977,1197031329343487,0.287375,-0.3040125,-0.1199
1680017042979,1197031331845872,0.2893,-0.3069,-0.1238875
1680017042981,1197031334397026,0.2893,-0.3089625,-0.127875
1680017042983,1197031336850256,0.287375,-0.31295,-0.132825
1680017042987,1197031339352641,0.2883375,-0.3089625,-0.13695
1680017042988,1197031341854877,0.286275,-0.3029125,-0.1398375
1680017042990,1197031344357031,0.28435,-0.300025,-0.1419
1680017042992,1197031346859415,0.2853125,-0.2959,-0.1458875
1680017042994,1197031349361646,0.2822875,-0.2930125,-0.1508375
1680017042997,1197031351864031,0.2822875,-0.2899875,-0.1519375
1680017042999,1197031354366261,0.275275,-0.282975,-0.155925
1680017043001,1197031356868415,0.27335,-0.278025,-0.1639
1680017043004,1197031359370569,0.27335,-0.278025,-0.16995
1680017043006,1197031361872954,0.2673,-0.267025,-0.171875
1680017043009,1197031364375113,0.2633125,-0.2519,-0.176825
1680017043013,1197031366877574,0.259325,-0.2429625,-0.1788875
1680017043015,1197031369379805,0.2553375,-0.2349875,-0.188925
1680017043018,1197031371881959,0.2492875,-0.2239875,-0.193875
1680017043020,1197031374384113,0.2473625,-0.21395,-0.20185
1680017043022,1197031376886497,0.2413125,-0.2039125,-0.2079
1680017043024,1197031379388728,0.23333749,-0.201025,-0.210925
1680017043027,1197031381891113,0.232375,-0.1940125,-0.22385
1680017043029,1197031384393343,0.226325,-0.1819125,-0.22893749
1680017043031,1197031386895511,0.2242625,-0.1659625,-0.2418625
1680017043034,1197031389397896,0.21835,-0.15895,-0.2528625
1680017043036,1197031391900127,0.2162875,-0.154,-0.259875
1680017043038,1197031394402281,0.2132625,-0.146025,-0.2729375
1680017043041,1197031396904656,0.2083125,-0.1329625,-0.2849
1680017043043,1197031399406887,0.2083125,-0.128975,-0.2968625
1680017043047,1197031401909272,0.2033625,-0.1219625,-0.309925
1680017043050,1197031404411425,0.199375,-0.1170125,-0.3179
1680017043052,1197031406913690,0.19635,-0.1170125,-0.3188625
1680017043055,1197031409415844,0.193325,-0.11,-0.32793748
1680017043058,1197031411918229,0.1942875,-0.0999625,-0.336875
1680017043059,1197031414420459,0.1973125,-0.0939125,-0.341825
1680017043061,1197031416922613,0.199375,-0.088,-0.3438875
1680017043064,1197031419424969,0.1953875,-0.0809875,-0.3518625
1680017043066,1197031421927200,0.1942875,-0.0749375,-0.3548875
1680017043069,1197031424429584,0.1923625,-0.0779625,-0.364925
1680017043072,1197031426931738,0.18727499,-0.0759,-0.3729
1680017043075,1197031429433984,0.188375,-0.07095,-0.3799125
1680017043077,1197031431936138,0.18933749,-0.0749375,-0.3878875
1680017043079,1197031434438522,0.188375,-0.069025,-0.396825
1680017043082,1197031436940984,0.188375,-0.07095,-0.402875
1680017043084,1197031439443171,0.1923625,-0.073975,-0.4068625
1680017043089,1197031441945325,0.1973125,-0.073975,-0.4129125
1680017043092,1197031444447555,0.2022625,-0.073975,-0.41387498
1680017043093,1197031446949940,0.2052875,-0.077,-0.407825
1680017043095,1197031449452109,0.2132625,-0.0779625,-0.407825
1680017043098,1197031451954340,0.221375,-0.0809875,-0.4038375
1680017043100,1197031454456724,0.2303125,-0.086899996,-0.3988875
1680017043101,1197031456958955,0.2393875,-0.0950125,-0.3988875
1680017043104,1197031459461340,0.2503875,-0.0999625,-0.397925
1680017043107,1197031461963484,0.2602875,-0.106975,-0.397925
1680017043109,1197031464465637,0.2712875,-0.113025,-0.39985
1680017043111,1197031466967868,0.2853125,-0.1199,-0.397925
1680017043114,1197031469470330,0.298375,-0.1269125,-0.3939375
1680017043117,1197031471972499,0.31033748,-0.135025,-0.3909125
1680017043119,1197031474474883,0.3273875,-0.144925,-0.3928375
1680017043123,1197031476977037,0.3383875,-0.1579875,-0.3958625
1680017043126,1197031479479268,0.35035,-0.176,-0.3988875
1680017043128,1197031481981412,0.369325,-0.19195,-0.402875
1680017043130,1197031484483873,0.3843125,-0.201025,-0.4049375
1680017043132,1197031486986027,0.39627498,-0.2079,-0.4049375
1680017043135,1197031489488412,0.407275,-0.21395,-0.4059
1680017043137,1197031491990566,0.4173125,-0.2179375,-0.407825
1680017043139,1197031494492781,0.4252875,-0.223025,-0.41085
1680017043142,1197031496995166,0.4313375,-0.2319625,-0.41593748
1680017043144,1197031499497397,0.4373875,-0.2459875,-0.4169
1680017043147,1197031501999551,0.43835,-0.264,-0.419925
1680017043149,1197031504501935,0.4433,-0.2739,-0.419925
1680017043151,1197031507004176,0.4453625,-0.2809125,-0.418825
1680017043154,1197031509506330,0.44935,-0.2949375,-0.4208875
1680017043156,1197031512008714,0.4503125,-0.3009875,-0.42185
1680017043159,1197031514510945,0.4533375,-0.30195,-0.4258375
1680017043164,1197031517013330,0.44935,-0.311025,-0.4269375
1680017043164,1197031519515484,0.446325,-0.3199625,-0.4239125
1680017043167,1197031522017715,0.4483875,-0.3199625,-0.418825
1680017043169,1197031524519868,0.44233748,-0.32999998,-0.4068625
1680017043171,1197031527022253,0.44027498,-0.3370125,-0.3939375
1680017043175,1197031529524407,0.44027498,-0.342925,-0.3829375
1680017043177,1197031532026868,0.4373875,-0.353925,-0.3729
1680017043179,1197031534529099,0.435325,-0.3689125,-0.3628625
1680017043181,1197031537031258,0.435325,-0.381975,-0.35694999
1680017043184,1197031539533412,0.4283125,-0.3939375,-0.3469125
1680017043187,1197031542035796,0.4263875,-0.4079625,-0.331925
1680017043189,1197031544538027,0.4233625,-0.414975,-0.3218875
1680017043192,1197031547040402,0.4173125,-0.4219875,-0.31295
1680017043194,1197031549542633,0.4123625,-0.4360125,-0.30085
1680017043196,1197031552044786,0.4063125,-0.44701248,-0.28985
1680017043200,1197031554547171,0.4002625,-0.4549875,-0.275825
1680017043203,1197031557049311,0.3922875,-0.45993748,-0.2668875
1680017043204,1197031559551542,0.3843125,-0.474925,-0.253825
1680017043207,1197031562054003,0.375375,-0.4849625,-0.243925
1680017043210,1197031564556157,0.3672625,-0.496925,-0.2308625
1680017043212,1197031567058311,0.3562625,-0.5119125,-0.2198625
1680017043215,1197031569560696,0.3482875,-0.5209875,-0.20295
1680017043218,1197031572062926,0.3372875,-0.531025,-0.1868625
1680017043220,1197031574565080,0.3273875,-0.5379,-0.1788875
1680017043222,1197031577067465,0.3163875,-0.535975,-0.18095
