system_ts_ms, sensor_ts_ns, accX, accY, accZ
1680017038287,1197026640106325,-1.2730501,7.8850503,4.998
1680017038288,1197026642608710,-1.251,7.8799505,4.96005
1680017038290,1197026645110864,-1.266,7.8180003,4.9170003
1680017038292,1197026647613094,-1.3759501,7.9069505,5.02395
1680017038295,1197026650115253,-1.3980001,7.8490505,4.8829503
1680017038297,1197026652617715,-1.3660501,7.8210006,4.998
1680017038312,1197026655120100,-1.55295,7.833,4.9410005
1680017038313,1197026657622253,-1.572,7.6650004,5.0340004
1680017038313,1197026660124407,-1.5439501,7.72695,5.142
1680017038313,1197026662626638,-1.5480001,7.7250004,4.9500003
1680017038313,1197026665129023,-1.575,7.8040504,4.905
1680017038313,1197026667631176,-1.6200001,7.8370504,4.881
1680017038315,1197026670133407,-1.5289501,7.8570004,4.965
1680017038318,1197026672635787,-0.777,8.60595,5.3689504
1680017038323,1197026675138018,-0.98295003,8.424001,5.214
1680017038325,1197026677639094,-1.66305,7.8469505,4.809
1680017038325,1197026680140161,-1.6320001,7.938,4.9570503
1680017038328,1197026682644700,-1.6129501,7.8570004,4.72695
1680017038330,1197026685147162,-1.6540501,7.8640504,4.8780003
1680017038334,1197026687649315,-1.8550501,7.9519506,4.63395
1680017038335,1197026690151546,-1.644,8.017051,4.986
1680017038338,1197026692653719,-1.5120001,7.9810505,5.0290504
1680017038340,1197026695156104,-1.55805,7.85895,4.85895
1680017038342,1197026697658257,-1.48905,7.8949504,4.7850003
1680017038344,1197026700160719,-1.266,7.93095,5.0340004
1680017038347,1197026702662950,-1.4980501,7.8229504,4.8619504
1680017038351,1197026705165104,-1.335,7.7890506,4.83795
1680017038352,1197026707667257,-1.58895,7.85895,4.737
1680017038354,1197026710169642,-1.5120001,7.87095,4.74405
1680017038359,1197026712671869,-1.5169501,7.9279504,4.524
1680017038360,1197026715174254,-1.55805,7.96395,4.5409503
1680017038362,1197026717676484,-1.386,8.139,4.533
1680017038364,1197026720178638,-1.40505,8.106,4.6870503
1680017038368,1197026722681023,-1.3980001,8.199,4.8640504
1680017038369,1197026725183177,-1.4140501,8.088,4.806
1680017038372,1197026727685407,-1.4980501,8.24505,4.76595
1680017038375,1197026730187792,-1.5679501,8.30895,4.9879503
1680017038378,1197026732690023,-1.5600001,8.25405,4.87605
1680017038380,1197026735192181,-1.5600001,8.331,5.1589503
1680017038385,1197026737694565,-1.812,8.24895,5.03595
1680017038385,1197026740196796,-1.70595,8.11995,5.12295
1680017038388,1197026742698950,-1.7299501,7.9830003,5.01
1680017038390,1197026745201080,-1.8259501,7.9159503,5.0340004
1680017038392,1197026747703541,-1.74195,7.8760505,5.0170503
1680017038396,1197026750205926,-1.71405,8.038051,4.9669504
1680017038401,1197026752708080,-1.6800001,7.8229504,4.9120502
1680017038402,1197026755210234,-1.4070001,7.9429502,4.9669504
1680017038402,1197026757712695,-1.3260001,7.9950004,4.965
1680017038404,1197026760214849,-1.4959501,7.9500003,4.90005
1680017038407,1197026762717080,-1.40505,7.9909506,4.893
1680017038409,1197026765219464,-1.36905,7.9810505,4.9450502
1680017038412,1197026767721632,-1.3260001,7.998,4.998
1680017038418,1197026770223786,-1.39995,8.05305,4.833
1680017038419,1197026772726248,-1.5769501,7.9069505,4.9120502
1680017038420,1197026775228478,-1.1719501,8.23695,4.7389503
1680017038422,1197026777730863,-1.2229501,8.500951,4.62195
1680017038425,1197026780232997,-0.93795,8.415,4.656
1680017038427,1197026782735151,-1.1410501,8.43105,4.8109503
1680017038430,1197026785237382,-1.00995,8.464951,4.72695
1680017038435,1197026787739766,-1.1580001,8.280001,4.9500003
1680017038436,1197026790241997,-1.182,8.280001,4.9020004
1680017038438,1197026792744382,-1.14405,8.27295,4.87095
1680017038440,1197026795246535,-1.1050501,8.323951,4.854
1680017038442,1197026797748689,-1.302,8.26095,4.9120502
1680017038444,1197026800250935,-1.1770501,8.332951,4.8850503
1680017038447,1197026802753397,-1.09605,8.268001,4.7970004
1680017038455,1197026805255550,-1.2970501,8.13405,4.9170003
1680017038455,1197026807757935,-1.2390001,8.3880005,4.986
1680017038456,1197026810260074,-1.3930501,8.179951,4.76805
1680017038458,1197026812762305,-1.3590001,8.22105,4.9500003
1680017038460,1197026815264459,-1.3110001,8.292001,4.9879503
1680017038462,1197026817766920,-1.39995,8.27295,5.058
1680017038468,1197026820269079,-1.40505,8.280001,4.87605
1680017038469,1197026822771464,-1.3420501,8.247001,4.97895
1680017038471,1197026825273694,-1.39995,8.247001,4.9570503
1680017038473,1197026827775848,-1.43805,8.22795,4.9290004
1680017038475,1197026830278233,-1.4140501,8.095051,4.7470503
1680017038477,1197026832780392,-1.2589501,8.188951,4.84695
1680017038479,1197026835282622,-1.3740001,8.295,5.03205
1680017038485,1197026837785007,-1.16295,8.356951,5.05305
1680017038486,1197026840287238,-1.2589501,8.314051,5.18505
1680017038488,1197026842789368,-1.0890001,8.23005,5.1870003
1680017038491,1197026845291522,-1.2040501,8.283,5.0719504
1680017038492,1197026847793906,-1.1050501,8.36205,5.0790005
1680017038497,1197026850296368,-1.098,8.304001,5.091
1680017038498,1197026852798522,-1.1359501,8.367001,4.9840503
1680017038505,1197026855300752,-1.0330501,8.44095,5.103
1680017038507,1197026857802906,-1.077,8.424001,5.03205
1680017038508,1197026860305291,-1.146,8.302051,4.8949504
1680017038509,1197026862807503,-1.07895,8.23995,4.9690504
1680017038511,1197026865309887,-1.0669501,8.319,5.01195
1680017038512,1197026867812041,-0.98595005,8.379001,5.0890503
1680017038518,1197026870314272,-1.02405,8.491051,5.0719504
1680017038518,1197026872816656,-1.05495,8.412001,5.08395
1680017038520,1197026875318796,-1.0690501,8.458051,4.9960504
1680017038522,1197026877821027,-1.065,8.48595,5.1589503
1680017038526,1197026880323412,-0.91605,8.688001,4.9960504
1680017038527,1197026882825566,-0.94200003,8.55795,5.142
1680017038529,1197026885327796,-0.94005007,8.644951,5.0080504
1680017038535,1197026887830190,-0.97800004,8.613001,5.0149503
1680017038536,1197026890332344,-0.98595005,8.58195,5.10795
1680017038538,1197026892834575,-1.074,8.553,5.07
1680017038540,1197026895336728,-0.98100007,8.53905,5.0820003
1680017038542,1197026897839200,-1.062,8.565001,5.1109505
1680017038547,1197026900341585,-0.91095006,8.58195,5.1199503
1680017038552,1197026902843738,-0.99300003,8.509951,5.1990004
1680017038552,1197026905345892,-1.09305,8.3880005,4.9879503
1680017038553,1197026907848099,-1.0500001,8.403001,5.1199503
1680017038555,1197026910350484,-0.777,8.44095,5.13
1680017038558,1197026912852714,-0.89205,8.39295,4.9759502
1680017038560,1197026915354868,-1.00995,8.326051,4.926
1680017038562,1197026917857253,-0.82995003,8.403001,5.03205
1680017038568,1197026920359503,-0.82695,8.451,5.0170503
1680017038569,1197026922861657,-0.693,8.44305,4.9549503
1680017038570,1197026925364041,-0.61200005,8.470051,4.97895
1680017038572,1197026927866272,-0.67395,8.509951,4.9690504
1680017038576,1197026930368623,-0.46305,8.496,4.986
1680017038579,1197026932870776,-0.63105005,8.52705,5.0560503
1680017038580,1197026935373007,-0.56895,8.55795,4.8570004
1680017038585,1197026937875161,-0.59505004,8.656051,4.9450502
1680017038587,1197026940377542,-0.63600004,8.509951,4.833
1680017038589,1197026942879772,-0.68100005,8.56305,4.8900003
1680017038591,1197026945382157,-0.49005002,8.616,4.8850503
1680017038593,1197026947884388,-0.54195005,8.64,4.83795
1680017038595,1197026950386542,-0.45405003,8.544001,4.8829503
1680017038598,1197026952888710,-0.51000005,8.608951,4.7800503
1680017038602,1197026955391094,-0.48705003,8.580001,4.8690004
1680017038603,1197026957893556,-0.60195005,8.54895,4.881
1680017038606,1197026960395710,-0.51900005,8.676001,4.87095
1680017038608,1197026962897940,-0.45405003,8.629951,4.9410005
1680017038610,1197026965400094,-0.45600003,8.7640505,4.9669504
1680017038612,1197026967902479,-0.63600004,8.58495,4.9360504
1680017038620,1197026970404633,-0.70995003,8.53695,4.938
1680017038622,1197026972906849,-0.62895006,8.629951,4.8570004
1680017038624,1197026975409234,-0.73905003,8.6640005,4.87395
1680017038625,1197026977911465,-0.66495,8.56305,4.9410005
1680017038626,1197026980413619,-0.83505005,8.5990505,4.9759502
1680017038628,1197026982916003,-0.81795,8.57295,5.0080504
1680017038630,1197026985418238,-0.777,8.57505,4.94805
1680017038635,1197026987920392,-0.92295,8.51505,4.92105
1680017038636,1197026990422777,-0.84705,8.497951,4.8780003
1680017038637,1197026992925007,-0.89205,8.472,4.8640504
1680017038640,1197026995427378,-0.80100006,8.61795,5.00295
1680017038642,1197026997929532,-1.00995,8.57505,5.0170503
1680017038646,1197027000431763,-0.93495005,8.57295,4.986
1680017038647,1197027002933916,-1.00695,8.48595,4.96005
1680017038652,1197027005436378,-0.88005006,8.46195,4.9020004
1680017038653,1197027007938537,-1.02405,8.55105,4.9429502
1680017038657,1197027010440921,-1.077,8.509951,4.842
1680017038660,1197027012943075,-1.09305,8.458051,4.9500003
1680017038662,1197027015445320,-1.098,8.479051,4.806
1680017038663,1197027017947474,-1.05495,8.497951,4.8499503
1680017038668,1197027020449935,-1.19895,8.39805,4.9290004
1680017038668,1197027022952320,-1.0189501,8.415,4.8640504
1680017038670,1197027025454474,-1.09605,8.43105,4.8019505
1680017038672,1197027027956628,-1.1580001,8.451,4.68195
1680017038676,1197027030458859,-1.1029501,8.47395,4.893
1680017038678,1197027032961243,-1.0380001,8.400001,4.7250004
1680017038680,1197027035463474,-1.1010001,8.415,4.82805
1680017038682,1197027037965873,-1.14405,8.38305,4.82805
1680017038686,1197027040468026,-1.065,8.508,4.82595
1680017038688,1197027042970257,-1.13205,8.500951,4.75605
1680017038690,1197027045472411,-1.1560501,8.415,4.84005
1680017038693,1197027047974825,-1.077,8.41905,4.9410005
1680017038699,1197027050477055,-1.113,8.50605,4.81395
1680017038700,1197027052978248,-1.09605,8.3880005,4.7779503
1680017038700,1197027055479441,-1.0500001,8.451,4.986
1680017038702,1197027057983840,-1.026,8.40705,4.7629504
1680017038705,1197027060486224,-1.011,8.415,4.7779503
1680017038708,1197027062988378,-1.04295,8.488951,4.92105
1680017038710,1197027065490532,-1.041,8.3550005,4.833
1680017038713,1197027067992999,-1.09605,8.22795,4.7899504
1680017038716,1197027070495229,-1.16805,8.11995,4.701
1680017038718,1197027072997383,-1.14795,8.211,4.8520503
1680017038720,1197027075499537,-1.04805,8.26095,4.986
1680017038723,1197027078001941,-0.85395,8.379001,4.87095
1680017038726,1197027080504171,-0.86295,8.436001,4.9170003
1680017038728,1197027083006633,-0.82695,8.367001,4.926
1680017038730,1197027085508787,-0.79200006,8.42895,4.9120502
1680017038734,1197027088010955,-0.72495,8.436001,5.03595
1680017038737,1197027090513339,-0.68595004,8.509951,4.8949504
1680017038739,1197027093015570,-0.66705,8.376,4.97895
1680017038741,1197027095517724,-0.59505004,8.500951,4.9429502
1680017038742,1197027098020185,-0.56895,8.484,4.9290004
1680017038746,1197027100522373,-0.57600003,8.589001,5.05095
1680017038747,1197027103024527,-0.49005002,8.51295,5.00295
1680017038749,1197027105526912,-0.55395,8.44305,4.9620004
1680017038752,1197027108029143,-0.33900002,8.49405,4.87605
1680017038756,1197027110531296,-0.40800002,8.53905,4.8570004
1680017038758,1197027113033464,-0.432,8.436001,4.9120502
1680017038760,1197027115535926,-0.48000002,8.52,4.905
1680017038763,1197027118038310,-0.31500003,8.464951,4.99095
1680017038766,1197027120540464,-0.37005,8.54205,4.9759502
1680017038767,1197027123042675,-0.40095,8.470051,4.8829503
1680017038772,1197027125544829,-0.36495003,8.497951,4.94805
1680017038774,1197027128047214,-0.39600003,8.44305,4.94805
1680017038776,1197027130549665,-0.26505002,8.500951,4.893
1680017038779,1197027133051819,-0.46305,8.467051,4.9669504
1680017038780,1197027135553973,-0.32205,8.491051,5.0269504
1680017038783,1197027138056204,-0.36495003,8.42205,4.9020004
1680017038786,1197027140558588,-0.34605002,8.47395,4.9620004
1680017038788,1197027143060737,-0.30495003,8.46195,5.06295
1680017038791,1197027145563199,-0.351,8.496,4.8520503
1680017038793,1197027148065352,-0.37500003,8.470051,5.01195
1680017038796,1197027150567583,-0.38700002,8.484,5.06505
1680017038798,1197027153069761,-0.31005,8.451,5.08395
1680017038800,1197027155572146,-0.38700002,8.508,5.0389504
1680017038803,1197027158074300,-0.46800002,8.3880005,4.938
1680017038806,1197027160576761,-0.43500003,8.509951,4.97895
1680017038810,1197027163078906,-0.423,8.415,4.88805
1680017038811,1197027165581137,-0.372,8.332951,4.938
1680017038814,1197027168083521,-0.41595003,8.359051,4.99095
1680017038816,1197027170585675,-0.51000005,8.319,4.99305
1680017038818,1197027173087829,-0.53505003,8.36205,4.8300004
1680017038820,1197027175590291,-0.57105005,8.38605,4.9450502
1680017038822,1197027178092444,-0.45405003,8.367001,4.9120502
1680017038826,1197027180594598,-0.45900002,8.41005,4.926
1680017038828,1197027183096829,-0.45105,8.439,4.998
1680017038830,1197027185599291,-0.54195005,8.42205,4.821
1680017038832,1197027188101434,-0.55695003,8.46195,4.78305
1680017038836,1197027190603819,-0.53805,8.451,4.9020004
1680017038838,1197027193105973,-0.51000005,8.46195,4.8850503
1680017038840,1197027195608204,-0.37005,8.509951,4.90695
1680017038843,1197027198110588,-0.47805002,8.39505,4.8640504
1680017038848,1197027200612742,-0.47505003,8.403001,4.87605
1680017038850,1197027203114973,-0.51600003,8.412001,4.93095
1680017038851,1197027205617348,-0.49695003,8.39805,4.94805
1680017038854,1197027208119578,-0.6,8.47395,4.7920504
1680017038857,1197027210621732,-0.51000005,8.451,4.8180003
1680017038858,1197027213124117,-0.54195005,8.39505,4.8450003
1680017038860,1197027215626271,-0.531,8.40495,4.9290004
1680017038863,1197027218128492,-0.56205004,8.415,4.833
1680017038867,1197027220630877,-0.53295004,8.400001,4.9450502
1680017038869,1197027223133108,-0.53295004,8.326051,4.9170003
1680017038870,1197027225635262,-0.57105005,8.40705,4.881
1680017038872,1197027228137655,-0.49695003,8.43105,4.7920504
1680017038876,1197027230639809,-0.44700003,8.376,4.9170003
1680017038878,1197027233142271,-0.49005002,8.335951,4.8829503
1680017038880,1197027235644502,-0.51000005,8.356951,4.749
1680017038885,1197027238146650,-0.43995002,8.28495,4.93305
1680017038888,1197027240648804,-0.48495004,8.38605,4.84005
1680017038890,1197027243151189,-0.44700003,8.344951,4.881
1680017038892,1197027245653420,-0.46095002,8.24505,4.809
1680017038895,1197027248155804,-0.42000002,8.371051,4.87605
1680017038896,1197027250657958,-0.45105,8.316,4.82595
1680017038899,1197027253160189,-0.42795002,8.28495,4.8619504
1680017038901,1197027255662573,-0.50895,8.352,4.8040504
1680017038903,1197027258164727,-0.41595003,8.41005,4.9690504
1680017038906,1197027260666954,-0.54495,8.371051,4.8850503
1680017038908,1197027263169339,-0.53505003,8.38095,4.91895
1680017038914,1197027265671570,-0.70500004,8.26095,4.75605
1680017038914,1197027268173723,-0.75600004,8.14605,4.7080503
1680017038916,1197027270676108,-0.55395,8.200951,4.76595
1680017038918,1197027273178343,-0.39600003,8.38095,4.83795
1680017038922,1197027275680497,-0.42000002,8.38095,4.8690004
1680017038924,1197027278182650,-0.33705002,8.412001,4.72305
1680017038926,1197027280685117,-0.41595003,8.500951,4.8570004
1680017038928,1197027283187502,-0.52605003,8.424001,4.81605
1680017038930,1197027285689655,-0.40605003,8.496,4.8850503
1680017038933,1197027288191809,-0.49905002,8.436001,4.9170003
1680017038936,1197027290694040,-0.35595003,8.427,4.8180003
1680017038938,1197027293196425,-0.36,8.46195,4.9740005
1680017038941,1197027295698656,-0.36795002,8.56095,4.8619504
1680017038942,1197027298201040,-0.47805002,8.50605,4.69605
1680017038946,1197027300703194,-0.37500003,8.521951,4.833
1680017038947,1197027303205425,-0.44205,8.54895,4.8520503
1680017038950,1197027305707589,-0.42000002,8.484,4.8520503
1680017038952,1197027308209973,-0.38895002,8.50605,4.806
1680017038956,1197027310712204,-0.49005002,8.556001,4.71495
1680017038960,1197027313214560,-0.351,8.57295,4.67205
1680017038961,1197027315716713,-0.38205,8.57505,4.6000504
1680017038963,1197027318218944,-0.384,8.491051,4.7629504
1680017038967,1197027320721329,-0.40800002,8.5990505,4.7250004
1680017038968,1197027323223483,-0.423,8.500951,4.6750503
1680017038971,1197027325725670,-0.53295004,8.592,4.72695
1680017038975,1197027328228055,-0.50100005,8.496,4.6150503
1680017038976,1197027330730286,-0.564,8.556001,4.7299504
1680017038979,1197027333232440,-0.57600003,8.488951,4.6990504
1680017038981,1197027335734828,-0.624,8.625,4.7590504
1680017038982,1197027338236982,-0.66495,8.496,4.7299504
1680017038986,1197027340739444,-0.57405,8.53695,4.74405
1680017038988,1197027343241598,-0.56205004,8.58705,4.78695
1680017038992,1197027345743838,-0.64995,8.577001,4.7629504
1680017038993,1197027348245992,-0.60705,8.635051,4.84005
1680017038997,1197027350748377,-0.70095,8.668051,4.84005
1680017038999,1197027353250531,-0.65295005,8.628,4.881
1680017039001,1197027355752761,-0.669,8.553,4.8300004
1680017039004,1197027358255160,-0.60195005,8.629951,4.78305
1680017039006,1197027360757391,-0.68100005,8.61795,4.82595
1680017039009,1197027363259545,-0.63600004,8.625,4.8900003
1680017039010,1197027365761929,-0.72900003,8.668051,4.701
1680017039013,1197027368264146,-0.72495,8.53905,4.84005
1680017039016,1197027370766300,-0.66705,8.616,4.8180003
1680017039017,1197027373268762,-0.71505004,8.503051,4.66995
1680017039020,1197027375770915,-0.72495,8.565001,4.8019505
1680017039024,1197027378273300,-0.77505004,8.532001,4.794
1680017039027,1197027380775459,-0.72,8.57505,4.6909504
1680017039031,1197027383277690,-0.84405005,8.52705,4.7850003
1680017039032,1197027385779843,-0.74100006,8.61795,4.8040504
1680017039035,1197027388282305,-0.70500004,8.565001,4.77495
1680017039037,1197027390784459,-0.67905,8.49405,4.7179503
1680017039041,1197027393286844,-0.72,8.51805,4.7629504
1680017039042,1197027395789074,-0.717,8.488951,4.76595
1680017039043,1197027398291228,-0.64305,8.57505,4.737
1680017039046,1197027400793348,-0.66495,8.47395,4.7779503
1680017039048,1197027403295810,-0.67395,8.476951,4.806
1680017039051,1197027405798194,-0.64095,8.53695,4.76805
1680017039053,1197027408300348,-0.63105005,8.52495,4.806
1680017039056,1197027410802584,-0.62895006,8.592,4.8520503
1680017039058,1197027413304738,-0.65505004,8.56305,4.7590504
1680017039060,1197027415807122,-0.61395,8.50605,4.7059503
1680017039063,1197027418309353,-0.54195005,8.54205,4.8040504
1680017039066,1197027420811723,-0.72195005,8.326051,4.59795
1680017039068,1197027423313876,-1.3590001,8.24505,4.5739503
1680017039072,1197027425816107,-1.1010001,8.415,4.76805
1680017039074,1197027428318261,-0.78000003,8.484,4.76805
1680017039076,1197027430820646,-0.71505004,8.580001,4.6600504
1680017039078,1197027433322791,-0.58305,8.58195,4.63395
1680017039080,1197027435825252,-0.58095,8.623051,4.6800003
1680017039083,1197027438327406,-0.531,8.52,4.7970004
1680017039087,1197027440829637,-0.45900002,8.57505,4.6600504
1680017039089,1197027443332002,-0.43005002,8.49405,4.8229504
1680017039091,1197027445834156,-0.38895002,8.580001,4.82595
1680017039094,1197027448336310,-0.41805002,8.577001,4.63395
1680017039097,1197027450838772,-0.44700003,8.613001,4.5859504
1680017039098,1197027453341002,-0.39405003,8.51805,4.72305
1680017039100,1197027455843156,-0.43695003,8.613001,4.75605
1680017039103,1197027458345541,-0.372,8.589001,4.545
1680017039107,1197027460847695,-0.37500003,8.565001,4.605
1680017039110,1197027463349906,-0.26505002,8.589001,4.6600504
1680017039111,1197027465852367,-0.31500003,8.568001,4.545
1680017039113,1197027468354521,-0.40395,8.57295,4.5550504
1680017039116,1197027470856675,-0.372,8.56095,4.60305
1680017039119,1197027473359059,-0.38895002,8.58495,4.629
1680017039121,1197027475861290,-0.37500003,8.611051,4.7200503
1680017039123,1197027478363444,-0.39600003,8.565001,4.629
1680017039126,1197027480865906,-0.351,8.533951,4.65105
1680017039128,1197027483368059,-0.26505002,8.604,4.689
1680017039132,1197027485870223,-0.372,8.488951,4.69395
1680017039134,1197027488372608,-0.43005002,8.544001,4.6200004
1680017039136,1197027490874839,-0.41595003,8.51805,4.63905
1680017039138,1197027493376993,-0.423,8.53695,4.7179503
1680017039140,1197027495879377,-0.32505003,8.52,4.76595
1680017039143,1197027498381618,-0.40800002,8.479051,4.68195
1680017039148,1197027500884003,-0.45900002,8.472,4.6600504
1680017039149,1197027503386233,-0.38700002,8.54895,4.74405
1680017039151,1197027505888387,-0.44205,8.509951,4.7320504
1680017039153,1197027508390536,-0.52605003,8.467051,4.67205
1680017039156,1197027510892921,-0.52605003,8.476951,4.53795
1680017039158,1197027513395382,-0.37695003,8.488951,4.56495
1680017039160,1197027515897536,-0.39195,8.568001,4.5859504
1680017039163,1197027518399767,-0.58605003,8.476951,4.56195
1680017039166,1197027520901930,-0.51600003,8.3880005,4.5600004
1680017039168,1197027523404314,-0.564,8.46,4.5930004
1680017039170,1197027525906468,-0.6,8.484,4.61205
1680017039175,1197027528408930,-0.54195005,8.52495,4.6459503
1680017039177,1197027530911099,-0.63105005,8.491051,4.60305
1680017039179,1197027533413329,-0.57795,8.43105,4.644
1680017039181,1197027535915483,-0.54705,8.43105,4.497
1680017039185,1197027538417868,-0.60195005,8.472,4.4830503
1680017039187,1197027540920113,-0.57105005,8.521951,4.50495
1680017039189,1197027543422497,-0.53505003,8.476951,4.6200004
1680017039192,1197027545924651,-0.684,8.479051,4.5360003
1680017039194,1197027548426882,-0.59295005,8.470051,4.6000504
1680017039196,1197027550929266,-0.74595004,8.39805,4.4380503
1680017039198,1197027553431420,-0.70995003,8.344951,4.4710503
1680017039200,1197027555933651,-0.78195006,8.367001,4.4809504
1680017039203,1197027558435805,-0.81600004,8.424001,4.4620504
1680017039207,1197027560938261,-0.73905003,8.434051,4.4419503
1680017039208,1197027563440415,-0.70305,8.470051,4.368
1680017039210,1197027565942800,-0.78705,8.488951,4.4880004
1680017039214,1197027568444954,-0.69600004,8.4529505,4.4710503
1680017039216,1197027570947219,-0.71295005,8.53005,4.42605
1680017039218,1197027573449372,-0.80100006,8.509951,4.3710003
1680017039222,1197027575951834,-0.83205,8.48595,4.42995
1680017039224,1197027578454219,-1.0380001,8.503051,4.47405
1680017039226,1197027580956372,-0.95400006,8.448,4.3969502
1680017039228,1197027583458526,-0.88005006,8.51505,4.4040003
1680017039230,1197027585960757,-0.70095,8.565001,4.28895
1680017039233,1197027588463142,-0.588,8.628,4.37295
1680017039236,1197027590965372,-0.53505003,8.652,4.5550504
1680017039241,1197027593467771,-0.62205005,8.661,4.32
1680017039241,1197027595969925,-0.48495004,8.700001,4.36095
1680017039243,1197027598472079,-0.6,8.641951,4.3180504
1680017039246,1197027600974540,-0.66705,8.611051,4.296
1680017039248,1197027603476762,-0.55395,8.635051,4.4230504
1680017039250,1197027605978916,-0.59295005,8.757,4.3830004
1680017039254,1197027608481301,-0.58605003,8.673,4.4710503
1680017039258,1197027610983468,-0.483,8.652,4.3560004
1680017039260,1197027613485699,-0.62205005,8.629951,4.4040003
1680017039262,1197027615988084,-0.54705,8.59395,4.47795
1680017039263,1197027618490315,-0.72900003,8.632951,4.31295
1680017039266,1197027620992468,-0.76500005,8.565001,4.3510504
1680017039268,1197027623494834,-0.67200005,8.649,4.43505
1680017039272,1197027625996988,-0.67395,8.680051,4.3440003
1680017039273,1197027628499219,-0.66,8.688001,4.4929504
1680017039276,1197027631001680,-0.51000005,8.6640005,4.4830503
1680017039278,1197027633503863,-0.56595004,8.69505,4.3560004
1680017039280,1197027636006248,-0.57105005,8.72595,4.45695
1680017039283,1197027638508402,-0.648,8.65905,4.4830503
1680017039288,1197027641010632,-0.59805006,8.58195,4.44
1680017039289,1197027643512782,-0.61695004,8.628,4.50705
1680017039291,1197027646015167,-0.62895006,8.64,4.464
1680017039294,1197027648517398,-0.51000005,8.71605,4.48605
1680017039299,1197027651019810,-0.564,8.649,4.3440003
1680017039300,1197027653521964,-0.51600003,8.70405,4.4950504
1680017039302,1197027656024195,-0.44400004,8.67105,4.4620504
1680017039304,1197027658526349,-0.59805006,8.589001,4.28205
1680017039307,1197027661028733,-0.657,8.601001,4.4419503
1680017039308,1197027663530964,-0.58995,8.641951,4.347
1680017039310,1197027666033368,-0.69105005,8.64,4.37295
1680017039313,1197027668535598,-0.55200005,8.556001,4.43295
1680017039316,1197027671037752,-0.49500003,8.70705,4.263
1680017039319,1197027673539906,-0.657,8.608951,4.25805
1680017039322,1197027676042310,-0.67395,8.55105,4.25595
1680017039324,1197027678544771,-0.63600004,8.665951,4.27995
1680017039326,1197027681047002,-0.46605003,8.58495,4.2990003
1680017039329,1197027683549156,-0.423,8.721001,4.248
1680017039331,1197027686051310,-0.33405003,8.688001,4.30095
1680017039336,1197027688553684,-0.31305,8.685,4.2990003
1680017039338,1197027691055915,-0.40800002,8.67105,4.27995
1680017039340,1197027693688838,-0.44700003,8.6970005,4.1929502
1680017039341,1197027696060454,-0.77505004,8.635051,4.07595
1680017039343,1197027698562684,-0.61905,8.632951,4.1329503
1680017039346,1197027701064820,-0.528,8.70705,4.21005
1680017039348,1197027703567205,-0.69795,8.635051,4.086
1680017039351,1197027706069436,-0.61905,8.677951,4.2120004
1680017039353,1197027708571820,-0.67905,8.641951,4.0140004
1680017039356,1197027711074051,-0.68100005,8.644951,4.0009503
1680017039358,1197027713576218,-0.70095,8.733001,4.11
1680017039361,1197027716078603,-0.43005002,8.817,4.13595
1680017039363,1197027718580833,-0.64305,8.78295,4.07805
1680017039367,1197027721082987,-0.54705,8.74995,4.1329503
1680017039368,1197027723585128,-0.40095,8.910001,4.18095
1680017039372,1197027726087590,-0.37995002,8.86995,4.06605
1680017039375,1197027728589974,-0.70995003,8.85795,4.16505
1680017039377,1197027731092137,-4.71495,8.017051,4.4710503
1680017039379,1197027733594368,-3.5959501,8.85495,4.38
1680017039381,1197027736096522,1.19295,11.049001,3.9469502
1680017039384,1197027738598906,4.10295,11.530951,3.31905
1680017039386,1197027741101137,3.6409502,9.913951,3.2689502
1680017039388,1197027743603508,1.7010001,8.23695,3.7740002
1680017039391,1197027746105662,0.85095006,7.8210006,4.4809504
1680017039393,1197027748607892,0.61905,8.026951,4.9840503
1680017039396,1197027751110046,0.41805002,8.17695,5.1919503
1680017039398,1197027753612431,0.33900002,8.51295,5.0560503
1680017039400,1197027756114892,0.41295,8.937,4.6909504
1680017039403,1197027758617046,0.31695002,9.094951,4.4950504
1680017039407,1197027761119200,0.15705001,9.279,4.497
1680017039410,1197027763621397,-0.030000001,9.30795,4.1790004
1680017039411,1197027766123781,0.040050004,9.255,4.392
1680017039414,1197027768625935,-0.00795,9.28905,4.2439504
1680017039416,1197027771128397,0.043950003,9.339001,4.25295
1680017039420,1197027773630551,-0.025050001,9.15495,4.2720003
1680017039421,1197027776132777,-0.10395,9.16695,4.3660502
1680017039424,1197027778634931,-0.049050003,9.198001,4.27005
1680017039426,1197027781137316,0.043950003,9.109051,4.2510004
1680017039428,1197027783639470,-0.09,9.02295,4.3390503
1680017039430,1197027786141931,-0.303,8.818951,4.25805
1680017039432,1197027788644085,-0.042000003,8.862,4.2390003
1680017039436,1197027791146316,0.186,8.90295,4.29195
1680017039438,1197027793648701,0.43500003,8.962951,4.2840004
1680017039440,1197027796150854,0.30795002,8.946,4.28205
1680017039443,1197027798653003,0.42705002,8.829,4.2390003
1680017039447,1197027801155234,0.42000002,8.769,4.25595
1680017039449,1197027803657696,0.46605003,8.80305,4.3710003
1680017039451,1197027806159833,0.279,8.82195,4.31295
1680017039454,1197027808662218,0.15,8.769,4.32495
1680017039456,1197027811164372,0.18795002,8.724,4.2510004
1680017039458,1197027813666603,0.17595,8.68305,4.2510004
1680017039461,1197027816168757,0.102000006,8.736,4.2439504
1680017039463,1197027818671209,0.14205001,8.78295,4.275
1680017039466,1197027821173363,0.049050003,8.812051,4.248
1680017039468,1197027823675748,-0.12105001,8.688001,4.059
1680017039471,1197027826177901,-0.066,8.68995,4.09005
1680017039473,1197027828680127,-0.29295,8.800051,4.227
1680017039476,1197027831182512,-0.18795002,8.806951,4.1140504
1680017039478,1197027833684743,-0.34395,8.680051,4.0279503
1680017039480,1197027836187127,-0.39405003,8.779051,3.9610503
1680017039485,1197027838689266,-0.84900004,8.592,4.06605
1680017039487,1197027841191497,-0.73395,8.733001,3.8940003
1680017039490,1197027843693882,-0.54495,8.941051,3.9970503
1680017039492,1197027846196035,-0.54705,8.944051,4.0609503
1680017039494,1197027848698266,-0.49695003,8.925,4.0470004
1680017039496,1197027851200632,-0.66495,8.776051,3.9900002
1680017039498,1197027853702863,-0.63600004,8.86695,4.0939503
1680017039500,1197027856205016,-0.70095,8.89095,4.05
1680017039503,1197027858707170,-0.504,9.05595,4.06605
1680017039506,1197027861209550,-0.59295005,8.908051,3.9829502
1680017039508,1197027863711704,-0.76005006,8.949,4.155
1680017039510,1197027866214165,-0.777,8.85795,4.086
1680017039513,1197027868716396,-0.58605003,9.00405,3.9079502
1680017039516,1197027871218555,-0.37695003,9.295951,3.9589503
1680017039519,1197027873720939,-0.363,9.283951,4.03305
1680017039524,1197027876223093,-0.40800002,9.262051,4.0080004
1680017039526,1197027878725310,-0.62595004,9.085051,3.9229503
1680017039528,1197027881227772,-0.63600004,8.994,3.8170502
1680017039530,1197027883729926,-0.63105005,8.989051,3.798
1680017039531,1197027886232079,-0.63105005,8.946,3.86805
1680017039534,1197027888734464,-0.62205005,9.052051,3.8869503
1680017039542,1197027891236699,-0.55005,9.207001,4.011
1680017039542,1197027893738853,-0.37500003,9.36495,3.9199502
1680017039542,1197027896241314,-0.30495003,9.27,3.8050501
1680017039543,1197027898743468,-0.32700002,9.315001,3.90405
1680017039546,1197027901245853,-0.55695003,9.207001,3.8080502
1680017039548,1197027903748006,-0.66195005,9.078,3.7530003
1680017039551,1197027906250237,-0.62895006,9.04695,3.8719501
1680017039553,1197027908752391,-0.34095,9.2029505,3.8770502
1680017039556,1197027911254791,-0.31305,9.33405,3.9160502
1680017039560,1197027913757022,-0.28395,9.241051,4.04505
1680017039561,1197027916259406,-0.34395,9.1039505,3.9199502
1680017039563,1197027918761637,-0.28095,9.115951,3.9160502
1680017039566,1197027921263791,-0.21405001,9.094951,3.9420002
1680017039568,1197027923765945,-0.19500001,9.114,3.9250503
1680017039571,1197027926268406,-0.186,9.17595,3.8800502
1680017039574,1197027928770791,-0.15705001,9.139951,4.0609503
1680017039576,1197027931272978,-0.19500001,9.030001,3.96795
1680017039579,1197027933775208,-0.087000005,9.126,4.0399504
1680017039581,1197027936277362,-0.063,9.118951,3.9780002
1680017039583,1197027938779747,-0.18300001,9.076051,3.9130502
1680017039588,1197027941281930,-0.09,9.139951,3.9589503
1680017039588,1197027943784391,0.123,9.139951,4.0009503
1680017039590,1197027946286545,0.186,9.259951,3.9870002
1680017039593,1197027948788776,0.12795001,9.0730505,3.9630003
1680017039597,1197027951290940,0.13305001,9.15495,4.0009503
1680017039599,1197027953793324,0.030000001,9.126,4.119
1680017039601,1197027956295478,0.028050002,9.0709505,4.07805
1680017039604,1197027958797940,0.03195,9.11205,4.05405
1680017039607,1197027961300094,-0.006,9.05895,3.9610503
1680017039608,1197027963802319,0.051000003,9.102,3.9799502
1680017039611,1197027966304704,-0.15195,8.98005,3.9870002
1680017039614,1197027968806858,-0.058950003,8.974951,3.8050501
1680017039616,1197027971309012,-0.21195,8.932051,3.9130502
1680017039619,1197027973811473,-0.123,9.076051,4.0470004
1680017039620,1197027976313704,-0.04695,8.83905,3.999
1680017039623,1197027978815858,0.049050003,9.03495,4.0009503
1680017039626,1197027981318243,0.21405001,9.198001,4.0150504
1680017039628,1197027983820396,0.08295,8.830951,4.07595
1680017039631,1197027986322641,-0.063,8.89095,4.05705
1680017039635,1197027988825026,-0.0010500001,8.997001,4.026
1680017039637,1197027991327257,0.13095,8.961,4.0399504
1680017039640,1197027993829391,0.25500003,9.04905,4.10505
1680017039641,1197027996331776,0.13995,8.937,4.29195
1680017039643,1197027998833930,0.043950003,8.985001,4.19805
1680017039647,1197028001336161,0.10395,9.00405,4.236
1680017039648,1197028003838545,0.01995,8.920051,4.2169504
1680017039651,1197028006340800,0.09,8.932051,4.0470004
1680017039654,1197028008843185,0.26895002,8.87205,4.026
1680017039657,1197028011345339,0.13305001,8.99895,4.35405
1680017039658,1197028013847569,0.19305001,8.929951,3.9829502
1680017039660,1197028016349737,0.043950003,8.829,4.11705
1680017039663,1197028018852122,0.28095,9.078,4.0140004
1680017039667,1197028021354353,0.19305001,8.946,4.0339503
1680017039668,1197028023856506,0.08295,8.997001,4.18905
1680017039672,1197028026358896,0.006,8.91495,4.05705
1680017039674,1197028028861050,0.051000003,8.989051,4.0399504
1680017039677,1197028031363511,-0.00795,8.89095,4.0410004
1680017039678,1197028033865742,0.00795,8.917951,4.1329503
1680017039680,1197028036367896,-0.19800001,8.817,4.07805
1680017039683,1197028038870262,0.08505,8.977051,4.11
1680017039687,1197028041372416,0.00795,9.0400505,3.9559503
1680017039688,1197028043874646,-0.07095,9.082951,4.0740004
1680017039691,1197028046377031,0.016050002,9.127951,4.0410004
1680017039694,1197028048879233,-0.15,8.874001,3.9829502
1680017039696,1197028051381387,-0.08505,8.865001,3.9300003
1680017039699,1197028053883771,-0.018000001,9.102,4.0009503
1680017039701,1197028056385925,-0.186,8.953051,4.12395
1680017039704,1197028058888156,-0.15,9.05895,4.0609503
1680017039706,1197028061390632,-0.36,8.929951,3.9390001
1680017039710,1197028063892786,-0.31995,8.934,3.7890003
1680017039712,1197028066394940,-0.12105001,9.09195,3.9540002
1680017039713,1197028068897325,-0.33405003,8.87205,3.8700001
1680017039716,1197028071399550,-0.35805002,8.84595,3.8239503
1680017039719,1197028073901704,-0.20505,9.0060005,3.8050501
1680017039721,1197028076404089,-0.28395,8.97,3.9109502
1680017039724,1197028078906320,-0.34395,8.908051,3.9420002
1680017039727,1197028081408684,-0.40800002,8.98005,3.8359501
1680017039728,1197028083910838,-0.40095,8.865001,3.7429502
1680017039732,1197028086413069,-0.17400001,9.106951,3.8220003
1680017039734,1197028088915223,-0.45105,8.805,3.7720501
1680017039736,1197028091417598,-0.44205,8.877001,3.762
1680017039739,1197028093919829,-0.33405003,9.01305,3.8080502
1680017039741,1197028096422214,-0.44205,8.865001,3.729
1680017039744,1197028098924368,-0.39405003,8.812051,3.7909503
1680017039748,1197028101426579,-0.252,9.01605,3.8029501
1680017039749,1197028103928733,-0.31305,8.86695,3.7740002
1680017039752,1197028106431118,-0.030000001,9.262051,3.7669501
1680017039754,1197028108933579,-0.55005,8.934,3.7810502
1680017039756,1197028111435733,-0.36795002,9.02295,3.8460002
1680017039759,1197028113937872,-0.351,8.812051,3.7840502
1680017039761,1197028116440103,-0.29805002,8.934,3.834
1680017039764,1197028118942488,-0.29805002,8.908051,3.8050501
1680017039766,1197028121444641,-0.34395,8.934,3.82695
1680017039768,1197028123947093,-0.33900002,8.950951,3.9060001
1680017039771,1197028126449247,-0.28605002,9.03195,3.801
1680017039774,1197028128951478,-0.26895002,8.958,3.8080502
1680017039777,1197028131453631,-0.32700002,9.04905,3.7720501
1680017039779,1197028133956031,-0.33405003,8.97,3.6880503
1680017039781,1197028136458185,-0.26895002,8.985001,3.7500002
1680017039786,1197028138960646,-0.363,9.009001,3.7450502
1680017039788,1197028141462800,-0.34095,9.00105,3.8170502
1680017039789,1197028143965031,-0.30795002,8.973001,3.7410002
1680017039792,1197028146467416,-0.29595003,9.052051,3.7720501
1680017039794,1197028148969570,-0.40800002,8.913,3.8130002
1680017039797,1197028151471723,-0.27195,8.982,3.7810502
1680017039799,1197028153974185,-0.372,8.953051,3.7360501
1680017039800,1197028156476411,-0.32505003,8.944051,3.6760502
1680017039803,1197028158978565,-0.31005,8.997001,3.70005
1680017039807,1197028161480949,-0.33405003,8.934,3.7140002
1680017039809,1197028163983103,-0.43695003,8.973001,3.7170002
1680017039811,1197028166485344,-0.351,8.986951,3.6469502
1680017039815,1197028168987498,-0.40800002,9.04905,3.7050002
1680017039818,1197028171489959,-0.40800002,8.997001,3.6859503
1680017039819,1197028173992113,-0.30105,9.078,3.82695
1680017039825,1197028176494469,-0.33705002,9.32205,3.7020001
1680017039825,1197028178996699,-0.46605003,9.114,3.6040502
1680017039827,1197028181498853,-0.39900002,9.217051,3.7740002
1680017039829,1197028184001238,-0.54195005,8.982,3.6349502
1680017039831,1197028186503469,-0.45105,9.066,3.66405
1680017039833,1197028189005623,-0.61200005,8.973001,3.7720501
1680017039836,1197028191508012,-0.40605003,9.06795,3.6979501
1680017039841,1197028194010243,-0.51405,9.02505,3.66195
1680017039842,1197028196512397,-0.55395,8.98005,3.6739502
1680017039843,1197028199014781,-0.61005,9.02295,3.7600503
1680017039846,1197028201517026,-0.54705,9.186001,3.5659502
1680017039849,1197028204019411,-0.63600004,9.11205,3.6660001
1680017039851,1197028206521642,-0.70305,9.042001,3.6070502
1680017039855,1197028209023795,-0.66,8.91495,3.7170002
1680017039857,1197028211525978,-0.62895006,9.04395,3.5370002
1680017039862,1197028214028363,-0.78000003,9.052051,3.7480502
1680017039863,1197028216530824,-1.218,8.88195,3.492
1680017039865,1197028219032978,-0.88005006,8.965051,3.73305
1680017039867,1197028221535252,-0.64995,9.064051,3.6450002
1680017039869,1197028224037406,-0.51900005,9.16395,3.6780002
1680017039871,1197028226539791,-0.45405003,9.16905,3.7720501
1680017039874,1197028229041944,-0.49905002,9.14505,3.7410002
1680017039877,1197028231544396,-0.504,9.174001,3.6450002
1680017039879,1197028234046550,-0.42000002,9.102,3.6760502
1680017039881,1197028236548781,-0.50100005,9.064051,3.45795
1680017039883,1197028239050934,-0.64305,9.03495,3.4129503
1680017039887,1197028241553329,-0.59295005,9.042001,3.6450002
1680017039889,1197028244055560,-0.59805006,9.0060005,3.5490003
1680017039891,1197028246557714,-0.49695003,9.07995,3.5010002
1680017039895,1197028249060098,-0.59505004,8.908051,3.5160003
1680017039899,1197028251562343,-0.59295005,9.094951,3.5370002
1680017039900,1197028254064728,-0.64095,8.934,3.456
1680017039903,1197028256566882,-0.55905,9.126,3.4390502
1680017039904,1197028259069112,-0.43695003,9.18105,3.528
1680017039907,1197028261571266,-0.37995002,9.13305,3.55905
1680017039908,1197028264073738,-0.57405,8.898001,3.5350502
1680017039911,1197028266575892,-0.42495003,8.91495,3.5659502
1680017039913,1197028269078276,-0.67395,8.818951,3.5710502
1680017039916,1197028271580430,-0.34095,9.02505,3.5680501
1680017039919,1197028274082675,-0.38895002,8.973001,3.52305
1680017039921,1197028276584829,-0.44700003,8.950951,3.59205
1680017039923,1197028279087290,-0.31500003,9.02805,3.5419502
1680017039926,1197028281589675,-0.38895002,9.03705,3.7020001
1680017039928,1197028284091829,-0.22605,9.121051,3.6760502
1680017039930,1197028286593978,-0.25695002,9.09195,3.6349502
1680017039936,1197028289096208,-0.27705002,9.06105,3.8200502
1680017039938,1197028291598593,-0.42795002,8.829,3.79605
1680017039941,1197028294191593,-0.23400001,9.06105,3.7050002
1680017039942,1197028296603218,-0.22605,9.15705,3.6739502
1680017039943,1197028299105372,-0.31695002,8.953051,3.798
1680017039946,1197028301607603,-0.31995,9.097051,3.8080502
1680017039948,1197028304109757,-0.22605,9.127951,3.82695
1680017039952,1197028306612151,-0.23400001,9.06105,3.8580003
1680017039953,1197028309114305,-0.22905001,9.147,3.7740002
1680017039956,1197028311616767,-0.30795002,9.114,3.8029501
1680017039959,1197028314118921,-0.42000002,8.934,3.7930503
1680017039961,1197028316621151,-0.22200002,9.121051,3.82905
1680017039963,1197028319123319,-0.31305,9.05895,3.8220003
1680017039966,1197028321625704,-0.40395,8.932051,3.6859503
1680017039968,1197028324127858,-0.14295001,9.198001,3.7789502
1680017039973,1197028326630319,-0.31500003,9.042001,3.6709502
1680017039976,1197028329132555,-0.23595001,9.159,3.7360501
1680017039978,1197028331634709,-0.384,8.938951,3.7690501
1680017039979,1197028334137094,-0.38205,9.02295,3.8239503
1680017039981,1197028336639247,-0.55200005,8.910001,3.7480502
1680017039984,1197028339141478,-0.36795002,9.04395,3.8100002
1680017039987,1197028341643949,-0.34095,9.078,3.93705
1680017039989,1197028344146103,-0.46800002,9.09,4.0080004
1680017039991,1197028346648256,-0.351,9.07995,3.9610503
1680017039994,1197028349150641,-0.31995,9.09195,3.7840502
1680017039997,1197028351652795,-0.31995,9.05895,3.7360501
1680017039998,1197028354155031,-0.21000001,9.267,3.8479502
1680017040001,1197028356657415,-0.36495003,9.04395,4.0069504
1680017040004,1197028359159646,-0.36,9.009001,3.9630003
1680017040008,1197028361661800,-0.423,8.989051,3.82695
1680017040010,1197028364164161,-0.33705002,9.02505,3.8820002
1680017040012,1197028366666391,-0.55200005,8.925,3.9439502
1680017040015,1197028369168545,-0.32895002,9.10005,3.9130502
1680017040017,1197028371670897,-0.39195,9.078,3.801
1680017040019,1197028374173128,-0.411,8.982,3.8700001
1680017040021,1197028376675512,-0.39600003,9.12405,3.8749502
1680017040024,1197028379177743,-0.44400004,8.841001,3.7810502
1680017040026,1197028381679897,-0.27405003,9.097051,3.8389502
1680017040028,1197028384182037,-0.56595004,8.901,3.8050501
1680017040031,1197028386684421,-0.39405003,9.102,3.9300003
1680017040034,1197028389186883,-0.32205,9.16695,3.8560503
1680017040036,1197028391689037,-0.41805002,9.076051,3.93495
1680017040039,1197028394191162,-0.29805002,9.01095,3.8920503
1680017040041,1197028396693392,-0.36495003,8.965051,3.83205
1680017040044,1197028399195546,-0.23400001,9.0060005,3.86805
1680017040048,1197028401697931,-0.40095,8.934,3.82695
1680017040050,1197028404200402,-0.54195005,8.908051,3.8530502
1680017040052,1197028406702556,-0.51405,8.805,3.8080502
1680017040054,1197028409204710,-0.32700002,9.076051,3.8560503
1680017040057,1197028411706941,-0.11100001,9.150001,3.8200502
1680017040059,1197028414209325,-0.24795002,8.950951,3.9439502
1680017040061,1197028416711469,-0.042000003,9.04695,3.8100002
1680017040064,1197028419213931,-0.35595003,8.82705,3.9610503
1680017040066,1197028421716085,-0.19800001,8.886001,3.8479502
1680017040069,1197028424218316,-0.12795001,9.018001,3.7120502
1680017040071,1197028426720671,-0.025050001,8.997001,3.8359501
1680017040074,1197028429222825,-0.11400001,9.01305,3.7690501
1680017040076,1197028431724979,0.0010500001,8.989051,3.762
1680017040079,1197028434227440,0.075,9.02805,3.89595
1680017040081,1197028436729671,-0.126,8.86005,3.7069502
1680017040085,1197028439231825,0.20205002,9.19995,3.7530003
1680017040088,1197028441734210,0.010950001,8.97,3.7099502
1680017040091,1197028444236363,0.109050006,8.88405,3.6859503
1680017040092,1197028446738604,0.10395,8.99895,3.6880503
1680017040095,1197028449240989,0.14205001,8.92695,3.6160502
1680017040097,1197028451743143,-0.06795,8.87895,3.7050002
1680017040099,1197028454245373,0.00795,8.898001,3.6540003
1680017040101,1197028456747758,0.01995,8.974951,3.6660001
1680017040103,1197028459249993,-0.15195,8.709001,3.66405
1680017040106,1197028461752147,-0.19800001,8.779051,3.6379502
1680017040109,1197028464254531,-0.08295,8.797951,3.5779502
1680017040111,1197028466756762,-0.03195,8.932051,3.6210003
1680017040114,1197028469258897,-0.08505,8.946,3.5299501
1680017040117,1197028471761282,-0.028050002,9.02505,3.7050002
1680017040119,1197028474263435,-0.26895002,8.925,3.4129503
1680017040123,1197028476765897,-0.21000001,8.977051,3.55605
1680017040124,1197028479268119,-0.31995,9.06795,3.62595
1680017040127,1197028481770273,-0.30795002,9.094951,3.561
1680017040129,1197028484272426,-0.37005,8.934,3.52005
1680017040131,1197028486774811,-0.38700002,8.99895,3.4800003
1680017040134,1197028489277042,-0.39405003,9.097051,3.4320002
1680017040137,1197028491779411,-0.74595004,8.898001,3.3409503
1680017040139,1197028494281641,-0.57600003,9.085051,3.417
1680017040141,1197028496783795,-0.87795,8.84805,3.4939501
1680017040144,1197028499286180,-0.90900004,8.965051,3.3960001
1680017040147,1197028501788320,-0.83205,9.04905,3.4990501
1680017040149,1197028504290550,-0.92295,9.02505,3.453
1680017040151,1197028506792935,-0.79395,9.042001,3.55605
1680017040153,1197028509295166,-0.73200005,8.950951,3.4750502
1680017040156,1197028511797324,-0.86595005,8.962951,3.525
1680017040160,1197028514299708,-0.79905003,9.102,3.6859503
1680017040165,1197028516801939,-0.777,9.030001,3.65895
1680017040165,1197028519304093,-1.02405,8.98005,3.6690001
1680017040166,1197028521806488,-0.88995004,8.925,3.6499503
1680017040168,1197028524308718,-0.96195006,9.066,3.7170002
1680017040171,1197028526811103,-0.93000007,9.02295,3.7450502
1680017040174,1197028529313257,-0.99300003,9.0060005,3.7189503
1680017040177,1197028531815498,-1.07895,8.908051,3.6739502
1680017040178,1197028534317651,-0.777,9.09195,3.834
1680017040181,1197028536820036,-1.011,8.92695,3.9799502
1680017040183,1197028539322267,-0.89895004,8.99205,3.8800502
1680017040187,1197028541824651,-0.83895004,9.03495,3.9270003
1680017040189,1197028544326824,-0.80100006,9.18105,3.9709501
1680017040191,1197028546829055,-0.624,9.147,4.12605
1680017040194,1197028549331209,-0.68595004,9.0060005,4.07595
1680017040198,1197028551833602,-0.73200005,8.99895,3.8440502
1680017040200,1197028554336064,-0.76305,8.953051,3.9109502
1680017040201,1197028556838218,-0.68100005,8.85495,4.11705
1680017040203,1197028559340372,-0.43500003,9.02505,3.97305
1680017040206,1197028561842603,-0.411,9.04905,4.0219502
1680017040208,1197028564345011,-0.43995002,9.030001,4.05705
1680017040211,1197028566847165,-0.41595003,9.03705,3.9630003
1680017040214,1197028569349396,-0.21405001,9.126,4.071
1680017040217,1197028571851780,-0.41295,8.938951,4.1119504
1680017040219,1197028574354011,-0.29295,9.082951,4.0300503
1680017040221,1197028576856165,-0.15705001,9.097051,4.06605
1680017040225,1197028579358550,-0.049050003,9.183001,4.18905
1680017040226,1197028581860703,0.14205001,9.19995,4.1599503
1680017040228,1197028584363165,-0.022950001,9.021001,4.119
1680017040231,1197028586865310,0.21000001,9.076051,4.06395
1680017040235,1197028589367541,0.22905001,9.0060005,4.191
1680017040238,1197028591869695,0.22905001,9.030001,4.12395
1680017040239,1197028594372098,0.17400001,9.00405,4.18905
1680017040241,1197028596874252,0.23595001,9.05895,4.0680003
1680017040243,1197028599376714,0.20505,8.994,4.12605
1680017040247,1197028601878944,0.30105,9.114,4.203
1680017040248,1197028604381098,0.31005,9.1380005,3.9709501
1680017040251,1197028606883262,0.291,9.150001,4.05195
1680017040254,1197028609385647,0.291,9.088051,4.1620502
1680017040258,1197028611887877,0.13305001,9.03495,4.0680003
1680017040260,1197028614390031,0.18795002,8.977051,4.0680003
1680017040261,1197028616892488,0.018000001,8.982,3.9780002
1680017040264,1197028619394642,0.11895001,9.018001,3.97305
1680017040266,1197028621897026,0.27705002,9.291,4.00395
1680017040269,1197028624399180,0.14205001,9.05895,4.04505
1680017040273,1197028626901411,0.094950005,9.121051,4.0069504
1680017040275,1197028629403565,0.13305001,8.938951,4.026
1680017040277,1197028631906026,0.07095,9.102,3.97305
1680017040279,1197028634408180,0.040050004,9.066,3.9490502
1680017040281,1197028636910565,0.079950005,9.01605,3.9559503
1680017040284,1197028639412791,-0.042000003,9.066,3.9469502
1680017040289,1197028641914944,-0.05595,8.944051,3.8839502
1680017040291,1197028644417098,-0.094950005,8.950951,3.83205
1680017040292,1197028646919560,-0.094950005,8.937,3.8440502
1680017040295,1197028649421944,-0.010950001,9.030001,3.8170502
1680017040297,1197028651924098,-0.01305,8.973001,3.82695
1680017040299,1197028654426329,-0.06105,8.973001,3.86505
1680017040301,1197028656928483,-0.21405001,8.96805,3.8359501
1680017040304,1197028659430868,0.00405,8.99205,3.726
1680017040308,1197028661933344,-0.39195,8.82405,3.7600503
1680017040310,1197028664435498,-0.23805001,8.86695,3.6690001
1680017040312,1197028666937652,-0.40095,8.776051,3.7050002
1680017040314,1197028669439883,-0.81795,8.57295,3.4510503
1680017040317,1197028671942051,-0.93000007,8.57295,3.5749502
1680017040320,1197028674444436,-0.507,8.793,3.9780002
1680017040322,1197028676946898,-0.57795,8.793,3.801
1680017040325,1197028679449051,-0.30495003,8.985001,3.8359501
1680017040327,1197028681951186,-0.28605002,8.84595,3.8050501
1680017040329,1197028684453417,-0.18105,8.96805,3.7890003
1680017040331,1197028686955802,-0.34095,8.89605,3.7140002
1680017040334,1197028689457956,-0.25500003,8.910001,3.7069502
1680017040337,1197028691960185,-0.32205,8.865001,3.7500002
1680017040341,1197028694462570,-0.372,8.7619505,3.7690501
1680017040344,1197028696964801,-0.291,8.938951,3.8200502
1680017040346,1197028699466955,-0.31005,8.96805,3.729
1680017040348,1197028701969344,-0.36,8.86005,3.726
1680017040350,1197028704471498,-0.41595003,8.877001,3.7789502
1680017040352,1197028706973729,-0.44400004,8.841001,3.7170002
1680017040354,1197028709476190,-0.43995002,8.829,3.9130502
1680017040357,1197028711978344,-0.47505003,8.84595,3.8080502
1680017040359,1197028714480493,-0.54,8.86695,3.8389502
1680017040361,1197028716982878,-0.483,8.83605,3.8080502
1680017040364,1197028719485032,-0.564,8.785951,3.82905
1680017040366,1197028721987262,-0.483,8.877001,3.8080502
1680017040369,1197028724489724,-0.40095,8.985001,3.8940003
1680017040371,1197028726991874,-0.34800002,8.917951,3.9160502
1680017040375,1197028729494028,-0.39405003,8.925,3.86805
1680017040377,1197028731996412,-0.44700003,9.021001,3.8940003
1680017040380,1197028734498614,-0.38700002,8.99205,3.9439502
1680017040381,1197028737000768,-0.42495003,8.977051,3.9510002
1680017040387,1197028739503229,-0.483,8.961,3.89595
1680017040390,1197028742005383,-0.46800002,8.941051,3.8839502
1680017040392,1197028744507777,-0.45105,8.89095,3.93195
1680017040393,1197028747010008,-0.53295004,8.908051,3.9709501
1680017040395,1197028749512161,-0.45900002,8.982,3.93495
1680017040397,1197028752014315,-0.41595003,8.874001,4.083
1680017040399,1197028754516700,-0.51600003,9.01605,4.03305
1680017040401,1197028757019176,-0.46305,8.973001,3.9709501
1680017040404,1197028759521330,-0.51405,8.874001,3.9250503
1680017040406,1197028762023561,-0.432,9.03705,4.0410004
1680017040409,1197028764525715,-0.432,8.89605,3.9079502
1680017040411,1197028767027869,-0.37500003,8.920051,4.12605
1680017040414,1197028769530253,-0.46800002,8.86695,4.02105
1680017040417,1197028772032715,-0.363,9.03495,4.0150504
1680017040420,1197028774534869,-0.26505002,9.09195,4.0680003
1680017040423,1197028777037076,-0.41595003,8.917951,4.12395
1680017040425,1197028779539229,-0.38205,8.946,3.9559503
1680017040428,1197028782041614,-0.27705002,8.941051,4.10505
1680017040430,1197028784543845,-0.28395,8.938951,4.04505
1680017040431,1197028787046229,-0.20505,8.994,4.02105
1680017040434,1197028789548392,-0.33900002,8.910001,4.059
1680017040437,1197028792050623,-0.351,9.03195,4.083
1680017040442,1197028794553008,-0.31500003,8.922001,4.0080004
1680017040443,1197028797055162,-0.24105,8.89605,4.038
1680017040446,1197028799557402,-0.094950005,9.01605,4.0069504
1680017040447,1197028802059787,-0.162,9.021001,3.9540002
1680017040449,1197028804562018,-0.252,9.00105,3.89895
1680017040451,1197028807064172,-0.26895002,8.961,3.8460002
1680017040456,1197028809566551,-0.27705002,8.941051,3.8509502
1680017040458,1197028812068705,-0.14295001,8.99205,3.93705
1680017040461,1197028814570936,-0.19305001,8.982,3.9420002
1680017040463,1197028817073320,-0.19005,8.89605,3.8239503
1680017040465,1197028819575551,-0.20205002,8.99895,3.9439502
1680017040467,1197028822077936,-0.066,9.07995,3.9439502
1680017040469,1197028824580090,-0.20205002,9.01605,3.9390001
1680017040471,1197028827082244,-0.16905001,8.997001,4.0009503
1680017040476,1197028829584474,-0.09,9.00105,4.05
1680017040477,1197028832086844,-0.22200002,9.05895,3.9079502
1680017040479,1197028834589075,-0.27705002,8.941051,3.9079502
1680017040482,1197028837091459,-0.231,8.997001,3.8359501
1680017040484,1197028839593613,-0.31500003,9.064051,3.8479502
1680017040487,1197028842095839,-1.0720501,8.637,3.7500002
1680017040489,1197028844597993,-0.88005006,8.733001,3.7069502
1680017040491,1197028847100377,-0.624,8.85,3.834
1680017040495,1197028849602608,-0.32895002,8.944051,3.8530502
1680017040499,1197028852105007,-0.372,8.938951,3.8820002
1680017040501,1197028854607161,-0.26205,8.958,3.89595
1680017040503,1197028857109391,-0.27405003,9.078,3.9750001
1680017040505,1197028859611776,-0.25995,9.16395,3.9850502
1680017040508,1197028862113930,-0.28605002,8.934,3.8359501
1680017040509,1197028864616166,-0.28095,8.977051,3.90405
1680017040511,1197028867118550,-0.28395,8.898001,3.8890502
1680017040514,1197028869620704,-0.279,8.982,3.9799502
1680017040517,1197028872122935,-0.25005,9.082951,3.9300003
1680017040520,1197028874625325,-0.30795002,8.961,3.8820002
1680017040522,1197028877127555,-0.33195,8.901,3.9229503
1680017040524,1197028879629709,-0.47100002,8.886001,3.8719501
1680017040527,1197028882132094,-0.49500003,8.793,3.8839502
1680017040529,1197028884634248,-0.38700002,8.901,3.93195
1680017040532,1197028887136473,-0.46605003,8.862,3.6859503
1680017040536,1197028889638935,-0.41805002,8.841001,3.9919503
1680017040539,1197028892141089,-0.41295,8.88195,4.02105
1680017040541,1197028894841089,-0.52095,8.812051,4.00395
1680017040542,1197028897145617,-0.43500003,8.88405,3.9799502
1680017040544,1197028899647848,-0.54195005,8.800051,3.9390001
1680017040547,1197028902150002,-0.54705,8.830951,3.89895
1680017040549,1197028904652463,-0.34605002,8.937,3.8800502
1680017040551,1197028907154617,-0.507,8.865001,3.9420002
1680017040554,1197028909656997,-0.564,8.922001,4.05705
1680017040556,1197028912159151,-0.47805002,8.86995,3.86805
1680017040559,1197028914661382,-0.48495004,8.937,3.86505
1680017040561,1197028917163535,-0.54,8.80305,3.9079502
1680017040564,1197028919665916,-0.42000002,8.84805,3.9949503
1680017040567,1197028922168147,-0.43995002,8.874001,3.9610503
1680017040569,1197028924670531,-0.423,8.87205,4.09305
1680017040574,1197028927172728,-0.49005002,8.89095,4.05405
1680017040576,1197028929674882,-0.64305,8.85795,3.8940003
1680017040578,1197028932177036,-0.57105005,8.82195,3.8460002
1680017040580,1197028934679421,-0.63105005,8.82195,3.96795
1680017040582,1197028937181882,-0.61200005,8.78295,4.03305
1680017040584,1197028939684026,-0.52305,8.80305,3.9510002
1680017040587,1197028942186257,-0.60705,8.86995,3.9079502
1680017040589,1197028944688411,-0.54705,8.841001,3.8509502
1680017040592,1197028947190795,-0.57795,8.946,3.8580003
1680017040594,1197028949692949,-0.423,8.89605,3.90405
1680017040597,1197028952195411,-0.504,8.85,3.9870002
1680017040600,1197028954697564,-0.55200005,8.917951,3.8749502
1680017040602,1197028957199795,-0.47295,8.82195,3.8080502
1680017040605,1197028959701949,-0.61395,8.809951,3.7890003
1680017040607,1197028962204310,-0.63600004,8.86695,3.9610503
1680017040611,1197028964706540,-0.63105005,8.82405,3.8580003
1680017040613,1197028967208925,-0.55905,8.88405,3.9559503
1680017040615,1197028969711065,-0.72195005,8.776051,3.9919503
1680017040617,1197028972213296,-0.624,8.757,3.9799502
1680017040619,1197028974715680,-0.49005002,8.85795,3.9469502
1680017040621,1197028977217834,-0.507,8.812051,3.9799502
1680017040624,1197028979720065,-0.52305,8.83905,3.8920503
1680017040627,1197028982222228,-0.63600004,8.7619505,4.0470004
1680017040629,1197028984724689,-0.66,8.767051,3.9799502
1680017040631,1197028987227074,-0.70095,8.776051,4.01805
1680017040634,1197028989729228,-0.63600004,8.80305,3.9420002
1680017040637,1197028992231377,-0.60705,8.865001,3.9490502
1680017040639,1197028994733607,-0.53505003,8.84595,4.0069504
1680017040641,1197028997235761,-0.60705,8.853001,4.08705
1680017040644,1197028999738223,-0.55200005,8.82705,4.0219502
1680017040648,1197029002240628,-0.66495,8.812051,4.086
1680017040650,1197029004742782,-0.66495,8.85495,4.011
1680017040652,1197029007244936,-0.58095,8.829,4.05705
1680017040655,1197029009747167,-0.624,8.83905,3.9439502
1680017040658,1197029012249552,-0.69600004,8.874001,4.13595
1680017040660,1197029014751772,-0.63795,8.889001,4.08705
1680017040662,1197029017254157,-0.57105005,8.82195,4.0080004
1680017040664,1197029019756311,-0.59505004,8.898001,4.059
1680017040667,1197029022258542,-0.57405,8.886001,4.0009503
1680017040669,1197029024760926,-0.51600003,8.88405,4.05
1680017040672,1197029027263085,-0.55695003,8.932051,4.0140004
1680017040674,1197029029765316,-0.55005,8.785951,4.0939503
1680017040677,1197029032267700,-0.62895006,8.812051,4.0150504
1680017040679,1197029034769931,-0.59805006,8.797951,4.00395
1680017040682,1197029037272070,-0.52605003,8.922001,4.08705
1680017040686,1197029039774455,-0.483,8.917951,4.1410503
1680017040689,1197029042276609,-0.58605003,8.89605,3.9750001
1680017040691,1197029044779070,-0.49500003,8.929951,4.098
1680017040693,1197029047281224,-0.59295005,8.90295,3.9420002
1680017040695,1197029049783455,-0.39900002,8.842951,4.05405
1680017040698,1197029052285609,-0.528,8.829,4.00395
1680017040700,1197029054787993,-0.57105005,8.874001,4.01805
1680017040702,1197029057290142,-0.588,8.830951,3.9780002
1680017040704,1197029059792373,-0.57405,8.89095,4.0080004
1680017040707,1197029062294834,-0.47295,8.75205,4.01805
1680017040709,1197029064796988,-0.504,8.788051,3.9949503
1680017040712,1197029067299373,-0.588,8.842951,3.8029501
1680017040714,1197029069801508,-0.47505003,8.797951,3.89595
1680017040717,1197029072303739,-0.51900005,8.788051,3.8530502
1680017040720,1197029074805892,-0.49695003,8.812051,4.0080004
1680017040725,1197029077308383,-0.51900005,8.817,3.9199502
1680017040727,1197029079810537,-0.44895002,8.874001,3.9559503
1680017040728,1197029082312921,-0.41595003,8.841001,3.999
1680017040730,1197029084815075,-0.43500003,8.83605,3.9829502
1680017040732,1197029087317306,-0.49005002,8.818951,3.9850502
1680017040735,1197029089819681,-0.51600003,8.721001,3.97305
1680017040738,1197029092321911,-0.47505003,8.886001,3.9750001
1680017040739,1197029094824065,-0.45405003,8.70405,4.01805
1680017040742,1197029097326450,-0.47505003,8.688001,4.0080004
1680017040744,1197029099828681,-0.62895006,8.685,4.04505
1680017040747,1197029102330864,-0.55905,8.80305,4.059
1680017040749,1197029104833017,-0.61905,8.74995,4.1329503
1680017040752,1197029107335479,-0.59295005,8.812051,3.9510002
1680017040755,1197029109837864,-0.61395,8.724,4.2010503
1680017040757,1197029112340022,-0.59295005,8.80305,4.0410004
1680017040761,1197029114842253,-0.57795,8.75205,4.0150504
1680017040763,1197029117344407,-0.564,8.724,4.12395
1680017040765,1197029119846792,-0.66,8.74005,4.0399504
1680017040767,1197029122349046,-0.669,8.776051,4.1719503
1680017040769,1197029124851431,-0.78405005,8.724,4.1410503
1680017040771,1197029127353662,-0.76305,8.769,4.07805
1680017040776,1197029129855816,-0.708,8.862,4.00395
1680017040779,1197029132357988,-0.83895004,8.842951,4.071
1680017040780,1197029134860373,-0.804,8.85495,4.12395
1680017040782,1197029137362604,-0.684,8.908051,4.0339503
1680017040786,1197029139864989,-0.62205005,8.901,4.1740503
1680017040794,1197029142367219,-0.46605003,9.00105,4.05195
1680017040794,1197029144869364,-0.50100005,8.98005,4.05705
1680017040794,1197029147371749,-0.45900002,8.89605,3.9630003
1680017040795,1197029149873903,-0.41805002,8.898001,4.0140004
1680017040799,1197029152376137,-0.43995002,8.86695,3.9130502
1680017040800,1197029154878522,-0.51405,8.82195,3.96795
1680017040802,1197029157380753,-0.432,8.88405,4.0219502
1680017040804,1197029159882907,-0.46605003,8.88195,3.9540002
1680017040808,1197029162385291,-0.36,8.89095,4.0680003
1680017040809,1197029164887522,-0.39600003,8.91495,4.0470004
1680017040812,1197029167389676,-0.36795002,8.85495,3.93495
1680017040815,1197029169892061,-0.35805002,8.781,3.9850502
1680017040818,1197029172394291,-0.39195,8.785951,3.9439502
1680017040819,1197029174896686,-0.39405003,8.7640505,3.9060001
1680017040822,1197029177398840,-0.43995002,8.736,3.9060001
1680017040825,1197029179900994,-0.45105,8.7949505,3.93705
1680017040827,1197029182403224,-0.41595003,8.788051,3.9540002
1680017040830,1197029184905686,-0.372,8.78295,3.9799502
1680017040832,1197029187408095,-0.34800002,8.69505,3.9469502
1680017040836,1197029189910248,-0.40800002,8.781,4.02105
1680017040838,1197029192412402,-0.38895002,8.73795,3.93195
1680017040841,1197029194914638,-0.34095,8.757,4.0740004
1680017040842,1197029197417023,-0.507,8.74995,3.9589503
1680017040844,1197029199919177,-0.49695003,8.745001,4.0470004
1680017040847,1197029202421638,-0.53295004,8.797951,4.011
1680017040849,1197029204923792,-0.44400004,8.6970005,3.9709501
1680017040854,1197029207426003,-0.483,8.74995,4.059
1680017040855,1197029209928157,-0.53805,8.74995,4.0680003
1680017040858,1197029212430541,-0.46605003,8.7619505,4.0279503
1680017040860,1197029214932695,-0.45405003,8.781,4.086
1680017040862,1197029217435157,-0.54195005,8.842951,4.11705
1680017040866,1197029219937306,-0.45105,8.829,4.0150504
1680017040868,1197029222439537,-0.47805002,8.776051,4.0680003
1680017040870,1197029224941922,-0.43695003,8.917951,4.0080004
1680017040874,1197029227444076,-0.384,8.793,4.1599503
1680017040876,1197029229946306,-0.39405003,8.865001,4.098
1680017040878,1197029232448691,-0.39405003,8.830951,4.16505
1680017040881,1197029234950922,-0.42495003,8.776051,4.05
1680017040882,1197029237453076,-0.423,8.82705,4.11
1680017040884,1197029239955460,-0.39900002,8.805,4.0470004
1680017040887,1197029242457623,-0.41805002,8.81505,4.03305
1680017040892,1197029244959854,-0.423,8.85,4.13595
1680017040895,1197029247462239,-0.43995002,8.89605,4.1070004
1680017040896,1197029249964469,-0.49695003,8.812051,4.143
1680017040898,1197029252466614,-0.42495003,8.841001,4.06395
1680017040900,1197029254968999,-0.46605003,8.85495,4.098
1680017040902,1197029257471153,-0.55200005,8.773951,4.1070004
1680017040905,1197029259973383,-0.47505003,8.7949505,4.131
1680017040908,1197029262475845,-0.50895,8.88195,4.0609503
1680017040911,1197029264977984,-0.507,8.865001,4.01805
1680017040913,1197029267480138,-0.504,8.929951,4.1119504
1680017040914,1197029269982522,-0.44700003,8.86695,4.05405
1680017040918,1197029272484753,-0.53505003,8.89605,4.086
1680017040920,1197029274986907,-0.49005002,8.818951,4.083
1680017040922,1197029277489278,-0.42795002,8.920051,4.11
1680017040925,1197029279991508,-0.43695003,8.917951,4.1119504
1680017040927,1197029282493893,-0.48000002,8.83905,4.12395
1680017040929,1197029284996047,-0.33705002,8.874001,4.1449504
1680017040932,1197029287498278,-0.30105,8.986951,4.1329503
1680017040935,1197029290000416,-0.31005,8.941051,4.18095
1680017040938,1197029292502878,-0.30495003,9.03495,4.1140504
1680017040941,1197029295005032,-0.291,8.949,4.1530504
1680017040942,1197029297507406,-0.21900001,8.982,4.11
1680017040945,1197029300009560,-0.27405003,8.937,4.22895
1680017040949,1197029302511791,-0.32895002,8.901,4.1670003
1680017040951,1197029305014176,-0.23400001,8.92695,4.16505
1680017040952,1197029307516406,-0.25500003,8.986951,4.16505
1680017040954,1197029310018560,-0.29805002,8.89605,4.22895
1680017040957,1197029312520945,-0.18300001,8.89395,4.18905
1680017040959,1197029315023176,-0.21405001,8.938951,4.14795
1680017040962,1197029317525330,-0.29595003,8.925,4.0339503
1680017040964,1197029320027743,-0.34605002,8.901,4.011
1680017040967,1197029322529974,-0.33405003,8.818951,4.038
1680017040970,1197029325032359,-0.291,8.83605,4.0080004
1680017040972,1197029327534512,-0.32895002,8.7949505,4.0150504
1680017040975,1197029330036743,-0.32700002,8.797951,4.083
1680017040978,1197029332538897,-0.303,8.812051,4.01805
1680017040979,1197029335041359,-0.29805002,8.769,4.0740004
1680017040982,1197029337543512,-0.35595003,8.788051,3.9919503
1680017040986,1197029340045902,-0.26505002,8.830951,4.0009503
1680017040989,1197029342548133,-0.27405003,8.83395,4.0080004
1680017040991,1197029345050287,-0.34095,8.72595,4.011
1680017040993,1197029347552441,-0.40800002,8.74995,3.9829502
1680017040995,1197029350054902,-0.32895002,8.84595,3.9630003
1680017040998,1197029352557262,-0.32895002,8.755051,4.083
1680017040999,1197029355059416,-0.41595003,8.77095,3.9780002
1680017041001,1197029357561646,-0.372,8.733001,3.9709501
1680017041004,1197029360063800,-0.37995002,8.75895,3.9610503
1680017041008,1197029362566185,-0.35595003,8.85,3.9919503
1680017041010,1197029365068416,-0.36795002,8.776051,3.9439502
1680017041012,1197029367570800,-0.372,8.757,4.0009503
1680017041015,1197029370072954,-0.43995002,8.79105,3.9540002
1680017041019,1197029372575180,-0.39405003,8.78295,3.9510002
1680017041020,1197029375077334,-0.30105,8.74005,4.05405
1680017041025,1197029377579718,-0.33900002,8.86005,4.0680003
1680017041027,1197029380081949,-0.47295,8.86995,4.05
1680017041029,1197029382584382,-0.432,8.785951,4.0680003
1680017041030,1197029385086536,-0.40395,8.88195,4.0080004
1680017041032,1197029387588766,-0.42495003,8.86005,4.04505
1680017041034,1197029390091151,-0.507,8.85495,3.9799502
1680017041037,1197029392593305,-0.41595003,8.946,4.06395
1680017041040,1197029395095536,-0.47100002,8.865001,4.05195
1680017041042,1197029397597920,-0.40095,8.874001,4.07805
1680017041044,1197029400100151,-0.372,8.874001,4.1140504
1680017041047,1197029402602536,-0.423,9.021001,4.0680003
1680017041049,1197029405104689,-0.39405003,8.98005,4.07595
1680017041052,1197029407606857,-0.37005,8.989051,4.16895
1680017041055,1197029410109088,-0.39900002,9.02295,4.2319503
1680017041058,1197029412611550,-0.34605002,8.910001,4.01805
1680017041061,1197029415113718,-0.39600003,8.994,4.07595
1680017041063,1197029417616103,-0.37005,9.01305,4.2120004
1680017041067,1197029420118257,-0.44400004,9.078,4.15695
1680017041069,1197029422620411,-0.45600003,9.06795,3.9970503
1680017041070,1197029425122642,-0.44400004,9.018001,4.191
1680017041071,1197029427625107,-0.46800002,9.030001,4.10505
1680017041075,1197029430127261,-0.34095,9.094951,4.1719503
1680017041077,1197029432629646,-0.25695002,9.115951,4.08705
1680017041079,1197029435131799,-0.36795002,9.121051,4.0279503
1680017041082,1197029437634050,-0.432,9.097051,4.10505
1680017041085,1197029440136435,-0.34095,9.13095,3.9949503
1680017041087,1197029442638589,-0.423,9.106951,4.02105
1680017041091,1197029445140819,-0.42495003,9.15495,3.9900002
1680017041092,1197029447643218,-0.36795002,9.19305,4.0300503
1680017041095,1197029450145449,-0.43995002,9.162001,4.0279503
1680017041099,1197029452647603,-0.39405003,9.078,3.97305
1680017041101,1197029455149987,-0.351,9.198001,4.059
1680017041103,1197029457652160,-0.432,9.16395,3.9079502
1680017041105,1197029460154622,-0.492,9.127951,4.0470004
1680017041108,1197029462656776,-0.42795002,9.150001,3.9870002
1680017041110,1197029465159006,-0.38700002,9.186001,4.071
1680017041112,1197029467661391,-0.507,9.2029505,3.97305
1680017041114,1197029470163531,-0.47505003,9.222,3.96795
1680017041118,1197029472665685,-0.48705003,9.18105,4.0399504
1680017041120,1197029475168146,-0.56895,9.078,3.9589503
1680017041122,1197029477670377,-0.483,9.16395,4.06395
1680017041124,1197029480172540,-0.47100002,9.09,3.999
1680017041127,1197029482674924,-0.59295005,9.06105,3.96795
1680017041130,1197029485177078,-0.657,9.150001,4.08705
1680017041132,1197029487679309,-0.49905002,9.1380005,4.02105
1680017041137,1197029490181680,-0.55695003,9.139951,3.9709501
1680017041141,1197029495183911,-0.65295005,9.064051,3.9300003
1680017041143,1197029495366987,-0.60705,9.09,3.9850502
1680017041144,1197029497688449,-0.57105005,8.982,4.05405
1680017041145,1197029500190603,-0.61200005,8.961,3.93195
1680017041148,1197029502692834,-0.57105005,9.118951,4.1599503
1680017041150,1197029505195218,-0.49500003,9.0709505,4.12095
1680017041152,1197029507697449,-0.59505004,9.021001,3.999
1680017041154,1197029510199603,-0.49905002,9.02805,4.05705
1680017041157,1197029512701987,-0.564,9.04395,4.05705
1680017041159,1197029515204203,-0.52305,8.917951,4.0470004
1680017041162,1197029517706357,-0.53295004,9.097051,4.19805
1680017041164,1197029520208742,-0.588,9.076051,4.09305
1680017041167,1197029522710973,-0.528,9.109051,4.0339503
1680017041169,1197029525213377,-0.624,9.02805,3.89895
1680017041173,1197029527715608,-0.61905,9.082951,4.0410004
1680017041177,1197029530217762,-0.504,9.052051,4.0410004
1680017041179,1197029532719916,-0.63105005,9.042001,4.02105
1680017041180,1197029535222301,-0.633,9.052051,4.0300503
1680017041182,1197029537724532,-0.64305,8.997001,3.97305
1680017041185,1197029540226917,-0.57405,8.989051,3.9750001
1680017041188,1197029542729147,-0.56205004,8.956051,4.07595
1680017041190,1197029545231301,-0.684,8.913,4.05
1680017041192,1197029547733450,-0.55395,9.009001,4.059
1680017041195,1197029550235835,-0.46095002,9.02505,3.9469502
1680017041198,1197029552738296,-0.47295,9.0709505,3.9970503
1680017041200,1197029555240527,-0.46095002,9.03195,4.0300503
1680017041204,1197029557742652,-0.40800002,8.997001,4.0150504
1680017041206,1197029560244806,-0.45105,8.986951,3.85995
1680017041207,1197029562747190,-0.38205,9.076051,3.9970503
1680017041212,1197029565249411,-0.279,9.00405,3.9799502
1680017041213,1197029567751796,-0.31305,9.02505,4.0150504
1680017041216,1197029570254027,-0.28905,8.946,3.9540002
1680017041218,1197029572756180,-0.36795002,9.00405,4.05195
1680017041220,1197029575258565,-0.35805002,9.009001,4.1070004
1680017041222,1197029577760715,-0.37995002,8.934,3.9709501
1680017041224,1197029580262946,-0.372,8.97,4.13805
1680017041227,1197029582765099,-0.32505003,8.89395,4.0009503
1680017041230,1197029585267561,-0.24795002,8.929951,3.93705
1680017041232,1197029587769676,-0.29805002,8.89095,3.9490502
1680017041235,1197029590272061,-0.36495003,8.89605,4.09005
1680017041237,1197029592774291,-0.34800002,8.806951,4.131
1680017041239,1197029595276445,-0.32895002,8.953051,3.9610503
1680017041242,1197029597778599,-0.279,8.905951,3.999
1680017041245,1197029600281061,-0.24300002,8.91495,3.9420002
1680017041249,1197029602783445,-0.231,8.917951,3.93495
1680017041251,1197029605285599,-0.08505,8.986951,3.97305
1680017041253,1197029607787845,-0.13995,8.97,3.8800502
1680017041256,1197029610289999,-0.135,8.973001,3.90105
1680017041259,1197029612792383,-0.16605,8.877001,3.9949503
1680017041260,1197029615294614,-0.23400001,8.82405,3.9589503
1680017041262,1197029617796999,-0.24795002,8.913,4.0069504
1680017041265,1197029620299148,-0.26205,8.937,3.9919503
1680017041268,1197029622801378,-0.15405001,8.898001,3.9750001
1680017041270,1197029625303532,-0.22200002,8.920051,4.0339503
1680017041272,1197029627805917,-0.25500003,8.81505,3.8839502
1680017041277,1197029630308378,-0.24300002,8.958,3.9829502
1680017041278,1197029632810532,-0.231,8.92695,3.9709501
1680017041280,1197029635312686,-0.22605,8.944051,4.0150504
1680017041282,1197029637814917,-0.18795002,8.961,3.9510002
1680017041288,1197029640317286,-0.231,8.929951,3.9829502
1680017041290,1197029642819440,-0.28605002,8.91495,4.0069504
1680017041292,1197029645321671,-0.26505002,8.98005,3.9589503
1680017041293,1197029647824056,-0.22395001,8.986951,3.9799502
1680017041297,1197029650326286,-0.26700002,8.913,3.86295
1680017041299,1197029652828411,-0.11595,9.121051,3.9109502
1680017041300,1197029655330796,-0.22605,9.06105,3.9420002
1680017041303,1197029657832950,-0.18105,9.042001,3.9270003
1680017041306,1197029660335181,-0.246,8.874001,4.05
1680017041308,1197029662837565,-0.16905001,8.92695,4.0300503
1680017041310,1197029665339797,-0.16605,9.030001,3.9780002
1680017041312,1197029667842182,-0.23400001,8.99205,3.9970503
1680017041315,1197029670344335,-0.16605,8.986951,4.038
1680017041319,1197029672846489,-0.24105,8.958,3.9630003
1680017041322,1197029675348724,-0.18105,8.944051,4.0410004
1680017041325,1197029677851186,-0.21195,9.030001,4.0680003
1680017041327,1197029680353339,-0.10695001,8.973001,4.0300503
1680017041328,1197029682855724,-0.19305001,8.98005,4.05705
1680017041330,1197029685357878,-0.22200002,8.985001,4.0140004
1680017041332,1197029687860138,-0.21405001,9.01305,4.011
1680017041336,1197029690362522,-0.25005,8.922001,4.083
1680017041339,1197029692864753,-0.23595001,8.953051,3.999
1680017041342,1197029695367138,-0.31500003,9.00105,4.11705
1680017041343,1197029697869282,-0.351,8.767051,3.9829502
1680017041346,1197029700371435,-0.291,8.901,3.9559503
1680017041348,1197029702873666,-0.33405003,8.82405,3.798
1680017041352,1197029705376032,-0.147,8.97,3.8700001
1680017041353,1197029707878263,-0.17595,8.944051,4.06605
1680017041356,1197029710380647,-0.29595003,8.934,3.9439502
1680017041358,1197029712882801,-0.231,8.917951,3.93495
1680017041362,1197029715384921,-0.10695001,8.92695,4.0680003
1680017041363,1197029717887382,-0.20505,9.02505,4.0470004
1680017041366,1197029720389536,-0.07305,9.052051,4.0080004
1680017041368,1197029722891767,0.0010500001,9.02505,4.0009503
1680017041370,1197029725394152,-0.19800001,9.064051,4.0069504
1680017041372,1197029727896292,-0.12105001,9.1039505,3.8560503
1680017041376,1197029730398445,-0.20505,9.0709505,3.9589503
1680017041379,1197029732900676,-0.13305001,9.052051,4.0150504
1680017041380,1197029735403138,-0.15405001,9.082951,3.9229503
1680017041382,1197029737905292,-0.27705002,9.076051,3.9850502
1680017041385,1197029740407686,-0.22200002,9.07995,3.93495
1680017041388,1197029742909840,-0.31305,9.078,3.8940003
1680017041390,1197029745412071,-0.147,9.02505,3.9250503
1680017041392,1197029747914455,-0.11595,9.088051,3.999
1680017041395,1197029750416681,-0.11100001,9.05895,3.93495
1680017041399,1197029752918835,-0.066,8.99895,3.9109502
1680017041401,1197029755421220,-0.00405,9.121051,3.9919503
1680017041403,1197029757923374,-0.03705,9.0709505,3.9970503
1680017041406,1197029760425642,-0.006,9.114,4.026
1680017041408,1197029762928027,-0.094950005,9.13095,3.96795
1680017041410,1197029765430258,-0.094950005,9.15705,4.05195
1680017041416,1197029767932412,-0.00405,9.05895,4.12605
1680017041416,1197029770434791,-0.15705001,9.1039505,4.0939503
1680017041418,1197029772937022,-0.11100001,9.0060005,3.9870002
1680017041420,1197029775439176,-0.09,9.06795,4.09005
1680017041422,1197029777941560,-0.123,9.01305,4.06605
1680017041426,1197029780443791,-0.171,9.0730505,4.13595
1680017041428,1197029782946162,-0.102000006,9.088051,4.13595
1680017041430,1197029785448393,-0.09,9.05595,3.9919503
1680017041432,1197029787950546,-0.14505,9.052051,4.059
1680017041437,1197029790452685,-0.063,8.98005,4.05405
1680017041439,1197029792955070,-0.102000006,8.961,4.06605
1680017041441,1197029795457531,-0.123,8.98005,4.1530504
1680017041443,1197029797959685,-0.066,9.11205,4.098
1680017041445,1197029800461916,-0.11595,8.920051,3.9630003
1680017041448,1197029802964056,-0.13095,8.88405,4.0080004
1680017041450,1197029805466210,-0.13800001,8.88405,3.9780002
1680017041452,1197029807968594,-0.18105,8.932051,4.0740004
1680017041456,1197029810470825,-0.21705002,8.901,4.0300503
1680017041458,1197029812973297,-0.23805001,8.84805,4.0740004
1680017041460,1197029815475451,-0.25500003,8.7619505,4.0300503
1680017041462,1197029817977604,-0.19500001,8.90295,4.0300503
1680017041466,1197029820479989,-0.24795002,8.773951,3.86295
1680017041468,1197029822982220,-0.25005,8.74995,4.0080004
1680017041470,1197029825484369,-0.23400001,8.769,4.0399504
1680017041475,1197029827986830,-0.20505,8.677951,3.96795
1680017041476,1197029830488984,-0.22395001,8.82405,3.9439502
1680017041478,1197029832991369,-0.25005,8.72595,3.8800502
1680017041480,1197029835493508,-0.25500003,8.6970005,3.9630003
1680017041482,1197029837995738,-0.24300002,8.6970005,3.8719501
1680017041486,1197029840497892,-0.231,8.712001,3.83205
1680017041488,1197029843000354,-0.18300001,8.72805,3.9420002
1680017041491,1197029845502508,-0.018000001,8.7310505,3.90105
1680017041492,1197029848004863,-0.066,8.68305,3.9780002
1680017041497,1197029850507094,-0.07095,8.628,3.8869503
1680017041498,1197029853009248,-0.15900001,8.601001,3.86505
1680017041500,1197029855511632,-0.21195,8.5990505,3.90105
1680017041502,1197029858013858,-0.25500003,8.613001,3.8100002
1680017041506,1197029860516243,-0.126,8.60595,3.8410501
1680017041508,1197029863018397,-0.16395001,8.653951,3.8460002
1680017041511,1197029865520637,-0.23400001,8.620951,3.8869503
1680017041513,1197029868022791,-0.162,8.57505,3.8130002
1680017041516,1197029870525176,-0.23400001,8.608951,3.90105
1680017041520,1197029873027407,-0.126,8.613001,3.83205
1680017041522,1197029875529791,-0.07305,8.632951,3.93705
1680017041525,1197029878032022,-0.078,8.69205,3.9109502
1680017041527,1197029880534176,-0.078,8.589001,3.8719501
1680017041528,1197029883036330,0.022950001,8.733001,3.8749502
1680017041530,1197029885538714,-0.06105,8.788051,3.82695
1680017041533,1197029888040988,-0.063,8.712001,3.7219503
1680017041536,1197029890543373,0.0010500001,8.73795,3.8080502
1680017041538,1197029893045527,-0.078,8.673,3.7789502
1680017041540,1197029895547757,-0.19305001,8.7619505,3.7480502
1680017041542,1197029898050142,-0.23805001,8.656051,3.82905
1680017041546,1197029900552402,-0.16395001,8.77095,3.8890502
1680017041549,1197029903054556,-0.13800001,8.74995,3.7500002
1680017041551,1197029905556940,-0.05595,8.755051,3.9109502
1680017041553,1197029908059171,-0.028050002,8.800051,3.7840502
1680017041555,1197029910561561,-0.054,8.700001,3.7240503
1680017041559,1197029913063715,-0.11595,8.769,3.8460002
1680017041560,1197029915565945,-0.079950005,8.755051,3.9180002
1680017041562,1197029918068099,-0.03705,8.82405,3.9970503
1680017041566,1197029920570489,-0.102000006,8.785951,3.9919503
1680017041568,1197029923072720,0.025050001,8.70405,3.8839502
1680017041570,1197029925575104,-0.075,8.7310505,3.9469502
1680017041573,1197029928077335,-0.08505,8.86005,3.8839502
1680017041576,1197029930579489,-0.094950005,8.82195,3.8080502
1680017041578,1197029933081657,-0.15900001,8.818951,3.762
1680017041580,1197029935584118,0.006,8.89095,3.7720501
1680017041582,1197029938086503,0.025050001,8.91495,3.7909503
1680017041588,1197029940588648,-0.102000006,8.905951,3.8940003
1680017041590,1197029943090802,-0.01995,8.941051,3.7380002
1680017041591,1197029945593032,-0.022950001,9.04695,3.8580003
1680017041594,1197029948095417,-0.030000001,9.00405,3.7360501
1680017041596,1197029950597571,0.010950001,9.01305,3.7860003
1680017041598,1197029953100031,-0.094950005,9.06105,3.7530003
1680017041602,1197029955602185,-0.06105,9.04395,3.8580003
1680017041603,1197029958104416,-0.21405001,9.042001,3.9829502
1680017041608,1197029960606570,-0.20205002,9.04905,3.8100002
1680017041610,1197029963108974,-0.15405001,9.10005,3.966
1680017041611,1197029965611205,-0.09900001,9.082951,3.966
1680017041613,1197029968113590,-0.087000005,9.17595,3.93705
1680017041616,1197029970615744,-0.07095,9.05895,4.0080004
1680017041618,1197029973117975,-0.102000006,9.126,4.03305
1680017041620,1197029975620383,-0.17400001,9.085051,4.08705
1680017041624,1197029978122537,-0.066,9.150001,4.1599503
1680017041627,1197029980624691,-0.00795,9.17595,4.11
1680017041628,1197029983127166,-0.01305,9.139951,4.0609503
1680017041630,1197029985629397,-0.066,9.14295,4.0800004
1680017041632,1197029988131551,-0.094950005,9.16395,4.16505
1680017041636,1197029990633936,-0.23805001,9.04905,4.01805
1680017041638,1197029993136089,-0.16395001,9.0709505,4.1790004
1680017041641,1197029995638339,-0.147,9.094951,4.18905
1680017041643,1197029998140724,0.042000003,8.932051,4.19595
1680017041646,1197030000642955,0.07095,9.05895,4.1070004
1680017041647,1197030003145339,-0.010950001,9.02805,4.27995
1680017041650,1197030005647498,-0.00795,8.950951,4.2120004
1680017041653,1197030008149652,-0.03705,8.958,4.12605
1680017041656,1197030010651883,0.028050002,8.85495,4.13805
1680017041658,1197030013154344,-0.028050002,9.021001,4.11705
1680017041663,1197030015656498,0.018000001,8.997001,4.05
1680017041664,1197030018158883,0.040050004,8.889001,4.06605
1680017041666,1197030020661037,0.030000001,8.910001,4.059
1680017041668,1197030023163267,0.016050002,8.91495,4.01805
1680017041670,1197030025665421,0.006,8.956051,4.0339503
1680017041672,1197030028167792,0.030000001,8.841001,3.966
1680017041677,1197030030670023,0.030000001,8.88405,3.9630003
1680017041678,1197030033172407,0.03705,8.886001,3.9709501
1680017041680,1197030035674561,0.022950001,8.85495,3.8800502
1680017041683,1197030038176782,-0.022950001,8.898001,4.0219502
1680017041686,1197030040679167,-0.066,8.85795,3.9199502
1680017041689,1197030043181320,-0.05595,8.87895,3.9079502
1680017041691,1197030045683551,-0.042000003,8.89605,3.90405
1680017041693,1197030048185931,-0.09900001,8.865001,3.89595
1680017041696,1197030050688162,-0.13095,8.89395,3.9559503
1680017041699,1197030053190315,0.025050001,8.920051,3.93705
1680017041701,1197030055692700,0.05595,8.934,3.89895
1680017041703,1197030058194854,0.10395,8.85,3.8580003
1680017041708,1197030060697305,0.126,8.929951,3.9199502
1680017041708,1197030063199536,0.00795,8.853001,3.86805
1680017041711,1197030065701690,0.126,8.818951,3.89895
1680017041713,1197030068204075,-0.03705,8.818951,3.8479502
1680017041716,1197030070706229,-0.075,8.805,3.8479502
1680017041718,1197030073208459,0.04695,8.82705,3.7740002
1680017041720,1197030075710844,-0.01995,8.74005,3.798
1680017041723,1197030078213075,0.03195,8.74695,3.7429502
1680017041726,1197030080715224,0.030000001,8.72595,3.7740002
1680017041728,1197030083217377,0.006,8.65905,3.9160502
1680017041730,1197030085719762,0.14505,8.71395,3.8560503
1680017041733,1197030088221993,0.16905001,8.70705,3.8149502
1680017041738,1197030090724450,0.109050006,8.74695,3.7789502
1680017041739,1197030093226604,0.079950005,8.74695,3.7050002
1680017041742,1197030095728758,0.10695001,8.785951,3.7500002
1680017041743,1197030098231143,0.094950005,8.6970005,3.6859503
1680017041746,1197030100733373,0.087000005,8.637,3.6349502
1680017041748,1197030103235498,0.01305,8.635051,3.69495
1680017041750,1197030105737883,0.06105,8.7310505,3.7720501
1680017041752,1197030108240114,0.01305,8.69205,3.7930503
1680017041756,1197030110742498,0.0010500001,8.623051,3.6780002
1680017041758,1197030113244661,-0.09,8.661,3.8050501
1680017041760,1197030115746892,-0.17400001,8.604,3.7720501
1680017041763,1197030118249046,-0.08295,8.6970005,3.7240503
1680017041766,1197030120751430,-0.147,8.568001,3.726
1680017041768,1197030123253661,-0.20505,8.57505,3.6780002
1680017041770,1197030125756032,-0.147,8.508,3.6070502
1680017041775,1197030128258263,-0.27705002,8.57295,3.7410002
1680017041778,1197030130760416,-0.34395,8.611051,3.7410002
1680017041779,1197030133437565,-0.21705002,8.65905,3.7020001
1680017041781,1197030135764950,-0.34800002,8.680051,3.7500002
1680017041783,1197030138267411,-0.33405003,8.769,3.8220003
1680017041787,1197030140769565,-0.51405,8.56995,3.8130002
1680017041788,1197030143271772,-0.40395,8.616,3.8170502
1680017041791,1197030145773926,-0.31995,8.74005,3.8050501
1680017041793,1197030148276311,-0.32700002,8.74695,3.9949503
1680017041796,1197030150778541,-0.44205,8.800051,3.7480502
1680017041797,1197030153280926,-0.39600003,8.829,3.8130002
1680017041800,1197030155783080,-0.48495004,8.805,3.7890003
1680017041802,1197030158285311,-0.59505004,8.656051,3.6979501
1680017041806,1197030160787464,-0.46800002,8.83905,3.8410501
1680017041808,1197030163289926,-0.43500003,8.910001,3.8389502
1680017041811,1197030165792061,-0.52605003,8.908051,3.7890003
1680017041816,1197030168294445,-0.50100005,8.89605,3.79605
1680017041817,1197030170796599,-0.564,8.898001,3.7429502
1680017041819,1197030173298830,-0.51000005,8.91495,3.9300003
1680017041821,1197030175800984,-0.51000005,8.962951,3.7570503
1680017041823,1197030178303388,-0.46605003,8.961,3.7500002
1680017041826,1197030180805849,-0.61005,9.042001,3.7909503
1680017041828,1197030183308003,-0.42000002,9.088051,3.8530502
1680017041830,1197030185810157,-0.36495003,9.06795,3.90405
1680017041832,1197030188312402,-0.44205,9.076051,3.8800502
1680017041836,1197030190814786,-0.54705,9.097051,3.82905
1680017041838,1197030193316940,-0.51900005,9.0060005,3.8389502
1680017041841,1197030195819402,-0.47805002,9.231001,3.9799502
1680017041843,1197030198321546,-0.39405003,9.09195,3.9540002
1680017041846,1197030200823777,-0.47505003,9.20505,4.0009503
1680017041850,1197030203325931,-0.52095,9.16395,4.0219502
1680017041852,1197030205828316,-0.43695003,9.19305,3.8869503
1680017041854,1197030208330541,-0.45900002,9.15495,3.8479502
1680017041857,1197030210832926,-0.30795002,9.183001,3.9919503
1680017041863,1197030213335080,-0.38700002,9.13095,3.9630003
1680017041863,1197030215837311,-0.24105,9.21,3.8719501
1680017041864,1197030218339695,-0.33195,9.147,3.9060001
1680017041866,1197030220841863,-0.27705002,9.246,3.9439502
1680017041868,1197030223344017,-0.291,9.207001,3.9919503
1680017041870,1197030225846479,-0.19995001,9.21,4.0740004
1680017041873,1197030228348709,-0.19500001,9.28905,4.09305
1680017041876,1197030230851080,-0.20205002,9.219001,3.966
1680017041878,1197030233353234,-0.246,9.34095,3.999
1680017041880,1197030235855388,-0.25695002,9.1710005,4.0219502
1680017041883,1197030238357618,-0.16605,9.22605,3.9420002
1680017041888,1197030240859998,-0.16605,9.15705,4.12095
1680017041890,1197030243362229,-0.028050002,9.198001,4.07595
1680017041891,1197030245864613,-0.09195001,9.22395,4.0300503
1680017041894,1197030248366767,-0.049050003,9.19095,4.071
1680017041897,1197030250868921,-0.09,9.2029505,4.0279503
1680017041899,1197030253371142,0.006,9.1710005,3.9780002
1680017041900,1197030255873527,-0.018000001,9.19995,4.06605
1680017041903,1197030258375757,-0.010950001,9.1380005,4.0399504
1680017041906,1197030260877911,0.01995,9.106951,4.15005
1680017041908,1197030263380296,-0.09195001,9.147,4.0219502
1680017041910,1197030265882518,-0.07095,9.088051,4.1119504
1680017041913,1197030268384671,-0.06105,9.01605,4.0339503
1680017041917,1197030270887056,-0.15405001,9.0060005,4.0740004
1680017041919,1197030273389287,-0.17400001,8.938951,4.011
1680017041922,1197030275891690,-0.18105,8.982,4.0470004
1680017041925,1197030278393921,-0.19305001,8.913,4.0470004
1680017041928,1197030280896075,-0.14295001,8.982,4.06605
1680017041930,1197030283557844,-0.01995,9.042001,4.038
1680017041931,1197030285900614,-0.03705,8.946,4.098
1680017041934,1197030288402849,-0.006,8.986951,4.04505
1680017041937,1197030290905234,-0.14505,8.950951,3.8719501
1680017041939,1197030293407465,-0.06795,8.83905,3.9199502
1680017041941,1197030295909619,-0.030000001,8.917951,3.999
1680017041943,1197030298412017,-0.12795001,8.874001,3.8130002
1680017041946,1197030300914171,-0.14295001,8.812051,3.9270003
1680017041948,1197030303416633,-0.18300001,8.89605,3.89595
1680017041951,1197030305918863,-0.094950005,8.865001,3.8440502
1680017041953,1197030308421022,-0.24795002,8.805,3.7189503
1680017041956,1197030310923176,-0.21195,8.88405,3.8509502
1680017041958,1197030313425561,-0.26205,8.7949505,3.8869503
1680017041962,1197030315927791,-0.25995,8.82405,3.7450502
1680017041964,1197030318430190,-0.23805001,8.700001,3.8220003
1680017041966,1197030320932421,-0.32505003,8.87895,3.7810502
1680017041968,1197030323434575,-0.30795002,8.74695,3.69495
1680017041970,1197030325936959,-0.291,8.818951,3.7429502
1680017041974,1197030328439113,-0.33705002,8.853001,3.69495
1680017041976,1197030330941335,-0.25005,8.913,3.6330001
1680017041978,1197030333443489,-0.24795002,8.89395,3.6709502
1680017041980,1197030335945950,-0.25500003,8.853001,3.6739502
1680017041983,1197030338448104,-0.26205,8.889001,3.7050002
1680017041987,1197030340950508,-0.21900001,8.92695,3.66405
1680017041989,1197030343452739,-0.43695003,8.83905,3.7020001
1680017041991,1197030345954892,-0.291,8.83905,3.7500002
1680017041993,1197030348457046,-0.246,8.88195,3.7429502
1680017041996,1197030350959498,-0.33405003,8.785951,3.7720501
1680017042000,1197030353461882,-0.25695002,8.877001,3.6540003
1680017042001,1197030355964036,-0.27195,8.910001,3.7429502
1680017042003,1197030358466190,-0.24795002,8.86695,3.7720501
1680017042006,1197030360968421,-0.20700002,8.82705,3.8200502
1680017042008,1197030363470816,-0.28905,8.85495,3.8530502
1680017042010,1197030365973046,-0.25005,8.83605,3.7720501
1680017042014,1197030368475431,-0.25995,8.82195,3.9589503
1680017042016,1197030370977585,-0.30795002,8.82405,3.9079502
1680017042018,1197030373479830,-0.33705002,8.87205,3.9130502
1680017042020,1197030375981983,-0.24795002,8.805,4.0680003
1680017042023,1197030378484368,-0.26895002,8.830951,4.05195
1680017042026,1197030380986830,-0.14505,8.830951,4.0069504
1680017042028,1197030383488993,-0.14295001,8.830951,4.086
1680017042030,1197030385991147,-0.102000006,8.853001,4.19805
1680017042033,1197030388493378,-0.043950003,8.800051,4.131
1680017042038,1197030390995763,-0.00405,8.84595,4.1839504
1680017042045,1197030393497912,-0.00795,8.83905,4.0939503
1680017042045,1197030396000142,-0.016050002,8.830951,4.227
1680017042045,1197030398502527,0.040050004,8.78295,4.2340503
1680017042046,1197030401004758,0.028050002,8.818951,4.27995
1680017042048,1197030403506893,0.03705,8.85495,4.119
1680017042050,1197030406009277,0.040050004,8.817,4.11705
1680017042054,1197030408511431,0.09195001,8.88195,4.07595
1680017042056,1197030411013662,0.09705,8.83395,4.22205
1680017042058,1197030413516065,0.0010500001,8.89395,4.026
1680017042060,1197030416018296,0.042000003,8.913,4.17705
1680017042063,1197030418520681,0.049050003,8.89095,4.07595
1680017042066,1197030421022835,0.15195,8.88405,4.083
1680017042068,1197030423524989,0.135,8.862,3.999
1680017042070,1197030426027233,0.01305,8.806951,4.0740004
1680017042075,1197030428529695,-0.030000001,8.85795,4.0279503
1680017042077,1197030431031849,0.010950001,8.886001,3.9850502
1680017042079,1197030433534258,0.09195001,8.98005,4.07805
1680017042080,1197030436036412,0.06795,8.92695,4.05705
1680017042083,1197030438538643,0.049050003,8.92695,3.966
1680017042086,1197030441041028,0.09705,9.0060005,3.9829502
1680017042088,1197030443543258,0.094950005,8.977051,3.89895
1680017042092,1197030446045407,0.11100001,9.01605,4.0300503
1680017042094,1197030448547792,0.09195001,9.030001,3.9709501
1680017042096,1197030451049946,0.01995,8.985001,4.03305
1680017042098,1197030453552176,0.07305,9.05895,3.89895
1680017042100,1197030456054561,0.06105,9.09195,3.8359501
1680017042103,1197030458556772,-0.028050002,9.06795,3.8410501
1680017042106,1197030461058926,0.19005,9.16395,3.8560503
1680017042108,1197030463561310,0.09,9.214951,3.9229503
1680017042112,1197030466063527,0.025050001,9.18795,3.8820002
1680017042113,1197030468565681,-0.034950003,9.214951,3.7600503
1680017042116,1197030471068066,0.04695,9.30795,3.765
1680017042119,1197030473570219,0.09,9.13095,3.7549503
1680017042121,1197030476072681,0.030000001,9.22395,3.8130002
1680017042122,1197030478574912,0.12105001,9.253051,3.7789502
1680017042126,1197030481077066,0.10395,9.303,3.834
1680017042128,1197030483579219,0.054,9.283951,3.8389502
1680017042130,1197030486081604,0.07305,9.262051,3.762
1680017042133,1197030488583830,0.030000001,9.217051,3.8940003
1680017042136,1197030491086215,-0.12105001,9.14505,3.693
1680017042138,1197030493588445,-0.13095,9.14505,3.8389502
1680017042140,1197030496090599,-0.18105,9.126,3.7890003
1680017042143,1197030498592753,-0.11595,9.064051,3.7770002
1680017042146,1197030501095133,-0.21900001,9.09195,3.801
1680017042149,1197030503597363,-0.17595,9.07995,3.90405
1680017042151,1197030506099748,-0.17805001,9.13095,3.83205
1680017042153,1197030508601979,-0.26895002,9.03495,3.8890502
1680017042156,1197030511104133,-0.25995,9.05595,3.8029501
1680017042158,1197030513606517,-0.23400001,9.01305,3.834
1680017042160,1197030516108748,-0.147,9.076051,3.8839502
1680017042163,1197030518610902,-0.27405003,9.00405,3.8440502
1680017042166,1197030521113286,-0.29805002,9.02505,3.9750001
1680017042168,1197030523615503,-0.279,8.956051,3.9540002
1680017042170,1197030526117888,-0.21195,8.99895,3.9780002
1680017042174,1197030528620042,-0.31695002,8.994,4.0399504
1680017042176,1197030531122273,-0.35295,8.974951,3.89895
1680017042179,1197030533624426,-0.31500003,8.961,3.9229503
1680017042181,1197030536126888,-0.35595003,8.938951,3.8920503
1680017042183,1197030538629042,-0.231,8.965051,3.8890502
1680017042189,1197030541131406,-0.33405003,8.913,3.89595
1680017042192,1197030543633560,-0.32205,8.925,3.8220003
1680017042193,1197030546135791,-0.33195,8.89095,3.8220003
1680017042194,1197030548637945,-0.33900002,8.917951,3.9160502
1680017042197,1197030551140329,-0.32700002,8.86005,3.765
1680017042199,1197030553642791,-0.372,8.905951,3.8440502
1680017042200,1197030556144936,-0.37500003,8.974951,3.8479502
1680017042203,1197030558647090,-0.351,8.917951,3.7890003
1680017042206,1197030561149321,-0.33900002,9.066,3.90405
1680017042208,1197030563651705,-0.39405003,9.01305,3.86805
1680017042211,1197030566153844,-0.34800002,9.10005,3.86505
1680017042214,1197030568656075,-0.39600003,8.97,3.762
1680017042217,1197030571158459,-0.44700003,8.986951,3.8130002
1680017042218,1197030573660613,-0.411,8.99895,3.73305
1680017042220,1197030576162878,-0.32895002,9.02295,3.7720501
1680017042225,1197030578665263,-0.35595003,9.0060005,3.798
1680017042227,1197030581167493,-0.38205,8.986951,3.69495
1680017042229,1197030583669878,-0.41805002,8.962951,3.6660001
1680017042231,1197030586172018,-0.43005002,8.937,3.7429502
1680017042233,1197030588674172,-0.40095,9.021001,3.7410002
1680017042236,1197030591176403,-0.29595003,8.986951,3.66405
1680017042238,1197030593678864,-0.35805002,8.961,3.6880503
1680017042241,1197030596181018,-0.372,8.910001,3.5970001
1680017042243,1197030598683407,-0.40800002,8.934,3.6499503
1680017042246,1197030601185560,-0.32700002,8.89605,3.73305
1680017042249,1197030603687791,-0.351,8.88405,3.6859503
1680017042251,1197030606189945,-0.31305,9.018001,3.6330001
1680017042254,1197030608692393,-0.43005002,8.953051,3.5040002
1680017042256,1197030611194546,-0.29595003,8.898001,3.52305
1680017042259,1197030613696931,-0.35295,8.934,3.7050002
1680017042262,1197030616199085,-0.33195,8.800051,3.63
1680017042264,1197030618701316,-0.37995002,8.809951,3.6540003
1680017042266,1197030621203700,-0.49695003,8.84595,3.6859503
1680017042268,1197030623705854,-0.41595003,8.818951,3.7600503
1680017042271,1197030626208085,-0.44205,8.83605,3.6859503
1680017042273,1197030628710470,-0.46605003,8.853001,3.6880503
1680017042276,1197030631212705,-0.423,8.84595,3.6829503
1680017042278,1197030633714859,-0.411,8.818951,3.7810502
1680017042281,1197030636217244,-0.38700002,8.77095,3.7020001
1680017042283,1197030638719398,-0.40395,8.77095,3.7810502
1680017042287,1197030641221873,-0.483,8.962951,3.7789502
1680017042288,1197030643724027,-0.47505003,8.922001,3.7890003
1680017042291,1197030646226258,-0.46095002,8.901,3.8530502
1680017042294,1197030648728412,-0.62595004,8.82195,3.7429502
1680017042296,1197030651230791,-1.0500001,8.680051,3.63
1680017042300,1197030653732945,-0.78195006,8.85495,3.7530003
1680017042302,1197030656235407,-0.55695003,8.994,3.86505
1680017042304,1197030658737637,-0.47805002,9.052051,3.93495
1680017042306,1197030661239791,-0.63600004,9.05895,3.8839502
1680017042308,1197030663741945,-0.363,9.21195,3.83205
1680017042310,1197030666244330,-0.32505003,9.214951,3.8940003
1680017042313,1197030668746561,-0.38895002,9.23805,3.82695
1680017042316,1197030671248955,-0.30795002,9.16695,3.9250503
1680017042319,1197030673751186,-0.411,9.265051,3.9060001
1680017042321,1197030676253340,-0.38700002,9.253051,3.7860003
1680017042324,1197030678755724,-0.36495003,9.279,3.9160502
1680017042327,1197030681257878,-0.44895002,9.403951,3.8560503
1680017042328,1197030683760109,-0.39405003,9.253051,3.8220003
1680017042330,1197030686262494,-0.32895002,9.33405,3.9109502
1680017042334,1197030688764724,-0.37500003,9.271951,3.7909503
1680017042338,1197030691266873,-0.42000002,9.31305,3.6780002
1680017042340,1197030693769258,-0.37695003,9.291,3.8050501
1680017042342,1197030696271489,-0.30105,9.298051,3.6660001
1680017042343,1197030698773643,-0.30495003,9.315001,3.7549503
1680017042346,1197030701276027,-0.36495003,9.214951,3.8130002
1680017042348,1197030703778263,-0.33705002,9.20505,3.8149502
1680017042350,1197030706280648,-0.34095,9.183001,3.8050501
1680017042353,1197030708782801,-0.372,9.207001,3.729
1680017042357,1197030711285032,-0.30795002,9.139951,3.7810502
1680017042358,1197030713787186,-0.37005,9.09195,3.693
1680017042361,1197030716289599,-0.37695003,9.127951,3.7720501
1680017042363,1197030718791829,-0.34800002,9.097051,3.8509502
1680017042368,1197030721294214,-0.24795002,9.009001,3.7410002
1680017042369,1197030723796373,-0.28905,9.02295,3.7570503
1680017042371,1197030726298604,-0.38205,9.009001,3.7410002
1680017042376,1197030728800758,-0.29805002,9.01605,3.69495
1680017042378,1197030731303142,-0.32700002,9.01305,3.7099502
1680017042380,1197030733877085,-0.279,9.094951,3.7789502
1680017042382,1197030736307778,-0.21900001,9.04905,3.6829503
1680017042383,1197030738809931,-0.23805001,9.066,3.6859503
1680017042388,1197030741312162,-0.19500001,8.938951,3.6709502
1680017042391,1197030743814532,-0.29295,9.03495,3.7480502
1680017042392,1197030746316763,-0.31005,9.04905,3.7890003
1680017042394,1197030748819147,-0.291,9.018001,3.73305
1680017042397,1197030751321301,-0.35805002,8.949,3.7050002
1680017042398,1197030753823532,-0.22905001,9.088051,3.79605
1680017042401,1197030756325916,-0.372,8.905951,3.7429502
1680017042403,1197030758828070,-0.31005,9.01605,3.798
1680017042406,1197030761330224,-0.291,8.965051,3.6829503
1680017042408,1197030763832686,-0.32700002,9.02505,3.6330001
1680017042412,1197030766334902,-0.27405003,9.1039505,3.7120502
1680017042415,1197030768837056,-0.24300002,9.1039505,3.7480502
1680017042417,1197030771339441,-0.28605002,9.102,3.69495
1680017042419,1197030773841595,-0.20700002,9.13095,3.6450002
1680017042420,1197030776343826,-0.22905001,9.19305,3.6780002
1680017042423,1197030778845959,-0.23595001,9.15495,3.73095
1680017042426,1197030781348421,-0.27705002,9.15495,3.6520503
1680017042428,1197030783850806,-0.25005,9.126,3.657
1680017042431,1197030786352959,-0.19305001,9.12405,3.5989501
1680017042434,1197030788855113,-0.29295,9.183001,3.6109502
1680017042436,1197030791357344,-0.42000002,9.078,3.5160003
1680017042438,1197030793859729,-0.29805002,9.222,3.693
1680017042441,1197030796361959,-0.24795002,9.109051,3.6400502
1680017042443,1197030798864113,-0.28905,9.14505,3.58995
1680017042446,1197030801366498,-0.363,9.106951,3.7480502
1680017042450,1197030803868729,-0.23805001,9.04905,3.7219503
1680017042452,1197030806370883,-0.29295,9.076051,3.7480502
1680017042454,1197030808873282,-0.23400001,9.139951,3.7219503
1680017042457,1197030811375513,-0.20505,8.989051,3.7380002
1680017042459,1197030813877898,-0.24300002,8.925,3.73305
1680017042462,1197030816380051,-0.231,9.00105,3.7360501
1680017042464,1197030818882282,-0.252,8.986951,3.7890003
1680017042467,1197030821384441,-0.28395,8.946,3.7690501
1680017042468,1197030823886826,-0.31500003,8.82405,3.8149502
1680017042471,1197030826389056,-0.41805002,8.908051,3.798
1680017042474,1197030828891441,-0.22200002,8.90295,3.798
1680017042477,1197030831393686,-0.39405003,8.83605,3.8770502
1680017042478,1197030833895840,-0.30105,8.89095,3.8820002
1680017042481,1197030836397994,-0.22905001,8.85795,3.90405
1680017042483,1197030838900378,-0.25005,8.776051,3.9559503
1680017042489,1197030841402633,-0.11100001,8.88195,3.8820002
1680017042491,1197030843905018,-0.21900001,8.83905,3.8869503
1680017042492,1197030846407248,-0.11100001,8.910001,3.9559503
1680017042495,1197030848909402,-0.162,8.862,3.8050501
1680017042498,1197030851411787,-0.12105001,8.84595,4.0150504
1680017042499,1197030853913941,-0.034950003,8.829,3.9300003
1680017042501,1197030856416171,-0.123,8.965051,3.9390001
1680017042503,1197030858918556,-0.126,8.89095,3.8749502
1680017042509,1197030861420806,-0.040050004,8.956051,3.73095
1680017042510,1197030863922960,-0.028050002,9.00105,3.97305
1680017042511,1197030866425344,-0.09195001,8.901,3.8479502
1680017042513,1197030868927575,-0.022950001,8.973001,3.9079502
1680017042517,1197030871429729,-0.022950001,8.917951,3.834
1680017042519,1197030873932200,-0.10695001,9.054001,3.8920503
1680017042522,1197030876434354,-0.135,8.920051,3.85995
1680017042525,1197030878936739,-0.05595,8.920051,3.9799502
1680017042528,1197030881438869,-0.006,9.02295,3.8890502
1680017042530,1197030883941100,0.01995,9.018001,3.89895
1680017042531,1197030886443253,-0.022950001,8.950951,3.9829502
1680017042534,1197030888945715,-0.063,9.0400505,3.9780002
1680017042537,1197030891447869,0.00405,9.01095,3.8749502
1680017042538,1197030893950242,0.054,8.994,3.9709501
1680017042540,1197030896452396,-0.028050002,8.99895,3.96795
1680017042543,1197030898954627,0.11895001,9.01605,3.9469502
1680017042546,1197030901456781,0.16395001,9.078,3.8800502
1680017042548,1197030903959242,0.109050006,9.05895,3.9589503
1680017042551,1197030906461613,0.018000001,9.01305,3.8479502
1680017042553,1197030908963767,0.08295,9.066,3.85995
1680017042556,1197030911465921,0.05595,9.04905,3.7930503
1680017042558,1197030913968152,0.19305001,9.02295,3.8509502
1680017042563,1197030916470545,0.123,9.042001,3.79605
1680017042564,1197030918972776,0.147,9.06795,3.7909503
1680017042567,1197030921475161,0.075,8.941051,3.7909503
1680017042569,1197030923977314,-0.15405001,8.973001,3.7020001
1680017042572,1197030926479545,-0.042000003,8.953051,3.7410002
1680017042574,1197030928981930,0.022950001,8.913,3.7500002
1680017042577,1197030931484084,0.06795,8.932051,3.73095
1680017042579,1197030933986314,-0.00795,8.92695,3.657
1680017042581,1197030936488690,0.054,8.937,3.7189503
1680017042584,1197030938990844,-0.040050004,8.944051,3.5490003
1680017042587,1197030941493075,-0.12105001,8.961,3.5779502
1680017042588,1197030943995459,-0.087000005,8.898001,3.6090002
1680017042592,1197030946497637,-0.13305001,8.889001,3.55905
1680017042594,1197030948999791,-0.13095,8.889001,3.6469502
1680017042596,1197030951502253,-0.29295,8.86995,3.5299501
1680017042600,1197030954004478,-0.28905,8.901,3.492
1680017042602,1197030956506632,-0.372,8.769,3.561
1680017042604,1197030959009017,-0.30795002,8.82195,3.5040002
1680017042607,1197030961511171,-0.40095,8.841001,3.5320501
1680017042609,1197030964013401,-0.291,8.91495,3.51795
1680017042611,1197030966515882,-0.36,8.898001,3.6210003
1680017042615,1197030969018036,-0.372,8.877001,3.4939501
1680017042618,1197030971520420,-0.40605003,8.932051,3.525
1680017042619,1197030974022574,-0.33705002,8.944051,3.5370002
1680017042621,1197030976524781,-0.34095,8.87895,3.5130002
1680017042625,1197030979026935,-0.39900002,8.818951,3.4720502
1680017042627,1197030981529397,-0.411,8.85795,3.4290001
1680017042628,1197030984031550,-0.40800002,8.949,3.55395
1680017042631,1197030986533935,-0.37995002,8.92695,3.5730002
1680017042634,1197030989036089,-0.34605002,8.89395,3.5059502
1680017042640,1197030991538320,-0.30495003,8.88405,3.5629501
1680017042642,1197030994040704,-0.27405003,8.946,3.55905
1680017042643,1197030996542925,-0.27195,8.98005,3.5370002
1680017042644,1197030999045079,-0.363,8.973001,3.4630501
1680017042647,1197031001547233,-0.252,8.956051,3.42
1680017042648,1197031004049617,-0.31005,8.997001,3.55905
1680017042651,1197031006551848,-0.21195,9.121051,3.5389502
1680017042654,1197031009054219,-0.26700002,9.159,3.5370002
1680017042657,1197031011556450,-0.26205,9.064051,3.58995
1680017042659,1197031014058603,-0.19800001,9.07995,3.5830503
1680017042661,1197031016560988,-0.21000001,9.18105,3.4770002
1680017042668,1197031019063219,-0.246,9.05895,3.5470502
1680017042669,1197031021565368,-0.18300001,9.021001,3.5970001
1680017042669,1197031024067829,-0.23595001,9.09195,3.5629501
1680017042671,1197031026569983,-0.231,9.04905,3.55095
1680017042675,1197031029072363,-0.31305,9.05895,3.4390502
1680017042678,1197031031574516,-0.29595003,9.118951,3.5490003
1680017042679,1197031034076747,-0.24795002,9.11205,3.38595
1680017042681,1197031036578901,-0.25995,9.04695,3.5110502
1680017042684,1197031039081363,-0.41295,8.994,3.4030502
1680017042687,1197031041583508,-0.29805002,9.102,3.5299501
1680017042689,1197031044085892,-0.32700002,9.03495,3.5320501
1680017042691,1197031046588046,-0.26505002,9.118951,3.5160003
1680017042694,1197031049090277,-0.26505002,9.127951,3.5350502
1680017042697,1197031051592431,-0.246,9.1039505,3.4800003
1680017042699,1197031054094892,-0.29805002,9.052051,3.5010002
1680017042701,1197031056597277,-0.32700002,9.076051,3.489
1680017042704,1197031059099431,-0.31695002,9.17895,3.35295
1680017042706,1197031061601671,-0.17400001,9.21,3.561
1680017042711,1197031064103825,-0.24105,9.162001,3.3720002
1680017042713,1197031066606210,-0.252,9.174001,3.5419502
1680017042714,1197031069108364,-0.33405003,9.19995,3.42705
1680017042717,1197031071610839,-0.38895002,9.262051,3.5299501
1680017042720,1197031074112993,-0.30105,9.21195,3.348
1680017042722,1197031076615224,-0.43500003,9.139951,3.2899501
1680017042724,1197031079117378,-0.44400004,9.159,3.3930001
1680017042727,1197031081619762,-0.51405,9.21195,3.4050002
1680017042728,1197031084121984,-0.44895002,9.162001,3.456
1680017042731,1197031086624369,-0.53295004,9.198001,3.4750502
1680017042736,1197031089126523,-0.372,9.121051,3.4939501
1680017042737,1197031091628753,-0.56595004,9.18105,3.4720502
1680017042739,1197031094131138,-0.51405,9.19095,3.489
1680017042741,1197031096633292,-0.52095,9.183001,3.4630501
1680017042743,1197031099135446,-0.43695003,9.14295,3.348
1680017042746,1197031101637907,-0.483,9.258,3.4080002
1680017042750,1197031104140138,-0.40800002,9.250051,3.38595
1680017042752,1197031106642292,-0.36495003,9.21,3.3690002
1680017042755,1197031109144677,-0.26205,9.243,3.4770002
1680017042757,1197031111646830,-0.37995002,9.291,3.4410002
1680017042759,1197031114149061,-0.30795002,9.279,3.51795
1680017042761,1197031116651446,-0.35295,9.303,3.4440002
1680017042764,1197031119153677,-0.26505002,9.229051,3.3600001
1680017042766,1197031121656061,-0.23400001,9.31305,3.417
1680017042768,1197031124158215,-0.30105,9.31995,3.35505
1680017042771,1197031126660374,-0.32895002,9.15495,3.2280002
1680017042775,1197031129162605,-0.28605002,9.219001,3.3450003
1680017042777,1197031131665066,-0.19500001,9.19995,3.2620502
1680017042779,1197031134167220,-0.18300001,9.243,3.28305
1680017042781,1197031136669595,-0.20205002,9.21195,3.2329502
1680017042784,1197031139171749,-0.17400001,9.18105,3.1969502
1680017042788,1197031141673979,-0.23400001,9.255,3.20895
1680017042790,1197031144176364,-0.01305,9.22605,3.25395
1680017042792,1197031146678537,-0.12795001,9.18105,3.2310002
1680017042794,1197031149180768,-0.15900001,9.19095,3.1660502
1680017042797,1197031151683152,-0.07305,9.174001,3.3259501
1680017042799,1197031154185306,-0.07305,9.195001,3.3100502
1680017042801,1197031156687537,-0.075,9.162001,3.18
1680017042804,1197031159189902,-0.06105,9.222,3.216
1680017042809,1197031161692056,-0.13800001,9.195001,3.2280002
1680017042811,1197031164194287,-0.19305001,9.159,3.21105
1680017042813,1197031166696672,-0.08295,9.19305,3.3790503
1680017042815,1197031169198892,-0.26895002,9.04905,3.24705
1680017042817,1197031171701046,-0.29295,9.106951,3.25395
1680017042819,1197031174203431,-0.303,9.15495,3.3019502
1680017042821,1197031176705585,-0.26700002,9.085051,3.2740502
1680017042825,1197031179208046,-0.28905,9.183001,3.2899501
1680017042828,1197031181710277,-0.28095,9.174001,3.1630502
1680017042830,1197031184212431,-0.26700002,9.15495,3.2260501
1680017042831,1197031186714585,-0.24300002,9.21195,3.2430003
1680017042833,1197031189216969,-0.28605002,9.1710005,3.1990502
1680017042836,1197031191719195,-0.22905001,9.198001,3.1680002
1680017042840,1197031194221580,-0.22605,9.22395,3.21405
1680017042842,1197031196723811,-0.18300001,9.214951,3.18705
1680017042845,1197031199225964,-0.27195,9.207001,3.2070003
1680017042847,1197031201728123,-0.28395,9.246,3.15105
1680017042848,1197031204230508,-0.14505,9.315001,3.2070003
1680017042851,1197031206732739,-0.20505,9.231001,3.2950501
1680017042856,1197031209235123,-0.21000001,9.186001,3.1230001
1680017042859,1197031211737354,-0.18300001,9.31305,3.0919502
1680017042860,1197031214239508,-0.22395001,9.18105,3.2760003
1680017042863,1197031216741893,-0.37995002,9.18105,3.3070502
1680017042865,1197031219244046,-0.37995002,9.114,3.1590002
1680017042867,1197031221746296,-0.29805002,9.217051,3.2350502
1680017042869,1197031224248450,-0.09195001,9.31995,3.28095
1680017042871,1197031226750912,-0.078,9.267,3.2329502
1680017042874,1197031229253296,0.010950001,9.33705,3.1990502
1680017042876,1197031231755450,-0.043950003,9.403951,3.3259501
1680017042879,1197031234257647,-0.08295,9.283951,3.2430003
1680017042881,1197031236759801,-0.09,9.375,3.2260501
1680017042884,1197031239262185,-0.006,9.385051,3.2980502
1680017042887,1197031241764416,-0.087000005,9.219001,3.2740502
1680017042888,1197031244266815,-0.028050002,9.298051,3.18
1680017042891,1197031246768969,0.016050002,9.318001,3.2620502
1680017042894,1197031249271199,-0.03705,9.327001,3.1590002
1680017042897,1197031251773353,-0.147,9.241051,3.2590501
1680017042901,1197031254275738,-0.147,9.33405,3.2329502
1680017042902,1197031256778199,0.016050002,9.262051,3.1420503
1680017042905,1197031259280353,-0.042000003,9.23595,3.219
1680017042907,1197031261782507,-0.022950001,9.32505,3.21105
1680017042909,1197031264284738,-0.10395,9.27,3.14895
1680017042911,1197031266787088,-0.078,9.32205,3.144
1680017042914,1197031269289242,0.123,9.37005,3.2350502
1680017042917,1197031271791704,0.043950003,9.306001,3.2040002
1680017042919,1197031274293858,0.08295,9.406051,3.1590002
1680017042921,1197031276796093,-0.022950001,9.255,3.0940502
1680017042924,1197031279298247,0.018000001,9.30795,3.0940502
1680017042927,1197031281800632,0.0010500001,9.459001,3.1060503
1680017042930,1197031284302786,-0.12795001,9.3490505,3.07695
1680017042932,1197031286805017,-0.025050001,9.37005,3.1060503
1680017042934,1197031289307401,-0.15195,9.36795,3.039
1680017042938,1197031291809632,-0.135,9.295951,2.97195
1680017042940,1197031294311786,-0.20700002,9.295951,3.0990002
1680017042942,1197031296814160,-0.42495003,9.19095,3.0679502
1680017042944,1197031299316314,-0.28395,9.219001,2.9530501
1680017042947,1197031301818545,-0.34395,9.31305,3.0700502
1680017042950,1197031304321007,-0.33195,9.246,3.2040002
1680017042951,1197031306823160,-0.291,9.222,3.0919502
1680017042954,1197031309325550,-0.32505003,9.219001,3.084
1680017042956,1197031311827704,-0.29805002,9.295951,3.072
1680017042958,1197031314329935,-0.32700002,9.265051,3.0220501
1680017042961,1197031316832089,-0.25500003,9.222,2.97705
1680017042963,1197031319334540,-0.279,9.315001,3.0679502
1680017042966,1197031321836694,-0.24795002,9.271951,2.9910002
1680017042968,1197031324339079,-0.28605002,9.243,2.8519502
1680017042971,1197031326841232,-0.33705002,9.306001,2.97195
1680017042976,1197031329343487,-0.31305,9.315001,2.9340003
1680017042979,1197031331845872,-0.28905,9.247951,2.799
1680017042980,1197031334397026,-0.21900001,9.318001,2.8500001
1680017042982,1197031336850256,-0.24795002,9.33195,2.7970502
1680017042986,1197031339352641,-0.25500003,9.28905,2.89995
1680017042988,1197031341854877,-0.31305,9.303,2.87805
1680017042989,1197031344357031,-0.22395001,9.27,2.77305
1680017042992,1197031346859415,-0.23400001,9.32505,2.7540002
1680017042994,1197031349361646,-0.17595,9.4129505,2.80395
1680017042996,1197031351864031,-0.14295001,9.298051,2.87595
1680017042999,1197031354366261,-0.066,9.4129505,2.8279502
1680017043001,1197031356868415,-0.109050006,9.34395,2.8189502
1680017043003,1197031359370569,-0.09705,9.4800005,2.7949502
1680017043006,1197031361872954,-0.066,9.4800005,2.8519502
1680017043008,1197031364375113,-0.123,9.4800005,2.8159502
1680017043012,1197031366877574,-0.087000005,9.430051,2.73495
1680017043015,1197031369379805,0.034950003,9.567,2.7919502
1680017043018,1197031371881959,0.034950003,9.552,2.9239502
1680017043019,1197031374384113,0.11100001,9.712951,2.7919502
1680017043021,1197031376886497,-0.07305,9.660001,2.802
1680017043024,1197031379388728,0.042000003,9.64995,2.88105
1680017043026,1197031381891113,0.147,9.64605,2.84295
1680017043029,1197031384393343,0.15,9.72,2.7850502
1680017043031,1197031386895511,0.054,9.700951,2.6869502
1680017043034,1197031389397896,0.025050001,9.62205,2.70795
1680017043036,1197031391900127,0.126,9.670051,2.86905
1680017043038,1197031394402281,0.13995,9.670051,2.7520502
1680017043041,1197031396904656,0.15705001,9.694051,2.706
1680017043043,1197031399406887,0.07095,9.61695,2.57205
1680017043046,1197031401909272,-0.079950005,9.603001,2.69595
1680017043050,1197031404411425,-0.15195,9.63405,2.835
1680017043052,1197031406913690,-0.006,9.504001,2.8570502
1680017043055,1197031409415844,-0.109050006,9.5119505,2.8519502
1680017043057,1197031411918229,-0.063,9.507001,2.9670002
1680017043059,1197031414420459,-0.07095,9.62205,2.8549502
1680017043061,1197031416922613,-0.231,9.46605,2.7919502
1680017043063,1197031419424969,-0.078,9.555,2.7870002
1680017043066,1197031421927200,-0.075,9.526051,2.7900002
1680017043068,1197031424429584,-0.07095,9.54705,2.9020503
1680017043071,1197031426931738,-0.24105,9.4129505,2.811
1680017043074,1197031429433984,-0.126,9.5119505,2.811
1680017043076,1197031431936138,-0.23400001,9.50895,2.87805
1680017043079,1197031434438522,-0.28605002,9.53295,2.8879502
1680017043081,1197031436940984,-0.41295,9.31995,3.0250502
1680017043084,1197031439443171,-0.49005002,9.23595,2.9170501
1680017043089,1197031441945325,-0.48705003,9.262051,2.9599502
1680017043091,1197031444447555,-0.59295005,9.387,2.8500001
1680017043093,1197031446949940,-0.56205004,9.30795,2.811
1680017043095,1197031449452109,-0.60705,9.23595,2.7970502
1680017043097,1197031451954340,-0.72705,9.303,2.73
1680017043099,1197031454456724,-0.55200005,9.195001,2.6890502
1680017043101,1197031456958955,-0.62205005,9.13095,2.7250502
1680017043104,1197031459461340,-0.69105005,9.114,2.69895
1680017043106,1197031461963484,-0.54,9.13095,2.6820002
1680017043108,1197031464465637,-0.63105005,9.04905,2.562
1680017043111,1197031466967868,-0.78405005,9.0060005,2.6250002
1680017043114,1197031469470330,-0.66705,9.01095,2.601
1680017043117,1197031471972499,-0.69600004,8.973001,2.4379501
1680017043119,1197031474474883,-0.63105005,8.92695,2.4190502
1680017043123,1197031476977037,-0.693,8.85795,2.4760501
1680017043126,1197031479479268,-0.68895006,8.812051,2.3370001
1680017043128,1197031481981412,-0.79200006,8.75895,2.3800502
1680017043130,1197031484483873,-0.684,8.818951,2.2729502
1680017043132,1197031486986027,-0.72705,8.7949505,2.19105
1680017043134,1197031489488412,-0.67200005,8.86005,2.1769502
1680017043137,1197031491990566,-0.684,8.797951,2.2150502
1680017043139,1197031494492781,-0.71295005,8.86995,2.0350502
1680017043141,1197031496995166,-0.64305,8.757,2.079
1680017043143,1197031499497397,-0.68595004,8.75895,2.0740502
1680017043146,1197031501999551,-0.70995003,8.874001,2.052
1680017043148,1197031504501935,-0.84195006,8.877001,1.9159501
1680017043151,1197031507004176,-0.76305,8.982,1.9800001
1680017043153,1197031509506330,-0.68100005,8.917951,2.1049502
1680017043156,1197031512008714,-0.768,8.982,2.09295
1680017043159,1197031514510945,-0.82695,8.89605,1.9849501
1680017043163,1197031517013330,-0.93495005,8.986951,2.05005
1680017043164,1197031519515484,-0.94500005,9.00105,2.1100502
1680017043167,1197031522017715,-1.194,8.925,2.0670002
1680017043169,1197031524519868,-1.1869501,9.11205,2.04495
1680017043171,1197031527022253,-1.1029501,8.989051,2.088
1680017043175,1197031529524407,-1.08105,9.14505,2.05695
1680017043177,1197031532026868,-0.91605,9.18105,2.0740502
1680017043179,1197031534529099,-0.96405005,9.18795,2.2080002
1680017043181,1197031537031258,-0.99300003,9.16905,2.15295
1680017043184,1197031539533412,-1.1410501,9.16395,2.28705
1680017043187,1197031542035796,-1.1359501,9.17895,2.3160002
1680017043189,1197031544538027,-1.16505,9.147,2.29395
1680017043191,1197031547040402,-1.0380001,9.162001,2.22495
1680017043194,1197031549542633,-1.13205,9.231001,2.19105
1680017043196,1197031552044786,-1.0669501,9.294001,2.217
1680017043200,1197031554547171,-0.93795,9.35805,2.22495
1680017043202,1197031557049311,-0.98100007,9.361051,2.22495
1680017043204,1197031559551542,-1.05495,9.255,2.2150502
1680017043207,1197031562054003,-0.94995004,9.391951,2.328
1680017043209,1197031564556157,-0.92805004,9.483001,2.3730001
1680017043212,1197031567058311,-0.93000007,9.49005,2.25795
1680017043215,1197031569560696,-0.87105006,9.531,2.3470502
1680017043218,1197031572062926,-0.63795,9.6,2.31795
1680017043219,1197031574565080,-0.588,9.595051,2.433
1680017043222,1197031577067465,-0.55695003,9.64095,2.2699502
1680017043224,1197031579569696,-0.528,9.708,2.46705
1680017043227,1197031582072080,-0.40395,9.765,2.457
1680017043229,1197031584574234,-0.26205,9.7890005,2.5140002
1680017043232,1197031587076465,-0.22605,9.703051,2.3730001
1680017043234,1197031589578619,-0.24795002,9.753,2.4880502
1680017043238,1197031592081017,-0.24795002,9.637951,2.62905
1680017043240,1197031594583248,-0.33405003,9.691051,2.59605
1680017043242,1197031597085633,-0.423,9.579,2.634
1680017043245,1197031599587864,-0.47100002,9.567,2.4859502
1680017043247,1197031602090017,-0.411,9.583051,2.6100001
1680017043249,1197031604592185,-0.40800002,9.6,2.56695
1680017043251,1197031607094570,-0.19500001,9.76305,2.64105
1680017043255,1197031609597031,-0.24105,9.715051,2.5740001
1680017043259,1197031612099185,-0.17595,9.79395,2.60505
1680017043260,1197031614601335,-0.07305,9.77295,2.52195
1680017043261,1197031617103566,-0.07095,9.83205,2.43105
1680017043264,1197031619605951,-0.03705,9.835051,2.5240502
1680017043267,1197031622108104,-0.11400001,9.727051,2.526
1680017043269,1197031624610566,-0.15195,9.729,2.4739501
1680017043271,1197031627112734,-0.17595,9.828,2.35905
1680017043276,1197031629614965,-0.13800001,9.777,2.421
1680017043278,1197031632117349,-0.147,9.703051,2.4760501
1680017043280,1197031634619517,-0.11595,9.700951,2.42295
1680017043282,1197031637121748,-0.07095,9.67695,2.46705
1680017043284,1197031639624132,-0.022950001,9.64095,2.4139502
1680017043287,1197031642126286,-0.094950005,9.76305,2.35395
1680017043294,1197031644628517,-0.16605,9.724951,2.38995
1680017043294,1197031647130878,-0.13095,9.849001,2.3830502
1680017043295,1197031649633031,-0.17400001,9.967051,2.3760002
1680017043297,1197031652135262,-0.25695002,9.768001,2.3160002
1680017043299,1197031654637647,-0.17595,9.837001,2.36595
1680017043301,1197031657139888,-0.18105,9.81795,2.32305
1680017043304,1197031659642272,-0.32505003,9.828,2.25795
1680017043307,1197031662144426,-0.22905001,9.8880005,2.325
1680017043309,1197031664646580,-0.31305,9.897,2.1979501
1680017043313,1197031667148792,-0.351,9.82995,2.09505
1680017043315,1197031669651176,-0.38700002,9.889951,2.04495
1680017043319,1197031672153407,-0.33900002,9.92805,2.08995
1680017043321,1197031674655792,-0.38205,9.913951,2.09805
1680017043323,1197031677157946,-0.42495003,9.885,2.01405
1680017043324,1197031679660142,-0.46800002,9.871051,1.9800001
1680017043327,1197031682162296,-0.37695003,9.861,1.9879501
1680017043329,1197031684664681,-0.41595003,9.82995,1.9039501
1680017043331,1197031687166912,-0.34395,9.81795,1.81305
1680017043335,1197031689669286,-0.31305,9.873,1.794
1680017043338,1197031692171440,-0.35805002,9.813001,1.8970501
1680017043341,1197031694673671,-0.41595003,9.70995,1.7890501
1680017043342,1197031697176056,-0.39600003,9.68595,1.91295
1680017043344,1197031699678209,-0.41595003,9.729,1.8750001
1680017043347,1197031702180455,-0.49695003,9.682051,1.9110001
1680017043351,1197031704682840,-0.41595003,9.696,1.9200001
1680017043353,1197031707185071,-0.49500003,9.684,1.9920001
1680017043354,1197031709687224,-0.51405,9.66495,1.9900501
1680017043358,1197031712189604,-0.55695003,9.648001,1.9609501
1680017043359,1197031714691758,-0.55905,9.519,1.88505
1680017043362,1197031717194219,-0.61005,9.507001,1.9300501
1680017043364,1197031719696373,-0.59505004,9.47595,1.9950001
1680017043367,1197031722198585,-0.62205005,9.460951,1.9440001
1680017043369,1197031724700739,-0.564,9.47595,1.88505
1680017043371,1197031727203124,-0.528,9.448951,2.052
1680017043376,1197031729705277,-0.564,9.430051,1.9660501
1680017043378,1197031732207513,-0.52095,9.315001,2.0710502
1680017043380,1197031734709975,-0.43695003,9.495001,2.06205
1680017043382,1197031737212129,-0.411,9.432,2.0760002
1680017043384,1197031739714282,-0.43005002,9.4470005,2.1019502
1680017043389,1197031742216671,-0.43005002,9.49695,2.0740502
1680017043391,1197031744718902,-0.35295,9.46395,2.02605
1680017043393,1197031747221056,-0.372,9.53295,2.0760002
1680017043394,1197031749723517,-0.40800002,9.579,2.1000001
1680017043397,1197031752225671,-0.33705002,9.5140505,2.0689502
1680017043399,1197031754728041,-0.252,9.6,2.08605
1680017043401,1197031757230195,-0.19305001,9.526051,2.08995
1680017043404,1197031759732425,-0.14295001,9.588,2.229
1680017043408,1197031762234810,-0.171,9.492001,1.96395
1680017043409,1197031764737041,-0.20205002,9.516001,2.18205
1680017043412,1197031767239185,-0.19305001,9.559051,2.09295
1680017043415,1197031769741569,-0.15900001,9.571051,2.052
1680017043417,1197031772243800,-0.078,9.64605,2.11695
1680017043419,1197031774745935,0.0010500001,9.636001,1.96395
