system_ts_ms, sensor_ts_ns, accX, accY, accZ
1679931077293,1111065646676924,-1.524,6.9820504,6.3250504
1679931077294,1111065649179001,-1.55595,6.9490504,6.4230003
1679931077297,1111065651681169,-1.5340501,6.9250503,6.4350004
1679931077299,1111065654183093,-1.5000001,6.9630003,6.33195
1679931077301,1111065656685246,-1.5000001,6.9900002,6.3490505
1679931077303,1111065659187400,-1.491,6.9420004,6.3559504
1679931077314,1111065661689554,-1.5439501,6.9679503,6.36105
1679931077314,1111065664191713,-1.5270001,6.978,6.1860003
1679931077315,1111065666693867,-1.5150001,6.939,6.3460503
1679931077315,1111065669196021,-1.5480001,7.0350003,6.3109503
1679931077316,1111065671698174,-1.6180501,7.00605,6.3250504
1679931077319,1111065674200332,-1.644,7.0999503,6.2080503
1679931077322,1111065676702409,-1.7040001,6.9990005,6.339
1679931077324,1111065679204563,-1.6710001,7.0020003,6.49305
1679931077326,1111065681706794,-1.8169501,7.1260505,6.4420505
1679931077328,1111065684208871,-1.8790501,7.14795,6.4230003
1679931077331,1111065686711040,-1.9290001,7.0300503,6.52605
1679931077336,1111065689213194,-2.0370002,7.10895,6.5190005
1679931077338,1111065691715347,-2.181,7.1239505,6.59595
1679931077340,1111065694217289,-2.1760502,7.0969505,6.53805
1679931077344,1111065696719674,-2.2690501,7.2510004,6.6649504
1679931077345,1111065699221828,-2.4130502,7.1520004,6.7969503
1679931077346,1111065701723751,-2.45595,7.2430506,6.7900505
1679931077349,1111065704225905,-2.5519502,7.14795,6.8809505
1679931077351,1111065706728054,-2.6839502,7.248,6.873
1679931077353,1111065709230208,-2.8129501,7.05705,6.912
1679931077356,1111065711732284,-2.9520001,7.2580504,7.005
1679931077360,1111065714234515,-2.9970002,7.3060503,7.08405
1679931077361,1111065716736660,-3.0619502,7.25295,7.1970005
1679931077364,1111065719238737,-3.15105,7.1689506,7.209
1679931077366,1111065721740891,-3.1960502,7.2340503,7.34805
1679931077369,1111065724243045,-3.25605,7.2169504,7.254
1679931077378,1111065726744967,-3.285,7.215,7.3690505
1679931077379,1111065729246159,-3.41895,7.1670003,7.3159504
1679931077379,1111065731747352,-3.3640501,7.1790004,7.4359503
1679931077379,1111065734251428,-3.4069502,7.1020503,7.4719505
1679931077381,1111065736753582,-3.34905,7.03695,7.4940004
1679931077384,1111065739255736,-3.3450003,7.0849504,7.4790006
1679931077386,1111065741757813,-3.2320502,7.04505,7.48605
1679931077389,1111065744259967,-3.249,6.9820504,7.4119506
1679931077394,1111065746762198,-3.1720502,6.8599505,7.5199504
1679931077395,1111065749264343,-3.11505,6.8100004,7.3740005
1679931077397,1111065751766419,-2.90595,6.8239503,7.386
1679931077399,1111065754268573,-2.904,6.846,7.39305
1679931077402,1111065756770727,-2.7600002,6.9270005,7.2570004
1679931077404,1111065759272650,-2.70795,6.76905,7.18695
1679931077406,1111065761775049,-2.53005,6.834,7.2130504
1679931077411,1111065764277203,-2.523,6.83895,7.1389503
1679931077414,1111065766779357,-2.4079502,6.834,7.1340003
1679931077416,1111065769281275,-2.3460002,6.8430004,7.0960503
1679931077419,1111065771783428,-2.229,6.80805,7.14195
1679931077421,1111065774285582,-2.1760502,6.834,7.089
1679931077421,1111065776787736,-2.13,6.8700004,6.9280505
1679931077427,1111065779289890,-2.0269501,6.87195,6.7990503
1679931077427,1111065781792044,-2.0730002,6.8509502,6.7560005
1679931077428,1111065784294198,-1.98705,6.774,6.7249503
1679931077431,1111065786796352,-1.93605,6.7500005,6.8160005
1679931077435,1111065789298429,-1.7860501,6.8430004,6.59595
1679931077436,1111065791800563,-1.79295,6.79995,6.6169505
1679931077439,1111065794302717,-1.7740501,6.834,6.62895
1679931077443,1111065796804871,-1.7880001,6.76905,6.50505
1679931077444,1111065799307025,-1.74195,6.78105,6.5209503
1679931077448,1111065801809160,-1.692,6.7260003,6.43695
1679931077450,1111065804311083,-1.5679501,6.76905,6.3630004
1679931077453,1111065806813467,-1.572,6.7120504,6.3079505
1679931077455,1111065809315391,-1.48395,6.7549505,6.30105
1679931077460,1111065811817544,-1.4089501,6.6850505,6.2310004
1679931077461,1111065814319703,-1.491,6.7000504,6.13605
1679931077461,1111065816821857,-1.3810501,6.714,6.0610504
1679931077464,1111065819323934,-1.33305,6.681,6.09495
1679931077466,1111065821826088,-1.14795,6.77895,6.0709505
1679931077469,1111065824328294,-1.20105,6.6780005,5.9610004
1679931077471,1111065826830371,-1.08405,6.7840505,6.0469503
1679931077477,1111065829332524,-0.93495005,6.7380004,5.88705
1679931077478,1111065831834678,-1.029,6.66405,5.90805
1679931077479,1111065834336832,-0.93000007,6.702,5.8120503
1679931077482,1111065836838741,-0.88500005,6.73995,5.7790504
1679931077486,1111065839341126,-0.76995003,6.6780005,5.7520504
1679931077487,1111065841843280,-0.76005006,6.7450504,5.56995
1679931077489,1111065844345178,-0.76305,6.8269506,5.8650002
1679931077494,1111065846847332,-0.717,6.7429504,5.781
1679931077495,1111065849349409,-0.70305,6.6709504,5.84805
1679931077497,1111065851851562,-0.66,6.73605,5.86005
1679931077499,1111065854353678,-0.56205004,6.7210503,5.75505
1679931077501,1111065856855909,-0.61395,6.6930003,5.96295
1679931077504,1111065859357986,-0.64305,6.7050004,5.8770003
1679931077506,1111065861860140,-0.65505004,6.6709504,5.9539504
1679931077511,1111065864362294,-0.68100005,6.7189503,6.0930004
1679931077511,1111065866864217,-0.73395,6.681,6.0930004
1679931077514,1111065869366371,-0.81105006,6.7600503,6.14295
1679931077516,1111065871868524,-0.85605,6.6880503,6.06405
1679931077519,1111065874370678,-0.90195006,6.57,6.1480503
1679931077523,1111065876872831,-1.0309501,6.774,6.102
1679931077528,1111065879374985,-1.09305,6.7549505,6.2530503
1679931077528,1111065881877139,-1.215,6.8269506,6.162
1679931077529,1111065884379216,-1.29495,6.76905,6.2509503
1679931077532,1111065886881370,-1.3950001,6.7570505,6.21705
1679931077535,1111065889383586,-1.455,6.8290505,6.2790003
1679931077536,1111065891885740,-1.572,6.8190002,6.306
1679931077538,1111065894387817,-1.623,6.9270005,6.2389503
1679931077543,1111065896889971,-1.7590501,6.9150004,6.33195
1679931077544,1111065899392115,-1.7860501,6.8820004,6.3460503
1679931077546,1111065901894269,-1.8139501,6.9919505,6.2790003
1679931077549,1111065904396192,-1.9050001,6.9300003,6.3370504
1679931077552,1111065906898577,-1.8910501,6.9990005,6.267
1679931077554,1111065909400730,-1.9459502,7.1280003,6.33405
1679931077556,1111065911902884,-1.9150501,7.04895,6.3130503
1679931077562,1111065914404807,-1.9560001,7.00395,6.4420505
1679931077563,1111065916906961,-1.9600501,7.0590005,6.40395
1679931077568,1111065919409135,-1.9410001,7.0590005,6.4110003
1679931077569,1111065921911212,-1.8409501,7.1520004,6.3799505
1679931077570,1111065924413443,-1.8019501,7.071,6.4090505
1679931077572,1111065926915597,-1.8070501,7.143,6.3460503
1679931077577,1111065929417658,-1.70895,7.0540504,6.4020004
1679931077578,1111065931919812,-1.644,7.1119504,6.42495
1679931077580,1111065934421966,-1.536,7.1719503,6.4489503
1679931077582,1111065936923889,-1.59195,7.2049503,6.4399505
1679931077584,1111065939426274,-1.539,7.176,6.4159503
1679931077586,1111065941928414,-1.419,7.1959505,6.4399505
1679931077589,1111065944430568,-1.3090501,7.2310505,6.3700504
1679931077593,1111065946932491,-1.24395,7.2889504,6.55695
1679931077594,1111065949434645,-1.215,7.1860504,6.4999504
1679931077598,1111065951936793,-1.21305,7.29405,6.5599504
1679931077600,1111065954438947,-1.20105,7.2670503,6.5329504
1679931077603,1111065956941101,-1.2349501,7.3560004,6.60795
1679931077605,1111065959443255,-1.098,7.2840004,6.6480002
1679931077606,1111065961945332,-1.08405,7.392,6.6990004
1679931077610,1111065964447515,-1.1580001,7.2840004,6.6910505
1679931077613,1111065966949669,-1.1340001,7.2790504,6.6769505
1679931077615,1111065969451822,-1.16505,7.3030505,6.7849503
1679931077617,1111065971953976,-1.1700001,7.3030505,6.7990503
1679931077619,1111065974456144,-1.215,7.188,6.885
1679931077622,1111065976958298,-1.077,7.2649503,6.8040004
1679931077627,1111065979460452,-1.1509501,7.1910005,6.77295
1679931077628,1111065981962375,-1.24395,7.1740503,6.9739504
1679931077629,1111065984464529,-1.1719501,7.2030005,6.9040504
1679931077632,1111065986966664,-1.2250501,7.1790004,6.8970003
1679931077636,1111065989468817,-1.182,7.18095,6.8640003
1679931077638,1111065991970971,-1.21095,7.1449504,6.93795
1679931077639,1111065994473139,-1.2079501,7.0470004,6.9210005
1679931077643,1111065996975293,-1.1389501,7.1839504,6.76095
1679931077644,1111065999477370,-1.1890501,7.083,6.7849503
1679931077646,1111066001979524,-1.077,7.215,6.8830504
1679931077649,1111066004481678,-1.1410501,6.9940505,6.74595
1679931077653,1111066006983828,-1.09305,7.0999503,6.7819505
1679931077655,1111066009485981,-1.18005,6.9679503,6.84
1679931077660,1111066011988135,-1.1869501,7.0249505,6.8299503
1679931077661,1111066014490289,-1.1770501,6.97305,6.7849503
1679931077662,1111066016992443,-1.15995,6.939,6.71505
1679931077664,1111066019494390,-1.2420001,6.9610505,6.7510505
1679931077666,1111066021996775,-1.2540001,6.8650503,6.7780504
1679931077669,1111066024498698,-1.302,6.9199505,6.8089504
1679931077678,1111066027000852,-1.36395,6.8770504,6.8040004
1679931077679,1111066029503029,-1.4140501,6.9370503,6.7200003
1679931077680,1111066032005183,-1.4070001,6.8599505,6.7510505
1679931077681,1111066034507260,-1.4809501,7.0330505,6.6340504
1679931077682,1111066037009414,-1.5700501,6.9420004,6.7180505
1679931077684,1111066039511554,-1.6009501,6.93195,6.696
1679931077686,1111066042013708,-1.5679501,6.9370503,6.6940503
1679931077689,1111066044515862,-1.7299501,6.834,6.7510505
1679931077693,1111066047017785,-1.7880001,6.9660006,6.663
1679931077695,1111066049519953,-1.9219501,7.03695,6.6990004
1679931077697,1111066052022337,-1.8720001,6.9250503,6.603
1679931077699,1111066054524491,-1.8960001,6.8700004,6.6790504
1679931077702,1111066057026414,-1.9990501,6.94395,6.52395
1679931077704,1111066059528568,-1.9939501,6.939,6.5790005
1679931077706,1111066062030737,-2.094,6.867,6.5449505
1679931077710,1111066064532814,-2.07495,6.81195,6.49305
1679931077713,1111066067035045,-2.061,6.9559503,6.564
1679931077715,1111066069537198,-2.05095,6.918,6.6150002
1679931077717,1111066072039280,-1.98405,6.906,6.471
1679931077719,1111066074541434,-1.8499501,6.9250503,6.5070004
1679931077725,1111066077043588,-1.9219501,6.8599505,6.6169505
1679931077727,1111066079545511,-1.9720501,6.90105,6.60795
1679931077728,1111066082047895,-1.86195,6.87195,6.543
1679931077730,1111066084550049,-1.8690001,6.8509502,6.6480002
1679931077733,1111066087052202,-1.7950501,6.8190002,6.6220503
1679931077735,1111066089554125,-1.7830501,6.9030004,6.636
1679931077737,1111066092056279,-1.7710501,6.8749504,6.5140505
1679931077739,1111066094558429,-1.7500501,6.8770504,6.64305
1679931077743,1111066097060583,-1.7569501,6.8959503,6.5880003
1679931077744,1111066099562737,-1.7209501,6.79995,6.6340504
1679931077748,1111066102064891,-1.7400001,6.91095,6.5599504
1679931077750,1111066104567049,-1.6560001,6.91095,6.6390004
1679931077753,1111066107069202,-1.6390501,6.8550005,6.7270503
1679931077754,1111066109571279,-1.6470001,6.9580503,6.6550503
1679931077757,1111066112073433,-1.6510501,6.9220505,6.6870003
1679931077759,1111066114575587,-1.69395,6.906,6.7099504
1679931077762,1111066117077833,-1.71405,6.84105,6.7200003
1679931077764,1111066119579910,-1.6990501,6.9559503,6.7219505
1679931077766,1111066122082064,-1.6800001,6.8940005,6.675
1679931077769,1111066124584217,-1.6540501,6.9270005,6.6240005
1679931077774,1111066127086165,-1.67805,6.978,6.663
1679931077776,1111066129588318,-1.7500501,6.9270005,6.6649504
1679931077778,1111066132090703,-1.64205,6.9679503,6.7060504
1679931077779,1111066134592626,-1.62495,6.9940505,6.6940503
1679931077782,1111066137094780,-1.74495,6.9660006,6.6840005
1679931077786,1111066139596915,-1.7740501,7.0090504,6.7489505
1679931077787,1111066142099069,-1.74495,7.00605,6.7489505
1679931077789,1111066144601146,-1.692,6.9250503,6.7630506
1679931077792,1111066147103299,-1.7539501,6.978,6.86595
1679931077794,1111066149605453,-1.7400001,6.939,6.8569503
1679931077797,1111066152107616,-1.7590501,6.94605,6.95205
1679931077799,1111066154609770,-1.6900501,6.8869505,6.84705
1679931077802,1111066157111924,-1.6830001,6.9679503,6.885
1679931077804,1111066159613847,-1.8090001,7.0519505,6.8809505
1679931077806,1111066162116001,-1.7260501,7.0090504,6.8209505
1679931077809,1111066164618165,-1.6849501,7.00395,6.7819505
1679931077814,1111066167120319,-1.7520001,7.0279503,6.912
1679931077816,1111066169622472,-1.7590501,6.9820504,6.9360003
1679931077817,1111066172124621,-1.7899501,7.0279503,6.9210005
1679931077819,1111066174626775,-1.7209501,7.071,6.94005
1679931077824,1111066177128852,-1.7659501,7.0279503,6.8179502
1679931077826,1111066179631006,-1.7040001,7.1119504,6.80595
1679931077828,1111066182133256,-1.77795,7.0540504,6.8280005
1679931077829,1111066184635409,-1.7260501,7.0810504,6.80595
1679931077832,1111066187137486,-1.8169501,6.9660006,6.8209505
1679931077834,1111066189639640,-1.8090001,7.01595,6.9090004
1679931077837,1111066192141794,-1.7539501,6.978,6.6769505
1679931077839,1111066194643712,-1.83105,7.0470004,6.7990503
1679931077842,1111066197145866,-1.8049501,6.9370503,6.6870003
1679931077845,1111066199648251,-1.7950501,6.9660006,6.8040004
1679931077847,1111066202150405,-1.7209501,6.97305,6.76095
1679931077849,1111066204652328,-1.7380501,6.9940505,6.7780504
1679931077853,1111066207154496,-1.7040001,6.9660006,6.6169505
1679931077855,1111066209656650,-1.7500501,6.9820504,6.70095
1679931077857,1111066212158804,-1.7160001,6.939,6.5599504
1679931077861,1111066214660948,-1.62705,6.9660006,6.6169505
1679931077863,1111066217163102,-1.6129501,6.9030004,6.6169505
1679931077865,1111066219665256,-1.5439501,6.9750004,6.5860505
1679931077867,1111066222167333,-1.4790001,6.8940005,6.45195
1679931077869,1111066224669486,-1.4650501,6.9079504,6.59805
1679931077873,1111066227171659,-1.39005,6.978,6.4300504
1679931077875,1111066229673582,-1.383,6.93195,6.43305
1679931077877,1111066232175967,-1.3950001,6.9540005,6.3679504
1679931077879,1111066234678121,-1.3930501,6.8959503,6.5209503
1679931077883,1111066237180054,-1.28295,6.9990005,6.339
1679931077884,1111066239682208,-1.2610501,6.9559503,6.4159503
1679931077887,1111066242184362,-1.26795,6.9300003,6.306
1679931077889,1111066244686439,-1.251,6.94395,6.33195
1679931077894,1111066247188587,-1.1410501,6.9660006,6.3130503
1679931077896,1111066249690818,-1.1359501,6.9079504,6.2959504
1679931077899,1111066252192972,-1.1359501,6.98505,6.39405
1679931077901,1111066254695049,-1.1359501,6.9750004,6.387
1679931077903,1111066257197203,-1.1839501,6.9490504,6.3679504
1679931077905,1111066259699352,-1.11705,6.91305,6.4140005
1679931077907,1111066262201275,-1.2250501,6.939,6.3180003
1679931077909,1111066264703659,-1.2040501,6.8749504,6.3439503
1679931077912,1111066267205813,-1.2060001,6.8959503,6.4159503
1679931077916,1111066269707933,-1.2040501,6.8700004,6.354
1679931077940,1111066272209856,-1.2349501,6.87195,6.39405
1679931077941,1111066274712010,-1.194,6.80805,6.3439503
1679931077944,1111066277214164,-1.16505,6.8580003,6.4570503
1679931077944,1111066279716318,-1.1410501,6.87195,6.4609504
1679931077944,1111066282218482,-1.2040501,6.918,6.42495
1679931077944,1111066284720635,-1.14795,6.8959503,6.47805
1679931077944,1111066287222789,-1.09095,6.9300003,6.459
1679931077945,1111066289724929,-1.19895,6.90105,6.4350004
1679931077945,1111066292227006,-1.1530501,6.9679503,6.5020504
1679931077945,1111066294729160,-1.1200501,6.9220505,6.5209503
1679931077945,1111066297231314,-1.2349501,6.89895,6.4350004
1679931077945,1111066299733468,-1.1719501,6.9030004,6.49305
1679931077947,1111066302235376,-1.1580001,6.91095,6.4420505
1679931077949,1111066304737530,-1.1050501,6.9490504,6.471
1679931077952,1111066307239683,-1.12395,6.939,6.50895
1679931077954,1111066309741837,-1.18005,6.951,6.55695
1679931077956,1111066312243991,-1.1050501,7.0090504,6.47805
1679931077959,1111066314746150,-1.182,6.9150004,6.4609504
1679931077962,1111066317248304,-1.19595,6.9820504,6.49305
1679931077964,1111066319750381,-1.2390001,6.9750004,6.52395
1679931077967,1111066322252535,-1.2540001,6.9540005,6.4830003
1679931077970,1111066324754755,-1.14405,6.8869505,6.5070004
1679931077976,1111066327256909,-1.2229501,6.978,6.5070004
1679931077978,1111066329757963,-1.1700001,6.94395,6.5209503
1679931077978,1111066332259002,-1.1700001,6.9150004,6.5020504
1679931077980,1111066334763309,-1.24905,6.9820504,6.4879503
1679931077983,1111066337265463,-1.2349501,6.9370503,6.5070004
1679931077985,1111066339767386,-1.2349501,6.9660006,6.55695
1679931077987,1111066342269770,-1.194,6.98505,6.4810505
1679931077989,1111066344771928,-1.2750001,6.8959503,6.4999504
1679931077992,1111066347273851,-1.2900001,6.8550005,6.5790005
1679931077994,1111066349776005,-1.2250501,6.9199505,6.4489503
1679931077997,1111066352278159,-1.2709501,6.94605,6.4470005
1679931077999,1111066354780313,-1.2250501,6.8749504,6.43695
1679931078003,1111066357282390,-1.3039501,6.90105,6.4879503
1679931078005,1111066359784621,-1.2780001,6.867,6.49305
1679931078007,1111066362286775,-1.2589501,6.9340506,6.3679504
1679931078011,1111066364788861,-1.194,6.8940005,6.4609504
1679931078014,1111066367291015,-1.2610501,6.88395,6.46605
1679931078016,1111066369793169,-1.2750001,6.9370503,6.39195
1679931078018,1111066372295092,-1.28505,6.918,6.3780003
1679931078020,1111066374797477,-1.2709501,6.85305,6.4540505
1679931078023,1111066377299641,-1.3399501,6.9660006,6.4810505
1679931078025,1111066379801564,-1.36395,7.0519505,6.40395
1679931078027,1111066382303718,-1.36395,6.9630003,6.3850503
1679931078031,1111066384805871,-1.371,6.9900002,6.47805
1679931078033,1111066387308029,-1.36395,7.0279503,6.4999504
1679931078035,1111066389810106,-1.36395,7.0230002,6.56895
1679931078039,1111066392312337,-1.3090501,7.0230002,6.636
1679931078040,1111066394814491,-1.36395,7.0590005,6.53595
1679931078043,1111066397316554,-1.4449501,7.1119504,6.4540505
1679931078045,1111066399818708,-1.5289501,7.071,6.5929503
1679931078050,1111066402320862,-1.47405,7.011,6.5790005
1679931078051,1111066404823015,-1.43295,7.1520004,6.6049504
1679931078054,1111066407325159,-1.491,7.0519505,6.6670504
1679931078055,1111066409827313,-1.5409501,7.07805,6.675
1679931078057,1111066412329467,-1.52205,7.0690503,6.70305
1679931078060,1111066414831390,-1.5649501,7.1280003,6.7510505
1679931078063,1111066417333544,-1.70595,7.0420504,6.87795
1679931078067,1111066419835713,-1.6680001,7.071,6.7849503
1679931078068,1111066422337867,-1.71105,7.09005,6.8689504
1679931078070,1111066424840020,-1.7590501,7.0639505,6.7699504
1679931078075,1111066427342174,-1.6710001,7.0590005,6.74205
1679931078076,1111066429844328,-1.845,6.9940505,6.9040504
1679931078077,1111066432346496,-1.7659501,7.0690503,6.8569503
1679931078081,1111066434848573,-1.8049501,7.0300503,6.9240003
1679931078082,1111066437350727,-1.8019501,7.1050506,6.9330006
1679931078086,1111066439852881,-1.7899501,7.01805,6.8160005
1679931078088,1111066442355145,-1.8600001,7.0590005,6.7560005
1679931078090,1111066444857222,-1.8240001,6.9970503,6.696
1679931078094,1111066447359376,-1.8049501,6.9750004,6.7819505
1679931078095,1111066449861530,-1.8360001,6.9870005,6.73395
1679931078098,1111066452363453,-1.70895,7.0609503,6.73395
1679931078100,1111066454865621,-1.6900501,6.9270005,6.8110504
1679931078103,1111066457368006,-1.67295,6.8890505,6.7369504
1679931078105,1111066459869929,-1.6489501,7.04895,6.7900505
1679931078107,1111066462372083,-1.70595,7.0690503,6.708
1679931078109,1111066464874236,-1.623,6.9870005,6.74205
1679931078113,1111066467376294,-1.5600001,6.9679503,6.6940503
1679931078115,1111066469878448,-1.55595,7.01595,6.73005
1679931078117,1111066472380602,-1.5319501,7.0249505,6.6940503
1679931078120,1111066474882847,-1.51995,7.0519505,6.7699504
1679931078125,1111066477384924,-1.5600001,7.03695,6.68205
1679931078128,1111066479886001,-1.6030501,7.011,6.708
1679931078128,1111066482387078,-1.5870001,7.0020003,6.6910505
1679931078129,1111066484891154,-1.6560001,7.0350003,6.708
1679931078133,1111066487393294,-1.62705,6.978,6.7920003
1679931078135,1111066489895448,-1.55295,6.8820004,6.7630506
1679931078137,1111066492397833,-1.6990501,6.91095,6.6870003
1679931078139,1111066494899756,-1.659,6.8700004,6.7939506
1679931078142,1111066497401924,-1.7020501,6.8700004,6.696
1679931078145,1111066499904078,-1.7400001,6.7909503,6.6940503
1679931078147,1111066502406155,-1.7230501,6.78105,6.67005
1679931078149,1111066504908308,-1.69395,6.8890505,6.7560005
1679931078152,1111066507410525,-1.70595,6.906,6.636
1679931078154,1111066509912679,-1.64205,6.906,6.5740504
1679931078157,1111066512414756,-1.62495,6.81195,6.5209503
1679931078161,1111066514916910,-1.575,6.94605,6.531
1679931078163,1111066517419054,-1.6489501,6.8700004,6.5929503
1679931078165,1111066519921208,-1.6110001,6.939,6.5479503
1679931078168,1111066522423131,-1.5960001,6.8890505,6.5280004
1679931078170,1111066524925515,-1.6540501,6.879,6.4849505
1679931078173,1111066527427669,-1.59195,6.9559503,6.576
1679931078175,1111066529929578,-1.51005,6.7909503,6.591
1679931078177,1111066532431732,-1.5079501,6.89895,6.4489503
1679931078179,1111066534933886,-1.55595,6.939,6.5479503
1679931078182,1111066537436040,-1.5960001,6.94605,6.6270003
1679931078185,1111066539938107,-1.55805,6.9199505,6.63105
1679931078187,1111066542440337,-1.524,6.9630003,6.5620503
1679931078189,1111066544942491,-1.5480001,6.9870005,6.6889505
1679931078193,1111066547444568,-1.47405,6.9799504,6.5449505
1679931078195,1111066549946713,-1.5289501,6.9199505,6.52395
1679931078199,1111066552448944,-1.5679501,6.906,6.6270003
1679931078201,1111066554951098,-1.5799501,6.9970503,6.6889505
1679931078203,1111066557453175,-1.5289501,6.94395,6.5479503
1679931078205,1111066559955328,-1.524,6.9750004,6.49695
1679931078208,1111066562457252,-1.5340501,6.9580503,6.53805
1679931078210,1111066564959405,-1.59195,6.951,6.4999504
1679931078214,1111066567461790,-1.4770501,7.0210505,6.675
1679931078216,1111066569963693,-1.55595,6.9900002,6.49695
1679931078218,1111066572465847,-1.62705,7.071,6.50895
1679931078219,1111066574968001,-1.575,6.9580503,6.4540505
1679931078223,1111066577470155,-1.6320001,7.07595,6.64305
1679931078225,1111066579972232,-1.62705,7.04505,6.53805
1679931078227,1111066582474380,-1.59195,7.0300503,6.6270003
1679931078229,1111066584976611,-1.6710001,7.0090504,6.5520005
1679931078234,1111066587478688,-1.6470001,7.0090504,6.4090505
1679931078240,1111066589980842,-1.69395,6.9870005,6.5190005
1679931078241,1111066592482996,-1.59195,7.083,6.543
1679931078242,1111066594984919,-1.6489501,7.0519505,6.5599504
1679931078244,1111066597487073,-1.6300501,7.01805,6.55695
1679931078245,1111066599989227,-1.5769501,6.9580503,6.5209503
1679931078247,1111066602491380,-1.51005,6.8700004,6.5209503
1679931078250,1111066604993520,-1.5649501,6.93195,6.4609504
1679931078254,1111066607495674,-1.46895,6.9250503,6.47805
1679931078256,1111066609997828,-1.5150001,6.8890505,6.39405
1679931078257,1111066612499905,-1.45305,7.01805,6.5070004
1679931078259,1111066615002059,-1.35,6.9679503,6.4300504
1679931078265,1111066617504290,-1.302,6.8910003,6.43305
1679931078267,1111066620006443,-1.2420001,7.011,6.45195
1679931078268,1111066622508520,-1.16805,7.0020003,6.4999504
1679931078270,1111066625010674,-1.077,7.0249505,6.4450502
1679931078276,1111066627512823,-1.113,7.0590005,6.4180503
1679931078277,1111066630014746,-1.23195,7.0470004,6.49695
1679931078279,1111066632568823,-1.16805,7.0279503,6.6580505
1679931078281,1111066635019309,-1.1560501,7.0210505,6.603
1679931078284,1111066637521462,-1.16505,7.0660505,6.576
1679931078285,1111066640023386,-1.1890501,7.03695,6.7699504
1679931078287,1111066642525539,-1.16505,7.1329503,6.6840005
1679931078290,1111066645027693,-1.335,7.0210505,6.7990503
1679931078293,1111066647529828,-1.31805,7.0249505,6.6720004
1679931078295,1111066650031905,-1.36905,6.98505,6.8160005
1679931078298,1111066652534136,-1.47405,7.0609503,6.6340504
1679931078300,1111066655036290,-1.46895,6.9370503,6.603
1679931078303,1111066657538391,-1.4790001,6.9940505,6.6000004
1679931078305,1111066660040544,-1.5169501,6.94395,6.6120005
1679931078307,1111066662542698,-1.5679501,7.0590005,6.64095
1679931078311,1111066665044852,-1.6110001,7.04505,6.7099504
1679931078314,1111066667547006,-1.6660501,7.03695,6.6460505
1679931078316,1111066670049160,-1.74495,7.0129504,6.5809503
1679931078318,1111066672551083,-1.66305,7.0519505,6.5479503
1679931078320,1111066675053237,-1.6390501,7.0470004,6.5670004
1679931078323,1111066677555391,-1.6969501,6.9540005,6.63105
1679931078325,1111066680057477,-1.7350501,7.0969505,6.5140505
1679931078327,1111066682559630,-1.70595,6.9919505,6.5550003
1679931078329,1111066685061861,-1.64205,6.9540005,6.4950004
1679931078334,1111066687564015,-1.6030501,6.978,6.5839505
1679931078335,1111066690066102,-1.66305,6.97305,6.5550003
1679931078337,1111066692568256,-1.4959501,6.94395,6.60795
1679931078339,1111066695070410,-1.5000001,7.0249505,6.53805
1679931078343,1111066697572333,-1.5120001,7.1239505,6.636
1679931078345,1111066700074487,-1.4479501,7.1070004,6.4609504
1679931078351,1111066702576852,-1.4980501,7.083,6.5599504
1679931078353,1111066705079006,-1.5169501,7.1380506,6.6720004
1679931078355,1111066707580929,-1.4770501,7.0639505,6.591
1679931078357,1111066710083083,-1.39995,7.1790004,6.636
1679931078358,1111066712585237,-1.536,7.2049503,6.6529503
1679931078360,1111066715087391,-1.35405,7.143,6.70095
1679931078363,1111066717589534,-1.4650501,7.1239505,6.7099504
1679931078365,1111066720091687,-1.43595,7.1070004,6.6910505
1679931078367,1111066722593841,-1.503,7.08795,6.6550503
1679931078370,1111066725095995,-1.45305,7.10895,6.6510005
1679931078374,1111066727598072,-1.40205,7.1070004,6.5719504
1679931078376,1111066730100226,-1.4430001,7.10895,6.5860505
1679931078378,1111066732602380,-1.4479501,7.155,6.4110003
1679931078379,1111066735104534,-1.6320001,7.1359506,6.45195
1679931078383,1111066737606697,-1.5600001,7.0999503,6.5280004
1679931078386,1111066740108851,-1.6060501,7.1050506,6.5670004
1679931078388,1111066742611005,-1.6849501,7.0999503,6.5670004
1679931078390,1111066745112928,-1.71105,7.10895,6.4900503
1679931078393,1111066747615086,-1.7689501,7.07805,6.4230003
1679931078395,1111066750117471,-1.7520001,7.1119504,6.4450502
1679931078397,1111066752619394,-1.812,7.0999503,6.4450502
1679931078400,1111066755121548,-1.83105,6.9679503,6.4849505
1679931078404,1111066757623702,-1.8600001,7.0729504,6.3850503
1679931078406,1111066760125856,-1.8960001,7.0930505,6.5020504
1679931078408,1111066762627933,-1.8330001,7.09005,6.4230003
1679931078410,1111066765130087,-1.9240501,7.1190004,6.5140505
1679931078414,1111066767632322,-1.89795,7.1070004,6.4570503
1679931078416,1111066770134399,-1.9560001,7.0690503,6.50505
1679931078418,1111066772636553,-1.9150501,7.0470004,6.4540505
1679931078420,1111066775138707,-1.8379501,6.9540005,6.4830003
1679931078425,1111066777640635,-1.7880001,7.04895,6.3580503
1679931078426,1111066780142789,-1.8090001,7.0399504,6.3700504
1679931078428,1111066782644942,-1.74195,7.0090504,6.4350004
1679931078430,1111066785147096,-1.7350501,6.9610505,6.3079505
1679931078433,1111066787649250,-1.7380501,6.9900002,6.3679504
1679931078435,1111066790151404,-1.7299501,7.0470004,6.4540505
1679931078437,1111066792653481,-1.6680001,6.9750004,6.43305
1679931078439,1111066795155712,-1.6300501,7.0279503,6.40605
1679931078443,1111066797657865,-1.6110001,7.071,6.39195
1679931078445,1111066800159990,-1.6560001,6.98505,6.3970504
1679931078447,1111066802662067,-1.5630001,6.9750004,6.3679504
1679931078450,1111066805164221,-1.575,7.0540504,6.3750005
1679931078455,1111066807666375,-1.55595,7.011,6.3460503
1679931078457,1111066810168529,-1.55295,7.0020003,6.3780003
1679931078459,1111066812670683,-1.6110001,7.0210505,6.3300004
1679931078461,1111066815172606,-1.5820501,6.9990005,6.40395
1679931078464,1111066817674760,-1.5150001,6.9610505,6.3030005
1679931078467,1111066820176923,-1.4790001,7.0249505,6.327
1679931078469,1111066822679077,-1.52205,6.9679503,6.39405
1679931078470,1111066825181154,-1.47405,6.9630003,6.3030005
1679931078473,1111066827683385,-1.5600001,7.0300503,6.40605
1679931078475,1111066830185539,-1.4650501,7.011,6.327
1679931078477,1111066832687693,-1.5169501,7.05705,6.3079505
1679931078480,1111066835189770,-1.4980501,7.071,6.3030005
1679931078483,1111066837691923,-1.51995,7.0210505,6.3700504
1679931078485,1111066840194077,-1.5340501,6.9700503,6.255
1679931078487,1111066842696000,-1.5840001,6.9580503,6.2509503
1679931078490,1111066845198385,-1.4599501,7.071,6.327
1679931078494,1111066847700539,-1.55805,7.0609503,6.306
1679931078495,1111066850202462,-1.47405,7.0660505,6.2719502
1679931078499,1111066852704601,-1.5319501,7.0950003,6.282
1679931078501,1111066855206755,-1.4620501,6.98505,6.4140005
1679931078503,1111066857708909,-1.539,7.07805,6.39195
1679931078505,1111066860211062,-1.50495,6.9919505,6.366
1679931078508,1111066862713216,-1.524,7.0279503,6.3850503
1679931078509,1111066865215366,-1.4980501,7.0639505,6.366
1679931078513,1111066867717520,-1.4860501,7.00605,6.3420005
1679931078515,1111066870219597,-1.491,6.9580503,6.6049504
1679931078517,1111066872721751,-1.4479501,7.08795,6.4729505
1679931078520,1111066875223938,-1.4929501,6.9700503,6.387
1679931078523,1111066877726168,-1.536,7.0020003,6.53805
1679931078525,1111066880228245,-1.4670001,7.0729504,6.39405
1679931078527,1111066882730399,-1.3980001,6.9679503,6.4489503
1679931078530,1111066885232553,-1.51995,6.9750004,6.53595
1679931078534,1111066887734476,-1.4089501,7.08795,6.46605
1679931078538,1111066890236630,-1.4310001,7.0590005,6.40395
1679931078541,1111066892738784,-1.48395,7.0249505,6.40605
1679931078543,1111066895241178,-1.491,7.0020003,6.45195
1679931078566,1111066897743101,-1.4449501,7.0230002,6.3799505
1679931078567,1111066900245255,-1.3620001,6.939,6.4350004
1679931078567,1111066902747332,-1.4310001,7.0519505,6.4399505
1679931078567,1111066905249486,-1.4620501,7.09005,6.3510003
1679931078568,1111066907751649,-1.40205,7.1119504,6.5020504
1679931078568,1111066910253880,-1.4089501,7.0729504,6.36105
1679931078568,1111066912755957,-1.3780501,7.1050506,6.387
1679931078568,1111066915258111,-1.419,6.9900002,6.4999504
1679931078569,1111066917760264,-1.3950001,7.0249505,6.354
1679931078569,1111066920262187,-1.3470001,7.1050506,6.45195
1679931078569,1111066922764341,-1.3590001,7.0330505,6.39405
1679931078570,1111066925266495,-1.36395,7.0350003,6.4300504
1679931078575,1111066927768649,-1.36905,6.9940505,6.5119505
1679931078577,1111066930269726,-1.3930501,7.0729504,6.45195
1679931078577,1111066932770803,-1.4449501,7.07595,6.2629504
1679931078580,1111066935275111,-1.4239501,7.0090504,6.4900503
1679931078583,1111066937777187,-1.3620001,7.0279503,6.3630004
1679931078585,1111066940279341,-1.40205,7.0210505,6.42495
1679931078587,1111066942781481,-1.4290501,7.116,6.387
1679931078590,1111066945283712,-1.4809501,7.03695,6.4810505
1679931078595,1111066947785789,-1.4620501,7.0519505,6.4450502
1679931078595,1111066950287943,-1.5079501,7.083,6.52605
1679931078597,1111066952790102,-1.4620501,7.1280003,6.46605
1679931078600,1111066955292255,-1.491,7.176,6.4110003
1679931078603,1111066957794179,-1.5439501,7.1520004,6.4110003
1679931078607,1111066960296563,-1.55295,7.0810504,6.4450502
1679931078608,1111066962798712,-1.5990001,7.1329503,6.3820505
1679931078613,1111066965300635,-1.6800001,7.2070503,6.45195
1679931078616,1111066967801712,-1.6489501,7.15005,6.3420005
1679931078617,1111066970302789,-1.7179501,7.1020503,6.4090505
1679931078617,1111066972807097,-1.7520001,7.09005,6.4230003
1679931078620,1111066975309174,-1.8000001,7.15005,6.3850503
1679931078623,1111066977811404,-1.7830501,7.2840004,6.5190005
1679931078625,1111066980313558,-1.8169501,7.1640005,6.3250504
1679931078627,1111066982815635,-1.7539501,7.1929502,6.459
1679931078630,1111066985317798,-1.8859501,7.155,6.4609504
1679931078633,1111066987819952,-1.812,7.1910005,6.47805
1679931078635,1111066990322106,-1.8360001,7.14795,6.4879503
1679931078637,1111066992824260,-1.8690001,7.2049503,6.4849505
1679931078639,1111066995326409,-1.9890001,7.1380506,6.4759502
1679931078643,1111066997828332,-1.89795,7.0999503,6.4759502
1679931078645,1111067000330486,-1.8840001,7.1719503,6.4470005
1679931078650,1111067002832620,-1.8379501,7.1239505,6.3780003
1679931078652,1111067005334774,-1.8859501,7.04505,6.5190005
1679931078654,1111067007836851,-1.8570001,7.1929502,6.5479503
1679931078656,1111067010339082,-1.8739501,7.1569505,6.5280004
1679931078658,1111067012841236,-1.9200001,7.0729504,6.5929503
1679931078660,1111067015343299,-1.8499501,7.1790004,6.5140505
1679931078663,1111067017845452,-1.8360001,7.1020503,6.4950004
1679931078665,1111067020347606,-1.8430501,7.1380506,6.5500503
1679931078667,1111067022849529,-1.8240001,7.07595,6.636
1679931078670,1111067025351683,-1.8529501,7.12095,6.6550503
1679931078673,1111067027854068,-1.77795,7.083,6.5280004
1679931078675,1111067030356222,-1.82895,7.1689506,6.5929503
1679931078677,1111067032858145,-1.8090001,7.0810504,6.5880003
1679931078680,1111067035360299,-1.845,7.0849504,6.6840005
1679931078683,1111067037862457,-1.812,7.0470004,6.531
1679931078688,1111067040364611,-1.812,7.071,6.55695
1679931078689,1111067042866765,-1.7880001,7.1280003,6.6000004
1679931078691,1111067045368904,-1.74495,7.0810504,6.4810505
1679931078694,1111067047870981,-1.7689501,7.2030005,6.49305
1679931078696,1111067050373135,-1.7659501,6.9919505,6.5929503
1679931078699,1111067052875366,-1.8019501,7.10895,6.6169505
1679931078700,1111067055377519,-1.7350501,7.0639505,6.5190005
1679931078703,1111067057879607,-1.71105,7.071,6.5929503
1679931078707,1111067060381761,-1.7809501,7.00605,6.5280004
1679931078708,1111067062883915,-1.74195,7.1239505,6.63105
1679931078712,1111067065386069,-1.74195,7.0519505,6.6270003
1679931078713,1111067067887968,-1.77795,7.0350003,6.6000004
1679931078716,1111067070390353,-1.70595,7.0090504,6.6049504
1679931078717,1111067072892506,-1.74495,6.98505,6.59805
1679931078722,1111067075394401,-1.8769501,7.1119504,6.71295
1679931078726,1111067077896554,-1.8379501,6.9990005,6.64095
1679931078728,1111067080397630,-1.8880501,6.9660006,6.636
1679931078728,1111067082898709,-1.90005,7.0690503,6.6550503
1679931078733,1111067085402939,-1.98405,7.011,6.7560005
1679931078734,1111067087905194,-2.16405,7.04505,6.67005
1679931078736,1111067090407348,-2.22405,7.0519505,6.6870003
1679931078738,1111067092909501,-2.16405,7.0470004,6.5670004
1679931078740,1111067095411578,-2.28795,7.0690503,6.55695
1679931078743,1111067097913741,-2.2669501,7.0519505,6.56895
1679931078745,1111067100415664,-2.2840502,6.9990005,6.5520005
1679931078747,1111067102918049,-2.265,7.03695,6.5329504
1679931078750,1111067105420203,-2.22105,7.08795,6.4470005
1679931078753,1111067107922381,-2.32395,7.18095,6.4540505
1679931078755,1111067110424304,-2.2810502,6.978,6.4279504
1679931078759,1111067112926458,-2.229,7.1239505,6.471
1679931078762,1111067115428535,-2.2120502,7.116,6.471
1679931078764,1111067117930683,-2.11095,7.116,6.471
1679931078766,1111067120432914,-2.08995,7.0660505,6.4140005
1679931078768,1111067122935068,-2.1379502,7.1239505,6.3850503
1679931078771,1111067125437145,-1.9339501,7.1329503,6.4420505
1679931078775,1111067127939285,-1.9789501,7.1020503,6.5280004
1679931078777,1111067130441439,-1.9750501,7.0540504,6.4230003
1679931078778,1111067132943362,-1.9480501,7.0660505,6.4830003
1679931078780,1111067135445516,-1.8000001,7.0540504,6.4690504
1679931078783,1111067137947900,-1.7590501,7.1260505,6.52605
1679931078785,1111067140450064,-1.8019501,7.0810504,6.6150002
1679931078787,1111067142951987,-1.812,7.0519505,6.5880003
1679931078790,1111067145454141,-1.8210001,7.0470004,6.5719504
1679931078793,1111067147956295,-1.7400001,7.09005,6.64305
1679931078795,1111067150458448,-1.8360001,7.0540504,6.7489505
1679931078799,1111067152960602,-1.8210001,7.05705,6.64305
1679931078801,1111067155462755,-1.8240001,6.9820504,6.6790504
1679931078803,1111067157964909,-1.8139501,6.9490504,6.4900503
1679931078807,1111067160467030,-1.8190501,6.951,6.5860505
1679931078808,1111067162969107,-1.86195,6.939,6.6649504
1679931078812,1111067165471261,-1.8090001,6.9250503,6.4609504
1679931078814,1111067167973415,-1.8190501,6.88395,6.5860505
1679931078816,1111067170475569,-1.7689501,6.8770504,6.4420505
1679931078817,1111067172977741,-1.74495,6.879,6.4999504
1679931078820,1111067175479895,-1.7350501,6.9150004,6.5479503
1679931078823,1111067177982049,-1.728,6.9919505,6.42105
1679931078826,1111067180483972,-1.6660501,6.9370503,6.4180503
1679931078828,1111067182986136,-1.5990001,6.94605,6.3780003
1679931078831,1111067185488290,-1.6180501,6.8869505,6.4450502
1679931078833,1111067187990675,-1.6710001,6.9220505,6.42105
1679931078839,1111067190492593,-1.67805,6.9630003,6.4140005
1679931078840,1111067192994746,-1.5460501,6.9630003,6.282
1679931078841,1111067195496900,-1.6990501,6.978,6.3180003
1679931078843,1111067197998977,-1.6180501,6.93195,6.234
1679931078845,1111067200501131,-1.6870501,6.91305,6.327
1679931078847,1111067203003362,-1.71105,6.9660006,6.3130503
1679931078851,1111067205505424,-1.6489501,7.0849504,6.22695
1679931078853,1111067208007578,-1.7040001,6.9540005,6.2410502
1679931078855,1111067210509732,-1.6300501,6.918,6.15
1679931078857,1111067213011655,-1.7830501,7.0230002,6.1720505
1679931078860,1111067215513823,-1.6560001,6.97305,6.2029505
1679931078863,1111067218015977,-1.6990501,7.05705,6.2790003
1679931078866,1111067220518131,-1.7040001,7.0540504,6.234
1679931078867,1111067223020285,-1.7020501,7.05705,6.1740003
1679931078870,1111067225522439,-1.572,6.8910003,6.1980004
1679931078875,1111067228024516,-1.6800001,6.9660006,6.1480503
1679931078877,1111067230526670,-1.7710501,6.97305,6.15495
1679931078879,1111067233028824,-1.74705,6.9580503,6.0760503
1679931078881,1111067235531063,-1.7830501,6.978,6.2310004
1679931078883,1111067238033140,-1.6990501,7.0249505,6.1309505
1679931078885,1111067240535294,-1.70895,7.0420504,6.21495
1679931078887,1111067243037448,-1.7350501,6.9990005,6.2389503
1679931078891,1111067245539607,-1.71405,7.01595,6.30105
1679931078894,1111067248041530,-1.7179501,6.97305,6.40605
1679931078895,1111067250543684,-1.7590501,6.9820504,6.3559504
1679931078898,1111067253046068,-1.7860501,6.9540005,6.3780003
1679931078900,1111067255548222,-1.8000001,6.9150004,6.306
1679931078903,1111067258050135,-1.7520001,6.98505,6.3490505
1679931078905,1111067260552289,-1.7520001,6.9559503,6.3510003
1679931078908,1111067263054443,-1.7740501,6.94605,6.2959504
1679931078912,1111067265556597,-1.7860501,7.1050506,6.2700005
1679931078914,1111067268058665,-1.8259501,6.98505,6.31995
1679931078917,1111067270560896,-1.7209501,7.0470004,6.3180003
1679931078919,1111067273063049,-1.812,7.00395,6.2749505
1679931078921,1111067275565126,-1.66305,7.0639505,6.282
1679931078924,1111067278067270,-1.812,7.03695,6.29895
1679931078926,1111067280569424,-1.8019501,6.9919505,6.3679504
1679931078928,1111067283071578,-1.8240001,7.0639505,6.22695
1679931078931,1111067285573732,-1.7500501,7.1070004,6.31995
1679931078934,1111067288075679,-1.7689501,7.1239505,6.282
1679931078936,1111067290577833,-1.812,7.1980505,6.3130503
1679931078937,1111067293079987,-1.8169501,7.2049503,6.2080503
1679931078940,1111067295582140,-1.8859501,7.1599503,6.2650504
1679931078943,1111067298084304,-1.797,7.155,6.2770505
1679931078945,1111067300586458,-1.7659501,7.071,6.3820505
1679931078949,1111067303088612,-1.76205,7.188,6.3300004
1679931078952,1111067305590689,-1.7860501,7.176,6.3460503
1679931078954,1111067308092862,-1.7659501,7.1380506,6.30105
1679931078955,1111067310595016,-1.77795,7.1569505,6.2749505
1679931078957,1111067313097246,-1.644,7.2120004,6.3300004
1679931078960,1111067315599323,-1.7860501,7.143,6.40395
1679931078963,1111067318101477,-1.7380501,7.15005,6.39195
1679931078966,1111067320603621,-1.74195,7.12095,6.3850503
1679931078968,1111067323105544,-1.8430501,7.176,6.4729505
1679931078971,1111067325607698,-1.6489501,7.10895,6.56895
1679931078974,1111067328109852,-1.74705,7.1719503,6.5160003
1679931078976,1111067330612045,-1.7160001,7.3219504,6.5280004
1679931078979,1111067333114198,-1.7659501,7.116,6.4609504
1679931078980,1111067335616352,-1.7809501,7.143,6.4950004
1679931078983,1111067338118429,-1.8190501,7.1860504,6.5280004
1679931078987,1111067340620583,-1.8550501,7.1599503,6.4230003
1679931078988,1111067343122737,-1.86195,7.1070004,6.40395
1679931078991,1111067345624968,-1.8019501,7.0729504,6.49695
1679931078993,1111067348127045,-1.7710501,7.1620502,6.4159503
1679931078995,1111067350629198,-1.9290001,7.14795,6.4900503
1679931078997,1111067353131342,-1.8960001,7.1239505,6.49695
1679931079000,1111067355633265,-1.9200001,7.143,6.5020504
1679931079003,1111067358135419,-1.98405,7.1329503,6.36105
1679931079005,1111067360637573,-1.9770001,7.1020503,6.49695
1679931079007,1111067363139727,-2.013,7.08795,6.4609504
1679931079011,1111067365641886,-2.02305,7.1359506,6.49305
1679931079014,1111067368144040,-2.08005,7.1190004,6.45195
1679931079016,1111067370646194,-1.99995,7.071,6.3490505
1679931079018,1111067373148270,-2.05095,7.1140504,6.40395
1679931079020,1111067375650438,-2.01705,7.1860504,6.564
1679931079026,1111067378152592,-2.1040502,7.0540504,6.39405
1679931079027,1111067380654823,-2.05095,7.1520004,6.4849505
1679931079028,1111067383156910,-2.025,7.08795,6.4350004
1679931079033,1111067385659064,-2.05095,7.0729504,6.4350004
1679931079034,1111067388161218,-2.0680501,7.1260505,6.4420505
1679931079036,1111067390663141,-2.07495,7.1310005,6.40395
1679931079039,1111067393165295,-2.0680501,7.2000003,6.3780003
1679931079040,1111067395667649,-1.98195,7.1140504,6.3850503
1679931079043,1111067398169803,-2.02005,7.1620502,6.3900003
1679931079045,1111067400671726,-2.0269501,7.0210505,6.3079505
1679931079048,1111067403173880,-2.0059502,7.1980505,6.39405
1679931079051,1111067405676034,-2.01,7.1689506,6.28905
1679931079054,1111067408178188,-1.9990501,7.22205,6.3559504
1679931079056,1111067410680265,-1.9440001,7.2510004,6.306
1679931079059,1111067413182495,-1.9630501,7.1380506,6.2749505
1679931079063,1111067415684664,-1.82895,7.15005,6.306
1679931079065,1111067418186741,-1.8910501,7.1689506,6.3130503
1679931079067,1111067420688895,-1.8840001,7.1119504,6.282
1679931079069,1111067423191049,-1.8859501,7.1239505,6.2050505
1679931079071,1111067425693203,-1.8379501,7.1239505,6.1810503
1679931079074,1111067428195121,-1.9440001,7.1119504,6.3109503
1679931079076,1111067430697505,-1.8769501,7.15005,6.2959504
1679931079078,1111067433199659,-1.9290001,7.1070004,6.339
1679931079080,1111067435701582,-1.9050001,7.10895,6.29895
1679931079083,1111067438203736,-1.8649501,7.04505,6.2770505
1679931079085,1111067440705890,-1.8379501,7.071,6.2530503
1679931079087,1111067443207967,-1.9150501,7.071,6.2700005
1679931079091,1111067445710198,-1.764,7.071,6.18795
1679931079094,1111067448212352,-1.8600001,7.0810504,6.2719502
1679931079097,1111067450714500,-1.8649501,7.1929502,6.3490505
1679931079100,1111067453216577,-1.8690001,7.0519505,6.3490505
1679931079102,1111067455718731,-1.9630501,7.1520004,6.2359505
1679931079104,1111067458220885,-1.93605,7.116,6.3030005
1679931079106,1111067460722808,-2.0070002,7.1599503,6.2910004
1679931079108,1111067463225193,-1.9579501,7.0639505,6.3150005
1679931079110,1111067465727347,-2.01495,7.1670003,6.3439503
1679931079113,1111067468229270,-1.9480501,7.1449504,6.3559504
1679931079116,1111067470731424,-1.8910501,7.1790004,6.3580503
1679931079118,1111067473233567,-1.9939501,7.1359506,6.3559504
1679931079121,1111067475735721,-1.9720501,7.248,6.3580503
1679931079123,1111067478237875,-1.9990501,7.143,6.399
1679931079125,1111067480740029,-1.9650002,7.1140504,6.3679504
1679931079128,1111067483242183,-1.9440001,7.14795,6.4350004
1679931079131,1111067485744328,-1.9290001,7.18095,6.30105
1679931079134,1111067488246405,-1.98405,7.15005,6.2650504
1679931079138,1111067490748558,-1.8960001,7.116,6.3679504
1679931079140,1111067493250707,-1.9410001,7.1140504,6.2119503
1679931079142,1111067495752938,-1.95105,7.143,6.31995
1679931079144,1111067498255015,-1.9410001,7.18095,6.31995
1679931079146,1111067500757169,-1.9579501,7.10895,6.2959504
1679931079149,1111067503259323,-1.9290001,7.1620502,6.32205
1679931079151,1111067505761246,-1.9440001,7.08795,6.22905
1679931079153,1111067508263400,-1.98195,7.0969505,6.2629504
1679931079155,1111067510765553,-1.9219501,7.1380506,6.3780003
1679931079158,1111067513267938,-1.8690001,7.1239505,6.21495
1679931079160,1111067515769865,-1.90005,7.116,6.306
1679931079163,1111067518272019,-1.9720501,7.10895,6.28905
1679931079166,1111067520774173,-2.01495,7.05705,6.282
1679931079182,1111067523276250,-1.881,7.0519505,6.15495
1679931079182,1111067525778395,-1.9050001,7.071,6.1740003
1679931079183,1111067528280625,-1.932,7.143,6.2460003
1679931079183,1111067530782702,-1.98195,7.0969505,6.2749505
1679931079183,1111067533301549,-1.9339501,7.04895,6.1860003
1679931079183,1111067535787024,-1.9099501,7.116,6.2389503
1679931079184,1111067538289255,-1.9080001,7.1239505,6.1789503
1679931079186,1111067540791332,-1.8769501,7.1280003,6.1140003
1679931079187,1111067543293486,-1.8769501,7.1569505,6.1600504
1679931079190,1111067545795409,-1.8019501,7.1959505,6.1860003
1679931079193,1111067548297553,-1.8960001,7.143,6.19995
1679931079195,1111067550799706,-1.9630501,7.2000003,6.1759505
1679931079198,1111067553301860,-1.8840001,7.1959505,6.28695
1679931079200,1111067555804014,-1.8330001,7.1020503,6.282
1679931079203,1111067558306164,-1.8190501,7.1670003,6.2239504
1679931079205,1111067560808318,-1.9219501,7.2840004,6.2700005
1679931079208,1111067563310395,-1.9440001,7.215,6.2389503
1679931079212,1111067565812549,-1.9150501,7.2700505,6.3130503
1679931079216,1111067568314716,-1.8499501,7.2049503,6.2050505
1679931079217,1111067571131409,-1.86705,7.3180504,6.2910004
1679931079219,1111067573319024,-1.9200001,7.1860504,6.282
1679931079221,1111067575821178,-1.95105,7.2169504,6.2719502
1679931079224,1111067578323106,-1.9200001,7.1790004,6.22905
1679931079226,1111067580825260,-1.8649501,7.1929502,6.255
1679931079228,1111067583327414,-1.8529501,7.2649503,6.282
1679931079230,1111067585829568,-1.881,7.1740503,6.3079505
1679931079233,1111067588331722,-1.9150501,7.3030505,6.234
1679931079235,1111067590833865,-1.9530001,7.1980505,6.222
1679931079238,1111067593336019,-1.8960001,7.1959505,6.15705
1679931079240,1111067595838173,-1.8769501,7.2750006,6.19995
1679931079245,1111067598340250,-1.9080001,7.24095,6.2749505
1679931079246,1111067600842409,-1.90005,7.25505,6.267
1679931079252,1111067603344563,-1.8840001,7.2289505,6.28905
1679931079254,1111067605846793,-1.8690001,7.188,6.3180003
1679931079256,1111067608347820,-1.8739501,7.1719503,6.2530503
1679931079256,1111067610848861,-1.8240001,7.2990003,6.1759505
1679931079258,1111067613353168,-1.881,7.2510004,6.255
1679931079260,1111067615855091,-1.8499501,7.2169504,6.267
1679931079265,1111067618357245,-1.8720001,7.24095,6.2839503
1679931079266,1111067620859414,-1.8019501,7.0969505,6.267
1679931079268,1111067623361799,-1.9120501,7.2630005,6.2719502
1679931079270,1111067625863722,-1.8550501,7.2169504,6.2239504
1679931079273,1111067628365875,-1.90005,7.2430506,6.1810503
1679931079275,1111067630868029,-1.9390501,7.10895,6.3079505
1679931079280,1111067633370091,-1.8859501,7.155,6.2310004
1679931079280,1111067635872245,-1.8550501,7.1620502,6.2310004
1679931079284,1111067638374476,-1.89795,7.1070004,6.19605
1679931079287,1111067640876640,-1.8690001,7.0660505,6.2050505
1679931079291,1111067643378717,-1.86705,7.1070004,6.1639504
1679931079292,1111067645880870,-1.86195,7.0609503,6.1380005
1679931079294,1111067648383024,-1.8690001,7.2049503,6.18405
1679931079297,1111067650884947,-1.8880501,7.15005,6.21495
1679931079299,1111067653387101,-1.8379501,7.1140504,6.267
1679931079301,1111067655889486,-1.82895,7.116,6.162
1679931079303,1111067658391409,-1.8169501,7.0540504,6.2239504
1679931079306,1111067660893563,-1.7809501,7.116,6.2790003
1679931079308,1111067663395717,-1.8330001,7.1400003,6.15
1679931079312,1111067665897871,-1.8570001,7.0590005,6.1909504
1679931079314,1111067668399947,-1.7860501,7.10895,6.13605
1679931079317,1111067670902101,-1.7590501,7.083,6.3150005
1679931079318,1111067673404312,-1.845,7.01595,6.18795
1679931079321,1111067675906389,-1.74195,6.9750004,6.2029505
1679931079326,1111067678408543,-1.8019501,7.05705,6.18405
1679931079327,1111067680910697,-1.7809501,7.0350003,6.1909504
1679931079329,1111067683412606,-1.7809501,6.9940505,6.1810503
1679931079333,1111067685914760,-1.7299501,7.07805,6.1930504
1679931079334,1111067688417144,-1.7880001,7.0330505,6.2460003
1679931079337,1111067690919298,-1.79295,7.0470004,6.14295
1679931079338,1111067693421221,-1.7260501,7.04505,6.129
1679931079340,1111067695923389,-1.7350501,7.116,6.21495
1679931079343,1111067698425543,-1.6990501,7.1119504,6.08505
1679931079345,1111067700927697,-1.845,7.1239505,6.1380005
1679931079348,1111067703429774,-1.71405,7.1689506,6.12405
1679931079350,1111067705931971,-1.8090001,7.1980505,6.1000504
1679931079354,1111067708434125,-1.8379501,7.248,6.09705
1679931079356,1111067710936202,-1.7880001,7.2580504,6.11205
1679931079358,1111067713438356,-1.7500501,7.1790004,6.2509503
1679931079362,1111067715940519,-1.9120501,7.2000003,6.1399503
1679931079365,1111067718442673,-1.917,7.2120004,6.28905
1679931079366,1111067720944827,-1.9240501,7.2700505,6.2580004
1679931079368,1111067723446981,-1.8739501,7.2169504,6.28695
1679931079372,1111067725949134,-1.932,7.15005,6.339
1679931079375,1111067728451283,-1.9530001,7.18095,6.294
1679931079377,1111067730953206,-1.9699501,7.1670003,6.3850503
1679931079378,1111067733455360,-1.9560001,7.1860504,6.37305
1679931079380,1111067735957514,-1.9789501,7.215,6.43305
1679931079383,1111067738459679,-1.9909501,7.1400003,6.4950004
1679931079385,1111067740961833,-1.99995,7.1119504,6.4279504
1679931079388,1111067743463987,-2.01495,7.2750006,6.5020504
1679931079390,1111067745966064,-1.9960501,7.1190004,6.471
1679931079393,1111067748468231,-1.9390501,7.2460504,6.3970504
1679931079395,1111067750970385,-2.02005,7.1640005,6.4540505
1679931079400,1111067753472308,-2.0269501,7.1689506,6.4350004
1679931079401,1111067755974693,-2.0659502,7.2430506,6.4729505
1679931079404,1111067758476852,-1.99995,7.1640005,6.4350004
1679931079406,1111067760978775,-1.9459502,7.1719503,6.40605
1679931079408,1111067763480929,-2.0299501,7.143,6.282
1679931079411,1111067765983083,-1.9410001,7.24095,6.3490505
1679931079414,1111067768485251,-2.02005,7.1620502,6.339
1679931079416,1111067770987405,-1.98195,7.2120004,6.3750005
1679931079418,1111067773489559,-1.99995,7.14795,6.3250504
1679931079422,1111067775991713,-1.9909501,7.1839504,6.354
1679931079424,1111067778493790,-1.9270501,7.1070004,6.2359505
1679931079425,1111067780995944,-1.93605,7.1929502,6.399
1679931079428,1111067783498175,-1.9560001,7.2289505,6.3109503
1679931079431,1111067786000251,-1.848,7.1670003,6.2790003
1679931079434,1111067788502405,-1.8529501,7.24095,6.2719502
1679931079437,1111067791004544,-1.99995,7.1329503,6.2719502
1679931079439,1111067793506467,-1.8550501,7.18095,6.255
1679931079441,1111067796008621,-1.8739501,7.12095,6.22905
1679931079444,1111067798511006,-1.8499501,7.08795,6.282
1679931079445,1111067801012929,-1.764,7.1239505,6.129
1679931079448,1111067803515102,-1.86705,7.09005,6.29895
1679931079451,1111067806017255,-1.8259501,7.0420504,6.1860003
1679931079454,1111067808519332,-1.7809501,7.12095,6.1380005
1679931079456,1111067811021486,-1.848,7.01805,6.1330504
1679931079458,1111067813523644,-1.8240001,7.071,6.1000504
1679931079460,1111067816025875,-1.8000001,7.08795,6.0709505
1679931079463,1111067818527952,-1.8000001,7.0639505,6.08295
1679931079466,1111067821030106,-1.8360001,7.14795,6.1050005
1679931079468,1111067823532247,-1.83105,7.07805,6.1450505
1679931079471,1111067826034400,-1.8019501,7.1140504,6.0490503
1679931079477,1111067828536323,-1.848,7.1520004,6.14295
1679931079478,1111067831038708,-1.9080001,7.1119504,6.22695
1679931079480,1111067833540862,-1.8690001,7.1400003,6.0690002
1679931079481,1111067836042785,-1.86195,7.2030005,6.129
1679931079484,1111067838544939,-1.8430501,7.116,6.08505
1679931079486,1111067841047093,-1.9579501,7.1119504,6.1450505
1679931079488,1111067843549247,-1.8880501,7.188,6.1140003
1679931079491,1111067846051342,-1.8769501,7.1119504,6.2359505
1679931079496,1111067848553572,-1.89795,7.083,6.15705
1679931079497,1111067851055726,-1.9290001,7.1569505,6.2119503
1679931079501,1111067853557880,-1.9630501,7.2190504,6.2200503
1679931079502,1111067856059957,-1.98705,7.1959505,6.1930504
1679931079504,1111067858562106,-1.9339501,7.10895,6.09495
1679931079506,1111067861064260,-1.9650002,7.15005,6.25995
1679931079508,1111067863566413,-1.93605,7.1329503,6.1450505
1679931079512,1111067866068554,-1.9990501,7.1980505,6.2959504
1679931079516,1111067868570708,-2.0680501,7.12095,6.2239504
1679931079518,1111067871072862,-2.05395,7.1310005,6.22695
1679931079520,1111067873575016,-1.9270501,7.15005,6.1399503
1679931079521,1111067876076939,-1.9789501,7.12095,6.2530503
1679931079524,1111067878579116,-1.98705,7.1400003,6.327
1679931079526,1111067881081500,-1.9560001,7.21005,6.2530503
1679931079528,1111067883583424,-2.05095,7.1980505,6.2239504
1679931079531,1111067886085577,-1.9099501,7.0810504,6.32205
1679931079534,1111067888587721,-2.013,7.1929502,6.15705
1679931079536,1111067891089798,-1.9909501,7.1329503,6.2530503
1679931079538,1111067893591952,-1.98405,7.28205,6.2790003
1679931079541,1111067896094106,-1.9530001,7.176,6.2460003
1679931079543,1111067898596265,-1.8840001,7.1959505,6.2790003
1679931079546,1111067901098419,-2.0070002,7.1790004,6.28905
1679931079550,1111067903600572,-1.9650002,7.176,6.2460003
1679931079552,1111067906102496,-2.08005,7.1740503,6.078
1679931079554,1111067908604664,-1.9200001,7.1719503,6.19605
1679931079556,1111067911106818,-1.98405,7.1860504,6.1210504
1679931079558,1111067913608895,-1.9030501,7.1329503,6.1930504
1679931079561,1111067916111126,-1.932,7.10895,6.2239504
1679931079564,1111067918613280,-1.9390501,7.1959505,6.2359505
1679931079565,1111067921115415,-1.9080001,7.1929502,6.2509503
1679931079568,1111067923617492,-1.9600501,7.188,6.2050505
1679931079571,1111067926119645,-1.9650002,7.1740503,6.1260004
1679931079574,1111067928621799,-1.9650002,7.3060503,6.2239504
1679931079577,1111067931123977,-1.9200001,7.2460504,6.13605
1679931079578,1111067933626131,-1.9270501,7.2649503,6.18405
1679931079581,1111067936128285,-1.9050001,7.2310505,6.1980004
1679931079584,1111067938630439,-1.9440001,7.1910005,6.1789503
1679931079589,1111067941132319,-1.9030501,7.2649503,6.1450505
1679931079590,1111067943634473,-1.8790501,7.215,6.1860003
1679931079593,1111067946136626,-1.9099501,7.2120004,6.08505
1679931079595,1111067948639011,-1.86705,7.1329503,6.15495
1679931079596,1111067951140934,-1.9219501,7.1599503,6.2100005
1679931079599,1111067953643102,-1.9410001,7.1329503,6.1639504
1679931079601,1111067956145256,-1.9150501,7.2240005,6.1309505
1679931079603,1111067958647410,-1.83105,7.1640005,6.1330504
1679931079606,1111067961149487,-1.9720501,7.2390003,6.1909504
1679931079608,1111067963651717,-1.9080001,7.15005,6.1069503
1679931079613,1111067966153876,-1.9480501,7.1860504,6.18405
1679931079615,1111067968655953,-1.8910501,7.2070503,6.2700005
1679931079617,1111067971158107,-1.9789501,7.2510004,6.2530503
1679931079619,1111067973660227,-1.9290001,7.1599503,6.18405
1679931079621,1111067976162381,-1.9720501,7.1640005,6.2080503
1679931079625,1111067978664304,-1.9050001,7.1449504,6.18795
1679931079627,1111067981166688,-1.9480501,7.1449504,6.2050505
1679931079628,1111067983668842,-1.932,7.14795,6.267
1679931079631,1111067986170775,-2.01495,7.1860504,6.2200503
1679931079633,1111067988672929,-1.93605,7.2670503,6.2629504
1679931079635,1111067991175083,-1.8769501,7.1329503,6.2310004
1679931079638,1111067993677160,-2.0370002,7.0930505,6.2050505
1679931079641,1111067996179323,-1.9579501,7.1599503,6.33195
1679931079644,1111067998681554,-1.95105,7.0999503,6.2839503
1679931079646,1111068001183707,-1.9720501,7.2070503,6.25995
1679931079648,1111068003685784,-2.01495,7.2070503,6.2790003
1679931079652,1111068006187934,-1.95105,7.2240005,6.2629504
1679931079654,1111068008690088,-1.9720501,7.1790004,6.2119503
1679931079656,1111068011192011,-1.9099501,7.2000003,6.2580004
1679931079658,1111068013694396,-1.9410001,7.2750006,6.19605
1679931079662,1111068016196550,-1.8880501,7.188,6.22695
1679931079665,1111068018698473,-1.8930001,7.2049503,6.1789503
1679931079667,1111068021200627,-1.9390501,7.071,6.16905
1679931079669,1111068023702780,-1.9339501,7.1740503,6.117
1679931079671,1111068026204934,-1.9939501,7.1640005,6.1930504
1679931079674,1111068028707088,-1.9440001,7.1860504,6.03
1679931079676,1111068031209242,-1.9650002,7.2289505,6.117
1679931079678,1111068033711396,-1.95105,7.1719503,6.129
1679931079681,1111068036213473,-1.86195,7.1070004,6.0490503
1679931079683,1111068038715641,-1.9200001,7.2580504,6.0760503
1679931079686,1111068041217871,-1.968,7.1280003,6.222
1679931079688,1111068043719948,-1.9080001,7.1929502,6.01095
1679931079692,1111068046222102,-1.8930001,7.1980505,6.117
1679931079694,1111068048724266,-1.93605,7.12095,6.1069503
1679931079696,1111068051226189,-1.9290001,7.2750006,6.15705
1679931079700,1111068053728343,-2.02005,7.22205,6.1639504
1679931079702,1111068056230497,-1.93605,7.2700505,6.16905
1679931079704,1111068058732885,-1.9720501,7.215,6.16695
1679931079706,1111068061234809,-1.9909501,7.15005,6.1720505
1679931079708,1111068063736962,-1.968,7.2289505,6.1810503
1679931079710,1111068066239116,-1.9440001,7.1929502,6.13605
1679931079713,1111068068741270,-2.05095,7.2190504,6.18795
1679931079715,1111068071243347,-1.9410001,7.21005,6.234
1679931079718,1111068073745578,-1.9630501,7.2840004,6.1309505
1679931079722,1111068076247732,-1.98405,7.2580504,6.1210504
1679931079726,1111068078749886,-2.013,7.2889504,6.1450505
1679931079727,1111068081251948,-2.05095,7.2889504,6.1480503
1679931079728,1111068083754102,-2.0659502,7.2240005,6.1759505
1679931079732,1111068086256256,-1.9990501,7.1860504,6.2629504
1679931079734,1111068088758410,-2.0659502,7.2340503,6.117
1679931079738,1111068091260568,-2.061,7.3560004,6.1260004
1679931079740,1111068093762722,-2.094,7.2700505,6.16695
1679931079742,1111068096264876,-2.08995,7.3009505,6.2530503
1679931079744,1111068098766799,-2.11095,7.3300505,6.18795
1679931079746,1111068101268953,-2.1450002,7.2049503,6.19995
1679931079750,1111068103771078,-2.094,7.2750006,6.1399503
1679931079751,1111068106273155,-2.0710502,7.1640005,6.1069503
1679931079753,1111068108775386,-1.9939501,7.2460504,6.2050505
1679931079756,1111068111277540,-2.05095,7.3009505,6.12405
1679931079758,1111068113779645,-2.118,7.2910504,6.15495
1679931079762,1111068116281799,-1.9720501,7.2120004,6.1399503
1679931079764,1111068118783953,-2.0350502,7.1670003,6.2239504
1679931079766,1111068121286106,-2.0070002,7.2390003,6.1140003
1679931079768,1111068123788260,-1.98705,7.1839504,6.2029505
1679931079772,1111068126290410,-2.046,7.176,6.15495
1679931079776,1111068128792564,-1.9560001,7.143,6.1189504
1679931079779,1111068131293532,-1.9290001,7.1640005,6.21705
1679931079779,1111068133794495,-2.05605,7.0540504,6.09495
1679931079781,1111068136298803,-1.98195,7.1310005,6.0210004
1679931079783,1111068138800880,-1.9890001,7.1190004,6.045
1679931079786,1111068141303110,-1.9050001,7.1140504,6.1000504
1679931079788,1111068143805264,-2.01,7.1020503,6.03
1679931079791,1111068146307423,-1.9890001,7.15005,6.09705
1679931079803,1111068148809500,-1.9650002,7.07805,6.0469503
1679931079803,1111068151311654,-2.025,7.1190004,6.102
1679931079803,1111068153813808,-1.9909501,7.03695,6.0709505
1679931079803,1111068156315731,-1.8910501,7.15005,6.0880504
1679931079803,1111068158818115,-2.025,7.1910005,6.0709505
1679931079806,1111068161320269,-1.9720501,7.05705,6.12405
1679931079808,1111068163822423,-1.932,7.1260505,6.0610504
1679931079813,1111068166324365,-1.98405,7.0810504,6.05205
1679931079816,1111068168826519,-1.9630501,7.1020503,5.98005
1679931079818,1111068171756365,-1.917,7.1620502,6.1189504
1679931079819,1111068173831058,-1.9410001,7.15005,5.973
1679931079822,1111068176332981,-1.9270501,7.1980505,6.09495
1679931079824,1111068178835150,-1.9080001,7.1239505,6.0930004
1679931079826,1111068181337303,-1.9200001,7.1449504,6.1309505
1679931079829,1111068183839457,-2.0389502,7.1959505,6.1380005
1679931079831,1111068186341534,-1.932,7.1670003,6.0690002
1679931079834,1111068188843688,-1.9600501,7.215,6.0349503
1679931079836,1111068191345919,-2.013,7.2049503,6.1090503
1679931079838,1111068193848073,-2.0269501,7.1620502,6.1090503
1679931079843,1111068196350150,-1.9200001,7.1860504,6.1000504
1679931079846,1111068198852303,-1.9770001,7.2390003,6.1140003
1679931079847,1111068201354437,-1.95105,7.18095,6.1050005
1679931079854,1111068203856360,-2.043,7.3080006,6.21705
1679931079854,1111068206358745,-2.049,7.2460504,6.0490503
1679931079856,1111068211360899,-1.99995,7.2390003,6.0259504
1679931079860,1111068211490832,-2.02305,7.25505,6.0880504
1679931079861,1111068213864986,-2.0370002,7.215,6.0660005
1679931079862,1111068216367140,-2.094,7.1670003,6.08295
1679931079867,1111068218869217,-2.11095,7.22205,6.19605
1679931079868,1111068221371375,-2.09205,7.2360005,6.1090503
1679931079868,1111068223873606,-2.0269501,7.1860504,6.1069503
1679931079873,1111068226375683,-2.14695,7.1719503,6.1189504
1679931079875,1111068228877837,-2.07795,7.2670503,6.0469503
1679931079877,1111068231379996,-2.05605,7.1640005,6.16695
1679931079878,1111068233881919,-2.07495,7.2769504,6.11205
1679931079883,1111068236384073,-2.049,7.26,6.2029505
1679931079884,1111068238886227,-2.05095,7.2289505,6.0330005
1679931079890,1111068241388567,-2.05905,7.2049503,6.0540004
1679931079892,1111068243890490,-2.0370002,7.2460504,6.0259504
1679931079894,1111068246392644,-2.12595,7.1359506,6.1050005
1679931079895,1111068248894798,-2.0269501,7.1719503,6.12405
1679931079900,1111068251396875,-2.0389502,7.24095,6.15
1679931079901,1111068253899020,-2.043,7.2649503,6.09705
1679931079902,1111068256401251,-1.9630501,7.2070503,6.045
1679931079904,1111068258903404,-2.0989501,7.1400003,6.0420003
1679931079906,1111068261405481,-1.9579501,7.083,5.958
1679931079908,1111068263907635,-1.9579501,7.1599503,5.973
1679931079911,1111068266409789,-1.9200001,7.1050506,6.018
1679931079914,1111068268911943,-1.9560001,7.071,5.985
1679931079917,1111068271413866,-1.9270501,7.03695,5.98005
1679931079919,1111068273916251,-1.9909501,7.0930505,6.0090003
1679931079923,1111068276418399,-1.9120501,7.0810504,6.045
1679931079926,1111068278920323,-1.86705,7.0660505,6.06405
1679931079928,1111068281422476,-1.812,7.15005,5.9989505
1679931079930,1111068283924630,-1.8690001,7.083,5.973
1679931079933,1111068286426765,-1.812,6.978,5.8939505
1679931079936,1111068288928919,-1.7809501,7.0210505,5.93205
1679931079937,1111068291430996,-1.8379501,6.97305,5.9659505
1679931079939,1111068293933150,-1.764,7.00395,5.93895
1679931079941,1111068296435304,-1.8070501,6.9370503,5.92995
1679931079944,1111068298937452,-1.8550501,6.9990005,5.8890004
1679931079946,1111068301439606,-1.7400001,7.0609503,5.8840504
1679931079950,1111068303941760,-1.74495,6.9559503,5.9370003
1679931079952,1111068306443914,-1.7740501,6.9870005,5.9029503
1679931079954,1111068308946058,-1.7760001,6.9610505,5.9110503
1679931079956,1111068311447981,-1.74705,6.9490504,5.8429503
1679931079958,1111068313950135,-1.7689501,6.9900002,5.84595
1679931079963,1111068316452519,-1.7659501,6.9679503,5.87895
1679931079965,1111068318954456,-1.8330001,7.0849504,5.83395
1679931079968,1111068321456610,-1.7020501,6.9079504,5.841
1679931079969,1111068323958764,-1.76205,7.0300503,5.9010005
1679931079972,1111068326460918,-1.7659501,7.04895,5.7960005
1679931079977,1111068328962962,-1.8000001,7.0090504,5.9230504
1679931079978,1111068331465116,-1.848,6.9970503,5.9659505
1679931079980,1111068333967347,-1.8379501,6.9870005,5.87895
1679931079981,1111068336469500,-1.8840001,6.9870005,5.8669505
1679931079984,1111068338971577,-1.8910501,7.116,5.97795
1679931079986,1111068341473731,-1.9240501,6.9900002,6.0210004
1679931079988,1111068343975851,-1.9440001,7.04505,5.9149504
1679931079991,1111068346477774,-1.968,6.98505,6.0330005
1679931079994,1111068348979928,-1.9339501,6.9870005,6.1050005
1679931079996,1111068351482313,-1.9240501,7.0540504,6.0810003
1679931080000,1111068353984471,-1.917,6.97305,6.11205
1679931080003,1111068356486395,-1.93605,7.011,6.078
1679931080005,1111068358988548,-1.9030501,7.0519505,6.1069503
1679931080007,1111068361490625,-2.01705,7.04895,6.1639504
1679931080009,1111068363992779,-2.061,7.09005,6.0420003
1679931080013,1111068366495010,-1.9530001,7.04505,6.0709505
1679931080014,1111068368997164,-2.05395,7.0540504,6.1759505
1679931080018,1111068371499241,-2.02305,7.0810504,6.0810003
1679931080019,1111068374001414,-2.08995,7.0660505,6.1399503
1679931080022,1111068376503567,-1.9960501,7.1020503,6.0810003
1679931080024,1111068379005721,-2.0970001,7.1310005,6.1810503
1679931080035,1111068381507644,-2.0989501,7.0969505,6.1759505
1679931080037,1111068384010029,-2.0659502,7.1050506,6.21705
1679931080037,1111068386512159,-2.1090002,7.1520004,6.1930504
1679931080037,1111068389014082,-2.12595,7.176,6.16695
1679931080039,1111068391516236,-2.214,7.143,6.2239504
1679931080040,1111068394018380,-2.05905,7.10895,6.2719502
1679931080041,1111068396520457,-2.1090002,7.0930505,6.2310004
1679931080044,1111068399022610,-2.1330001,7.1119504,6.16905
1679931080046,1111068401524841,-2.08695,7.215,6.3750005
1679931080048,1111068404026995,-2.07495,7.1620502,6.3250504
1679931080052,1111068406529039,-2.05095,7.2120004,6.19995
1679931080054,1111068409031193,-1.9789501,7.188,6.3490505
1679931080056,1111068411533347,-2.02305,7.1980505,6.2770505
1679931080058,1111068414035501,-2.0059502,7.1670003,6.267
1679931080061,1111068416537654,-2.08695,7.2360005,6.1860003
1679931080063,1111068419039846,-2.0320501,7.1239505,6.16695
1679931080066,1111068421542000,-1.9939501,7.215,6.16695
1679931080069,1111068424044154,-1.9440001,7.1239505,6.33195
1679931080071,1111068426546077,-1.9579501,7.2580504,6.2770505
1679931080076,1111068429048237,-1.9480501,7.1020503,6.339
1679931080078,1111068431550391,-1.83105,7.083,6.2050505
1679931080079,1111068434052545,-1.9050001,7.0999503,6.2629504
1679931080083,1111068436554698,-1.9339501,7.0810504,6.2700005
1679931080084,1111068439056852,-1.93605,7.143,6.387
1679931080086,1111068441559006,-1.89795,7.188,6.2310004
1679931080089,1111068444061083,-1.9600501,7.0690503,6.1909504
1679931080092,1111068446563237,-1.93605,7.0399504,6.2080503
1679931080095,1111068449065496,-1.95105,7.07805,6.2430005
1679931080097,1111068451567650,-1.9990501,7.1280003,6.306
1679931080098,1111068454069726,-2.04195,7.0729504,6.3420005
1679931080101,1111068456571880,-2.0299501,7.1599503,6.4140005
1679931080104,1111068459074038,-1.99995,7.1070004,6.28695
1679931080106,1111068461575961,-2.0629501,7.1239505,6.2790003
1679931080110,1111068464078115,-2.0350502,7.1070004,6.2410502
1679931080114,1111068466580500,-2.0970001,7.0999503,6.3109503
1679931080116,1111068469082419,-2.0350502,7.1190004,6.39405
1679931080118,1111068471584573,-2.082,7.0729504,6.2910004
1679931080119,1111068474086727,-2.18295,7.04895,6.366
1679931080123,1111068476588803,-2.15205,7.0810504,6.3780003
1679931080127,1111068479090938,-2.1379502,7.0660505,6.387
1679931080129,1111068481593092,-2.1780002,7.0930505,6.31995
1679931080130,1111068484095246,-2.19705,7.0590005,6.4159503
1679931080133,1111068486597400,-2.1400502,7.0999503,6.4810505
1679931080134,1111068489099554,-2.1709502,7.0969505,6.459
1679931080136,1111068491601713,-2.1019502,7.0849504,6.459
1679931080139,1111068494103636,-2.217,7.0609503,6.3580503
1679931080141,1111068496605790,-2.2380002,7.0129504,6.43695
1679931080144,1111068499108174,-2.16405,7.1190004,6.3559504
1679931080146,1111068501610097,-2.2690501,7.0660505,6.5280004
1679931080150,1111068504112279,-2.25,7.1050506,6.4540505
1679931080153,1111068506614433,-2.262,7.1020503,6.50895
1679931080155,1111068509116587,-2.22105,7.0729504,6.46605
1679931080157,1111068511618674,-2.265,7.0090504,6.40395
1679931080159,1111068514120828,-2.19,7.03695,6.40395
1679931080161,1111068516623058,-2.2069502,6.9900002,6.4140005
1679931080163,1111068519125212,-2.3440502,7.0020003,6.3900003
1679931080166,1111068521627289,-2.2429502,7.0540504,6.5119505
1679931080168,1111068524129423,-2.229,7.011,6.3180003
1679931080172,1111068526631577,-2.265,7.0420504,6.3700504
1679931080175,1111068529133731,-2.1019502,6.9820504,6.3490505
1679931080177,1111068531635885,-2.2069502,7.01595,6.4230003
1679931080179,1111068534138024,-2.214,7.083,6.43695
1679931080181,1111068536640178,-2.15895,7.0300503,6.255
1679931080184,1111068539142101,-2.18505,6.9559503,6.3780003
1679931080188,1111068541644255,-2.2690501,6.9660006,6.2719502
1679931080190,1111068544146400,-2.1330001,7.0590005,6.2650504
1679931080191,1111068546648554,-2.1780002,7.1190004,6.3300004
1679931080195,1111068549150708,-2.061,7.0639505,6.2719502
1679931080197,1111068551652862,-2.1780002,6.94605,6.3130503
1679931080200,1111068554154939,-2.21895,7.0330505,6.339
1679931080202,1111068556657097,-2.16405,6.9799504,6.2629504
1679931080204,1111068559159328,-2.16195,7.0999503,6.0589504
1679931080206,1111068561661482,-2.08005,6.97305,6.2650504
1679931080209,1111068564163559,-2.1400502,6.9820504,6.2910004
1679931080212,1111068566665722,-2.061,7.0660505,6.3300004
1679931080215,1111068569167876,-2.18505,7.011,6.31995
1679931080217,1111068571670029,-2.1420002,6.9799504,6.2430005
1679931080219,1111068574171953,-1.9990501,7.0609503,6.19995
1679931080221,1111068576674337,-2.14695,6.9799504,6.2629504
1679931080226,1111068579176524,-2.1690001,7.1140504,6.2310004
1679931080228,1111068581678447,-2.0970001,7.0350003,6.14295
1679931080230,1111068584180601,-2.1690001,6.9820504,6.2080503
1679931080231,1111068586682755,-2.11395,7.0639505,6.3439503
1679931080234,1111068589184904,-2.0370002,7.0609503,6.22905
1679931080236,1111068591686981,-2.16405,7.2289505,6.3370504
1679931080239,1111068594189211,-2.082,7.0210505,6.3109503
1679931080241,1111068596691288,-2.025,7.1640005,6.267
1679931080244,1111068599193438,-2.12805,7.1719503,6.234
1679931080246,1111068601695592,-2.05905,7.1520004,6.2310004
1679931080252,1111068604197746,-2.14695,7.1329503,6.2530503
1679931080252,1111068606699669,-2.16195,7.0639505,6.3079505
1679931080254,1111068609202054,-2.154,7.10895,6.12405
1679931080256,1111068611704207,-2.08005,7.1359506,6.1740003
1679931080258,1111068614206130,-2.1040502,7.1020503,6.2119503
1679931080263,1111068616708284,-2.0970001,7.14795,6.2410502
1679931080266,1111068619210394,-2.046,7.1329503,6.282
1679931080268,1111068621712548,-2.1090002,7.0609503,6.22905
1679931080269,1111068624214625,-2.046,7.1380506,6.282
1679931080271,1111068626716856,-1.98705,7.07805,6.09705
1679931080274,1111068629219010,-2.046,7.0969505,6.1810503
1679931080277,1111068631721097,-2.0350502,7.1449504,6.162
1679931080279,1111068634223250,-2.11395,7.0540504,6.1639504
1679931080282,1111068636725404,-1.9650002,7.083,6.2430005
1679931080285,1111068639227558,-2.0059502,7.0729504,6.18405
1679931080287,1111068641729481,-2.05095,7.04505,6.2580004
1679931080289,1111068644231866,-2.05905,7.0470004,6.18405
1679931080292,1111068646734020,-2.025,7.0729504,6.1309505
1679931080295,1111068649235943,-2.0029502,7.0210505,6.28905
1679931080297,1111068651738111,-2.05095,7.0950003,6.294
1679931080300,1111068654240264,-2.0059502,6.9750004,6.2839503
1679931080303,1111068656742418,-2.0059502,7.15005,6.2389503
1679931080305,1111068659244572,-2.02005,7.0350003,6.2719502
1679931080307,1111068661746726,-2.0989501,7.0660505,6.222
1679931080309,1111068664248880,-2.01,7.0729504,6.3370504
1679931080311,1111068666751034,-2.0659502,7.12095,6.3109503
1679931080314,1111068669253111,-2.13,7.07595,6.3130503
1679931080316,1111068671755264,-2.0680501,7.071,6.2410502
1679931080319,1111068674257433,-2.09205,7.0999503,6.222
1679931080323,1111068676759664,-2.0299501,7.10895,6.2080503
1679931080324,1111068679261741,-2.046,7.15005,6.234
1679931080326,1111068681763895,-2.193,7.215,6.22905
1679931080329,1111068684266058,-2.1379502,7.116,6.3300004
1679931080333,1111068686768212,-2.16405,7.1020503,6.2910004
1679931080335,1111068689270135,-2.1690001,7.1689506,6.3370504
1679931080339,1111068691772519,-2.20005,7.143,6.327
1679931080340,1111068694274683,-2.1450002,7.1719503,6.18795
1679931080343,1111068696776606,-2.16195,7.0639505,6.33405
1679931080345,1111068699278760,-2.181,7.0540504,6.16695
1679931080347,1111068701780914,-2.1760502,7.0810504,6.2910004
1679931080349,1111068704282991,-2.1090002,7.0590005,6.2790003
1679931080351,1111068706785159,-2.16405,7.0420504,6.2509503
1679931080354,1111068709287389,-2.1780002,7.1239505,6.2200503
1679931080356,1111068711789466,-2.2380002,7.1260505,6.2389503
1679931080358,1111068714291620,-2.2480502,7.116,6.31995
1679931080361,1111068716793774,-2.2450502,7.08795,6.2770505
1679931080364,1111068719295697,-2.2360501,7.0249505,6.25995
1679931080366,1111068721797851,-2.2429502,6.9660006,6.3030005
1679931080369,1111068724300005,-2.2429502,6.9799504,6.1909504
1679931080372,1111068726802366,-2.229,7.0249505,6.3250504
1679931080377,1111068729304289,-2.2669501,7.0020003,6.255
1679931080379,1111068731806442,-2.214,6.9700503,6.3580503
1679931080381,1111068734338366,-2.22105,7.1260505,6.3700504
1679931080383,1111068736810673,-2.157,7.0660505,6.29895
1679931080385,1111068739312827,-2.2020001,7.0350003,6.2430005
1679931080387,1111068741815058,-2.16195,7.01595,6.2119503
1679931080389,1111068744317212,-2.121,7.0300503,6.1380005
1679931080391,1111068746819289,-2.2429502,7.03695,6.1789503
1679931080394,1111068749321448,-2.2360501,6.94605,6.222
1679931080396,1111068751823601,-2.157,6.9580503,6.21705
1679931080399,1111068754325524,-2.1379502,6.9679503,6.19605
1679931080402,1111068756827678,-2.2810502,7.0810504,6.1759505
1679931080405,1111068759330053,-2.1760502,6.9540005,6.25995
1679931080407,1111068761832207,-2.1760502,6.91095,6.2239504
1679931080409,1111068764334130,-2.118,6.918,6.1309505
1679931080414,1111068766836284,-2.121,6.9630003,6.1720505
1679931080417,1111068769337371,-2.2050002,7.0090504,6.2200503
1679931080417,1111068771838450,-2.18805,7.00395,6.3490505
1679931080429,1111068774342756,-2.214,6.9490504,6.3300004
1679931080429,1111068776844833,-2.1730502,7.03695,6.2719502
1679931080430,1111068779346987,-2.118,6.9700503,6.1759505
1679931080430,1111068781849141,-2.1400502,6.98505,6.2650504
1679931080430,1111068784351064,-2.1090002,7.03695,6.3370504
1679931080431,1111068786853449,-2.25705,6.9610505,6.2700005
1679931080434,1111068789355602,-2.18295,6.97305,6.2839503
1679931080436,1111068791857775,-2.154,7.0639505,6.2310004
1679931080439,1111068794359698,-2.26005,7.083,6.42495
1679931080441,1111068796861852,-2.2069502,7.0230002,6.3130503
1679931080444,1111068799364006,-2.2069502,6.94395,6.40395
1679931080446,1111068801866376,-2.2360501,7.00605,6.25995
1679931080451,1111068804368299,-2.25495,7.0639505,6.3679504
1679931080454,1111068806870453,-2.265,6.978,6.4110003
1679931080456,1111068809372607,-2.193,7.04505,6.43695
1679931080458,1111068811874708,-2.2789502,6.9750004,6.40395
1679931080460,1111068814376862,-2.2069502,7.04505,6.339
1679931080462,1111068816879016,-2.2789502,6.9870005,6.4090505
1679931080465,1111068819381247,-2.286,6.9870005,6.4350004
1679931080467,1111068821883328,-2.217,6.97305,6.50505
1679931080469,1111068824385482,-2.265,6.9970503,6.3510003
1679931080474,1111068826887636,-2.181,7.0279503,6.42495
1679931080475,1111068829389789,-2.35995,6.9370503,6.36105
1679931080477,1111068831891698,-2.28795,6.939,6.40605
1679931080479,1111068834393852,-2.1760502,6.9820504,6.399
1679931080482,1111068836896237,-2.2450502,7.04895,6.39195
1679931080484,1111068839398391,-2.2429502,7.0950003,6.32205
1679931080490,1111068841900280,-2.391,6.9870005,6.46395
1679931080490,1111068844402434,-2.2840502,7.0279503,6.2629504
1679931080496,1111068846904588,-2.2410002,7.00605,6.2509503
1679931080497,1111068849406665,-2.2360501,7.0639505,6.366
1679931080499,1111068851908895,-2.2740002,6.98505,6.3130503
1679931080500,1111068854411030,-2.226,6.9799504,6.3700504
1679931080503,1111068856913184,-2.193,7.04895,6.3630004
1679931080507,1111068859415261,-2.3149502,7.071,6.387
1679931080508,1111068861917415,-2.2740002,6.9610505,6.2650504
1679931080509,1111068864419569,-2.3080502,6.9919505,6.33195
1679931080511,1111068866921501,-2.2669501,7.0729504,6.2700005
1679931080514,1111068869423885,-2.2380002,7.1400003,6.2910004
1679931080516,1111068871926039,-2.2360501,6.9990005,6.42105
1679931080519,1111068874427962,-2.26005,7.08795,6.2650504
1679931080523,1111068876930112,-2.22105,7.0129504,6.28905
1679931080527,1111068879432266,-2.2450502,7.083,6.40605
1679931080531,1111068881934343,-2.265,7.0129504,6.37305
1679931080532,1111068884436497,-2.3100002,7.0420504,6.2410502
1679931080534,1111068886938728,-2.25705,7.083,6.29895
1679931080536,1111068889440881,-2.3389502,7.03695,6.3370504
1679931080538,1111068891942958,-2.25,7.1280003,6.2719502
1679931080540,1111068894445112,-2.2480502,7.09005,6.1980004
1679931080542,1111068896947266,-2.28795,7.0810504,6.327
1679931080547,1111068899449198,-2.298,7.1140504,6.366
1679931080551,1111068901951583,-2.3080502,7.07595,6.2100005
1679931080551,1111068904453737,-2.26005,7.0420504,6.19605
1679931080553,1111068906955890,-2.2740002,7.0950003,6.19995
1679931080555,1111068909457814,-2.3100002,7.0230002,6.18405
1679931080557,1111068911959962,-2.19495,6.98505,6.2790003
1679931080559,1111068914462116,-2.214,7.09005,6.222
1679931080565,1111068916964270,-2.262,7.04895,6.1189504
1679931080567,1111068919466424,-2.29095,7.083,6.1450505
1679931080568,1111068921968573,-2.2410002,6.978,6.267
1679931080570,1111068924470727,-2.2669501,7.0810504,6.15495
1679931080576,1111068926972804,-2.22105,7.0519505,6.1600504
1679931080577,1111068929474962,-2.1709502,7.0540504,6.117
1679931080578,1111068931977116,-2.14695,7.0470004,6.1639504
1679931080580,1111068934479347,-2.1349502,7.0590005,6.1069503
1679931080583,1111068936981424,-2.25705,7.0090504,6.09705
1679931080585,1111068939483578,-2.157,7.09005,6.1450505
1679931080587,1111068941985722,-2.121,7.071,6.15495
1679931080595,1111068944487876,-2.1709502,7.0399504,6.1600504
1679931080597,1111068946989799,-2.1330001,7.0279503,6.1399503
1679931080598,1111068949491947,-2.193,7.0729504,6.0589504
1679931080601,1111068951994332,-2.19,6.9580503,6.078
1679931080603,1111068954496486,-2.28795,7.04505,6.0690002
1679931080604,1111068956998409,-2.061,7.0690503,6.0610504
1679931080606,1111068959500563,-2.0659502,6.9630003,6.018
1679931080607,1111068962002741,-2.12595,6.9660006,6.1519504
1679931080609,1111068964504818,-2.12295,6.9370503,6.1759505
1679931080614,1111068967006971,-2.08695,7.0810504,6.1069503
1679931080617,1111068969509202,-2.11395,7.0519505,6.0349503
1679931080618,1111068972011279,-2.049,7.04895,6.0660005
1679931080619,1111068974513447,-2.1040502,7.0540504,6.11205
1679931080624,1111068977015601,-2.0710502,6.9820504,6.129
1679931080625,1111068979517524,-2.0710502,6.9900002,6.13605
1679931080627,1111068982019678,-2.025,7.0690503,6.22905
1679931080629,1111068984522052,-2.0730002,7.0300503,6.2029505
1679931080633,1111068987024206,-2.08005,6.98505,6.0400505
1679931080635,1111068989526129,-2.0710502,6.9679503,6.1210504
1679931080640,1111068992028250,-2.0370002,7.0350003,6.0930004
1679931080642,1111068994530404,-2.08995,7.04505,6.117
1679931080643,1111068997032481,-2.1690001,7.05705,6.1740003
1679931080645,1111068999534635,-2.154,7.1599503,6.13605
1679931080647,1111069002036866,-2.1690001,7.03695,6.1600504
1679931080650,1111069004538948,-2.05905,7.1620502,6.1260004
1679931080656,1111069007041101,-2.061,7.07595,6.1480503
1679931080658,1111069009543255,-2.18295,7.0729504,6.21705
1679931080660,1111069012045409,-2.07795,7.0849504,6.15705
1679931080661,1111069014547332,-2.1400502,7.2240005,6.13605
1679931080662,1111069017049495,-2.05605,7.05705,6.2389503
1679931080664,1111069019551880,-2.11095,7.0399504,6.21495
1679931080666,1111069022053803,-2.12595,7.0609503,6.2310004
1679931080669,1111069024555957,-2.13,7.0639505,6.13605
1679931080673,1111069027058115,-2.1760502,7.1359506,6.1860003
1679931080677,1111069029560269,-2.12595,7.07595,6.2749505
1679931080678,1111069032062423,-2.1780002,7.1140504,6.129
1679931080680,1111069034564577,-2.214,7.08795,6.339
1679931080685,1111069037066654,-2.23305,7.116,6.1450505
1679931080686,1111069039568808,-2.154,7.1380506,6.21705
1679931080688,1111069042070962,-2.2429502,7.1140504,6.1759505
1679931080689,1111069044573192,-2.3460002,7.0849504,6.3460503
1679931080694,1111069047075221,-2.32395,7.1520004,6.2239504
1679931080696,1111069049577375,-2.29095,7.1620502,6.19995
1679931080698,1111069052079529,-2.3389502,7.1190004,6.2770505
1679931080701,1111069054581683,-2.3389502,7.1329503,6.129
1679931080703,1111069057083606,-2.2810502,7.0729504,6.1309505
1679931080705,1111069059585774,-2.2720501,7.1670003,6.2580004
1679931080707,1111069062088158,-2.217,7.1670003,6.1789503
1679931080709,1111069064590312,-2.18805,7.2120004,6.15
1679931080714,1111069067092235,-2.25,7.0930505,6.1210504
1679931080717,1111069069594394,-2.23305,7.09005,6.1759505
1679931080718,1111069072096548,-2.2480502,7.1310005,6.1860003
1679931080721,1111069074598702,-2.2410002,7.0660505,6.13605
1679931080724,1111069077100779,-2.3100002,7.0420504,6.2359505
1679931080726,1111069079924553,-2.32395,7.0470004,6.2839503
1679931080728,1111069082105169,-2.29305,7.0950003,6.2910004
1679931080730,1111069084607245,-2.32005,7.03695,6.2650504
1679931080733,1111069087109399,-2.2669501,7.1689506,6.29895
1679931080736,1111069089611553,-2.2720501,7.0639505,6.3180003
1679931080737,1111069092113717,-2.265,7.0810504,6.21705
1679931080739,1111069094615871,-2.253,7.0590005,6.3580503
1679931080742,1111069097118025,-2.25,7.0729504,6.2700005
1679931080744,1111069099620179,-2.286,7.0540504,6.1519504
1679931080746,1111069102122102,-2.26005,7.0729504,6.22905
1679931080751,1111069104624232,-2.2020001,7.0729504,6.22695
1679931080753,1111069107126385,-2.2429502,7.071,6.1210504
1679931080755,1111069109628462,-2.3119502,7.0350003,6.30105
1679931080757,1111069112130693,-2.21895,7.1239505,6.1260004
1679931080760,1111069114632847,-2.26005,7.0230002,6.306
1679931080762,1111069117135006,-2.2410002,7.0279503,6.2239504
1679931080764,1111069119637083,-2.265,7.05705,6.2770505
1679931080766,1111069122139237,-2.32395,7.0969505,6.22695
1679931080769,1111069124641160,-2.391,7.03695,6.2200503
1679931080776,1111069127143289,-2.2810502,7.10895,6.2629504
1679931080777,1111069129645674,-2.33205,7.0020003,6.3079505
1679931080779,1111069132147828,-2.38695,6.9900002,6.2200503
1679931080780,1111069134649751,-2.3460002,7.10895,6.22695
1679931080783,1111069137151905,-2.38905,7.05705,6.354
1679931080785,1111069139654045,-2.36505,7.0660505,6.2719502
1679931080788,1111069142156122,-2.394,7.07595,6.19995
1679931080791,1111069144658352,-2.3460002,7.1190004,6.22905
1679931080793,1111069147160506,-2.35995,7.116,6.2839503
1679931080795,1111069149662674,-2.35995,7.1689506,6.2719502
1679931080797,1111069152164751,-2.403,7.1140504,6.2200503
1679931080799,1111069154666905,-2.4109502,7.0519505,6.3679504
1679931080803,1111069157169059,-2.367,7.09005,6.32205
1679931080805,1111069159671213,-2.4060001,7.0590005,6.3079505
1679931080807,1111069162173366,-2.3770502,7.1689506,6.31995
1679931080809,1111069164675520,-2.3050501,7.03695,6.3180003
1679931080813,1111069167177674,-2.358,7.0660505,6.2200503
1679931080817,1111069169679862,-2.32395,7.176,6.3030005
1679931080818,1111069172181785,-2.334,7.0690503,6.3370504
1679931080820,1111069174683939,-2.38395,7.00395,6.1740003
1679931080823,1111069177186324,-2.3119502,7.1050506,6.2029505
1679931080826,1111069179688247,-2.286,6.9799504,6.3679504
1679931080828,1111069182190401,-2.2480502,7.0729504,6.2509503
1679931080830,1111069184692554,-2.35305,7.0210505,6.2509503
1679931080833,1111069187194708,-2.3100002,7.01595,6.1759505
1679931080835,1111069189696785,-2.36295,7.1620502,6.2100005
1679931080837,1111069192198962,-2.32395,7.083,6.1980004
1679931080839,1111069194701193,-2.2789502,7.0540504,6.1759505
1679931080843,1111069197203270,-2.35995,7.0849504,6.2839503
1679931080845,1111069199705424,-2.2810502,7.0420504,6.1930504
1679931080847,1111069202207577,-2.214,7.1329503,6.1000504
1679931080849,1111069204709731,-2.3050501,7.0350003,6.1050005
1679931080854,1111069207211654,-2.33205,7.0420504,6.13605
1679931080856,1111069209713808,-2.265,7.0519505,6.0610504
1679931080858,1111069212216193,-2.229,6.9970503,6.0610504
1679931080860,1111069214718116,-2.2429502,7.05705,6.0610504
1679931080866,1111069217220270,-2.2720501,6.9700503,6.0930004
1679931080868,1111069219722424,-2.16405,7.0350003,6.117
1679931080870,1111069222224534,-2.25495,6.8940005,6.08295
1679931080871,1111069224726687,-2.2360501,6.9660006,6.18405
1679931080873,1111069227228918,-2.18505,7.0540504,6.0760503
1679931080875,1111069229730995,-2.21895,7.07595,6.102
1679931080877,1111069232233149,-2.1349502,7.03695,6.0660005
1679931080879,1111069234735289,-2.16195,7.01805,6.05205
1679931080883,1111069237237443,-2.23305,6.9220505,6.0540004
1679931080885,1111069239739366,-2.18295,7.0249505,6.1090503
1679931080887,1111069242241520,-2.25495,7.011,6.1090503
1679931080889,1111069244743904,-2.217,7.0279503,6.0420003
1679931080894,1111069247245846,-2.226,7.0729504,6.1050005
1679931080896,1111069249748000,-2.22405,7.1620502,6.129
1679931080898,1111069252250154,-2.3100002,7.1280003,6.14295
1679931080901,1111069254752299,-2.29305,7.0639505,6.12405
1679931080903,1111069257254376,-2.35995,7.2340503,6.1450505
1679931080905,1111069259756530,-2.43195,7.1400003,6.31995
1679931080907,1111069262258760,-2.46795,7.143,6.129
1679931080909,1111069264760914,-2.5140002,7.1670003,6.1810503
1679931080913,1111069267262971,-2.53005,7.3009505,6.2749505
1679931080916,1111069269765125,-2.49405,7.188,6.1330504
1679931080918,1111069272267279,-2.4780002,7.227,6.2050505
1679931080920,1111069274769433,-2.499,7.1910005,6.2100005
1679931080922,1111069277271587,-2.45595,7.26,6.234
1679931080925,1111069279773544,-2.5140002,7.2340503,6.234
1679931080927,1111069282275698,-2.4130502,7.2910504,6.2080503
1679931080929,1111069284777851,-2.427,7.227,6.24795
1679931080933,1111069287279995,-2.47305,7.2240005,6.222
1679931080935,1111069289782149,-2.38905,7.2120004,6.2719502
1679931080938,1111069292284303,-2.33205,7.2049503,6.327
1679931080940,1111069294786457,-2.3080502,7.1719503,6.2770505
1679931080943,1111069297288534,-2.2999501,7.2120004,6.32205
1679931080946,1111069299790727,-2.25,7.1689506,6.3900003
1679931080949,1111069302292880,-2.25705,7.2070503,6.19995
1679931080951,1111069304795034,-2.2740002,7.1929502,6.3900003
1679931080953,1111069307297188,-2.22105,7.0729504,6.3490505
1679931080955,1111069309799332,-2.2480502,7.1020503,6.21495
1679931080957,1111069312301486,-2.2069502,7.2070503,6.3109503
1679931080960,1111069314803409,-2.15895,7.2310505,6.3300004
1679931080962,1111069317305563,-2.1379502,7.1860504,6.3750005
1679931080964,1111069319807693,-2.14695,7.1790004,6.3490505
1679931080967,1111069322310077,-2.23095,7.2049503,6.4470005
1679931080969,1111069324812000,-2.214,7.1359506,6.4540505
1679931080975,1111069327314154,-2.18805,7.2030005,6.5140505
1679931080980,1111069329816303,-2.1690001,7.0810504,6.6460505
1679931080981,1111069334818457,-2.121,7.227,6.7369504
1679931080983,1111069334966765,-2.19,7.24095,6.7579503
1679931080984,1111069337322765,-2.2069502,7.215,6.8590503
1679931080986,1111069339824918,-2.2380002,7.22205,6.8610005
1679931080988,1111069342327072,-2.22105,7.2910504,7.1059504
1679931080990,1111069344829145,-2.2789502,7.248,7.11495
1679931080993,1111069347331299,-2.2069502,7.2649503,7.1730003
1679931080995,1111069349833453,-2.22405,7.22205,7.3069506
1679931080997,1111069352335376,-2.2759502,7.3009505,7.3999505
1679931081000,1111069354837775,-2.29605,7.3300505,7.6090503
1679931081003,1111069357339928,-2.3719501,7.3300505,7.5850506
1679931081005,1111069359841852,-2.43195,7.22205,7.9540505
1679931081007,1111069362344005,-2.41995,7.2460504,8.112
1679931081010,1111069364846159,-2.367,7.1959505,8.2240505
1679931081016,1111069367348212,-2.2690501,7.1959505,8.155951
1679931081018,1111069369849289,-2.2690501,7.071,8.217
1679931081018,1111069372350366,-2.2720501,7.071,8.18595
1679931081020,1111069374854751,-2.1780002,7.215,8.122951
1679931081023,1111069377356838,-1.9630501,7.1670003,8.08005
1679931081025,1111069379858991,-1.9770001,7.2889504,8.029051
1679931081029,1111069382361145,-1.8240001,7.3300505,8.001
1679931081030,1111069384863068,-1.8330001,7.38,7.79505
1679931081033,1111069387365453,-1.8190501,7.3369503,7.52505
1679931081035,1111069389867607,-1.8240001,7.2750006,7.2370505
1679931081037,1111069392369530,-2.05905,7.1980505,7.1509504
1679931081039,1111069394871684,-2.1730502,6.9660006,6.9360003
1679931081043,1111069397373837,-2.29095,6.7120504,6.7630506
1679931081055,1111069399875914,-2.56095,6.6780005,6.663
1679931081055,1111069402378067,-2.5090501,6.4549503,6.50895
1679931081055,1111069404880298,-2.6260502,6.2850003,6.4810505
1679931081056,1111069407382457,-2.5830002,6.2590504,6.4300504
1679931081057,1111069409884534,-2.63295,6.16305,6.42495
1679931081058,1111069412386688,-2.6550002,6.2779503,6.2119503
1679931081060,1111069414888842,-2.7480001,6.45795,6.1720505
1679931081062,1111069417390996,-2.8609502,6.537,6.0060005
1679931081064,1111069419893149,-2.91405,6.6660004,5.9490004
1679931081067,1111069422395303,-3.01395,6.7260003,5.78805
1679931081070,1111069424897457,-3.1990502,6.9679503,5.6179504
1679931081073,1111069427399611,-3.2299502,6.9820504,5.4289503
1679931081075,1111069429901544,-3.5170503,7.2670503,5.3880005
1679931081078,1111069432403698,-3.5629501,7.32,5.29005
1679931081080,1111069434905852,-3.5749502,7.41795,5.2590003
1679931081084,1111069437408236,-3.6870003,7.5330005,5.091
1679931081085,1111069439910149,-3.6180003,7.48995,5.1940503
1679931081089,1111069442412303,-3.4960501,7.5840006,5.2849503
1679931081092,1111069444914457,-3.3949502,7.7389503,5.30205
1679931081096,1111069447416539,-3.24195,7.5790505,5.367
1679931081097,1111069449918693,-3.03795,7.6000504,5.4630003
1679931081098,1111069452420847,-2.8630502,7.56405,5.544
1679931081100,1111069454923001,-2.5540502,7.65495,5.6280003
1679931081103,1111069457425155,-2.394,7.6750503,5.77395
1679931081106,1111069459927293,-2.15895,7.63605,5.77395
1679931081107,1111069462429447,-1.95105,7.6650004,5.6779504
1679931081111,1111069464931370,-1.7659501,7.6170006,5.7720003
1679931081113,1111069467433524,-1.59195,7.6099505,5.8429503
1679931081116,1111069469935880,-1.3810501,7.5840006,5.973
1679931081118,1111069472437803,-1.146,7.5979505,6.15705
1679931081120,1111069474939957,-0.97395,7.6189504,6.327
1679931081123,1111069477442111,-0.81105006,7.5040503,6.4900503
1679931081128,1111069479944178,-0.77205,7.4130006,6.6790504
1679931081129,1111069482446332,-0.70305,7.4350505,6.7900505
1679931081131,1111069484948486,-0.78705,7.4160004,6.9090004
1679931081134,1111069487450640,-0.85605,7.2670503,7.182
1679931081136,1111069489952794,-0.90900004,7.3009505,7.3669505
1679931081138,1111069492454952,-1.005,7.2769504,7.5919504
1679931081140,1111069494957106,-1.1509501,7.0540504,7.8940506
1679931081144,1111069497459029,-1.3930501,6.8890505,8.11905
1679931081145,1111069499961413,-1.5769501,6.9490504,8.193001
1679931081150,1111069502463336,-1.6060501,6.6900005,8.269951
1679931081151,1111069504965721,-1.9789501,6.5179505,8.29395
1679931081153,1111069507467644,-2.21895,6.47205,8.3560505
1679931081155,1111069509969798,-2.4390001,6.4219503,8.34405
1679931081159,1111069512471928,-2.64105,6.3790503,8.29605
1679931081160,1111069514974082,-2.8249502,6.2470503,8.229
1679931081165,1111069517476235,-2.98095,6.1870503,8.073
1679931081166,1111069519978312,-2.8939502,6.0720005,7.8769503
1679931081168,1111069522480466,-3.14805,6.1320004,7.79295
1679931081171,1111069524982596,-3.3970501,6.19395,7.872
1679931081174,1111069527484750,-3.522,6.1150503,7.80495
1679931081176,1111069529986904,-3.5530503,6.1200004,7.635
1679931081178,1111069532489058,-3.62505,6.0700502,7.7239504
1679931081181,1111069534991236,-3.69195,6.11805,7.8790503
1679931081183,1111069537493389,-3.6510003,6.16305,7.8840003
1679931081185,1111069539995312,-3.6460502,6.02895,7.7070003
1679931081187,1111069542497466,-3.58695,6.04395,7.7550006
1679931081190,1111069544999620,-3.4399502,5.991,7.6110005
1679931081195,1111069547502010,-3.31395,6.2260504,7.458
1679931081196,1111069550003933,-3.321,6.22095,7.3980002
1679931081197,1111069552506087,-3.2340002,6.3739505,7.1179504
1679931081201,1111069555008227,-3.21105,6.52995,7.05495
1679931081204,1111069557510304,-3.1600502,6.69705,6.9040504
1679931081206,1111069560012457,-3.0570002,6.9199505,6.8610005
1679931081207,1111069562514611,-2.90895,7.116,6.64095
1679931081210,1111069565016842,-2.8230002,7.2310505,6.6000004
1679931081217,1111069567518923,-2.8150501,7.4490004,6.50895
1679931081217,1111069570021077,-2.8150501,7.54995,6.60795
1679931081219,1111069572523231,-2.96895,7.7800503,6.53595
1679931081220,1111069575025154,-3.2029502,7.9140005,6.5599504
1679931081223,1111069577527318,-3.42105,7.96395,6.6889505
1679931081225,1111069580029471,-3.5149503,7.9210505,6.94995
1679931081227,1111069582531625,-3.6060002,7.9759502,7.0870504
1679931081230,1111069585033779,-3.76095,7.8300004,7.1320505
1679931081233,1111069587535919,-3.6130502,7.7869506,7.386
1679931081235,1111069590037996,-3.6439502,7.49205,7.5769506
1679931081239,1111069592540150,-3.6660001,7.39905,7.8430505
1679931081241,1111069595042304,-3.7060502,7.116,8.002951
1679931081243,1111069597544457,-3.4480503,6.9990005,8.278951
1679931081245,1111069600046611,-3.426,6.9900002,8.512051
1679931081247,1111069602548765,-3.2749503,7.0210505,8.74905
1679931081250,1111069605050919,-3.2059503,6.97305,8.923051
1679931081254,1111069607552842,-3.2340002,7.00605,9.144
1679931081256,1111069610054996,-3.38505,6.7519503,9.036
1679931081257,1111069612557150,-3.417,6.63495,9.295051
1679931081259,1111069615059534,-3.3420002,6.4150505,9.237
1679931081263,1111069617561458,-3.24195,6.3739505,9.39105
1679931081266,1111069620063606,-3.2920501,6.28095,9.45495
1679931081268,1111069622565760,-3.2970002,6.1660504,9.5130005
1679931081270,1111069625067837,-3.17895,5.92395,9.582001
1679931081273,1111069627569991,-3.1360502,5.8350005,9.369
1679931081279,1111069630072231,-3.24195,5.73495,9.438001
1679931081280,1111069632574385,-3.25605,5.6650505,9.37395
1679931081281,1111069635076462,-3.153,5.5530005,9.37395
1679931081284,1111069637578615,-3.141,5.5020003,9.37605
1679931081285,1111069640080769,-3.1939502,5.517,9.328051
1679931081287,1111069642582923,-3.3660002,5.5620003,9.4789505
1679931081289,1111069645084861,-3.34905,5.6509504,9.4140005
1679931081294,1111069647587246,-3.4330502,5.6580005,9.237
1679931081296,1111069650089169,-3.4020002,5.682,9.12705
1679931081297,1111069652591323,-3.3970501,5.67705,9.07695
1679931081301,1111069655093491,-3.5359502,5.8300505,9.13395
1679931081303,1111069657595644,-3.5119503,5.7180004,8.93505
1679931081305,1111069660097721,-3.7519503,5.7660003,8.952001
1679931081307,1111069662599952,-3.80205,5.8710003,8.81805
1679931081310,1111069665102024,-3.864,5.94495,8.667001
1679931081316,1111069667604178,-4.05405,5.8609505,8.694
1679931081318,1111069670106332,-4.15695,6.0670505,8.42805
1679931081319,1111069672608255,-4.485,5.8759503,8.7289505
1679931081321,1111069675110405,-4.69995,5.9170504,8.583
1679931081324,1111069677612559,-4.84905,5.8060503,8.691
1679931081327,1111069680114943,-4.8030005,5.61,8.77995
1679931081328,1111069682616866,-4.815,5.51205,8.77305
1679931081330,1111069685119020,-4.7650504,5.394,8.884951
1679931081334,1111069687621188,-4.7310004,5.268,8.964001
1679931081335,1111069690123342,-4.46595,5.1720004,9.06
1679931081338,1111069692625419,-4.39605,5.0539503,9.084001
1679931081340,1111069695127573,-4.18305,5.07105,8.86095
1679931081343,1111069697629832,-4.092,5.0779505,9.055051
1679931081345,1111069700131986,-3.9580503,5.01405,8.904
1679931081347,1111069702634063,-3.7999501,5.11905,8.79405
1679931081351,1111069705136217,-3.936,5.1600003,8.82495
1679931081354,1111069707638347,-4.07805,5.30595,8.78895
1679931081356,1111069710140501,-4.164,5.2600503,8.689051
1679931081357,1111069712642655,-4.2450004,5.256,8.863951
1679931081360,1111069715144808,-4.42695,5.23395,8.883
1679931081363,1111069717646962,-4.49205,5.12895,8.991
1679931081365,1111069720148865,-4.77405,5.2050004,8.86095
1679931081367,1111069722651019,-4.8130503,5.20305,8.722051
1679931081370,1111069725153173,-4.84905,5.2909503,8.7289505
1679931081374,1111069727655250,-4.92105,5.184,8.64105
1679931081376,1111069730157491,-4.99695,5.052,8.607
1679931081378,1111069732659645,-4.9570503,5.0470505,8.562
1679931081380,1111069735161722,-4.8300004,5.0059505,8.512051
1679931081385,1111069737663875,-4.73595,4.947,8.48505
1679931081387,1111069740166029,-4.401,4.7959504,8.46405
1679931081389,1111069742667937,-4.23105,4.7260504,8.433001
1679931081390,1111069745170091,-3.8929503,4.6210504,8.49195
1679931081393,1111069747672476,-3.4980001,4.662,8.500051
1679931081395,1111069750174399,-3.1650002,4.6519504,8.595
1679931081397,1111069752676553,-2.8900502,4.53195,8.719951
1679931081401,1111069755178703,-2.59695,4.518,8.84895
1679931081403,1111069757680856,-2.4469502,4.52295,8.868
1679931081405,1111069760182933,-2.1060002,4.5199504,8.93295
1679931081407,1111069762685164,-2.013,4.5040503,8.943001
1679931081409,1111069765187241,-1.9050001,4.3500004,8.98305
1679931081413,1111069767689419,-1.93605,4.3650002,8.923051
1679931081416,1111069770191573,-1.9080001,4.2900004,8.98305
1679931081418,1111069772693727,-1.8840001,4.16295,8.81295
1679931081420,1111069775195880,-1.9630501,4.0080004,8.809051
1679931081425,1111069777698034,-2.043,3.9840002,8.866051
1679931081427,1111069780199957,-2.0070002,3.96495,8.610001
1679931081429,1111069782702111,-1.95105,4.02705,8.62695
1679931081431,1111069785204279,-1.8570001,3.92895,8.547
1679931081433,1111069787706356,-1.8570001,3.9889503,8.3220005
1679931081435,1111069790208587,-1.7500501,3.9889503,8.21205
1679931081437,1111069792710741,-1.8169501,4.0810504,8.191051
1679931081440,1111069795212895,-1.6849501,4.12995,8.14005
1679931081443,1111069797714966,-1.6560001,4.077,8.005051
1679931081445,1111069800217120,-1.70595,4.13205,8.071051
1679931081447,1111069802719274,-1.64205,4.23,7.9300504
1679931081450,1111069805221428,-1.67505,4.19205,7.9129505
1679931081454,1111069807723679,-1.6870501,4.25895,7.8840003
1679931081456,1111069810225756,-1.8720001,4.1350503,7.8820505
1679931081458,1111069812727910,-1.9990501,4.2070503,8.023951
1679931081460,1111069815230063,-2.11605,4.032,7.9009504
1679931081464,1111069817731978,-2.226,3.9769502,7.9609504
1679931081467,1111069820234131,-2.35605,3.831,8.028001
1679931081469,1111069822736285,-2.2759502,3.6679502,8.035951
1679931081473,1111069825238439,-2.322,3.55695,8.0449505
1679931081476,1111069827740593,-2.25,3.387,8.001
1679931081478,1111069830242737,-2.1379502,3.2580001,8.08005
1679931081480,1111069832744814,-2.061,3.1290002,8.0119505
1679931081481,1111069835246968,-1.8259501,2.937,8.001
1679931081484,1111069837749121,-1.7689501,2.9539502,8.00895
1679931081486,1111069840251275,-1.6489501,2.8819501,7.8120003
1679931081488,1111069842753429,-1.575,2.772,7.9030504
1679931081492,1111069845255583,-1.52205,2.8459501,7.8220506
1679931081494,1111069847757506,-1.39005,2.7499502,7.6159506
1679931081496,1111069850259660,-1.3930501,2.7859502,7.6969504
1679931081498,1111069852761824,-1.3110001,2.7480001,7.5460505
1679931081502,1111069855263901,-1.3420501,2.808,7.6060505
1679931081505,1111069857766131,-1.4140501,2.832,7.7400002
1679931081506,1111069860268285,-1.386,2.7240002,7.7260504
1679931081508,1111069862770439,-1.48905,2.631,7.8529506
1679931081510,1111069865272516,-1.48395,2.49195,7.872
1679931081513,1111069867774670,-1.47405,2.4460502,7.977
1679931081516,1111069870276824,-1.5319501,2.391,8.29395
1679931081518,1111069872779055,-1.5700501,2.319,8.121
1679931081521,1111069875281103,-1.62705,2.16105,8.20005
1679931081523,1111069877783256,-1.7160001,2.0989501,8.19795
1679931081525,1111069880285410,-1.7500501,1.89795,8.03505
1679931081527,1111069882787564,-1.6870501,1.914,8.076
1679931081532,1111069885289448,-1.6609501,1.83105,7.9030504
1679931081534,1111069887791602,-1.6200001,1.8550501,7.9560003
1679931081538,1111069890293987,-1.5840001,1.8349501,7.7809505
1679931081540,1111069892795910,-1.4809501,1.8520501,7.6969504
1679931081542,1111069895298064,-1.14405,1.8210001,7.5030003
1679931081544,1111069897800237,-0.94500005,1.8430501,7.5199504
1679931081545,1111069900302314,-0.75105006,1.89495,7.5060005
1679931081547,1111069902804468,-0.58605003,2.0029502,7.4050503
1679931081550,1111069905306699,-0.32895002,2.0269501,7.4220004
1679931081553,1111069907808790,-0.28395,2.0650501,7.4029503
1679931081555,1111069910310944,-0.126,2.2039502,7.6129503
1679931081557,1111069912813098,0.13800001,2.22795,7.7190003
1679931081560,1111069915315021,0.29595003,2.2999501,7.7359505
1679931081563,1111069917817204,0.33195,2.4150002,7.8150005
1679931081565,1111069920319357,0.41595003,2.4409502,8.064
1679931081567,1111069922821511,0.49005002,2.4409502,8.128051
1679931081571,1111069925323665,0.47100002,2.5470002,8.19495
1679931081574,1111069927825804,0.50100005,2.5129502,8.418
1679931081578,1111069930327958,0.57795,2.53695,8.48295
1679931081581,1111069932830035,0.53295004,2.559,8.76105
1679931081583,1111069935332189,0.507,2.532,8.84895
1679931081586,1111069937834318,0.384,2.4169502,8.952001
1679931081588,1111069940336549,0.40605003,2.5489502,9.25905
1679931081589,1111069942838626,0.33600003,2.3479502,9.26595
1679931081591,1111069945340780,0.31005,2.3380501,9.453
1679931081593,1111069947842934,0.26205,2.2380002,9.625051
1679931081598,1111069950344853,0.079950005,2.19,9.673051
1679931081602,1111069952847007,-0.052050002,2.1319501,9.8550005
1679931081604,1111069955349391,-0.06795,2.0370002,9.891001
1679931081607,1111069957851314,-0.28395,2.0970001,10.04205
1679931081609,1111069960353468,-0.56205004,1.8790501,10.1640005
1679931081610,1111069962855626,-0.67905,1.7680501,10.24995
1679931081612,1111069965357780,-0.76995003,1.503,10.39605
1679931081615,1111069967859867,-0.95895004,1.4089501,10.36305
1679931081617,1111069970362021,-1.041,1.194,10.293
1679931081619,1111069972864252,-1.1700001,1.0500001,10.405951
1679931081620,1111069975366329,-1.3780501,0.79095006,10.234051
1679931081625,1111069977868482,-1.36395,0.70305,10.1980505
1679931081626,1111069980370650,-1.4599501,0.564,9.967951
1679931081627,1111069982872804,-1.4809501,0.46995002,9.90795
1679931081632,1111069985374727,-1.6030501,0.53295004,9.625051
1679931081634,1111069987876881,-1.575,0.46995002,9.505051
1679931081635,1111069990379035,-1.64205,0.44400004,9.201
1679931081639,1111069992881213,-1.5409501,0.38595003,9.02595
1679931081641,1111069995383367,-1.5960001,0.51795,8.677051
1679931081643,1111069997885520,-1.6200001,0.54195005,8.31
1679931081645,1111070000387597,-1.6990501,0.609,8.298
1679931081650,1111070002889756,-1.7809501,0.69495004,8.002951
1679931081654,1111070005391987,-1.7350501,0.669,7.8600006
1679931081656,1111070007893035,-1.77795,0.74295,7.8120003
1679931081656,1111070010394074,-1.7760001,0.85605,7.6369505
1679931081659,1111070012898151,-1.74705,0.813,7.62795
1679931081660,1111070015400535,-1.7569501,0.88005006,7.79295
1679931081663,1111070017902689,-1.59195,0.91605,7.6110005
1679931081665,1111070020404843,-1.59195,0.94905007,7.6729503
1679931081667,1111070022906746,-1.4290501,0.99495006,7.728
1679931081679,1111070025408900,-1.47195,1.1149501,7.623
1679931081680,1111070027911054,-1.1700001,1.09305,7.6800003
1679931081680,1111070030413208,-1.0860001,1.194,7.635
1679931081680,1111070032915362,-0.91395,1.194,7.5340505
1679931081680,1111070035417516,-0.82005006,1.3759501,7.5700502
1679931081683,1111070037919669,-0.72195005,1.3249501,7.8529506
1679931081685,1111070040421746,-0.411,1.1890501,7.872
1679931081689,1111070042923929,-0.19800001,1.3060501,7.827
1679931081691,1111070045426083,0.079950005,1.27995,7.8739505
1679931081694,1111070047928006,0.28095,1.3590001,8.052
1679931081696,1111070050430391,0.61905,1.5409501,7.9609504
1679931081698,1111070052932545,0.85395,1.5270001,8.00895
1679931081700,1111070055434521,1.03995,1.4310001,8.05395
1679931081703,1111070057936674,1.2739501,1.5700501,8.06595
1679931081705,1111070060438828,1.7010001,1.5700501,8.17395
1679931081709,1111070062940905,1.84695,1.51005,8.158951
1679931081710,1111070065443131,1.9069501,1.5670501,8.175
1679931081715,1111070067945285,2.1769502,1.6150501,8.260051
1679931081716,1111070070447362,2.3830502,1.50705,8.397
1679931081718,1111070072949516,2.3689501,1.5340501,8.370001
1679931081721,1111070075451656,2.4409502,1.419,8.33205
1679931081724,1111070077953809,2.7570002,1.5769501,8.3890505
1679931081728,1111070080455732,3.0730503,1.55505,8.599951
1679931081730,1111070082956925,3.2209501,1.6609501,8.80095
1679931081730,1111070085458118,3.2670002,1.52205,8.95005
1679931081734,1111070087962410,3.3240001,1.3230001,9.0379505
1679931081736,1111070090464333,3.0919502,1.2220501,9.15795
1679931081738,1111070092966487,3.147,1.0639501,9.153001
1679931081740,1111070095468641,2.9509501,0.87495005,9.307051
1679931081744,1111070097970794,3.0229502,0.74295,9.319051
1679931081746,1111070100472948,2.80005,0.62100005,9.337951
1679931081747,1111070102975102,2.83095,0.55395,9.462001
1679931081750,1111070105477179,2.7589502,0.38595003,9.501
1679931081753,1111070107979348,2.48895,0.016050002,9.55305
1679931081755,1111070110481502,2.46705,-0.036000002,9.441
1679931081757,1111070112983656,2.39805,-0.052950002,9.429001
1679931081760,1111070115485809,2.11695,-0.20400001,9.393001
1679931081765,1111070117987958,2.15595,-0.252,9.26595
1679931081767,1111070120490112,2.0070002,-0.24705002,9.349951
1679931081768,1111070122992035,1.8319501,-0.25005,9.3
1679931081773,1111070125494189,1.7010001,-0.39600003,9.148951
1679931081775,1111070127996261,1.3990501,-0.312,9.165
1679931081777,1111070130498415,1.19295,-0.30900002,9.019051
1679931081778,1111070133000646,0.90795004,-0.264,8.863951
1679931081780,1111070135502800,0.624,-0.171,8.823
1679931081783,1111070138004876,0.36795002,-0.17805001,8.79195
1679931081785,1111070140507016,0.15705001,0.009000001,8.90205
1679931081787,1111070143009170,-0.07095,0.17400001,8.81295
1679931081790,1111070145511324,-0.252,0.20295002,9.073951
1679931081793,1111070148013478,-0.44895002,0.43395,9.004951
1679931081795,1111070150515632,-0.63600004,0.42195,8.991
1679931081797,1111070153017776,-0.633,0.59505004,9.1390505
1679931081802,1111070155519929,-0.61005,0.549,9.31095
1679931081804,1111070158021852,-0.79200006,0.57105005,9.393001
1679931081806,1111070160523996,-0.684,0.69495004,9.490951
1679931081808,1111070163026150,-0.72495,0.72195005,9.699
1679931081811,1111070165528304,-0.813,0.59205,9.8220005
1679931081814,1111070168030458,-0.92100006,0.52995,9.92205
1679931081816,1111070170532612,-0.46800002,0.77205,9.979951
1679931081817,1111070173034685,-0.39405003,0.77205,9.967951
1679931081820,1111070175536839,-0.23595001,0.82500005,9.970051
1679931081823,1111070178038992,-0.27705002,0.79395,10.34595
1679931081825,1111070180540915,-0.10395,0.62595004,10.449
1679931081827,1111070183043309,0.034950003,0.55395,10.54695
1679931081830,1111070185545463,0.21195,0.53295004,10.554001
1679931081833,1111070188047386,0.17595,0.41805002,10.582951
1679931081835,1111070190549540,0.492,0.54495,10.48995
1679931081841,1111070193051694,0.588,0.23205002,10.5709505
1679931081842,1111070195553771,0.90795004,0.31605002,10.452001
1679931081844,1111070198056001,0.72195005,0.27,10.435051
1679931081846,1111070200558155,1.1190001,0.34395,10.288951
1679931081848,1111070203060309,0.87105006,0.20295002,10.423051
1679931081851,1111070205562391,1.0180501,0.23205002,10.399051
1679931081853,1111070208064545,1.07805,0.13095,10.246051
1679931081855,1111070210566699,1.4970001,0.21300001,10.291051
1679931081857,1111070213068853,1.6140001,0.22905001,10.24995
1679931081860,1111070215571006,1.52295,0.15795001,10.047001
1679931081863,1111070218073141,1.7389501,0.21000001,10.123051
1679931081865,1111070220575295,1.5190501,0.165,10.02
1679931081868,1111070223077218,1.33395,0.11400001,9.747001
1679931081870,1111070225579372,1.3800001,0.17205001,9.735001
1679931081873,1111070228081516,1.1190001,0.15,9.640051
1679931081879,1111070230583670,1.6500001,0.273,9.472051
1679931081881,1111070233085824,1.44,0.273,9.28005
1679931081882,1111070235587978,1.4970001,0.45600003,9.393001
1679931081884,1111070238090044,1.179,0.40995002,9.273001
1679931081886,1111070240592198,1.2,0.63600004,9.10995
1679931081888,1111070243094352,1.30095,0.648,9.096001
1679931081891,1111070245596275,1.57605,0.753,9.024
1679931081894,1111070248098675,1.54305,0.95400006,8.94705
1679931081896,1111070250600829,1.6840501,1.0159501,8.740951
1679931081898,1111070253102752,2.055,1.1719501,8.80605
1679931081900,1111070255604906,2.2470002,1.3950001,8.92605
1679931081903,1111070258107290,2.29695,1.4980501,8.842051
1679931081908,1111070260609213,2.5819502,1.78005,8.734051
1679931081909,1111070263111367,2.6560502,1.713,8.703
1679931081910,1111070265613521,2.6419501,1.59405,8.634001
1679931081915,1111070268115602,2.805,1.44,8.55195
1679931081917,1111070270617756,2.90505,1.31295,8.467951
1679931081919,1111070273119910,2.84805,1.2529501,8.35305
1679931081921,1111070275622064,2.69895,1.131,8.526
1679931081924,1111070278124217,2.6419501,1.0879501,8.62395
1679931081926,1111070280626366,2.59905,1.059,8.53995
1679931081928,1111070283128289,2.532,0.98295003,8.79705
1679931081931,1111070285630443,2.532,0.79395,8.96895
1679931081934,1111070288132597,2.4720001,0.67605,9.220051
1679931081936,1111070290634674,2.33505,0.47295,9.393001
1679931081938,1111070293136929,2.19405,0.41805002,9.61305
1679931081940,1111070295639083,2.05305,0.43905002,9.771001
1679931081943,1111070298141236,1.7989501,0.33195,9.931951
1679931081945,1111070300643313,1.3939501,0.28905,9.931951
1679931081947,1111070303145463,1.1380501,0.33705002,10.05195
1679931081952,1111070305647617,0.84405005,0.20295002,10.114051
1679931081954,1111070308149848,0.55395,0.28005,10.285951
1679931081956,1111070310651925,0.41295,0.41805002,10.32495
1679931081958,1111070313154078,0.24495001,0.49395,10.531051
1679931081960,1111070315656231,0.186,0.50100005,10.65705
1679931081963,1111070318158385,0.063,0.55905,10.641001
1679931081965,1111070320660308,0.01305,0.588,10.714951
1679931081967,1111070323162462,-0.049050003,0.609,10.97595
1679931081971,1111070325664621,-0.06105,0.64995,10.9810505
1679931081974,1111070328166775,-0.20205002,0.51600003,11.115001
1679931081976,1111070330668929,-0.23400001,0.50100005,10.95405
1679931081978,1111070333171006,-0.06795,0.48195,10.983001
1679931081980,1111070335673160,-0.018000001,0.41295,10.93095
1679931081986,1111070338175313,0.0010500001,0.44400004,10.689
1679931081989,1111070340677237,0.09705,0.27705002,10.519051
1679931081991,1111070343179607,0.28905,0.31995,10.425
1679931081993,1111070345681761,0.36,0.40995002,10.22595
1679931081995,1111070348183684,0.66495,0.39405003,10.128
1679931081996,1111070350685838,0.76005006,0.35595003,10.02
1679931081998,1111070353187992,0.88305,0.354,9.87405
1679931082000,1111070355690122,1.1020501,0.43005002,9.762
1679931082003,1111070358192276,1.15005,0.44595003,9.87405
1679931082005,1111070360694429,1.26195,0.44895002,9.702001
1679931082008,1111070363196583,1.4080501,0.38895002,9.69705
1679931082011,1111070365698765,1.4899501,0.48495004,9.690001
1679931082014,1111070368200842,1.6140001,0.36405003,9.585
1679931082016,1111070370702996,1.62195,0.39600003,9.654
1679931082019,1111070373205150,1.69305,0.48705003,9.42195
1679931082021,1111070375707380,1.72695,0.384,9.616051
1679931082023,1111070378209462,1.8229501,0.504,9.670951
1679931082028,1111070380711616,1.8919501,0.37095,9.65205
1679931082030,1111070383213770,1.9879501,0.41295,9.61995
1679931082033,1111070385715693,2.0689502,0.43695003,9.537001
1679931082035,1111070388217847,2.163,0.41805002,9.56505
1679931082036,1111070390720232,2.26605,0.41805002,9.618
1679931082038,1111070393222155,2.19195,0.47505003,9.489
1679931082042,1111070395724309,2.3470502,0.56100005,9.691951
1679931082045,1111070398226457,2.3500502,0.44595003,9.53205
1679931082046,1111070400728534,2.39805,0.51600003,9.618
1679931082048,1111070403230688,2.3400002,0.42495003,9.526951
1679931082051,1111070405732842,2.2350001,0.50895,9.405001
1679931082054,1111070408234987,2.1409502,0.40305,9.526951
1679931082056,1111070410737141,2.1049502,0.51795,9.40005
1679931082058,1111070413239295,2.019,0.43695003,9.361951
1679931082060,1111070415741218,1.9930501,0.57795,9.273001
1679931082065,1111070418243357,1.8349501,0.60705,9.346951
1679931082068,1111070420745510,1.8750001,0.70005006,9.232051
1679931082070,1111070423247664,1.8559501,0.75795,9.07695
1679931082071,1111070425749818,1.9230001,0.79800004,9.177
1679931082073,1111070428251972,1.914,0.73095006,9.192
1679931082077,1111070430754126,2.058,0.91095006,9.163051
1679931082080,1111070433256280,2.2080002,0.92805004,9.32295
1679931082082,1111070435758357,2.1700501,0.94695,9.319051
1679931082084,1111070438260510,2.1700501,0.88005006,9.382951
1679931082086,1111070440762756,2.2680001,0.85605,9.469951
1679931082088,1111070443264833,2.1649501,0.80100006,9.642
1679931082091,1111070445766987,2.25405,0.813,9.690001
1679931082094,1111070448269141,2.12895,0.79605,9.679951
1679931082095,1111070450771078,2.151,0.76695,9.778951
1679931082098,1111070453273232,2.0359502,0.78900003,9.92205
1679931082102,1111070455775386,1.9810501,0.597,9.970051
1679931082105,1111070458277540,1.9620001,0.55395,10.126051
1679931082106,1111070460779679,1.86405,0.52500004,10.297951
1679931082108,1111070463281833,1.8970501,0.58005005,10.24995
1679931082110,1111070465783987,1.7989501,0.549,10.441951
1679931082113,1111070468286064,1.725,0.51600003,10.465951
1679931082116,1111070470788218,1.60695,0.342,10.557
1679931082118,1111070473290121,1.5139501,0.504,10.582951
1679931082121,1111070475792506,1.3939501,0.48000002,10.59
1679931082125,1111070478294659,1.15005,0.49395,10.521001
1679931082126,1111070480796813,1.0710001,0.46800002,10.452001
1679931082128,1111070483298736,0.93405,0.46305,10.51395
1679931082131,1111070485800910,0.72705,0.432,10.224001
1679931082134,1111070488303064,0.60195005,0.28395,10.17105
1679931082135,1111070490805218,0.51000005,0.38595003,10.16205
1679931082139,1111070493307351,0.47505003,0.33195,10.05405
1679931082141,1111070495809505,0.49905002,0.40305,9.967951
1679931082144,1111070498311658,0.528,0.38205,9.781051
1679931082146,1111070500813812,0.65505004,0.36405003,9.703951
1679931082148,1111070503315966,0.67905,0.42195,9.634951
1679931082150,1111070505818043,0.79605,0.40605003,9.68295
1679931082153,1111070508320197,0.91005003,0.44595003,9.498
1679931082155,1111070510822351,1.0180501,0.51000005,9.477
1679931082158,1111070513324505,1.1590501,0.59205,9.4140005
1679931082160,1111070515826448,1.21695,0.54495,9.441
1679931082163,1111070518328832,1.31505,0.60405004,9.297001
1679931082165,1111070520830986,1.3560001,0.73395,9.193951
1679931082168,1111070523332909,1.452,0.74295,9.165
1679931082171,1111070525835067,1.4760001,0.882,9.0720005
1679931082174,1111070528337221,1.5619501,0.966,9.07905
1679931082178,1111070530839375,1.6810501,0.93705004,9.043051
1679931082180,1111070533341452,1.6789501,1.0860001,9.10995
1679931082182,1111070535843674,1.8610501,1.074,9.204
1679931082185,1111070538345750,1.794,1.11705,9.26595
1679931082186,1111070540847904,1.8559501,1.0669501,9.249001
1679931082188,1111070543350058,1.9090501,1.0330501,9.3
1679931082190,1111070545851981,1.93095,1.0330501,9.297001
1679931082193,1111070548354125,2.05305,0.97800004,9.217951
1679931082195,1111070550856510,2.0670002,0.87000006,9.295051
1679931082198,1111070553358433,2.01705,0.92100006,9.349951
1679931082201,1111070555860587,1.9710001,0.71895003,9.382951
1679931082203,1111070558362746,2.0670002,0.67905,9.30195
1679931082206,1111070560864899,2.196,0.76005006,9.288
1679931082208,1111070563366976,2.26305,0.80295,9.34305
1679931082211,1111070565869130,2.3089502,0.79800004,9.295051
1679931082215,1111070568371366,2.4430501,0.79095006,9.43095
1679931082217,1111070570873520,2.5129502,0.65505004,9.438001
1679931082219,1111070573375597,2.56005,0.573,9.490951
1679931082221,1111070575877751,2.7280502,0.60405004,9.537001
1679931082224,1111070578379904,2.6850002,0.43905002,9.618
1679931082226,1111070580882087,2.7949502,0.46095002,9.673051
1679931082229,1111070583384010,2.7280502,0.36795002,9.880951
1679931082231,1111070585886395,2.79795,0.35205,10.03695
1679931082233,1111070588388549,2.70405,0.30795002,10.092
1679931082236,1111070590890472,2.5150502,0.27705002,10.13805
1679931082239,1111070593392578,2.4049501,0.28005,10.111051
1679931082241,1111070595894732,2.1319501,0.35595003,10.17105
1679931082244,1111070598396809,1.9230001,0.44595003,10.18305
1679931082246,1111070600899039,1.7170501,0.52995,10.16205
1679931082249,1111070603401202,1.5670501,0.45405003,9.996
1679931082254,1111070605903279,1.3990501,0.537,10.111051
1679931082256,1111070610905433,1.2529501,0.52095,9.970051
1679931082258,1111070611403356,1.0680001,0.68595004,10.01805
1679931082259,1111070613421125,1.00605,0.72900003,9.92895
1679931082261,1111070615911664,0.80805004,0.68595004,9.970051
1679931082264,1111070618414048,0.80805004,0.80100006,9.984
1679931082266,1111070620915971,0.75105006,0.88695,10.06095
1679931082268,1111070623418125,0.73395,0.933,9.811951
1679931082271,1111070625920279,0.73200005,0.88005006,9.92895
1679931082274,1111070628422433,0.67695004,0.846,9.976951
1679931082276,1111070630924510,0.73395,0.74595004,9.979951
1679931082278,1111070633426736,0.753,0.74805003,9.976951
1679931082281,1111070635928890,0.70500004,0.75795,9.86205
1679931082283,1111070638431043,0.75105006,0.74595004,9.964951
1679931082286,1111070640933120,0.74595004,0.75105006,9.939
1679931082290,1111070643435289,0.80100006,0.57795,9.805051
1679931082293,1111070645937443,0.97005004,0.56100005,9.92205
1679931082295,1111070648439366,1.00605,0.66,9.94095
1679931082306,1111070650941751,1.07595,0.60405004,9.778951
1679931082306,1111070653443905,1.18305,0.633,9.68505
1679931082306,1111070655945818,1.2600001,0.55695003,9.754951
1679931082306,1111070658447972,1.3440001,0.504,9.66405
1679931082307,1111070660950125,1.3800001,0.43005002,9.66405
1679931082308,1111070663452202,1.45905,0.48495004,9.766951
1679931082310,1111070665954367,1.7340001,0.384,9.783
1679931082313,1111070668456598,1.8180001,0.36105,9.85995
1679931082316,1111070670958675,1.9519501,0.30795002,9.90795
1679931082318,1111070673460829,1.9549501,0.26805001,9.88395
1679931082321,1111070675962973,2.0740502,0.261,9.89295
1679931082323,1111070678464896,2.091,0.21000001,10.047001
1679931082327,1111070680967050,2.08905,0.16005,10.02795
1679931082329,1111070683469434,2.055,0.13800001,9.937051
1679931082333,1111070685971578,2.12505,0.15795001,9.939
1679931082335,1111070688473501,2.09805,0.102000006,10.05405
1679931082336,1111070690975655,2.08095,0.0139500005,10.00605
1679931082338,1111070693477809,2.115,-0.01695,9.951
1679931082341,1111070695979963,2.1370502,0.141,9.834001
1679931082343,1111070698482055,2.232,0.06705,9.92895
1679931082346,1111070700984285,2.2729502,0.186,9.774
1679931082348,1111070703486439,2.292,0.23400001,9.92895
1679931082351,1111070705988516,2.23005,0.23700002,9.87195
1679931082353,1111070708490650,2.2729502,0.36105,9.91005
1679931082355,1111070710992804,2.30205,0.25605002,9.89805
1679931082358,1111070713494727,2.29905,0.40095,9.901051
1679931082360,1111070715996881,2.2420502,0.40605003,9.819
1679931082365,1111070718499270,2.2369502,0.384,9.943951
1679931082367,1111070721001193,2.11695,0.46995002,9.823951
1679931082369,1111070723503347,2.02305,0.537,9.87405
1679931082374,1111070726005501,1.96905,0.64500004,9.774
1679931082376,1111070728507573,1.8420001,0.71505004,9.967951
1679931082377,1111070731009727,1.6720501,0.71505004,9.988951
1679931082380,1111070733511958,1.5640501,0.81000006,10.07295
1679931082382,1111070736014035,1.401,0.91095006,10.120951
1679931082385,1111070738516188,1.19505,0.89400005,10.128
1679931082386,1111070741018352,1.1520001,0.93495005,10.047001
1679931082388,1111070743520506,1.0710001,0.80595005,10.04895
1679931082392,1111070746022660,0.99405,0.84195006,10.107
