system_ts_ms, sensor_ts_ns, gyrX, gyrY, gyrZ
1680000639045,1180627392425998,-0.007425,0.0994125,0.0345125
1680000639055,1180627394928056,-0.0053625,0.1034,0.036575
1680000639055,1180627397429979,-0.007425,0.106425,0.036575
1680000639055,1180627399932056,-0.0053625,0.106425,0.0375375
1680000639056,1180627402433979,-0.0083875,0.089375,0.0455125
1680000639056,1180627404936056,-0.012375,0.073425,0.0506
1680000639057,1180627407438201,-0.0174625,0.0474375,0.05555
1680000639057,1180627409940047,-0.023375,0.0193875,0.0625625
1680000639066,1180627412441970,-0.0254375,-0.003575,0.0625625
1680000639066,1180627414944047,-0.0303875,-0.0196625,0.0616
1680000639066,1180627417445965,-0.035475,-0.0295625,0.0595375
1680000639067,1180627419948042,-0.0374,-0.0306625,0.0545875
1680000639070,1180627422450196,-0.0383625,-0.025575,0.047575
1680000639070,1180627424952119,-0.0383625,-0.0196625,0.03355
1680000639072,1180627427454177,-0.0334125,-0.013612499,0.024475
1680000639076,1180627429956023,-0.032449998,-0.0075625,0.019524999
1680000639078,1180627432457946,-0.0264,-0.0056375,0.013475
1680000639081,1180627434960023,-0.024475,-0.0075625,0.0094875
1680000639086,1180627437461936,-0.0204875,-0.013612499,0.0045375
1680000639087,1180627439964090,-0.0204875,-0.0196625,0.002475
1680000639087,1180627442466167,-0.018424999,-0.034649998,-0.0044
1680000639089,1180627444968013,-0.013475,-0.053625,-0.0125124995
1680000639092,1180627447469936,-0.0163625,-0.0746625,-0.0174625
1680000639094,1180627449972075,-0.0174625,-0.097625,-0.019524999
1680000639098,1180627452473921,-0.018424999,-0.1056,-0.0235125
1680000639102,1180627454976075,-0.0193875,-0.0875875,-0.0204875
1680000639102,1180627457477921,-0.0163625,-0.075625,-0.0165
1680000639104,1180627459980080,-0.013475,-0.0796125,-0.01045
1680000639107,1180627462481926,-0.012375,-0.0796125,-0.008525
1680000639109,1180627464984080,-0.012375,-0.0796125,-0.0055
1680000639113,1180627467486157,-0.0174625,-0.0726,-0.0055
1680000639118,1180627469988085,-0.0174625,-0.0625625,-0.01045
1680000639118,1180627472489931,-0.0114124995,-0.0595375,-0.0154
1680000639121,1180627474992008,-0.0064625,-0.0545875,-0.0204875
1680000639123,1180627477493931,-0.007425,-0.0466125,-0.018424999
1680000639126,1180627479996008,-0.0083875,-0.036575,-0.019524999
1680000639128,1180627482498181,-0.002475,-0.0286,-0.018424999
1680000639130,1180627485000104,-0.001375,-0.020624999,-0.018424999
1680000639136,1180627487502181,-0.0034375,-0.01155,-0.019524999
1680000639137,1180627490004104,-4.125E-4,-0.0026125,-0.02145
1680000639142,1180627492505940,0.0015125,0.0053625,-0.018424999
1680000639142,1180627495008017,0.0015125,0.0133375,-0.0114124995
1680000639143,1180627497510171,0.0045375,0.0224125,-0.008525
1680000639145,1180627500012094,0.0066,0.0353375,-0.008525
1680000639154,1180627502514171,0.0066,0.04235,-0.0064625
1680000639154,1180627505016110,0.0045375,0.0474375,-0.0034375
1680000639155,1180627507518187,0.0056375,0.05335,0.0015125
1680000639155,1180627510020033,0.0056375,0.0523875,0.003575
1680000639159,1180627512521956,0.0066,0.054449998,0.0055
1680000639160,1180627515024124,0.0056375,0.05335,0.0066
1680000639164,1180627517526201,0.0066,0.054449998,0.0105875
1680000639173,1180627520028124,0.0056375,0.045375,0.0105875
1680000639173,1180627522530201,0.0045375,0.04235,0.008525
1680000639178,1180627525032124,0.0056375,0.0364375,0.0105875
1680000639179,1180627527534201,0.003575,0.0394625,0.0155375
1680000639179,1180627530036124,0.0026125,0.032449998,0.019524999
1680000639179,1180627532538201,5.5E-4,0.0144375,0.019524999
1680000639180,1180627535040124,-0.0034375,0.0034375,0.0215875
1680000639186,1180627537542220,-0.0034375,-0.003575,0.0204875
1680000639186,1180627540044143,-4.125E-4,-0.009625,0.0215875
1680000639189,1180627542546220,-0.0034375,-0.01155,0.019524999
1680000639190,1180627545048374,-0.0053625,-0.01155,0.0215875
1680000639193,1180627547550297,-4.125E-4,-0.0105875,0.0204875
1680000639195,1180627550052143,0.0026125,-0.003575,0.0155375
1680000639197,1180627552554220,0.0026125,0.0023375,0.014575
1680000639200,1180627555056143,0.003575,0.012375,0.0155375
1680000639203,1180627557558220,0.0045375,0.0163625,0.014575
1680000639204,1180627560060081,0.003575,0.0154,0.0125124995
1680000639208,1180627562562235,5.5E-4,0.0193875,0.013475
1680000639210,1180627565064158,0.0026125,0.0163625,0.01155
1680000639212,1180627567566235,0.003575,0.018424999,0.01155
1680000639214,1180627570068191,-4.125E-4,0.018424999,0.013475
1680000639219,1180627572570268,5.5E-4,0.0163625,0.01155
1680000639220,1180627575072191,0.0026125,0.0133375,0.0094875
1680000639222,1180627577574268,-0.001375,0.01045,0.008525
1680000639226,1180627580076210,-4.125E-4,0.012375,0.0066
1680000639229,1180627582578287,-0.001375,0.0023375,0.0045375
1680000639230,1180627585080210,-0.0053625,-5.5E-4,0.002475
1680000639235,1180627587582287,-0.0053625,-0.00165,5.5E-4
1680000639236,1180627590084210,-0.0064625,-0.00165,-0.002475
1680000639237,1180627592586307,-0.0034375,-0.0045375,-0.0055
1680000639240,1180627595088461,-0.0034375,-0.00165,-0.0055
1680000639243,1180627597590307,-0.001375,-5.5E-4,-0.007425
1680000639245,1180627600092230,-0.002475,-0.0026125,-0.0125124995
1680000639247,1180627602594297,-0.0064625,-5.5E-4,-0.0125124995
1680000639258,1180627605096220,-0.0034375,0.0034375,-0.0144375
1680000639258,1180627607598297,-0.007425,-0.0045375,-0.0165
1680000639259,1180627610100451,-0.0064625,0.0023375,-0.0165
1680000639260,1180627612602384,-0.0053625,4.125E-4,-0.0165
1680000639260,1180627615104230,-0.0083875,0.0023375,-0.019524999
1680000639263,1180627617606307,-0.0034375,0.0133375,-0.0224125
1680000639269,1180627620108461,-0.0034375,0.0133375,-0.02145
1680000639270,1180627622610397,-0.007425,0.02035,-0.02145
1680000639271,1180627625112243,-0.007425,0.0224125,-0.018424999
1680000639273,1180627627614320,-0.007425,0.023375,-0.018424999
1680000639275,1180627630116243,-0.0064625,0.03135,-0.02145
1680000639278,1180627632618320,-0.0053625,0.03135,-0.0224125
1680000639279,1180627635120180,-0.0083875,0.034375,-0.0204875
1680000639284,1180627637622334,-0.0114124995,0.0334125,-0.0204875
1680000639285,1180627640124257,-0.01045,0.0334125,-0.019524999
1680000639287,1180627642626411,-0.01045,0.03135,-0.02145
1680000639290,1180627645128253,-0.01045,0.0273625,-0.02145
1680000639292,1180627647630330,-0.0114124995,0.0243375,-0.0235125
1680000639296,1180627650132253,-0.0114124995,0.00935,-0.0235125
1680000639299,1180627652634407,-0.0114124995,-5.5E-4,-0.0235125
1680000639301,1180627655136262,-0.0154,-0.0066,-0.0264
1680000639303,1180627657638339,-0.0163625,-0.009625,-0.0314875
1680000639305,1180627660140262,-0.0174625,-0.0176,-0.0334125
1680000639308,1180627662642339,-0.0193875,-0.02255,-0.029424999
1680000639310,1180627665144262,-0.0193875,-0.0246125,-0.029424999
1680000639312,1180627667646426,-0.023375,-0.0295625,-0.029424999
1680000639315,1180627670148503,-0.024475,-0.036575,-0.0314875
1680000639320,1180627672650349,-0.0254375,-0.0466125,-0.035475
1680000639320,1180627675152272,-0.029424999,-0.0496375,-0.0374
1680000639322,1180627677654329,-0.0303875,-0.0515625,-0.041525
1680000639325,1180627680156252,-0.029424999,-0.058575,-0.0394625
1680000639328,1180627682658329,-0.029424999,-0.0636625,-0.0364375
1680000639329,1180627685160483,-0.035475,-0.064625,-0.0394625
1680000639336,1180627687662387,-0.0383625,-0.06765,-0.0374
1680000639336,1180627690164464,-0.0394625,-0.06765,-0.0364375
1680000639339,1180627692666310,-0.0413875,-0.0686125,-0.0385
1680000639341,1180627695168233,-0.0394625,-0.0705375,-0.040425
1680000639343,1180627697670291,-0.0394625,-0.0705375,-0.040425
1680000639345,1180627700172445,-0.0424875,-0.0686125,-0.040425
1680000639348,1180627702674368,-0.0424875,-0.064625,-0.040425
1680000639350,1180627705176445,-0.0374,-0.06655,-0.0394625
1680000639352,1180627707678368,-0.0413875,-0.0606375,-0.040425
1680000639358,1180627710180450,-0.0424875,-0.058575,-0.0394625
1680000639358,1180627712682296,-0.0444125,-0.0526625,-0.041525
1680000639360,1180627715184219,-0.043449998,-0.0485375,-0.043449998
1680000639362,1180627717686373,-0.043449998,-0.045649998,-0.0455125
1680000639365,1180627720188450,-0.0444125,-0.0435875,-0.0455125
1680000639371,1180627722690373,-0.0424875,-0.0386375,-0.0444125
1680000639371,1180627725192219,-0.0444125,-0.0386375,-0.0455125
1680000639372,1180627727694296,-0.043449998,-0.034649998,-0.0484
1680000639376,1180627730196204,-0.043449998,-0.0286,-0.0455125
1680000639379,1180627732698358,-0.040425,-0.025575,-0.0455125
1680000639381,1180627735200435,-0.04235,-0.025575,-0.0455125
1680000639384,1180627737702358,-0.0444125,-0.019524999,-0.0444125
1680000639386,1180627740204204,-0.043449998,-0.01155,-0.0474375
1680000639388,1180627742706277,-0.0444125,-0.009625,-0.043449998
1680000639390,1180627745208200,-0.0413875,-0.009625,-0.043449998
1680000639392,1180627747710354,-0.040425,-0.0075625,-0.0424875
1680000639395,1180627750212431,-0.043449998,-0.008525,-0.0455125
1680000639397,1180627752714334,-0.0413875,-0.008525,-0.0444125
1680000639400,1180627755216411,-0.0413875,-0.008525,-0.0455125
1680000639402,1180627757718334,-0.040425,-0.014575,-0.0444125
1680000639404,1180627760220181,-0.04235,-0.01265,-0.0444125
1680000639408,1180627762722243,-0.0413875,-0.009625,-0.043449998
1680000639410,1180627765224397,-0.040425,-0.01155,-0.043449998
1680000639414,1180627767726320,-0.039325,-0.01155,-0.0424875
1680000639417,1180627770228397,-0.039325,-0.014575,-0.0424875
1680000639419,1180627772730329,-0.0444125,-0.0166375,-0.041525
1680000639421,1180627775232406,-0.04235,-0.0166375,-0.040425
1680000639423,1180627777734329,-0.0413875,-0.0176,-0.0385
1680000639424,1180627780236406,-0.040425,-0.0185625,-0.0374
1680000639427,1180627782738329,-0.039325,-0.0215875,-0.0424875
1680000639430,1180627785240397,-0.039325,-0.0286,-0.041525
1680000639432,1180627787742320,-0.0374,-0.0295625,-0.0394625
1680000639435,1180627790244397,-0.039325,-0.03355,-0.040425
1680000639438,1180627792746320,-0.0413875,-0.034649998,-0.041525
1680000639440,1180627795248392,-0.04235,-0.03355,-0.0424875
1680000639442,1180627797750315,-0.04235,-0.03355,-0.0385
1680000639445,1180627800252392,-0.040425,-0.03355,-0.0394625
1680000639447,1180627802754315,-0.039325,-0.0375375,-0.0394625
1680000639451,1180627805256387,-0.0413875,-0.041525,-0.040425
1680000639453,1180627807758541,-0.04235,-0.0386375,-0.0444125
1680000639455,1180627810260464,-0.040425,-0.041525,-0.0444125
1680000639459,1180627812762310,-0.04235,-0.0396,-0.0424875
1680000639460,1180627815264387,-0.0413875,-0.0386375,-0.0424875
1680000639462,1180627817766320,-0.040425,-0.0375375,-0.043449998
1680000639465,1180627820268397,-0.040425,-0.0396,-0.041525
1680000639468,1180627822770551,-0.039325,-0.0396,-0.041525
1680000639470,1180627825272397,-0.0383625,-0.0375375,-0.043449998
1680000639472,1180627827774311,-0.0334125,-0.0356125,-0.0424875
1680000639475,1180627830276387,-0.0374,-0.0325875,-0.041525
1680000639478,1180627832778311,-0.0353375,-0.030524999,-0.0455125
1680000639480,1180627835280387,-0.0334125,-0.0286,-0.0444125
1680000639484,1180627837782282,-0.0334125,-0.0246125,-0.041525
1680000639484,1180627840284358,-0.032449998,-0.02255,-0.043449998
1680000639489,1180627842786282,-0.0303875,-0.020624999,-0.0424875
1680000639492,1180627845288358,-0.032449998,-0.019524999,-0.041525
1680000639493,1180627847790282,-0.0303875,-0.019524999,-0.0424875
1680000639495,1180627850292393,-0.029424999,-0.0155375,-0.040425
1680000639498,1180627852794317,-0.029424999,-0.0166375,-0.040425
1680000639500,1180627855296470,-0.0303875,-0.0166375,-0.0424875
1680000639502,1180627857798547,-0.0273625,-0.0155375,-0.040425
1680000639505,1180627860300384,-0.0303875,-0.0155375,-0.0364375
1680000639507,1180627862802307,-0.0273625,-0.01265,-0.0385
1680000639510,1180627865304384,-0.0273625,-0.014575,-0.040425
1680000639512,1180627867806307,-0.0303875,-0.0166375,-0.040425
1680000639515,1180627870308479,-0.03135,-0.0155375,-0.0374
1680000639518,1180627872810556,-0.029424999,-0.0176,-0.0394625
1680000639520,1180627875312479,-0.0254375,-0.0155375,-0.0385
1680000639522,1180627877814556,-0.028324999,-0.013612499,-0.0385
1680000639526,1180627880316399,-0.028324999,-0.0176,-0.0374
1680000639529,1180627882818322,-0.028324999,-0.019524999,-0.0374
1680000639531,1180627885320399,-0.0254375,-0.019524999,-0.0364375
1680000639532,1180627887822552,-0.0264,-0.019524999,-0.035475
1680000639535,1180627890324476,-0.0243375,-0.0215875,-0.032449998
1680000639538,1180627892826547,-0.0254375,-0.0276375,-0.0334125
1680000639541,1180627895328471,-0.0264,-0.0286,-0.029424999
1680000639542,1180627897830317,-0.0224125,-0.025575,-0.032449998
1680000639545,1180627900332394,-0.0243375,-0.030524999,-0.032449998
1680000639547,1180627902834547,-0.0264,-0.031625,-0.0314875
1680000639550,1180627905336471,-0.0243375,-0.0286,-0.0314875
1680000639552,1180627907838547,-0.023375,-0.0276375,-0.0264
1680000639555,1180627910340471,-0.02035,-0.0265375,-0.0264
1680000639557,1180627912842547,-0.02035,-0.0265375,-0.0284625
1680000639560,1180627915344452,-0.02035,-0.0265375,-0.0264
1680000639564,1180627917846298,-0.0193875,-0.02255,-0.0254375
1680000639567,1180627920348452,-0.018424999,-0.0185625,-0.0264
1680000639569,1180627922850529,-0.0193875,-0.0215875,-0.0275
1680000639571,1180627925352456,-0.0193875,-0.0176,-0.0275
1680000639573,1180627927854533,-0.0193875,-0.014575,-0.0264
1680000639575,1180627930356456,-0.0193875,-0.013612499,-0.024475
1680000639578,1180627932858302,-0.017324999,-0.013612499,-0.024475
1680000639580,1180627935360686,-0.018424999,-0.01265,-0.0264
1680000639582,1180627937862548,-0.0163625,-0.01155,-0.0254375
1680000639585,1180627940364471,-0.0193875,-0.01155,-0.0224125
1680000639590,1180627942866548,-0.017324999,-0.0066,-0.0235125
1680000639591,1180627945368394,-0.0133375,-0.0075625,-0.02145
1680000639592,1180627947870321,-0.0154,-0.009625,-0.0224125
1680000639595,1180627950372398,-0.0144375,-0.0075625,-0.0224125
1680000639597,1180627952874552,-0.0154,-0.008525,-0.0224125
1680000639602,1180627955376475,-0.0163625,-0.0045375,-0.0204875
1680000639603,1180627957878562,-0.017324999,-0.0056375,-0.0174625
1680000639605,1180627960380485,-0.0154,-0.0056375,-0.0235125
1680000639610,1180627962882562,-0.0163625,-0.0045375,-0.0224125
1680000639611,1180627965384408,-0.0114124995,-0.0066,-0.019524999
1680000639612,1180627967886562,-0.0114124995,-0.0066,-0.0154
1680000639615,1180627970388504,-0.01045,-0.0045375,-0.0165
1680000639618,1180627972890581,-0.0154,-0.003575,-0.0154
1680000639620,1180627975392427,-0.017324999,-0.0026125,-0.0114124995
1680000639623,1180627977894581,-0.012375,-0.0026125,-0.0165
1680000639626,1180627980396471,-0.0144375,-0.0056375,-0.0114124995
1680000639628,1180627982898548,-0.0154,-0.003575,-0.01045
1680000639637,1180627985400471,-0.0144375,-0.0056375,-0.0144375
1680000639637,1180627987902548,-0.0133375,-0.0075625,-0.01045
1680000639637,1180627990404461,-0.0144375,-0.0066,-0.0094875
1680000639641,1180627992906615,-0.0144375,-0.0075625,-0.008525
1680000639641,1180627995408461,-0.0133375,-0.009625,-0.0094875
1680000639643,1180627997910538,-0.0114124995,-0.008525,-0.0094875
1680000639645,1180628000412475,-0.0114124995,-0.0105875,-0.0094875
1680000639648,1180628002914552,-0.00935,-0.009625,-0.0064625
1680000639650,1180628005416475,-0.006325,-0.0056375,-0.008525
1680000639652,1180628007918552,-0.01045,-0.003575,-0.007425
1680000639655,1180628010420735,-0.01045,-0.00165,-0.0044
1680000639658,1180628012922581,-0.0083875,-0.00165,-0.0064625
1680000639660,1180628015424504,-0.0083875,-0.003575,-0.0034375
1680000639666,1180628017926581,-0.01045,-0.003575,-0.002475
1680000639673,1180628020428474,-0.0114124995,-0.00165,-0.0044
1680000639673,1180628022930551,-0.012375,0.002475,-0.0044
1680000639673,1180628025432705,-0.00935,0.0053625,-0.0034375
1680000639673,1180628027934628,-0.00935,0.0034375,-0.002475
1680000639676,1180628030436734,-0.0133375,0.0044,-0.0034375
1680000639680,1180628032938580,-0.0144375,0.0064625,-0.0044
1680000639680,1180628035440503,-0.0144375,0.0053625,-0.0015125
1680000639683,1180628037942580,-0.0133375,0.01045,-0.002475
1680000639685,1180628040444503,-0.0163625,0.0114124995,-0.0044
1680000639687,1180628042946580,-0.0163625,0.0053625,-0.0044
1680000639690,1180628045448503,-0.017324999,0.0064625,-0.0064625
1680000639692,1180628047950580,-0.017324999,0.00935,-0.0055
1680000639695,1180628050452503,-0.0154,0.0064625,-0.002475
1680000639698,1180628052954585,-0.0163625,0.0053625,-0.0015125
1680000639700,1180628055456508,-0.02145,0.0053625,-4.125E-4
1680000639702,1180628057958662,-0.018424999,0.0064625,-4.125E-4
1680000639706,1180628060460508,-0.018424999,0.0053625,0.0015125
1680000639709,1180628062962585,-0.018424999,0.0064625,-4.125E-4
1680000639710,1180628065464503,-0.0193875,0.0064625,-0.0015125
1680000639713,1180628067966580,-0.0224125,0.0064625,5.5E-4
1680000639716,1180628070468503,-0.02145,0.0053625,-0.002475
1680000639718,1180628072970657,-0.02145,0.0044,-0.002475
1680000639720,1180628075472715,-0.0193875,0.0044,-4.125E-4
1680000639722,1180628077974638,-0.02035,0.0034375,5.5E-4
1680000639726,1180628080476484,-0.02145,0.0053625,-4.125E-4
1680000639728,1180628082978561,-0.02035,0.0044,5.5E-4
1680000639730,1180628085480484,-0.02145,0.001375,0.0015125
1680000639732,1180628087982556,-0.0243375,-5.5E-4,5.5E-4
1680000639735,1180628090484710,-0.0243375,0.002475,-0.0015125
1680000639738,1180628092986633,-0.0254375,0.0044,5.5E-4
1680000639742,1180628095488710,-0.023375,0.001375,0.0015125
1680000639743,1180628097990619,-0.0243375,0.0034375,0.0015125
1680000639747,1180628100492465,-0.0254375,0.002475,0.0015125
1680000639748,1180628102994542,-0.0254375,-0.00165,-0.0015125
1680000639751,1180628105496696,-0.0254375,0.0034375,5.5E-4
1680000639753,1180628107998618,-0.0243375,0.0034375,-4.125E-4
1680000639755,1180628110500695,-0.0254375,0.0034375,5.5E-4
1680000639757,1180628113002618,-0.0264,0.0053625,-4.125E-4
1680000639760,1180628115504695,-0.023375,0.0053625,-0.0015125
1680000639762,1180628118006541,-0.0243375,0.00935,-4.125E-4
1680000639766,1180628120508464,-0.028324999,0.0114124995,5.5E-4
1680000639768,1180628123010618,-0.028324999,0.013475,-0.0015125
1680000639770,1180628125512695,-0.0273625,0.013475,-0.002475
1680000639772,1180628128014618,-0.028324999,0.0193875,-0.0015125
1680000639776,1180628130516705,-0.03135,0.0144375,-4.125E-4
1680000639778,1180628133018628,-0.0303875,0.013475,-4.125E-4
1680000639780,1180628135520705,-0.03135,0.0154,-4.125E-4
1680000639782,1180628138022628,-0.0334125,0.0154,-4.125E-4
1680000639786,1180628140524676,-0.0303875,0.0154,-4.125E-4
1680000639790,1180628143026599,-0.03135,0.012375,5.5E-4
1680000639791,1180628145528676,-0.0334125,0.013475,0.0015125
1680000639793,1180628148030830,-0.032449998,0.013475,0.0015125
1680000639796,1180628150532753,-0.03135,0.012375,5.5E-4
1680000639798,1180628153034618,-0.0303875,0.012375,-0.0015125
1680000639800,1180628155536695,-0.0303875,0.012375,-4.125E-4
1680000639802,1180628158038618,-0.029424999,0.013475,5.5E-4
1680000639806,1180628160540695,-0.0334125,0.0154,0.0015125
1680000639808,1180628163042580,-0.028324999,0.018424999,0.0015125
1680000639810,1180628165544734,-0.028324999,0.0174625,0.0015125
1680000639812,1180628168046580,-0.029424999,0.0154,0.0015125
1680000639816,1180628170548657,-0.028324999,0.018424999,0.002475
1680000639818,1180628173050565,-0.029424999,0.0193875,0.003575
1680000639820,1180628175552642,-0.03135,0.0163625,0.0045375
1680000639822,1180628178054565,-0.029424999,0.0154,0.0045375
1680000639827,1180628180556642,-0.0273625,0.0174625,0.0055
1680000639829,1180628183058536,-0.0303875,0.0144375,0.0055
1680000639831,1180628185560613,-0.0334125,0.013475,0.0045375
1680000639833,1180628188062536,-0.032449998,0.0154,0.0045375
1680000639836,1180628190564613,-0.03135,0.0144375,0.0055
1680000639838,1180628193066536,-0.03135,0.012375,0.0055
1680000639840,1180628195568706,-0.0303875,0.012375,0.0094875
1680000639843,1180628198070783,-0.0303875,0.0114124995,0.0105875
1680000639846,1180628200572629,-0.0303875,0.01045,0.0094875
1680000639848,1180628203074552,-0.0264,0.007425,0.0094875
1680000639853,1180628205576633,-0.0243375,0.0064625,0.01155
1680000639854,1180628208078556,-0.028324999,0.0053625,0.008525
1680000639856,1180628210580633,-0.0264,0.00935,0.008525
1680000639858,1180628213082787,-0.023375,0.00935,0.008525
1680000639860,1180628215584710,-0.0243375,0.0053625,0.008525
1680000639864,1180628218086556,-0.0224125,0.007425,0.0066
1680000639867,1180628220588633,-0.0224125,0.0114124995,0.0075625
1680000639869,1180628223090556,-0.023375,0.01045,0.0066
1680000639874,1180628225592609,-0.0264,0.0144375,0.003575
1680000639874,1180628228094763,-0.0243375,0.0154,0.003575
1680000639876,1180628230596686,-0.023375,0.0133375,0.0045375
1680000639879,1180628233098763,-0.0264,0.0154,0.003575
1680000639880,1180628235600686,-0.0243375,0.0144375,0.003575
1680000639882,1180628238102528,-0.0254375,0.0174625,0.0055
1680000639887,1180628240604605,-0.0254375,0.0163625,0.002475
1680000639890,1180628243106528,-0.0243375,0.018424999,-0.0015125
1680000639891,1180628245608682,-0.0254375,0.02145,0.0015125
1680000639898,1180628248110797,-0.0264,0.0224125,5.5E-4
1680000639898,1180628250612720,-0.0264,0.0224125,5.5E-4
1680000639899,1180628253114797,-0.0224125,0.023375,5.5E-4
1680000639902,1180628255616720,-0.023375,0.023375,5.5E-4
1680000639903,1180628258118595,-0.0243375,0.0243375,-0.0015125
1680000639907,1180628260620749,-0.0273625,0.0224125,-0.0015125
1680000639908,1180628263122826,-0.028324999,0.0284625,-0.002475
1680000639910,1180628265624749,-0.0264,0.0284625,0.0045375
1680000639912,1180628268126826,-0.028324999,0.0284625,0.0055
1680000639916,1180628270628763,-0.0273625,0.029424999,0.003575
1680000639918,1180628273130840,-0.0264,0.032449998,0.0045375
1680000639920,1180628275632686,-0.028324999,0.029424999,0.0066
1680000639922,1180628278134840,-0.0273625,0.029424999,0.0055
1680000639926,1180628280636773,-0.0254375,0.0243375,0.0075625
1680000639928,1180628283138850,-0.0264,0.02035,0.008525
1680000639930,1180628285640773,-0.0254375,0.0243375,0.008525
1680000639932,1180628288142850,-0.023375,0.0224125,0.008525
1680000639936,1180628290644773,-0.0243375,0.02035,0.0094875
1680000639941,1180628293146927,-0.0243375,0.0154,0.01155
1680000639942,1180628295648773,-0.0224125,0.0144375,0.0105875
1680000639943,1180628298150850,-0.0254375,0.0114124995,0.0094875
1680000639946,1180628300652773,-0.0264,0.007425,0.0075625
1680000639948,1180628303154850,-0.0243375,0.0044,0.008525
1680000639950,1180628305656773,-0.0264,0.007425,0.008525
1680000639953,1180628308158927,-0.0264,4.125E-4,0.0066
1680000639956,1180628310661004,-0.0243375,0.001375,0.0055
1680000639958,1180628313162946,-0.023375,0.001375,0.003575
1680000639960,1180628315664792,-0.0254375,-0.0026125,0.003575
1680000639962,1180628318166946,-0.0243375,-0.0026125,0.0015125
1680000639966,1180628320668792,-0.0264,-5.5E-4,0.002475
1680000639968,1180628323170946,-0.028324999,-0.00165,0.0015125
1680000639970,1180628325672792,-0.0243375,-0.0066,-4.125E-4
1680000639973,1180628328174869,-0.0243375,-0.0026125,5.5E-4
1680000639977,1180628330676840,-0.0254375,0.001375,5.5E-4
1680000639980,1180628333178686,-0.0243375,-0.0026125,-0.0015125
1680000639981,1180628335680840,-0.023375,-0.0056375,-0.0034375
1680000639983,1180628338182917,-0.0224125,-0.003575,-0.0034375
1680000639986,1180628340684840,-0.02145,-5.5E-4,-0.0015125
1680000639988,1180628343186917,-0.02035,4.125E-4,-0.0034375
1680000639990,1180628345688840,-0.0224125,-5.5E-4,-0.0034375
1680000639993,1180628348190917,-0.0193875,0.001375,-0.0034375
1680000639998,1180628350693071,-0.02145,0.0053625,-0.0055
1680000639999,1180628353194917,-0.0193875,0.0064625,-0.0055
1680000640000,1180628355696826,-0.018424999,0.0064625,-0.008525
1680000640003,1180628358198903,-0.018424999,0.01045,-0.0064625
1680000640006,1180628360700826,-0.018424999,0.007425,-0.0055
1680000640008,1180628363202903,-0.02145,0.0053625,-0.007425
1680000640010,1180628365704820,-0.0193875,0.0044,-0.0064625
1680000640014,1180628368206974,-0.018424999,0.0044,-0.0064625
1680000640017,1180628370709051,-0.017324999,0.001375,-0.0064625
1680000640019,1180628373210897,-0.017324999,-0.0026125,-0.007425
1680000640021,1180628375712810,-0.0144375,-0.0066,-0.0064625
1680000640023,1180628378214887,-0.0144375,-0.01155,-0.0055
1680000640026,1180628380716810,-0.0114124995,-0.01265,-0.0055
1680000640028,1180628383218964,-0.0144375,-0.013612499,-0.0064625
1680000640030,1180628385721041,-0.01045,-0.013612499,-0.0055
1680000640032,1180628388222945,-0.012375,-0.0176,-0.0044
1680000640036,1180628390724791,-0.00935,-0.0176,-0.0064625
1680000640037,1180628393226868,-0.007425,-0.0155375,-0.0055
1680000640041,1180628395728791,-0.007425,-0.0185625,-0.0064625
1680000640042,1180628398230887,-0.007425,-0.0176,-0.0055
1680000640047,1180628400733041,-0.0083875,-0.0176,-0.0064625
1680000640048,1180628403234964,-0.0053625,-0.020624999,-0.0064625
1680000640052,1180628405737041,-0.007425,-0.0185625,-0.0064625
1680000640053,1180628408238988,-0.0064625,-0.0196625,-0.007425
1680000640056,1180628410740834,-0.0034375,-0.0215875,-0.007425
1680000640059,1180628413242911,-4.125E-4,-0.0196625,-0.007425
1680000640061,1180628415745065,5.5E-4,-0.020624999,-0.0064625
1680000640063,1180628418246988,5.5E-4,-0.0196625,-0.0055
1680000640067,1180628420749061,-0.001375,-0.0196625,-0.008525
1680000640069,1180628423250984,-0.0023375,-0.020624999,-0.008525
1680000640070,1180628425753061,-0.001375,-0.0215875,-0.0044
1680000640073,1180628428254984,0.00165,-0.0196625,-0.0055
1680000640077,1180628430757065,-4.125E-4,-0.02255,-0.0044
1680000640078,1180628433258988,-0.001375,-0.0265375,-0.0044
1680000640080,1180628435761065,-0.001375,-0.0265375,-0.0055
1680000640083,1180628438262988,-0.0023375,-0.0286,-0.002475
1680000640086,1180628440765065,0.00165,-0.031625,-0.002475
1680000640089,1180628443266988,0.0026125,-0.034649998,-0.0034375
1680000640091,1180628445769065,-0.0034375,-0.0295625,-0.002475
1680000640093,1180628448270988,-0.001375,-0.034649998,-0.0055
1680000640096,1180628450773065,5.5E-4,-0.0375375,-0.0055
1680000640099,1180628453274964,0.00165,-0.0375375,-0.0044
1680000640100,1180628455777041,0.0056375,-0.0356125,-0.002475
1680000640103,1180628458278964,0.0075625,-0.0325875,-0.002475
1680000640106,1180628460781041,0.0086624995,-0.031625,-0.0044
1680000640108,1180628463283200,0.0075625,-0.0325875,-0.007425
1680000640110,1180628465785123,0.0086624995,-0.0325875,-0.007425
1680000640113,1180628468286969,0.009625,-0.031625,-0.0114124995
1680000640117,1180628470789046,0.013612499,-0.0286,-0.01045
1680000640119,1180628473290955,0.0155375,-0.0286,-0.0144375
1680000640121,1180628475793032,0.013612499,-0.0295625,-0.0154
1680000640123,1180628478294955,0.01155,-0.0265375,-0.0114124995
1680000640127,1180628480797109,0.0155375,-0.025575,-0.0125124995
1680000640129,1180628483299167,0.014575,-0.0215875,-0.0125124995
1680000640132,1180628485801013,0.013612499,-0.02255,-0.0154
1680000640133,1180628488302936,0.013612499,-0.0176,-0.018424999
1680000640136,1180628490805090,0.01155,-0.0215875,-0.018424999
1680000640138,1180628493307167,0.009625,-0.020624999,-0.0114124995
1680000640141,1180628495809076,0.01155,-0.0166375,-0.007425
1680000640143,1180628498311153,0.01155,-0.0196625,-0.0114124995
1680000640146,1180628500812999,0.009625,-0.0185625,-0.0125124995
1680000640148,1180628503314923,0.01155,-0.0166375,-0.01045
1680000640150,1180628505817047,0.0105875,-0.013612499,-0.01045
1680000640153,1180628508319124,0.009625,-0.0155375,-0.0094875
1680000640156,1180628510821047,0.009625,-0.01155,-0.0094875
1680000640158,1180628513323124,0.0105875,-0.01265,-0.0144375
1680000640161,1180628515825047,0.01155,-0.01265,-0.0144375
1680000640164,1180628518327124,0.01155,-0.01265,-0.0125124995
1680000640169,1180628520828970,0.013612499,-0.0105875,-0.0144375
1680000640170,1180628523331124,0.01155,-0.01155,-0.0165
1680000640171,1180628525833066,0.014575,-0.0105875,-0.018424999
1680000640176,1180628528335143,0.013612499,-0.009625,-0.0174625
1680000640177,1180628530837066,0.01155,-0.009625,-0.018424999
1680000640179,1180628533339143,0.013612499,-0.009625,-0.0174625
1680000640181,1180628535841066,0.0105875,-0.0086624995,-0.018424999
1680000640183,1180628538343210,0.014575,-0.0075625,-0.019524999
1680000640186,1180628540845056,0.013612499,-0.0056375,-0.019524999
1680000640188,1180628543347133,0.009625,-0.01155,-0.0204875
1680000640191,1180628545849056,0.014575,-0.01155,-0.019524999
1680000640193,1180628548351137,0.013612499,-0.013612499,-0.0165
1680000640196,1180628550853060,0.009625,-0.0155375,-0.0154
1680000640198,1180628553355214,0.0105875,-0.013612499,-0.0174625
1680000640201,1180628555857291,0.014575,-0.013612499,-0.0154
1680000640203,1180628558359171,0.013612499,-0.020624999,-0.0125124995
1680000640207,1180628560861094,0.01155,-0.02255,-0.0165
1680000640209,1180628563363171,0.0155375,-0.0246125,-0.018424999
1680000640210,1180628565865094,0.013612499,-0.0265375,-0.02145
1680000640213,1180628568367171,0.014575,-0.0265375,-0.02145
1680000640216,1180628570869320,0.0176,-0.0276375,-0.0204875
1680000640219,1180628573371243,0.0155375,-0.0286,-0.02145
1680000640220,1180628575873320,0.0105875,-0.0286,-0.0264
1680000640223,1180628578375166,0.009625,-0.0295625,-0.0235125
1680000640226,1180628580877080,0.009625,-0.0295625,-0.0235125
1680000640228,1180628583379156,0.0105875,-0.03355,-0.024475
1680000640230,1180628585881310,0.01155,-0.036575,-0.0254375
1680000640234,1180628588383233,0.01155,-0.034649998,-0.0264
1680000640237,1180628590885325,0.0066,-0.034649998,-0.024475
1680000640240,1180628593387248,0.0075625,-0.0356125,-0.0235125
1680000640241,1180628595889325,0.0066,-0.0356125,-0.024475
1680000640243,1180628598391171,0.0075625,-0.0325875,-0.0235125
1680000640255,1180628600893080,0.0045375,-0.03355,-0.02145
1680000640255,1180628603395233,0.003575,-0.0306625,-0.0204875
1680000640255,1180628605897310,0.0056375,-0.0276375,-0.02145
1680000640255,1180628608399233,0.0045375,-0.0276375,-0.0204875
1680000640258,1180628610901080,0.0045375,-0.0265375,-0.0224125
1680000640259,1180628613403233,0.003575,-0.025575,-0.0235125
1680000640261,1180628615905080,-4.125E-4,-0.0286,-0.0204875
1680000640263,1180628618407233,-0.001375,-0.0265375,-0.02145
1680000640266,1180628620909334,-0.0034375,-0.025575,-0.0235125
1680000640269,1180628623411257,-0.0053625,-0.0265375,-0.024475
1680000640271,1180628625913334,-0.0034375,-0.0276375,-0.024475
1680000640273,1180628628415257,-0.0034375,-0.0276375,-0.0224125
1680000640278,1180628630917104,-0.0064625,-0.0286,-0.0264
1680000640279,1180628633419258,-0.0064625,-0.0286,-0.0264
1680000640281,1180628635921334,-0.0064625,-0.0265375,-0.0264
1680000640283,1180628638423258,-0.0083875,-0.0295625,-0.0275
1680000640286,1180628640925334,-0.0083875,-0.0276375,-0.0275
1680000640289,1180628643427249,-0.0083875,-0.0306625,-0.0284625
1680000640293,1180628645929325,-0.0114124995,-0.031625,-0.0254375
1680000640294,1180628648431249,-0.0114124995,-0.0276375,-0.0254375
1680000640296,1180628650933402,-0.0114124995,-0.0306625,-0.0254375
1680000640299,1180628653435253,-0.0133375,-0.0356125,-0.0264
1680000640301,1180628655937329,-0.012375,-0.0375375,-0.0264
1680000640303,1180628658439253,-0.0114124995,-0.0375375,-0.0264
1680000640306,1180628660941329,-0.0133375,-0.0386375,-0.0254375
1680000640308,1180628663443253,-0.0144375,-0.0386375,-0.0264
1680000640310,1180628665945364,-0.0144375,-0.0375375,-0.0275
1680000640315,1180628668447287,-0.0144375,-0.0396,-0.0314875
1680000640317,1180628670949364,-0.0144375,-0.0435875,-0.0275
1680000640319,1180628673451210,-0.0144375,-0.0416625,-0.0314875
1680000640320,1180628675953383,-0.0133375,-0.042625,-0.0314875
1680000640323,1180628678455536,-0.012375,-0.0416625,-0.0264
1680000640326,1180628680957459,-0.0114124995,-0.0416625,-0.0254375
1680000640328,1180628683459306,-0.0133375,-0.0435875,-0.0284625
1680000640330,1180628685961369,-0.012375,-0.0466125,-0.032449998
1680000640333,1180628688463292,-0.012375,-0.0485375,-0.029424999
1680000640336,1180628690965369,-0.012375,-0.0435875,-0.0284625
1680000640339,1180628693467292,-0.0133375,-0.04455,-0.029424999
1680000640341,1180628695969460,-0.0144375,-0.047575,-0.029424999
1680000640343,1180628698471536,-0.012375,-0.045649998,-0.029424999
1680000640347,1180628700973460,-0.0133375,-0.036575,-0.029424999
1680000640348,1180628703475306,-0.0133375,-0.0375375,-0.0334125
1680000640352,1180628705977393,-0.0154,-0.036575,-0.032449998
1680000640353,1180628708479546,-0.012375,-0.0325875,-0.0284625
1680000640356,1180628710981393,-0.01045,-0.03355,-0.0334125
1680000640358,1180628713483316,-0.01045,-0.0276375,-0.0314875
1680000640360,1180628715985393,-0.01045,-0.0286,-0.0314875
1680000640363,1180628718487311,-0.01045,-0.0276375,-0.032449998
1680000640366,1180628720989388,-0.01045,-0.0265375,-0.0314875
1680000640368,1180628723491311,-0.0114124995,-0.020624999,-0.0264
1680000640370,1180628725993465,-0.0094875,-0.0196625,-0.0235125
1680000640373,1180628728495508,-0.01045,-0.015675,-0.0224125
1680000640376,1180628730997431,-0.0125124995,-0.0166375,-0.0264
1680000640379,1180628733499508,-0.0083875,-0.015675,-0.0224125
1680000640381,1180628736001431,-0.007425,-0.014575,-0.02145
1680000640383,1180628738503277,-0.01045,-0.0196625,-0.0204875
1680000640386,1180628741005422,-0.0094875,-0.0185625,-0.02145
1680000640389,1180628743507499,-0.0083875,-0.0166375,-0.019524999
1680000640391,1180628746009422,-0.0055,-0.014575,-0.019524999
1680000640393,1180628748511479,-0.0034375,-0.0196625,-0.0174625
1680000640396,1180628751013402,-0.0034375,-0.0196625,-0.0165
1680000640398,1180628753515479,-0.0034375,-0.0185625,-0.0154
1680000640401,1180628756017402,-0.0055,-0.0196625,-0.0154
1680000640403,1180628758519466,-4.125E-4,-0.0215875,-0.0144375
1680000640409,1180628761021389,-0.0015125,-0.0215875,-0.0125124995
1680000640410,1180628763523466,-0.0055,-0.02255,-0.0144375
1680000640411,1180628766025389,-0.0064625,-0.0215875,-0.0125124995
1680000640413,1180628768527466,-0.002475,-0.02255,-0.0125124995
1680000640416,1180628771029374,-0.002475,-0.026675,-0.0144375
1680000640418,1180628773531451,-0.0034375,-0.0286,-0.0154
1680000640420,1180628776033374,-0.0015125,-0.0286,-0.0144375
1680000640423,1180628778535451,-0.002475,-0.0286,-0.0125124995
1680000640427,1180628781037370,-0.0015125,-0.025575,-0.0094875
1680000640429,1180628783539447,-4.125E-4,-0.0286,-0.01045
1680000640431,1180628786041370,-0.0015125,-0.0306625,-0.01045
1680000640433,1180628788543418,-4.125E-4,-0.0286,-0.0125124995
1680000640436,1180628791045341,0.0015125,-0.025575,-0.0144375
1680000640438,1180628793547495,-4.125E-4,-0.025575,-0.01045
1680000640441,1180628796049341,5.5E-4,-0.0246125,-0.0114124995
1680000640443,1180628798551418,0.0045375,-0.025575,-0.0094875
1680000640446,1180628801053360,0.0026125,-0.02255,-0.0114124995
1680000640448,1180628803555437,0.003575,-0.020624999,-0.01045
1680000640450,1180628806057591,0.0045375,-0.014575,-0.008525
1680000640453,1180628808559437,0.003575,-0.013612499,-0.01045
1680000640456,1180628811061379,0.0045375,-0.0105875,-0.0114124995
1680000640459,1180628813563533,0.0045375,-0.0105875,-0.01045
1680000640460,1180628816065610,0.0055,-0.01155,-0.0094875
1680000640464,1180628818567447,0.0066,-0.0086624995,-0.007425
1680000640467,1180628821069601,0.0075625,-0.0086624995,-0.0094875
1680000640469,1180628823571524,0.0075625,-0.009625,-0.007425
1680000640471,1180628826073370,0.0075625,-0.009625,-0.007425
1680000640474,1180628828575447,0.008525,-0.01155,-0.008525
1680000640476,1180628831077572,0.008525,-0.0066,-0.0055
1680000640478,1180628833579495,0.008525,-0.009625,-0.0064625
1680000640481,1180628836081572,0.0094875,-0.01265,-0.007425
1680000640483,1180628838583495,0.0094875,-0.0075625,-0.0044
1680000640486,1180628841085572,0.0105875,-0.0086624995,-0.0034375
1680000640488,1180628843587418,0.0105875,-0.01155,-0.0055
1680000640491,1180628846089572,0.014575,-0.0105875,-0.007425
1680000640493,1180628848591495,0.0176,-0.01265,-0.0094875
1680000640497,1180628851093567,0.014575,-0.0176,-0.008525
1680000640500,1180628853595490,0.014575,-0.0176,-0.0044
1680000640502,1180628856097567,0.0176,-0.020624999,-0.0044
1680000640504,1180628858599490,0.019524999,-0.0246125,-0.0064625
1680000640507,1180628861101336,0.0176,-0.0215875,-0.0044
1680000640509,1180628863603716,0.0176,-0.0246125,-0.0044
1680000640511,1180628866105562,0.0185625,-0.025575,-0.0064625
1680000640514,1180628868607485,0.0165,-0.025575,-0.0055
1680000640516,1180628871109562,0.013612499,-0.0276375,-0.0064625
1680000640518,1180628873611490,0.0155375,-0.0295625,-0.0055
1680000640520,1180628876113567,0.0155375,-0.026675,-0.0044
1680000640523,1180628878615490,0.014575,-0.025575,-0.0055
1680000640526,1180628881117644,0.0155375,-0.02255,-0.0044
1680000640528,1180628883619740,0.0155375,-0.0246125,-0.0034375
1680000640530,1180628886121663,0.013612499,-0.0276375,-0.002475
1680000640533,1180628888623509,0.0105875,-0.0286,-0.002475
1680000640537,1180628891125586,0.014575,-0.026675,5.5E-4
1680000640540,1180628893627543,0.0185625,-0.0246125,-0.0015125
1680000640542,1180628896129697,0.0176,-0.026675,-0.0015125
1680000640544,1180628898631774,0.0185625,-0.026675,5.5E-4
1680000640547,1180628901133697,0.0204875,-0.0215875,-4.125E-4
1680000640548,1180628903635774,0.0204875,-0.02255,-4.125E-4
1680000640550,1180628906137726,0.0215875,-0.0196625,5.5E-4
1680000640553,1180628908639572,0.0215875,-0.0176,-0.0015125
1680000640556,1180628911141726,0.0215875,-0.0166375,-0.002475
1680000640558,1180628913643803,0.0235125,-0.014575,-0.0034375
1680000640561,1180628916145745,0.0215875,-0.0166375,-0.0015125
1680000640563,1180628918647822,0.0215875,-0.0176,-4.125E-4
1680000640567,1180628921149745,0.025575,-0.0166375,-4.125E-4
1680000640568,1180628923651822,0.0246125,-0.015675,-0.0034375
1680000640571,1180628926153730,0.0246125,-0.0176,-4.125E-4
1680000640574,1180628928655807,0.0265375,-0.020624999,0.0015125
1680000640578,1180628931157730,0.0275,-0.0185625,-0.002475
1680000640580,1180628933659807,0.030524999,-0.020624999,-0.002475
1680000640582,1180628936161745,0.0314875,-0.020624999,5.5E-4
1680000640583,1180628938663822,0.0275,-0.0185625,0.0015125
1680000640586,1180628941165745,0.0295625,-0.0176,5.5E-4
1680000640588,1180628943667899,0.0295625,-0.0176,0.003575
1680000640591,1180628946169745,0.03355,-0.0215875,0.0015125
1680000640593,1180628948671822,0.030524999,-0.02255,0.002475
1680000640596,1180628951173745,0.030524999,-0.026675,-4.125E-4
1680000640598,1180628953675822,0.0345125,-0.025575,0.0015125
1680000640601,1180628956177745,0.036575,-0.02255,0.003575
1680000640603,1180628958679903,0.03355,-0.02255,0.0015125
1680000640606,1180628961181980,0.03355,-0.02255,0.002475
1680000640608,1180628963683903,0.0345125,-0.025575,0.002475
1680000640610,1180628966185749,0.03355,-0.02255,0.002475
1680000640614,1180628968687812,0.0325875,-0.0246125,0.002475
1680000640618,1180628971189735,0.036575,-0.0246125,5.5E-4
1680000640620,1180628973691812,0.0345125,-0.0246125,0.0015125
1680000640621,1180628976193966,0.0314875,-0.025575,0.002475
1680000640625,1180628978695889,0.030524999,-0.0246125,0.002475
1680000640627,1180628981197942,0.0345125,-0.0215875,0.0015125
1680000640628,1180628983699788,0.0345125,-0.0196625,-0.0015125
1680000640631,1180628986201711,0.0314875,-0.0176,5.5E-4
1680000640633,1180628988703788,0.030524999,-0.0176,-4.125E-4
1680000640636,1180628991205961,0.0265375,-0.0196625,0.0045375
1680000640638,1180628993707884,0.0265375,-0.0166375,0.002475
1680000640642,1180628996209961,0.0275,-0.0166375,5.5E-4
1680000640643,1180628998711884,0.0265375,-0.0185625,0.0045375
1680000640646,1180629001213975,0.0265375,-0.013612499,0.0015125
1680000640649,1180629003715821,0.0265375,-0.01155,0.002475
1680000640652,1180629006217744,0.0265375,-0.009625,0.002475
1680000640654,1180629008719898,0.0235125,-0.0075625,5.5E-4
1680000640657,1180629011221990,0.0265375,-0.0086624995,-0.0015125
1680000640659,1180629013723836,0.0265375,-0.003575,0.0015125
1680000640661,1180629016225759,0.0265375,-0.0056375,0.002475
1680000640663,1180629018727913,0.0246125,-0.003575,0.0015125
1680000640666,1180629021229990,0.0265375,0.0023375,0.0045375
1680000640669,1180629023731923,0.0275,0.0053625,5.5E-4
1680000640671,1180629026234000,0.0275,0.0053625,-0.002475
1680000640673,1180629028735923,0.0265375,0.0044,-4.125E-4
1680000640677,1180629031238000,0.0265375,0.0044,5.5E-4
1680000640678,1180629033739923,0.0246125,0.006325,-0.002475
1680000640681,1180629036241995,0.025575,0.007425,-0.0015125
1680000640683,1180629038743918,0.0246125,0.0034375,-0.0015125
1680000640693,1180629041245995,0.025575,0.0034375,-0.002475
1680000640693,1180629043747918,0.0265375,0.0023375,-0.0034375
1680000640693,1180629046249995,0.025575,0.0034375,-0.0034375
1680000640694,1180629048751918,0.025575,4.125E-4,-0.0015125
1680000640697,1180629051253995,0.02255,-0.00165,-4.125E-4
1680000640699,1180629053755918,0.0235125,-0.0026125,-4.125E-4
1680000640703,1180629056257961,0.0235125,-0.0026125,-0.0015125
1680000640704,1180629058759884,0.02255,-0.003575,-4.125E-4
1680000640708,1180629061261961,0.0204875,-0.0075625,-4.125E-4
1680000640708,1180629063763884,0.0185625,-0.009625,0.0015125
1680000640714,1180629066266028,0.019524999,-0.009625,5.5E-4
1680000640714,1180629068768105,0.019524999,-0.0105875,0.0015125
1680000640719,1180629071269951,0.0185625,-0.01265,0.002475
1680000640719,1180629073771874,0.0204875,-0.01265,0.002475
1680000640721,1180629076273932,0.0176,-0.01155,-0.0034375
1680000640723,1180629078775855,0.0204875,-0.013612499,-0.0015125
1680000640728,1180629081278009,0.019524999,-0.01265,5.5E-4
1680000640730,1180629083780086,0.0176,-0.015675,-0.0055
1680000640731,1180629086281995,0.0185625,-0.014575,-0.002475
1680000640733,1180629088784072,0.0165,-0.014575,-0.0015125
1680000640737,1180629091285918,0.014575,-0.0105875,-0.0064625
1680000640739,1180629093787841,0.014575,-0.0105875,-0.0055
1680000640741,1180629096289918,0.01155,-0.0086624995,-0.0055
1680000640743,1180629098792081,0.0094875,-0.0075625,-0.007425
1680000640747,1180629101294004,0.0094875,-0.009625,-0.0044
1680000640748,1180629103796081,0.0055,-0.01265,-0.0055
1680000640751,1180629106298004,0.0045375,-0.0075625,-0.0055
1680000640754,1180629108799845,0.0055,-0.0075625,-0.0044
1680000640756,1180629111301922,0.0075625,-0.009625,-0.007425
1680000640758,1180629113804076,0.0075625,-0.0105875,-0.002475
1680000640761,1180629116305999,0.0055,-0.013612499,-0.002475
1680000640765,1180629118808081,0.003575,-0.01265,-0.007425
1680000640767,1180629121310004,0.0045375,-0.01265,-0.007425
1680000640769,1180629123812081,0.0045375,-0.013612499,-0.0044
1680000640778,1180629126314004,0.003575,-0.01155,-0.0044
1680000640779,1180629128816081,0.0045375,-0.014575,-0.0094875
1680000640779,1180629131318019,0.0055,-0.014575,-0.0144375
1680000640780,1180629133820096,0.0094875,-0.01155,-0.0125124995
1680000640781,1180629136322019,0.0094875,-0.01155,-0.0144375
1680000640783,1180629138824096,0.0075625,-0.015675,-0.0125124995
1680000640786,1180629141326023,0.0055,-0.01155,-0.0114124995
1680000640788,1180629143828100,0.0045375,-0.01265,-0.0144375
1680000640791,1180629146330254,0.0026125,-0.01265,-0.0174625
1680000640793,1180629148832177,-4.125E-4,-0.01155,-0.018424999
1680000640796,1180629151334283,0.003575,-0.0105875,-0.0165
1680000640798,1180629153836129,5.5E-4,-0.01155,-0.018424999
1680000640802,1180629156338052,-0.0055,-0.01265,-0.019524999
1680000640804,1180629158840129,-0.0055,-0.01155,-0.019524999
1680000640806,1180629161342067,-0.0015125,-0.013612499,-0.018424999
1680000640809,1180629163844221,-0.0034375,-0.013612499,-0.0174625
1680000640810,1180629166346298,-0.0055,-0.01155,-0.0174625
1680000640813,1180629168848221,-0.0064625,-0.0075625,-0.019524999
1680000640817,1180629171350052,-0.007425,-0.0075625,-0.018424999
1680000640819,1180629173852206,-0.0094875,-0.0056375,-0.0165
1680000640821,1180629176354052,-0.0083875,-0.004675,-0.0165
1680000640823,1180629178856206,-0.007425,-0.0066,-0.0154
1680000640826,1180629181358283,-0.01045,-0.004675,-0.0125124995
1680000640828,1180629183860206,-0.013475,-0.0086624995,-0.01045
1680000640832,1180629186362283,-0.0165,-0.009625,-0.0114124995
1680000640833,1180629188864437,-0.0165,-0.0086624995,-0.0094875
1680000640837,1180629191366283,-0.0165,-0.0075625,-0.0094875
1680000640840,1180629193868201,-0.0165,-0.0075625,-0.0064625
1680000640841,1180629196370278,-0.0174625,-0.009625,-0.0044
1680000640843,1180629198872201,-0.0193875,-0.009625,-0.0044
1680000640847,1180629201374278,-0.0193875,-0.014575,-0.0055
1680000640848,1180629203876432,-0.0204875,-0.01265,-0.0055
1680000640851,1180629206378360,-0.0204875,-0.01265,-0.008525
1680000640853,1180629208880206,-0.024475,-0.015675,-0.0114124995
1680000640857,1180629211382283,-0.0224125,-0.013612499,-0.0055
1680000640859,1180629213884206,-0.0264,-0.015675,-0.0044
1680000640861,1180629216386277,-0.0254375,-0.013612499,-0.008525
1680000640864,1180629218888200,-0.024475,-0.0075625,-0.008525
1680000640867,1180629221390354,-0.0254375,-0.009625,-0.0055
1680000640869,1180629223892431,-0.024475,-0.01155,-0.0094875
1680000640871,1180629226394369,-0.0264,-0.0086624995,-0.0154
1680000640873,1180629228896215,-0.0254375,-0.009625,-0.0125124995
1680000640878,1180629231398292,-0.0284625,-0.0105875,-0.008525
1680000640879,1180629233900215,-0.029424999,-0.0105875,-0.0114124995
1680000640881,1180629236402349,-0.0273625,-0.009625,-0.0125124995
1680000640883,1180629238904426,-0.0273625,-0.01155,-0.0154
1680000640886,1180629241406349,-0.0284625,-0.013612499,-0.019524999
1680000640888,1180629243908426,-0.032449998,-0.01155,-0.02145
1680000640892,1180629246410349,-0.0303875,-0.0086624995,-0.02145
1680000640893,1180629248912205,-0.029424999,-0.0086624995,-0.018424999
1680000640897,1180629251414282,-0.029424999,-0.0056375,-0.0224125
1680000640899,1180629253916436,-0.029424999,-0.003575,-0.0235125
1680000640901,1180629256418359,-0.0303875,-0.0026125,-0.0224125
1680000640903,1180629258920441,-0.0303875,-0.004675,-0.0224125
1680000640906,1180629261422364,-0.0314875,-0.0026125,-0.0235125
1680000640908,1180629263924441,-0.029424999,-0.003575,-0.0235125
1680000640911,1180629266426287,-0.029424999,-5.5E-4,-0.0235125
1680000640916,1180629268928450,-0.0303875,-5.5E-4,-0.024475
1680000640922,1180629271430373,-0.0314875,4.125E-4,-0.0235125
1680000640922,1180629273932450,-0.0334125,-0.00165,-0.0235125
1680000640922,1180629276434373,-0.034375,0.001375,-0.0254375
1680000640925,1180629278936450,-0.032449998,0.001375,-0.024475
1680000640930,1180629281438369,-0.0314875,-5.5E-4,-0.02145
1680000640931,1180629283940446,-0.0314875,-0.004675,-0.0224125
1680000640931,1180629286442369,-0.0314875,-0.0075625,-0.019524999
1680000640933,1180629288944446,-0.032449998,-0.0066,-0.0204875
1680000640937,1180629291446349,-0.0314875,-0.0066,-0.019524999
1680000640939,1180629293948426,-0.032449998,-0.0066,-0.0174625
1680000640940,1180629296450349,-0.0303875,-0.0086624995,-0.0125124995
1680000640943,1180629298952426,-0.0303875,-0.014575,-0.01045
1680000640947,1180629301454566,-0.0303875,-0.014575,-0.0114124995
1680000640948,1180629303956489,-0.029424999,-0.013612499,-0.0125124995
1680000640952,1180629306458335,-0.0303875,-0.0166375,-0.0094875
1680000640954,1180629308960412,-0.029424999,-0.0176,-0.0114124995
1680000640957,1180629311462340,-0.029424999,-0.0196625,-0.01045
1680000640958,1180629313964417,-0.0273625,-0.02255,-0.008525
1680000640961,1180629316466571,-0.0264,-0.025575,-0.01045
1680000640963,1180629318968494,-0.0254375,-0.026675,-0.0064625
1680000640967,1180629321470561,-0.023375,-0.026675,-0.0064625
1680000640969,1180629323972407,-0.0273625,-0.0306625,-0.0064625
1680000640971,1180629326474330,-0.0273625,-0.034649998,-0.0055
1680000640974,1180629328976407,-0.0273625,-0.036575,-0.002475
1680000640977,1180629331478543,-0.0264,-0.03355,-0.002475
1680000640979,1180629333980466,-0.0273625,-0.037675,-4.125E-4
1680000640981,1180629336482543,-0.0264,-0.0396,0.002475
1680000640984,1180629338984466,-0.0284625,-0.0396,0.003575
1680000640986,1180629341486543,-0.0273625,-0.036575,0.002475
1680000640991,1180629343988479,-0.0254375,-0.042625,0.0055
1680000640991,1180629346490556,-0.0284625,-0.042625,0.0066
1680000640994,1180629348992710,-0.0314875,-0.0416625,0.0066
1680000640997,1180629351494633,-0.029424999,-0.0435875,0.008525
1680000640998,1180629353996479,-0.0303875,-0.0416625,0.01155
1680000641001,1180629356498533,-0.0314875,-0.0416625,0.0066
1680000641003,1180629359000456,-0.029424999,-0.037675,0.0066
1680000641007,1180629361502533,-0.0303875,-0.0356125,0.0045375
1680000641008,1180629364004456,-0.0273625,-0.0306625,0.0066
1680000641011,1180629366506543,-0.0284625,-0.025575,0.0094875
1680000641014,1180629369008466,-0.032449998,-0.0295625,0.008525
1680000641018,1180629371510543,-0.0284625,-0.0276375,0.0055
1680000641021,1180629374012466,-0.0303875,-0.0246125,0.0094875
1680000641021,1180629376514633,-0.0334125,-0.0185625,0.0055
1680000641025,1180629379016710,-0.0314875,-0.015675,0.0015125
1680000641028,1180629381518556,-0.032449998,-0.014575,0.0066
1680000641030,1180629384020479,-0.0334125,-0.015675,0.0075625
1680000641031,1180629386522576,-0.0334125,-0.0105875,0.0075625
1680000641034,1180629389024499,-0.0314875,-0.0086624995,0.0045375
1680000641036,1180629391526653,-0.032449998,-0.0056375,0.0015125
1680000641039,1180629394028730,-0.0314875,-0.0056375,0.0015125
1680000641041,1180629396530653,-0.0314875,-0.0056375,-0.0015125
1680000641044,1180629399032725,-0.0314875,-0.003575,-0.002475
1680000641047,1180629401534571,-0.032449998,-0.003575,-0.0034375
1680000641049,1180629404036494,-0.0334125,0.001375,-0.0015125
1680000641051,1180629406538571,-0.0334125,4.125E-4,-0.0064625
1680000641054,1180629409040740,-0.0314875,-0.00165,-0.0034375
1680000641058,1180629411542663,-0.0314875,0.0053625,-0.0064625
1680000641059,1180629414044740,-0.0314875,0.0023375,-0.008525
1680000641061,1180629416546663,-0.0314875,0.0023375,-0.008525
1680000641066,1180629419048716,-0.0334125,0.007425,-0.007425
1680000641069,1180629421550562,-0.0334125,0.0034375,-0.0094875
1680000641071,1180629424052716,-0.0303875,0.0023375,-0.0114124995
1680000641073,1180629426554639,-0.029424999,0.0044,-0.0114124995
1680000641075,1180629429056735,-0.0303875,0.00935,-0.0125124995
1680000641078,1180629431558658,-0.0314875,0.0034375,-0.0174625
1680000641080,1180629434060735,-0.0303875,0.0023375,-0.0165
1680000641082,1180629436562658,-0.0303875,4.125E-4,-0.018424999
1680000641085,1180629439064735,-0.0314875,0.001375,-0.018424999
1680000641088,1180629441566667,-0.0303875,-0.00165,-0.0125124995
1680000641090,1180629444068744,-0.029424999,-0.004675,-0.0144375
1680000641092,1180629446570667,-0.0264,-0.0075625,-0.0114124995
1680000641094,1180629449072744,-0.0264,-0.0075625,-0.0125124995
1680000641098,1180629451574658,-0.0284625,-0.004675,-0.0114124995
1680000641100,1180629454076735,-0.029424999,-0.00165,-0.01045
1680000641103,1180629456578889,-0.023375,-0.0026125,-0.01045
1680000641105,1180629459080735,-0.0204875,-0.0086624995,-0.007425
1680000641107,1180629461582643,-0.02145,-0.0056375,-0.0055
1680000641109,1180629464084720,-0.0204875,-5.5E-4,-0.0055
1680000641111,1180629466586643,-0.0174625,-0.00165,-0.0044
1680000641113,1180629469088720,-0.0144375,-0.0075625,-0.002475
1680000641117,1180629471590879,-0.0144375,-0.0066,-0.002475
1680000641119,1180629474092802,-0.013475,-0.0056375,-0.0015125
1680000641121,1180629476594648,-0.0144375,-0.004675,-4.125E-4
1680000641124,1180629479096802,-0.0094875,-0.0026125,5.5E-4
1680000641126,1180629481598658,-0.0083875,-5.5E-4,0.002475
1680000641129,1180629484100812,-0.0094875,-0.004675,0.003575
1680000641131,1180629486602658,-0.007425,-0.0056375,0.0015125
1680000641134,1180629489104812,-0.007425,-0.0056375,5.5E-4
1680000641137,1180629491606893,-0.0034375,-0.003575,5.5E-4
1680000641140,1180629494108816,-0.0034375,-0.004675,5.5E-4
1680000641143,1180629496610893,-0.001375,-0.0075625,5.5E-4
1680000641144,1180629499112816,-0.001375,-0.0026125,5.5E-4
1680000641147,1180629501614893,-0.0053625,-0.0026125,-4.125E-4
1680000641149,1180629504117052,-0.0053625,-5.5E-4,-0.0044
1680000641151,1180629506618898,-0.001375,0.001375,-0.0055
1680000641153,1180629509120821,-0.0064625,-5.5E-4,-0.0064625
1680000641159,1180629511622898,-0.0034375,-0.00165,-0.008525
1680000641159,1180629514124821,-0.0034375,-0.0026125,-0.007425
1680000641161,1180629516626898,-0.002475,-0.0026125,-0.01045
1680000641164,1180629519129052,-0.0064625,-0.003575,-0.0125124995
1680000641167,1180629521630975,-0.0064625,-0.004675,-0.0125124995
1680000641169,1180629524133057,-0.0064625,-0.0026125,-0.0144375
1680000641171,1180629526634903,-0.0053625,-0.00165,-0.0165
1680000641174,1180629529136826,-4.125E-4,-0.003575,-0.0144375
1680000641179,1180629531638903,-0.001375,-0.0066,-0.0154
1680000641180,1180629534140850,-0.002475,-0.0066,-0.0165
1680000641182,1180629536643004,-0.002475,-0.003575,-0.0144375
1680000641184,1180629539144850,-0.001375,0.001375,-0.0144375
1680000641187,1180629541646927,0.0026125,0.0053625,-0.0144375
1680000641189,1180629544148850,0.0026125,0.0023375,-0.0154
1680000641191,1180629546650985,0.0015125,0.0034375,-0.0125124995
1680000641193,1180629549153062,0.0026125,0.001375,-0.008525
1680000641196,1180629551654985,0.0026125,-0.0026125,-0.0055
1680000641199,1180629554157062,0.0045375,-5.5E-4,-0.0064625
1680000641201,1180629556658970,0.0075625,-5.5E-4,-0.002475
1680000641204,1180629559160816,0.0056375,-0.003575,-4.125E-4
1680000641206,1180629561662970,0.0056375,-0.0066,0.002475
1680000641208,1180629564165047,0.0066,-0.01265,0.0045375
1680000641211,1180629566666985,0.0066,-0.014575,0.0075625
1680000641216,1180629569169062,0.0045375,-0.0185625,0.0105875
1680000641218,1180629571670985,0.0045375,-0.020624999,0.0094875
1680000641220,1180629574173062,0.0066,-0.0246125,0.0105875
1680000641222,1180629576674985,0.0056375,-0.0286,0.01155
1680000641224,1180629579177062,0.0026125,-0.034649998,0.0125124995
1680000641227,1180629581678985,0.0015125,-0.037675,0.01155
1680000641229,1180629584181062,0.003575,-0.0416625,0.0125124995
1680000641231,1180629586682985,0.0015125,-0.042625,0.0165
1680000641234,1180629589185076,5.5E-4,-0.042625,0.0176
1680000641236,1180629591686999,0.0015125,-0.047575,0.0176
1680000641239,1180629594189153,5.5E-4,-0.047575,0.024475
1680000641241,1180629596690999,0.0026125,-0.0466125,0.02255
1680000641244,1180629599193052,0.0015125,-0.04455,0.0235125
1680000641247,1180629601694975,-0.002475,-0.042625,0.025575
1680000641249,1180629604197129,-0.0034375,-0.045649998,0.0265375
1680000641253,1180629606698975,-0.0064625,-0.045649998,0.0275
1680000641255,1180629609201038,-0.007425,-0.0435875,0.0286
1680000641258,1180629611703192,-0.0053625,-0.045649998,0.0235125
1680000641260,1180629614205115,-0.0053625,-0.0435875,0.02255
1680000641261,1180629616707192,-0.0083875,-0.042625,0.025575
1680000641264,1180629619209115,-0.0094875,-0.0386375,0.024475
1680000641267,1180629621711196,-0.0114124995,-0.036575,0.024475
1680000641269,1180629624213042,-0.013475,-0.0396,0.02255
1680000641271,1180629626715196,-0.0144375,-0.036575,0.0235125
1680000641273,1180629629217119,-0.013475,-0.0295625,0.0215875
1680000641276,1180629631719215,-0.018424999,-0.026675,0.0176
1680000641278,1180629634221138,-0.02145,-0.0276375,0.0165
1680000641281,1180629636723215,-0.02145,-0.0246125,0.014575
1680000641283,1180629639225138,-0.0204875,-0.020624999,0.0155375
1680000641287,1180629641727307,-0.0224125,-0.0196625,0.01155
1680000641290,1180629644229153,-0.0264,-0.0176,0.0105875
1680000641292,1180629646731230,-0.024475,-0.0166375,0.0094875
1680000641294,1180629649233153,-0.0254375,-0.014575,0.0055
1680000641297,1180629651735196,-0.0284625,-0.01265,0.002475
1680000641299,1180629654237119,-0.0273625,-0.0105875,0.0015125
1680000641301,1180629656739196,-0.029424999,-0.0056375,-0.0015125
1680000641304,1180629659241350,-0.0284625,-0.0056375,-0.0015125
1680000641306,1180629661743273,-0.0314875,4.125E-4,-0.0044
1680000641308,1180629664245081,-0.0314875,-0.00165,-0.0064625
1680000641311,1180629666747158,-0.0314875,-5.5E-4,-0.0044
1680000641314,1180629669249081,-0.0334125,-0.00165,-0.002475
1680000641316,1180629671751158,-0.0314875,-5.5E-4,-0.002475
1680000641319,1180629674253312,-0.0314875,0.0023375,-0.002475
1680000641321,1180629676755235,-0.0314875,-5.5E-4,-0.0044
1680000641324,1180629679257312,-0.034375,0.0023375,-0.0044
1680000641328,1180629681759235,-0.035475,-5.5E-4,-0.0064625
1680000641330,1180629684261081,-0.0334125,4.125E-4,-0.0055
1680000641332,1180629686763158,-0.032449998,0.001375,-0.0055
1680000641333,1180629689265081,-0.032449998,4.125E-4,-0.0055
1680000641337,1180629691767235,-0.0303875,-0.0026125,-0.007425
1680000641339,1180629694269312,-0.035475,-0.0066,-0.0064625
1680000641342,1180629696771239,-0.034375,-0.0086624995,-0.008525
1680000641344,1180629699273316,-0.0334125,-0.0086624995,-0.0064625
1680000641347,1180629701775162,-0.0334125,-0.0105875,-0.0055
1680000641349,1180629704277085,-0.032449998,-0.01155,-0.0094875
1680000641351,1180629706779215,-0.032449998,-0.0176,-0.007425
1680000641354,1180629709281292,-0.0314875,-0.0176,-0.0064625
1680000641358,1180629711783215,-0.0334125,-0.0196625,-0.008525
1680000641359,1180629714285061,-0.0374,-0.026675,-0.007425
1680000641361,1180629716787220,-0.035475,-0.0306625,-0.008525
1680000641365,1180629719289297,-0.032449998,-0.0286,-0.0094875
1680000641368,1180629721791220,-0.0334125,-0.034649998,-0.008525
1680000641370,1180629724293297,-0.0334125,-0.0416625,-0.0094875
1680000641372,1180629726795220,-0.0314875,-0.0435875,-0.01045
1680000641375,1180629729297297,-0.035475,-0.045649998,-0.0125124995
1680000641378,1180629731799143,-0.034375,-0.0466125,-0.0125124995
1680000641379,1180629734301297,-0.0374,-0.045649998,-0.0125124995
1680000641381,1180629736803451,-0.035475,-0.047575,-0.0165
1680000641384,1180629739305364,-0.0334125,-0.042625,-0.0154
1680000641387,1180629741807210,-0.034375,-0.0435875,-0.0154
1680000641389,1180629744309287,-0.035475,-0.0435875,-0.0154
1680000641392,1180629746811210,-0.035475,-0.0435875,-0.0125124995
1680000641394,1180629749313360,-0.034375,-0.0416625,-0.0144375
1680000641396,1180629751815437,-0.032449998,-0.0386375,-0.0154
1680000641399,1180629754317360,-0.0334125,-0.0386375,-0.0154
1680000641403,1180629756819437,-0.0334125,-0.0386375,-0.0165
1680000641404,1180629759321287,-0.032449998,-0.034649998,-0.0154
1680000641408,1180629761823210,-0.032449998,-0.034649998,-0.0125124995
1680000641409,1180629764325364,-0.029424999,-0.031625,-0.0174625
1680000641411,1180629766827441,-0.029424999,-0.0306625,-0.0154
1680000641414,1180629769329364,-0.0275,-0.0286,-0.0154
1680000641417,1180629771831461,-0.0264,-0.0306625,-0.02145
1680000641419,1180629774333384,-0.0254375,-0.0325875,-0.0224125
1680000641423,1180629776835461,-0.024475,-0.03355,-0.0204875
1680000641424,1180629779337307,-0.0204875,-0.031625,-0.02145
1680000641427,1180629781839456,-0.018424999,-0.0356125,-0.02145
1680000641429,1180629784341379,-0.0174625,-0.03355,-0.0224125
1680000641431,1180629786843456,-0.018424999,-0.0356125,-0.0204875
1680000641434,1180629789345379,-0.0174625,-0.0396,-0.019524999
1680000641437,1180629791847480,-0.0154,-0.0435875,-0.02145
1680000641440,1180629794349403,-0.0114124995,-0.047575,-0.0204875
1680000641442,1180629796851557,-0.0083875,-0.0506,-0.02145
1680000641445,1180629799353403,-0.0083875,-0.05555,-0.0235125
1680000641448,1180629801855504,-0.01045,-0.0606375,-0.02145
1680000641449,1180629804357427,-0.0055,-0.0616,-0.0254375
1680000641451,1180629806859504,-0.001375,-0.06765,-0.0254375
1680000641454,1180629809361427,5.5E-4,-0.0716375,-0.0264
1680000641457,1180629811863489,-0.002475,-0.07755,-0.0264
1680000641459,1180629814365643,-0.002475,-0.081675,-0.0275
1680000641462,1180629816867489,5.5E-4,-0.0856625,-0.0284625
1680000641465,1180629819369412,0.0026125,-0.0966625,-0.029424999
1680000641471,1180629821871489,-4.125E-4,-0.103675,-0.0284625
1680000641471,1180629824373412,5.5E-4,-0.103675,-0.0275
1680000641472,1180629826875489,0.0026125,-0.102575,-0.0284625
1680000641474,1180629829377643,0.0015125,-0.1056,-0.0275
1680000641478,1180629831879600,-0.001375,-0.11055,-0.0254375
1680000641480,1180629834381677,-0.001375,-0.1186625,-0.024475
1680000641483,1180629836883523,0.0026125,-0.1186625,-0.0254375
1680000641484,1180629839385446,5.5E-4,-0.1205875,-0.02145
1680000641486,1180629841887523,-4.125E-4,-0.125675,-0.0224125
1680000641489,1180629844389744,0.0015125,-0.1276,-0.0224125
1680000641492,1180629846891590,5.5E-4,-0.1276,-0.0204875
1680000641494,1180629849393667,5.5E-4,-0.1296625,-0.0224125
1680000641498,1180629851895590,0.0026125,-0.1285625,-0.0224125
1680000641501,1180629854397672,0.003575,-0.1266375,-0.0235125
1680000641502,1180629856899595,0.0075625,-0.1266375,-0.024475
1680000641504,1180629859401672,0.009625,-0.1276,-0.024475
1680000641507,1180629861903826,0.0105875,-0.119625,-0.0254375
1680000641509,1180629864405672,0.013612499,-0.1166,-0.029424999
1680000641511,1180629866907581,0.014575,-0.113575,-0.0314875
1680000641516,1180629869409658,0.0176,-0.114675,-0.029424999
1680000641520,1180629871911581,0.020624999,-0.1126125,-0.0334125
1680000641521,1180629874413658,0.0215875,-0.1076625,-0.0334125
1680000641522,1180629876915812,0.0235125,-0.1076625,-0.0364375
1680000641524,1180629879417735,0.0295625,-0.103675,-0.040425
1680000641527,1180629881919812,0.030524999,-0.1016125,-0.0394625
1680000641529,1180629884421658,0.031625,-0.097625,-0.041525
1680000641532,1180629886923581,0.0375375,-0.097625,-0.0424875
1680000641535,1180629889425735,0.041525,-0.0985875,-0.0444125
1680000641538,1180629891927812,0.04455,-0.10065,-0.0474375
1680000641540,1180629894429735,0.047575,-0.097625,-0.0504625
1680000641547,1180629896931812,0.0506,-0.097625,-0.0504625
1680000641547,1180629899433652,0.0515625,-0.0985875,-0.052525
1680000641547,1180629901935575,0.053625,-0.10065,-0.057475
1680000641549,1180629904437729,0.0545875,-0.102575,-0.0554125
1680000641552,1180629906939815,0.0576125,-0.1056,-0.057475
1680000641554,1180629909441738,0.0595375,-0.1076625,-0.062425
1680000641557,1180629911943815,0.063525,-0.115637496,-0.0675125
1680000641559,1180629914445738,0.064625,-0.1175625,-0.0675125
1680000641561,1180629916947815,0.063525,-0.119625,-0.0694375
1680000641564,1180629919449743,0.064625,-0.1205875,-0.0694375
1680000641567,1180629921951820,0.06655,-0.12265,-0.0715
1680000641569,1180629924453743,0.064625,-0.1315875,-0.0724625
1680000641572,1180629926955820,0.0655875,-0.1406625,-0.073425
1680000641574,1180629929457758,0.06655,-0.141625,-0.0724625
1680000641578,1180629931959835,0.063525,-0.1456125,-0.0715
1680000641580,1180629934461758,0.064625,-0.147675,-0.073425
1680000641582,1180629936963835,0.0625625,-0.15455,-0.0724625
1680000641584,1180629939465753,0.058575,-0.15565,-0.0704
1680000641587,1180629941967830,0.0565125,-0.1626625,-0.0715
1680000641590,1180629944469753,0.0576125,-0.16555,-0.0715
1680000641592,1180629946971830,0.0576125,-0.1676125,-0.0704
1680000641594,1180629949473753,0.05555,-0.174625,-0.0694375
1680000641596,1180629951975916,0.053625,-0.17655,-0.0675125
1680000641599,1180629954477993,0.052525,-0.17765,-0.068475
1680000641601,1180629956979916,0.052525,-0.179575,-0.0675125
1680000641604,1180629959481993,0.0545875,-0.180675,-0.0675125
1680000641607,1180629961983921,0.0515625,-0.180675,-0.0664125
1680000641609,1180629964485998,0.052525,-0.180675,-0.0644875
1680000641611,1180629966987921,0.0506,-0.18259999,-0.0715
1680000641614,1180629969489998,0.052525,-0.1816375,-0.073425
1680000641617,1180629971991926,0.0576125,-0.179575,-0.074525
1680000641619,1180629974494003,0.0565125,-0.1755875,-0.073425
1680000641621,1180629976995926,0.0565125,-0.17655,-0.073425
1680000641623,1180629979498003,0.0565125,-0.1716,-0.0754875
1680000641628,1180629981999950,0.0565125,-0.1706375,-0.07645
1680000641630,1180629984502027,0.0576125,-0.16665,-0.0774125
1680000641632,1180629987003950,0.0576125,-0.16665,-0.082499996
1680000641634,1180629989506027,0.063525,-0.163625,-0.085525
1680000641636,1180629992007974,0.0655875,-0.1626625,-0.0864875
1680000641639,1180629994510051,0.058575,-0.1626625,-0.0864875
1680000641641,1180629997011974,0.0595375,-0.1645875,-0.0924
1680000641644,1180629999514128,0.064625,-0.1596375,-0.095425
1680000641647,1180630002016200,0.063525,-0.1596375,-0.0924
1680000641649,1180630004518046,0.0605,-0.16555,-0.0944625
1680000641652,1180630007019969,0.0655875,-0.16665,-0.0974875
1680000641654,1180630009522046,0.0686125,-0.16555,-0.0994125
1680000641658,1180630012023984,0.0675125,-0.169675,-0.0974875
1680000641659,1180630014526061,0.0675125,-0.1676125,-0.0994125
1680000641661,1180630017028215,0.0686125,-0.169675,-0.095425
1680000641667,1180630019530147,0.069575,-0.168575,-0.09845
1680000641668,1180630022031993,0.0655875,-0.168575,-0.0994125
1680000641670,1180630024534070,0.0605,-0.1736625,-0.0944625
1680000641673,1180630027035993,0.0625625,-0.17655,-0.0935
1680000641675,1180630029538070,0.063525,-0.174625,-0.0944625
1680000641678,1180630032040239,0.063525,-0.1835625,-0.0944625
1680000641680,1180630034542162,0.058575,-0.18259999,-0.0944625
1680000641682,1180630037044239,0.0565125,-0.185625,-0.0924
1680000641684,1180630039546162,0.053625,-0.1926375,-0.0944625
1680000641687,1180630042048229,0.0545875,-0.1975875,-0.0935
1680000641689,1180630044550075,0.0515625,-0.196625,-0.0924
1680000641692,1180630047052229,0.0506,-0.1956625,-0.095425
1680000641694,1180630049554383,0.052525,-0.19855,-0.095425
1680000641697,1180630052056229,0.0485375,-0.2036375,-0.0924
1680000641699,1180630054558152,0.0435875,-0.2066625,-0.095425
1680000641703,1180630057060229,0.04455,-0.20955,-0.095425
1680000641705,1180630059562152,0.0466125,-0.21065,-0.09845
1680000641707,1180630062064244,0.0485375,-0.2116125,-0.102437496
1680000641709,1180630064566167,0.0485375,-0.20955,-0.0994125
1680000641711,1180630067068244,0.04455,-0.20955,-0.0994125
1680000641714,1180630069570167,0.04455,-0.212575,-0.1034
1680000641717,1180630072072244,0.04455,-0.21065,-0.1054625
1680000641719,1180630074574393,0.0435875,-0.21367499,-0.107525
1680000641721,1180630077076316,0.0405625,-0.2085875,-0.1115125
1680000641724,1180630079578162,0.04455,-0.2046,-0.1115125
1680000641727,1180630082080239,0.047575,-0.2036375,-0.1104125
1680000641729,1180630084582162,0.0435875,-0.2036375,-0.1104125
1680000641731,1180630087084239,0.0466125,-0.2006125,-0.1104125
1680000641734,1180630089586393,0.04455,-0.1975875,-0.1115125
1680000641737,1180630092088316,0.0396,-0.19855,-0.112475
1680000641741,1180630094590360,0.0396,-0.196625,-0.1115125
1680000641743,1180630097092283,0.042625,-0.1926375,-0.112475
1680000641745,1180630099594129,0.0396,-0.19167499,-0.1155
1680000641748,1180630102096206,0.0405625,-0.18865,-0.1164625
1680000641749,1180630104598129,0.0375375,-0.1865875,-0.112475
1680000641752,1180630107100268,0.0385,-0.185625,-0.1155
1680000641754,1180630109602345,0.0375375,-0.1816375,-0.1155
1680000641757,1180630112104268,0.0375375,-0.18259999,-0.117425
1680000641759,1180630114606345,0.041525,-0.179575,-0.118525
1680000641761,1180630117108249,0.0405625,-0.1736625,-0.117425
1680000641764,1180630119610095,0.0396,-0.174625,-0.1214125
1680000641767,1180630122112480,0.042625,-0.1676125,-0.1225125
1680000641770,1180630124614403,0.041525,-0.16665,-0.123475
1680000641772,1180630127116244,0.047575,-0.16555,-0.124437496
1680000641774,1180630129618321,0.0435875,-0.1615625,-0.1304875
1680000641779,1180630132120244,0.0466125,-0.158675,-0.1335125
1680000641781,1180630134622321,0.0485375,-0.1596375,-0.134475
1680000641782,1180630137124230,0.0495,-0.152625,-0.1354375
1680000641784,1180630139626384,0.052525,-0.152625,-0.1384625
1680000641787,1180630142128461,0.0565125,-0.15565,-0.14245
1680000641789,1180630144630384,0.0576125,-0.158675,-0.1434125
1680000641792,1180630147132230,0.058575,-0.15565,-0.1485
1680000641794,1180630149634283,0.063525,-0.15565,-0.151525
1680000641797,1180630152136206,0.06655,-0.1535875,-0.150425
1680000641799,1180630154638360,0.0675125,-0.15455,-0.151525
1680000641801,1180630157140437,0.069575,-0.1596375,-0.1524875
1680000641804,1180630159642360,0.069575,-0.163625,-0.15345
1680000641810,1180630162144446,0.0735625,-0.16665,-0.1555125
1680000641810,1180630164646369,0.07755,-0.1716,-0.156475
1680000641811,1180630167148215,0.0796125,-0.174625,-0.1555125
1680000641816,1180630169650278,0.0815375,-0.179575,-0.156475
1680000641819,1180630172152432,0.0845625,-0.1835625,-0.1555125
1680000641820,1180630174654355,0.086625,-0.190575,-0.1555125
1680000641822,1180630177156432,0.091575,-0.1975875,-0.156475
1680000641824,1180630179658355,0.097625,-0.20955,-0.15345
1680000641827,1180630182160427,0.0985875,-0.2176625,-0.156475
1680000641829,1180630184662350,0.1005125,-0.22055,-0.1595
1680000641831,1180630187164427,0.108625,-0.2286625,-0.1574375
1680000641834,1180630189666350,0.113575,-0.234575,-0.1555125
1680000641837,1180630192168427,0.1166,-0.240625,-0.1555125
1680000641839,1180630194670350,0.1166,-0.251625,-0.1574375
1680000641842,1180630197172427,0.118525,-0.2605625,-0.1574375
1680000641844,1180630199674350,0.124575,-0.2666125,-0.1574375
1680000641847,1180630202176504,0.12155,-0.279675,-0.1555125
1680000641849,1180630204678350,0.1205875,-0.28765,-0.15345
1680000641853,1180630207180504,0.124575,-0.29755,-0.15345
1680000641855,1180630209682581,0.1255375,-0.3045625,-0.1524875
1680000641858,1180630212184441,0.130625,-0.311575,-0.145475
1680000641860,1180630214686364,0.1315875,-0.323675,-0.145475
1680000641862,1180630217188441,0.130625,-0.33261248,-0.14245
1680000641864,1180630219690595,0.1315875,-0.339625,-0.1434125
1680000641868,1180630222192518,0.135575,-0.345675,-0.1434125
1680000641869,1180630224694600,0.13653749,-0.35255,-0.139425
1680000641872,1180630227196523,0.13859999,-0.3586,-0.1375
1680000641876,1180630229698600,0.13859999,-0.3675375,-0.134475
1680000641877,1180630232200523,0.13653749,-0.3696,-0.1335125
1680000641879,1180630234702600,0.140525,-0.372625,-0.1304875
1680000641882,1180630237204528,0.1425875,-0.3735875,-0.1265
1680000641884,1180630239706605,0.141625,-0.37454998,-0.123475
1680000641887,1180630242208528,0.140525,-0.3806,-0.1214125
1680000641892,1180630244710663,0.141625,-0.3806,-0.118525
1680000641892,1180630247212509,0.1395625,-0.383625,-0.1164625
1680000641898,1180630249714586,0.140525,-0.3845875,-0.112475
1680000641899,1180630252216509,0.140525,-0.38665,-0.10945
1680000641900,1180630254718586,0.13653749,-0.3906375,-0.107525
1680000641902,1180630257220499,0.140525,-0.3916,-0.1034
1680000641904,1180630259722576,0.140525,-0.3916,-0.09845
1680000641907,1180630262224730,0.141625,-0.39655,-0.095425
1680000641909,1180630264726653,0.14355,-0.3955875,-0.0935
1680000641912,1180630267228504,0.1425875,-0.3925625,-0.0924
1680000641914,1180630269730581,0.1425875,-0.3925625,-0.0884125
1680000641917,1180630272232504,0.140525,-0.3876125,-0.0884125
1680000641919,1180630274734581,0.1456125,-0.3916,-0.08745
1680000641922,1180630277236735,0.14355,-0.38953748,-0.0785125
1680000641925,1180630279738672,0.141625,-0.3845875,-0.0774125
1680000641929,1180630282240749,0.1456125,-0.3845875,-0.07645
1680000641930,1180630284742672,0.1475375,-0.3806,-0.0754875
1680000641932,1180630287244768,0.1486375,-0.3806,-0.074525
1680000641934,1180630289746691,0.146575,-0.3796375,-0.0715
1680000641938,1180630292248845,0.146575,-0.3806,-0.0724625
1680000641940,1180630294750922,0.1486375,-0.3785375,-0.0715
1680000641942,1180630297252768,0.146575,-0.377575,-0.0704
1680000641944,1180630299754682,0.146575,-0.3735875,-0.0724625
1680000641947,1180630302256759,0.1475375,-0.3735875,-0.0715
1680000641949,1180630304758682,0.1496,-0.37565,-0.073425
1680000641952,1180630307260759,0.1535875,-0.3675375,-0.07645
1680000641954,1180630309762913,0.1535875,-0.372625,-0.0774125
1680000641957,1180630312264836,0.1535875,-0.3705625,-0.0785125
1680000641959,1180630314766682,0.151525,-0.3735875,-0.082499996
1680000641962,1180630317268759,0.15455,-0.3696,-0.082499996
1680000641966,1180630319770691,0.151525,-0.3625875,-0.085525
1680000641969,1180630322272768,0.1566125,-0.3606625,-0.084425
1680000641971,1180630324774922,0.1566125,-0.3576375,-0.08745
1680000641973,1180630327276845,0.15853749,-0.3546125,-0.0884125
1680000641974,1180630329778922,0.1606,-0.3485625,-0.090475
1680000641979,1180630332280821,0.1606,-0.3436125,-0.0895125
1680000641980,1180630334782667,0.1606,-0.339625,-0.0935
1680000641982,1180630337284744,0.162525,-0.3345375,-0.0944625
1680000641984,1180630339786667,0.162525,-0.3366,-0.1005125
1680000641989,1180630342288841,0.163625,-0.3276625,-0.1054625
1680000641990,1180630344790918,0.1606,-0.3235375,-0.107525
1680000641992,1180630347292841,0.15853749,-0.3235375,-0.1115125
1680000641994,1180630349794918,0.1555125,-0.317625,-0.1155
1680000641997,1180630352296826,0.1535875,-0.3146,-0.12045
1680000641999,1180630354798903,0.1496,-0.3146,-0.1214125
1680000642003,1180630357300826,0.1456125,-0.3136375,-0.123475
1680000642005,1180630359802980,0.1425875,-0.30965,-0.124437496
1680000642007,1180630362304797,0.141625,-0.3036,-0.1265
1680000642009,1180630364806874,0.13653749,-0.30153748,-0.1254
1680000642012,1180630367308797,0.13255,-0.30153748,-0.128425
1680000642014,1180630369810874,0.129525,-0.29755,-0.128425
1680000642018,1180630372312802,0.124575,-0.2916375,-0.1265
1680000642020,1180630374814956,0.12155,-0.28765,-0.124437496
1680000642022,1180630377317033,0.1205875,-0.284625,-0.1265
1680000642024,1180630379818956,0.1175625,-0.27665,-0.124437496
1680000642027,1180630382320802,0.115637496,-0.27555,-0.1225125
1680000642029,1180630384822874,0.11055,-0.2666125,-0.1194875
1680000642032,1180630387324797,0.1056,-0.2586375,-0.1214125
1680000642034,1180630389826951,0.102575,-0.256575,-0.1194875
1680000642037,1180630392329028,0.1016125,-0.2495625,-0.1155
1680000642041,1180630394830932,0.096525,-0.24365,-0.1164625
1680000642043,1180630397333009,0.091575,-0.2366375,-0.1155
1680000642044,1180630399834855,0.0895125,-0.2286625,-0.112475
1680000642047,1180630402336778,0.0895125,-0.2195875,-0.1104125
1680000642049,1180630404838932,0.0826375,-0.2146375,-0.10945
1680000642052,1180630407340995,0.0815375,-0.2046,-0.107525
1680000642054,1180630409842918,0.07755,-0.19855,-0.104499996
1680000642059,1180630412344995,0.074525,-0.1915375,-0.102437496
1680000642060,1180630414846918,0.0716375,-0.185625,-0.101475
1680000642062,1180630417349019,0.0716375,-0.1816375,-0.09845
1680000642064,1180630419850942,0.06655,-0.1736625,-0.1005125
1680000642068,1180630422353019,0.06655,-0.163625,-0.101475
1680000642070,1180630424854942,0.0675125,-0.15455,-0.101475
1680000642072,1180630427357023,0.063525,-0.146575,-0.101475
1680000642075,1180630429858869,0.063525,-0.1376375,-0.0994125
1680000642079,1180630432361100,0.063525,-0.1276,-0.09845
1680000642080,1180630434863177,0.0595375,-0.1276,-0.101475
1680000642083,1180630437365129,0.0595375,-0.1205875,-0.101475
1680000642084,1180630439866975,0.063525,-0.1145375,-0.1034
1680000642087,1180630442369052,0.0606375,-0.1126125,-0.1054625
1680000642089,1180630444870975,0.0606375,-0.1095875,-0.104499996
1680000642092,1180630447373129,0.058575,-0.1035375,-0.104499996
1680000642094,1180630449875221,0.0576125,-0.1035375,-0.107525
1680000642098,1180630452377144,0.05555,-0.1035375,-0.107525
1680000642099,1180630454879221,0.053625,-0.102575,-0.10945
1680000642102,1180630457381144,0.053625,-0.1095875,-0.112475
1680000642104,1180630459882965,0.0515625,-0.1056,-0.112475
1680000642107,1180630462385042,0.0496375,-0.1076625,-0.1144
1680000642109,1180630464887196,0.0496375,-0.1095875,-0.1164625
1680000642112,1180630467389119,0.0485375,-0.1126125,-0.1214125
1680000642116,1180630469891206,0.0485375,-0.1145375,-0.1225125
1680000642119,1180630472393129,0.0485375,-0.1126125,-0.123475
1680000642121,1180630474895206,0.0496375,-0.1126125,-0.1265
1680000642123,1180630477397052,0.0506,-0.11055,-0.13145
1680000642125,1180630479899206,0.0515625,-0.113575,-0.134475
1680000642128,1180630482401143,0.05555,-0.115637496,-0.134475
1680000642129,1180630484903220,0.0545875,-0.1175625,-0.1364
1680000642131,1180630487405143,0.052525,-0.119625,-0.140525
1680000642134,1180630489907220,0.053625,-0.1205875,-0.1414875
1680000642138,1180630492409148,0.0545875,-0.1205875,-0.1445125
1680000642139,1180630494911225,0.05555,-0.1296625,-0.145475
1680000642142,1180630497413148,0.0565125,-0.13255,-0.145475
1680000642144,1180630499915225,0.0565125,-0.1376375,-0.1445125
1680000642147,1180630502417379,0.05555,-0.1425875,-0.14245
1680000642149,1180630504919307,0.05555,-0.1425875,-0.140525
1680000642153,1180630507421153,0.053625,-0.1486375,-0.140525
1680000642155,1180630509923230,0.0515625,-0.1535875,-0.139425
1680000642158,1180630512425384,0.0515625,-0.1596375,-0.1375
1680000642159,1180630514927302,0.0506,-0.16555,-0.1364
1680000642162,1180630517429379,0.0485375,-0.1695375,-0.1324125
1680000642166,1180630519931302,0.047575,-0.1786125,-0.1304875
1680000642173,1180630522433379,0.047575,-0.1816375,-0.1274625
1680000642173,1180630524935225,0.0515625,-0.18755,-0.1254
1680000642173,1180630527437384,0.0515625,-0.1945625,-0.123475
1680000642175,1180630529939307,0.0466125,-0.19965,-0.1214125
1680000642178,1180630532441384,0.04455,-0.2006125,-0.12045
1680000642180,1180630534943307,0.0435875,-0.2006125,-0.118525
1680000642181,1180630537445397,0.042625,-0.2006125,-0.118525
1680000642184,1180630539947320,0.047575,-0.196625,-0.1155
1680000642187,1180630542449397,0.0466125,-0.19965,-0.1155
1680000642190,1180630544951316,0.047575,-0.19855,-0.1104125
1680000642192,1180630547453393,0.0496375,-0.190575,-0.1104125
1680000642194,1180630549955316,0.047575,-0.1846625,-0.1104125
1680000642197,1180630552457393,0.053625,-0.18053749,-0.1104125
1680000642199,1180630554959316,0.0545875,-0.17655,-0.1104125
1680000642202,1180630557461412,0.0576125,-0.1736625,-0.107525
1680000642204,1180630559963566,0.0595375,-0.163625,-0.1084875
1680000642207,1180630562465489,0.0595375,-0.157575,-0.107525
1680000642209,1180630564967335,0.0625625,-0.15455,-0.104499996
1680000642212,1180630567469431,0.0686125,-0.1486375,-0.101475
1680000642214,1180630569971354,0.069575,-0.1496,-0.1005125
1680000642218,1180630572473431,0.0726,-0.1486375,-0.09845
1680000642219,1180630574975354,0.0726,-0.1456125,-0.0944625
1680000642222,1180630577477508,0.074525,-0.1456125,-0.0924
1680000642228,1180630579979600,0.07755,-0.14465,-0.0884125
1680000642233,1180630582481523,0.0815375,-0.141625,-0.085525
1680000642233,1180630584983600,0.0836,-0.1475375,-0.0834625
1680000642233,1180630587485533,0.0845625,-0.1505625,-0.0814
1680000642234,1180630589987610,0.0845625,-0.152625,-0.07645
1680000642237,1180630592489533,0.0845625,-0.1535875,-0.07645
1680000642239,1180630594991610,0.091575,-0.1505625,-0.0694375
1680000642242,1180630597493533,0.091575,-0.157575,-0.06545
1680000642245,1180630599995605,0.0925375,-0.15565,-0.0614625
1680000642247,1180630602497759,0.093637496,-0.1626625,-0.054449998
1680000642249,1180630604999682,0.097625,-0.1706375,-0.0534875
1680000642252,1180630607501528,0.0946,-0.17765,-0.0484
1680000642254,1180630610003591,0.093637496,-0.1816375,-0.0444125
1680000642258,1180630612505514,0.096525,-0.1865875,-0.040425
1680000642259,1180630615007591,0.0946,-0.1956625,-0.040425
1680000642262,1180630617509514,0.0906125,-0.2036375,-0.0374
1680000642266,1180630620011658,0.091575,-0.212575,-0.0345125
1680000642269,1180630622513735,0.091575,-0.2156,-0.032449998
1680000642271,1180630625015581,0.086625,-0.223575,-0.0284625
1680000642273,1180630627517523,0.0845625,-0.2286625,-0.024475
1680000642275,1180630630019600,0.0826375,-0.23265,-0.0224125
1680000642278,1180630632521523,0.0826375,-0.2366375,-0.0204875
1680000642280,1180630635023677,0.0765875,-0.2376,-0.0165
1680000642282,1180630637525754,0.074525,-0.240625,-0.0094875
1680000642284,1180630640027663,0.074525,-0.2415875,-0.008525
1680000642287,1180630642529740,0.0726,-0.23265,-0.0055
1680000642289,1180630645031663,0.0686125,-0.2336125,5.5E-4
1680000642292,1180630647533740,0.069575,-0.2336125,0.0066
1680000642294,1180630650035894,0.06655,-0.229625,0.0094875
1680000642298,1180630652537797,0.0625625,-0.223575,0.01155
1680000642299,1180630655039643,0.0576125,-0.22055,0.0155375
1680000642303,1180630657541720,0.0515625,-0.2165625,0.0215875
1680000642306,1180630660043643,0.0496375,-0.2116125,0.0265375
1680000642309,1180630662545720,0.0485375,-0.2046,0.03355
1680000642309,1180630665047643,0.0405625,-0.201575,0.0375375
1680000642312,1180630667549797,0.0375375,-0.1975875,0.0396
1680000642314,1180630670051874,0.036575,-0.1926375,0.0435875
1680000642317,1180630672553802,0.03355,-0.1835625,0.0455125
1680000642320,1180630675055648,0.0276375,-0.17765,0.0506
1680000642322,1180630677557725,0.0265375,-0.1695375,0.057475
1680000642324,1180630680059648,0.0265375,-0.1606,0.0534875
1680000642327,1180630682561802,0.0235125,-0.1496,0.052525
1680000642329,1180630685063879,0.025575,-0.141625,0.0565125
1680000642332,1180630687565802,0.0246125,-0.1296625,0.058575
1680000642334,1180630690067879,0.0235125,-0.113575,0.057475
1680000642338,1180630692569735,0.0215875,-0.097625,0.057475
1680000642341,1180630695071658,0.02255,-0.0836,0.058575
1680000642343,1180630697573735,0.020624999,-0.069575,0.0605
1680000642344,1180630700075889,0.0185625,-0.0606375,0.0605
1680000642347,1180630702577812,0.0166375,-0.0435875,0.0595375
1680000642349,1180630705079889,0.0185625,-0.034649998,0.0605
1680000642352,1180630707581812,0.0176,-0.0246125,0.0595375
1680000642354,1180630710083889,0.014575,-0.0086624995,0.057475
1680000642357,1180630712585812,0.0155375,-0.00165,0.05555
1680000642359,1180630715087956,0.014575,0.0023375,0.0565125
1680000642362,1180630717590033,0.008525,0.007425,0.0565125
1680000642364,1180630720091956,0.0075625,0.0144375,0.0605
1680000642368,1180630722593802,0.0066,0.0193875,0.05555
1680000642370,1180630725095865,0.0045375,0.0174625,0.05555
1680000642372,1180630727597788,0.003575,0.02035,0.0565125
1680000642375,1180630730099942,0.0015125,0.0243375,0.057475
1680000642379,1180630732602019,-0.0034375,0.0224125,0.0565125
1680000642381,1180630735103918,-0.0064625,0.0243375,0.0565125
1680000642383,1180630737605995,-0.0114124995,0.0224125,0.057475
1680000642384,1180630740107841,-0.0155375,0.0193875,0.0545875
1680000642388,1180630742609764,-0.0174625,0.018424999,0.0565125
1680000642390,1180630745111841,-0.019524999,0.0193875,0.0565125
1680000642392,1180630747613995,-0.02145,0.017324999,0.0534875
1680000642395,1180630750115918,-0.0254375,0.0114124995,0.0545875
1680000642397,1180630752617995,-0.0314875,0.007425,0.0534875
1680000642400,1180630755119903,-0.035475,0.001375,0.0495
1680000642402,1180630757621980,-0.0394625,4.125E-4,0.0495
1680000642404,1180630760123826,-0.041525,-0.0026125,0.0534875
1680000642407,1180630762625980,-0.0444125,-0.0075625,0.0495
1680000642409,1180630765127903,-0.0485375,-0.01265,0.04455
1680000642412,1180630767629990,-0.0565125,-0.0116875,0.0435875
1680000642416,1180630770131836,-0.0584375,-0.0116875,0.046475
1680000642419,1180630772633990,-0.0605,-0.009625,0.0455125
1680000642421,1180630775136144,-0.0614625,-0.014575,0.0424875
1680000642423,1180630777637990,-0.0675125,-0.0176,0.041525
1680000642425,1180630780139913,-0.068475,-0.0166375,0.0405625
1680000642434,1180630782641990,-0.0664125,-0.0176,0.0435875
1680000642434,1180630785143913,-0.0715,-0.020624999,0.0405625
1680000642434,1180630787645980,-0.0715,-0.0185625,0.0385
1680000642435,1180630790148134,-0.074525,-0.0196625,0.0396
1680000642437,1180630792650057,-0.073425,-0.0185625,0.0405625
1680000642439,1180630795152134,-0.07645,-0.0246125,0.0345125
1680000642442,1180630797653961,-0.07645,-0.025575,0.0314875
1680000642444,1180630800155884,-0.07645,-0.0246125,0.0314875
1680000642447,1180630802657961,-0.07645,-0.026675,0.0295625
1680000642450,1180630805160115,-0.0785125,-0.0295625,0.0265375
1680000642453,1180630807662047,-0.0815375,-0.0295625,0.025575
1680000642456,1180630810164124,-0.0834625,-0.0295625,0.0235125
1680000642459,1180630812666047,-0.084425,-0.0276375,0.02255
1680000642461,1180630815168124,-0.082499996,-0.026675,0.019524999
1680000642463,1180630817669970,-0.084425,-0.0295625,0.0165
1680000642465,1180630820171884,-0.084425,-0.034649998,0.0176
1680000642468,1180630822674038,-0.0884125,-0.031625,0.0155375
1680000642470,1180630825176115,-0.0884125,-0.0325875,0.0165
1680000642472,1180630827678038,-0.091437496,-0.0325875,0.014575
1680000642475,1180630830180100,-0.0944625,-0.031625,0.0155375
1680000642477,1180630832682023,-0.096525,-0.034649998,0.0176
1680000642479,1180630835184100,-0.0994125,-0.036575,0.019524999
1680000642482,1180630837686023,-0.104499996,-0.036575,0.0235125
1680000642484,1180630840188177,-0.1035375,-0.036575,0.0235125
1680000642487,1180630842690249,-0.1035375,-0.037675,0.024475
1680000642491,1180630845192095,-0.106425,-0.0466125,0.0265375
1680000642492,1180630847694018,-0.1115125,-0.0506,0.0275
1680000642494,1180630850196095,-0.112475,-0.0515625,0.0265375
1680000642498,1180630852698254,-0.1155,-0.0526625,0.0295625
1680000642499,1180630855200177,-0.117425,-0.0556875,0.030524999
1680000642502,1180630857702254,-0.1155,-0.0606375,0.0314875
1680000642504,1180630860204177,-0.1155,-0.064625,0.0295625
1680000642507,1180630862706240,-0.1214125,-0.0666875,0.030524999
1680000642509,1180630865208086,-0.1214125,-0.064625,0.0314875
1680000642512,1180630867710009,-0.1214125,-0.06765,0.030524999
1680000642514,1180630870212163,-0.1214125,-0.064625,0.0314875
1680000642517,1180630872714244,-0.12045,-0.06765,0.030524999
1680000642519,1180630875216167,-0.123475,-0.069575,0.0286
1680000642522,1180630877718244,-0.1225125,-0.0746625,0.0286
1680000642525,1180630880220167,-0.1214125,-0.0666875,0.030524999
1680000642529,1180630882722240,-0.1214125,-0.0655875,0.0286
1680000642531,1180630885224163,-0.117425,-0.0655875,0.0295625
1680000642533,1180630887726240,-0.118525,-0.0666875,0.0295625
1680000642535,1180630890228163,-0.1155,-0.0666875,0.0286
1680000642538,1180630892730240,-0.117425,-0.064625,0.024475
1680000642540,1180630895232163,-0.12045,-0.0636625,0.019524999
1680000642542,1180630897734240,-0.1155,-0.064625,0.019524999
1680000642545,1180630900236163,-0.117425,-0.0625625,0.0176
1680000642547,1180630902738317,-0.1145375,-0.0606375,0.0155375
1680000642550,1180630905240394,-0.113437496,-0.0616,0.013475
1680000642552,1180630907742240,-0.1155,-0.0606375,0.014575
1680000642555,1180630910244163,-0.117425,-0.059675,0.0105875
1680000642558,1180630912746240,-0.1164625,-0.0625625,0.0125124995
1680000642559,1180630915248163,-0.1115125,-0.064625,0.01155
1680000642562,1180630917750317,-0.113437496,-0.064625,0.0094875
1680000642566,1180630920252394,-0.1155,-0.0636625,0.008525
1680000642569,1180630922754317,-0.113437496,-0.06765,0.0066
1680000642571,1180630925256394,-0.1145375,-0.0666875,0.0075625
1680000642573,1180630927758317,-0.112475,-0.069575,0.008525
1680000642576,1180630930260394,-0.113437496,-0.069575,0.0045375
1680000642579,1180630932762240,-0.1104125,-0.0716375,0.0045375
1680000642580,1180630935264394,-0.107525,-0.070675,0.003575
1680000642583,1180630937766326,-0.1115125,-0.0666875,5.5E-4
1680000642587,1180630940268403,-0.113437496,-0.0666875,5.5E-4
1680000642587,1180630942770326,-0.113437496,-0.064625,-4.125E-4
1680000642589,1180630945272480,-0.1104125,-0.0625625,-0.0044
1680000642593,1180630947774312,-0.107525,-0.058575,-0.002475
1680000642595,1180630950276389,-0.10945,-0.0526625,-0.0034375
1680000642597,1180630952778312,-0.107525,-0.048675,-0.0064625
1680000642600,1180630955280389,-0.107525,-0.047575,-0.008525
1680000642603,1180630957782312,-0.1054625,-0.042625,-0.007425
1680000642606,1180630960284466,-0.1054625,-0.037675,-0.007425
1680000642608,1180630962786543,-0.1054625,-0.0356125,-0.01045
1680000642610,1180630965288466,-0.104499996,-0.0295625,-0.0125124995
1680000642612,1180630967790543,-0.104499996,-0.025575,-0.01045
1680000642615,1180630970292485,-0.1005125,-0.020624999,-0.01045
1680000642618,1180630972794562,-0.0994125,-0.0185625,-0.0154
1680000642620,1180630975296485,-0.09845,-0.014575,-0.0154
1680000642622,1180630977798562,-0.096525,-0.0105875,-0.0165
1680000642624,1180630980300480,-0.0944625,-0.0066,-0.0165
1680000642627,1180630982802557,-0.0944625,-0.00165,-0.0204875
1680000642629,1180630985304480,-0.0935,-6.875E-4,-0.02145
1680000642632,1180630987806557,-0.090475,0.0034375,-0.0224125
1680000642635,1180630990308494,-0.090475,0.0044,-0.02145
1680000642637,1180630992810648,-0.0834625,0.00935,-0.0224125
1680000642641,1180630995312494,-0.082499996,0.0163625,-0.02145
1680000642643,1180630997814571,-0.0804375,0.0193875,-0.0235125
1680000642645,1180631000316494,-0.074525,0.0224125,-0.0275
1680000642647,1180631002818576,-0.073425,0.0264,-0.0264
1680000642650,1180631005320499,-0.0785125,0.0224125,-0.0264
1680000642652,1180631007822653,-0.073425,0.0323125,-0.0334125
1680000642655,1180631010324730,-0.068475,0.028324999,-0.032449998
1680000642658,1180631012826581,-0.0675125,0.0264,-0.032449998
1680000642660,1180631015328504,-0.062425,0.0303875,-0.0345125
1680000642662,1180631017830581,-0.0605,0.029424999,-0.035475
1680000642665,1180631020332504,-0.0565125,0.028324999,-0.0345125
1680000642668,1180631022834596,-0.057475,0.0273625,-0.035475
1680000642670,1180631025336750,-0.057475,0.0273625,-0.0345125
1680000642672,1180631027838673,-0.052525,0.0243375,-0.0334125
1680000642675,1180631030340750,-0.0504625,0.028324999,-0.032449998
1680000642679,1180631032842701,-0.0495,0.0273625,-0.0345125
1680000642681,1180631035344778,-0.046475,0.0264,-0.0364375
1680000642682,1180631037846701,-0.0444125,0.0264,-0.0345125
1680000642685,1180631040348855,-0.0455125,0.029424999,-0.0364375
1680000642687,1180631042850711,-0.043449998,0.0264,-0.032449998
1680000642690,1180631045352788,-0.0424875,0.0243375,-0.0314875
1680000642692,1180631047854711,-0.0385,0.0273625,-0.0345125
1680000642694,1180631050356788,-0.0385,0.0243375,-0.0334125
1680000642698,1180631052858725,-0.035475,0.0213125,-0.032449998
1680000642700,1180631055360879,-0.030524999,0.0264,-0.032449998
1680000642702,1180631057862956,-0.029424999,0.0264,-0.032449998
1680000642705,1180631060364879,-0.0265375,0.0264,-0.029424999
1680000642708,1180631062866735,-0.0235125,0.028324999,-0.032449998
1680000642709,1180631065368812,-0.02145,0.029424999,-0.032449998
1680000642712,1180631067870735,-0.0204875,0.0224125,-0.0345125
1680000642716,1180631070372831,-0.0174625,0.0193875,-0.032449998
1680000642719,1180631072874985,-0.0125124995,0.0213125,-0.032449998
1680000642721,1180631075376908,-0.0114124995,0.0193875,-0.035475
1680000642723,1180631077878985,-0.008525,0.023375,-0.035475
1680000642725,1180631080380831,-0.002475,0.02035,-0.032449998
1680000642727,1180631082882739,-0.002475,0.02035,-0.0334125
1680000642730,1180631085384893,-0.0015125,0.02035,-0.0345125
1680000642732,1180631087887047,0.0015125,0.023375,-0.0334125
1680000642735,1180631090388893,0.0045375,0.0213125,-0.0314875
1680000642738,1180631092890970,0.0055,0.0193875,-0.0334125
1680000642740,1180631095392893,0.0045375,0.018424999,-0.029424999
1680000642742,1180631097894970,0.002475,0.018424999,-0.0284625
1680000642745,1180631100396893,0.0055,0.012375,-0.0275
1680000642747,1180631102898970,0.0094875,0.0114124995,-0.0254375
1680000642750,1180631105401095,0.013475,0.00935,-0.0224125
1680000642754,1180631107903018,0.013475,0.0053625,-0.0224125
1680000642756,1180631110404864,0.0105875,-0.00165,-0.0204875
1680000642758,1180631112906941,0.014575,-0.0026125,-0.02145
1680000642760,1180631115408873,0.0174625,-0.009625,-0.018424999
1680000642762,1180631117911027,0.0235125,-0.013612499,-0.0165
1680000642765,1180631120412873,0.0235125,-0.01265,-0.0154
1680000642767,1180631122914950,0.0265375,-0.01265,-0.0144375
1680000642770,1180631125416873,0.024475,-0.015675,-0.0125124995
1680000642772,1180631127918960,0.0275,-0.0215875,-0.0114124995
1680000642775,1180631130421114,0.0314875,-0.0246125,-0.01045
1680000642779,1180631132923037,0.035475,-0.0185625,-0.01045
1680000642780,1180631135425114,0.0385,-0.0185625,-0.008525
1680000642782,1180631137926960,0.0345125,-0.020624999,-0.008525
1680000642784,1180631140428883,0.0385,-0.015675,-0.008525
1680000642787,1180631142930960,0.0405625,-0.009625,-0.0094875
1680000642794,1180631145433114,0.0394625,-0.0086624995,-0.007425
1680000642797,1180631147935037,0.0394625,-0.0056375,-0.008525
1680000642797,1180631150437114,0.0435875,-0.0026125,-0.007425
1680000642797,1180631152939037,0.0424875,0.001375,-0.008525
1680000642799,1180631155441114,0.047575,0.006325,-0.008525
1680000642802,1180631157943037,0.0495,0.0114124995,-0.0055
1680000642804,1180631160445114,0.052525,0.0144375,-0.0055
1680000642807,1180631162947268,0.0534875,0.012375,-0.0015125
1680000642810,1180631165449191,0.05555,0.0163625,-4.125E-4
1680000642812,1180631167951037,0.058575,0.0243375,-0.002475
1680000642815,1180631170453119,0.0605,0.0264,-0.0044
1680000642818,1180631172955042,0.0605,0.023375,-0.0034375
1680000642820,1180631175457119,0.057475,0.0193875,5.5E-4
1680000642822,1180631177959273,0.057475,0.0224125,0.002475
1680000642825,1180631180461191,0.063525,0.02035,0.002475
1680000642829,1180631182963268,0.0625625,0.017324999,0.003575
1680000642830,1180631185465114,0.0625625,0.0114124995,0.002475
1680000642832,1180631187967037,0.063525,0.0114124995,0.0094875
1680000642835,1180631190469104,0.0655875,0.007425,0.0105875
1680000642837,1180631192971027,0.0644875,0.0034375,0.0094875
1680000642839,1180631195473181,0.0655875,-6.875E-4,0.0094875
1680000642842,1180631197975258,0.0655875,-0.0066,0.0105875
1680000642846,1180631200477171,0.0644875,-0.0105875,0.014575
1680000642848,1180631202979248,0.063525,-0.009625,0.013475
1680000642849,1180631205481094,0.0655875,-0.014575,0.01155
1680000642852,1180631207983248,0.0655875,-0.020624999,0.0155375
1680000642855,1180631210485402,0.0655875,-0.0196625,0.014575
1680000642858,1180631212987312,0.0625625,-0.020624999,0.014575
1680000642860,1180631215489158,0.0625625,-0.026675,0.0155375
1680000642862,1180631217991235,0.0625625,-0.026675,0.0155375
1680000642867,1180631220493153,0.063525,-0.0215875,0.014575
1680000642870,1180631222995230,0.058575,-0.0196625,0.0155375
1680000642872,1180631225497153,0.0625625,-0.020624999,0.0165
1680000642873,1180631227999307,0.0595375,-0.0166375,0.0155375
1680000642876,1180631230501384,0.058575,-0.0196625,0.0155375
1680000642879,1180631233003225,0.05555,-0.014575,0.0176
1680000642881,1180631235505148,0.057475,-0.0105875,0.0176
1680000642882,1180631238007225,0.0565125,-0.0116875,0.0204875
1680000642886,1180631240509148,0.054449998,-0.0105875,0.02255
1680000642887,1180631243011302,0.05555,-0.003575,0.0215875
1680000642890,1180631245513375,0.0515625,-0.0026125,0.02255
1680000642892,1180631248015298,0.054449998,-0.00165,0.0275
1680000642896,1180631250517375,0.054449998,0.0044,0.0265375
1680000642898,1180631253019221,0.05555,0.006325,0.025575
1680000642900,1180631255521138,0.057475,0.0114124995,0.0295625
1680000642904,1180631258023292,0.05555,0.0144375,0.030524999
1680000642906,1180631260525446,0.05555,0.02035,0.0295625
1680000642908,1180631263027292,0.058575,0.0243375,0.0314875
1680000642910,1180631265529369,0.0595375,0.028324999,0.0325875
1680000642913,1180631268031292,0.057475,0.03135,0.0325875
1680000642916,1180631270533369,0.058575,0.0383625,0.0325875
1680000642918,1180631273035292,0.0625625,0.04235,0.0345125
1680000642920,1180631275537446,0.058575,0.045375,0.036575
1680000642922,1180631278039542,0.054449998,0.0484,0.0345125
1680000642926,1180631280541465,0.0565125,0.051425,0.0375375
1680000642928,1180631283043311,0.057475,0.0554125,0.0375375
1680000642930,1180631285545388,0.057475,0.0603625,0.0396
1680000642932,1180631288047316,0.054449998,0.056375,0.0405625
1680000642936,1180631290549470,0.0504625,0.0554125,0.0396
1680000642938,1180631293051547,0.04455,0.0594,0.041525
1680000642941,1180631295553393,0.04455,0.05335,0.0424875
1680000642943,1180631298055325,0.0424875,0.050325,0.04455
1680000642946,1180631300557479,0.0375375,0.050325,0.0455125
1680000642948,1180631303059556,0.0345125,0.0474375,0.047575
1680000642950,1180631305561479,0.035475,0.045375,0.0495
1680000642952,1180631308063556,0.035475,0.0433125,0.0506
1680000642956,1180631310565474,0.0314875,0.04235,0.05555
1680000642958,1180631313067551,0.030524999,0.0383625,0.0565125
1680000642960,1180631315569397,0.025575,0.0334125,0.0565125
1680000642963,1180631318071628,0.024475,0.0243375,0.0534875
1680000642967,1180631320573455,0.019524999,0.0224125,0.0565125
1680000642968,1180631323075609,0.019524999,0.023375,0.057475
1680000642970,1180631325577455,0.0204875,0.02035,0.0565125
1680000642972,1180631328079532,0.0155375,0.0154,0.0605
1680000642976,1180631330581465,0.014575,0.0163625,0.0605
1680000642980,1180631333083619,0.014575,0.0144375,0.058575
1680000642982,1180631335585696,0.01155,0.006325,0.063525
1680000642983,1180631338087619,0.0094875,0.0023375,0.06655
1680000642986,1180631340589681,0.0055,0.0034375,0.0675125
1680000642988,1180631343091527,0.0055,0.0034375,0.069575
1680000642990,1180631345593450,0.0064625,4.125E-4,0.069575
1680000642992,1180631348095527,0.0064625,4.125E-4,0.069575
1680000642996,1180631350597681,0.0055,-0.00165,0.0705375
1680000642998,1180631353099619,0.0045375,-0.004675,0.069575
1680000643000,1180631355601696,0.003575,-0.00165,0.0754875
1680000643003,1180631358103619,0.0045375,-0.0075625,0.0754875
1680000643006,1180631360605696,0.0045375,-0.009625,0.074525
1680000643008,1180631363107542,0.0075625,-0.009625,0.074525
1680000643010,1180631365609696,0.0055,-0.013612499,0.074525
1680000643012,1180631368111619,0.002475,-0.013612499,0.074525
1680000643017,1180631370613705,0.002475,-0.0166375,0.074525
1680000643020,1180631373115628,0.003575,-0.0176,0.0754875
1680000643021,1180631375617705,0.0055,-0.0166375,0.074525
1680000643023,1180631378119628,0.0075625,-0.020624999,0.0715
1680000643026,1180631380621705,0.0045375,-0.0215875,0.0715
1680000643028,1180631383123850,0.0055,-0.0226875,0.0715
1680000643030,1180631385625773,0.0045375,-0.0215875,0.0675125
1680000643032,1180631388127850,-5.5E-4,-0.0226875,0.06655
1680000643036,1180631390629696,-0.0015125,-0.0215875,0.0625625
1680000643038,1180631393131619,-0.002475,-0.0246125,0.0595375
1680000643040,1180631395633696,-0.0064625,-0.0215875,0.0565125
1680000643042,1180631398135850,-0.0064625,-0.0246125,0.05555
1680000643046,1180631400637773,-0.007425,-0.020624999,0.0565125
1680000643048,1180631403139850,-0.008525,-0.0176,0.0565125
1680000643050,1180631405641768,-0.0094875,-0.0176,0.057475
1680000643054,1180631408143845,-0.0125124995,-0.0176,0.0565125
1680000643057,1180631410645691,-0.0155375,-0.0196625,0.0545875
1680000643059,1180631413147849,-0.0174625,-0.0176,0.057475
1680000643061,1180631415649772,-0.0204875,-0.0176,0.05555
1680000643063,1180631418151849,-0.0204875,-0.0166375,0.0506
1680000643066,1180631420653772,-0.018424999,-0.015675,0.0506
1680000643068,1180631423155849,-0.02145,-0.015675,0.0534875
1680000643070,1180631425657778,-0.0235125,-0.014575,0.0506
1680000643072,1180631428159855,-0.0284625,-0.0105875,0.0495
1680000643076,1180631430661778,-0.0284625,-0.0105875,0.046475
1680000643078,1180631433163932,-0.0254375,-0.0105875,0.0485375
1680000643080,1180631435666008,-0.0275,-0.0056375,0.046475
1680000643082,1180631438167932,-0.030524999,-0.0066,0.047575
1680000643086,1180631440669778,-0.0314875,-0.004675,0.0455125
1680000643088,1180631443171855,-0.029424999,-0.0026125,0.0424875
1680000643092,1180631445674009,-0.030524999,-0.0056375,0.041525
1680000643093,1180631448175922,-0.0314875,-0.00165,0.0405625
1680000643097,1180631450677999,-0.030524999,-6.875E-4,0.0385
1680000643098,1180631453179922,-0.03355,-0.0056375,0.036575
1680000643100,1180631455681999,-0.0375375,-6.875E-4,0.0345125
1680000643102,1180631458183845,-0.0345125,0.001375,0.03355
1680000643106,1180631460685782,-0.035475,-6.875E-4,0.0314875
1680000643108,1180631463187936,-0.0375375,-0.0026125,0.0314875
1680000643112,1180631465690013,-0.0385,-0.0026125,0.030524999
1680000643114,1180631468191936,-0.03355,-0.004675,0.0295625
1680000643117,1180631470693735,-0.03355,-0.0075625,0.0265375
1680000643119,1180631473195889,-0.0375375,-0.01265,0.025575
1680000643121,1180631475697966,-0.0375375,-0.014575,0.024475
1680000643123,1180631478199889,-0.0375375,-0.013612499,0.0215875
1680000643126,1180631480701971,-0.0385,-0.014575,0.02255
1680000643129,1180631483203894,-0.0375375,-0.01265,0.0204875
1680000643131,1180631485705971,-0.0394625,-0.0185625,0.019524999
1680000643133,1180631488207894,-0.041525,-0.0185625,0.0165
1680000643136,1180631490710052,-0.040425,-0.0196625,0.0155375
1680000643139,1180631493211898,-0.040425,-0.0196625,0.0125124995
1680000643141,1180631495714052,-0.040425,-0.0226875,0.0105875
1680000643143,1180631498215898,-0.040425,-0.020624999,0.008525
1680000643146,1180631500717975,-0.0424875,-0.0215875,0.0066
1680000643148,1180631503219903,-0.0424875,-0.026675,0.0075625
1680000643150,1180631505722057,-0.040425,-0.025575,0.0066
1680000643153,1180631508224134,-0.0424875,-0.026675,0.008525
1680000643156,1180631510726053,-0.04455,-0.0295625,0.0075625
1680000643158,1180631513228130,-0.0424875,-0.0246125,0.0075625
1680000643160,1180631515729976,-0.043449998,-0.0276375,0.008525
1680000643163,1180631518231899,-0.041525,-0.0306625,0.0094875
1680000643168,1180631520734028,-0.043449998,-0.0286,0.01155
1680000643169,1180631523236105,-0.04455,-0.0276375,0.008525
1680000643171,1180631525738028,-0.040425,-0.031625,0.0055
1680000643173,1180631528240105,-0.0394625,-0.031625,0.0055
1680000643176,1180631530742028,-0.035475,-0.0306625,0.0045375
1680000643179,1180631533244086,-0.0385,-0.0286,0.0045375
1680000643180,1180631535746009,-0.0375375,-0.0286,0.0055
1680000643183,1180631538248086,-0.03355,-0.026675,0.002475
1680000643186,1180631540750009,-0.030524999,-0.0276375,0.0015125
1680000643188,1180631543252086,-0.0314875,-0.025575,0.0015125
1680000643190,1180631545753976,-0.029424999,-0.0226875,-0.002475
1680000643192,1180631548256053,-0.0275,-0.0185625,-0.0044
1680000643197,1180631550757976,-0.0265375,-0.0185625,-0.0015125
1680000643198,1180631553260130,-0.02255,-0.0185625,-0.0064625
1680000643200,1180631555762220,-0.02255,-0.0166375,-0.0064625
1680000643204,1180631558264144,-0.018424999,-0.014575,-0.0094875
1680000643207,1180631560766220,-0.0174625,-0.0116875,-0.0125124995
1680000643208,1180631563268067,-0.0174625,-0.009625,-0.0094875
1680000643210,1180631565769971,-0.0174625,-0.01265,-0.0094875
1680000643213,1180631568272125,-0.019524999,-0.009625,-0.0114124995
1680000643216,1180631570774202,-0.0165,-0.0105875,-0.0144375
1680000643219,1180631573276125,-0.0144375,-0.0105875,-0.0125124995
1680000643220,1180631575778197,-0.01045,-0.0116875,-0.0125124995
1680000643222,1180631578280120,-0.013475,-0.0176,-0.0154
1680000643226,1180631580782197,-0.0155375,-0.015675,-0.0154
1680000643228,1180631583284043,-0.013475,-0.0185625,-0.0125124995
1680000643235,1180631585786197,-0.0155375,-0.020624999,-0.0125124995
1680000643235,1180631588288120,-0.0165,-0.0215875,-0.0125124995
1680000643237,1180631590790197,-0.0155375,-0.0246125,-0.0144375
1680000643238,1180631593292120,-0.0155375,-0.0306625,-0.0154
1680000643241,1180631595794197,-0.018424999,-0.0306625,-0.0165
1680000643243,1180631598296120,-0.0174625,-0.031625,-0.0174625
1680000643246,1180631600798274,-0.0144375,-0.0336875,-0.018424999
1680000643248,1180631603300350,-0.0144375,-0.0306625,-0.019524999
1680000643255,1180631605802274,-0.013475,-0.0286,-0.0204875
1680000643255,1180631608304331,-0.0144375,-0.0286,-0.02145
1680000643256,1180631610806178,-0.013475,-0.0306625,-0.019524999
1680000643259,1180631613308101,-0.013475,-0.0276375,-0.0224125
1680000643260,1180631615810255,-0.01045,-0.0226875,-0.0235125
1680000643263,1180631618312340,-0.0125124995,-0.025575,-0.0224125
1680000643267,1180631620814264,-0.0125124995,-0.025575,-0.024475
1680000643268,1180631623316340,-0.0125124995,-0.0215875,-0.024475
1680000643270,1180631625818264,-0.0094875,-0.0196625,-0.024475
1680000643273,1180631628320312,-0.0034375,-0.020624999,-0.0254375
1680000643276,1180631630822159,-0.007425,-0.0166375,-0.0204875
1680000643281,1180631633324313,-0.0034375,-0.0215875,-0.0235125
1680000643281,1180631635826236,-0.0015125,-0.0196625,-0.024475
1680000643283,1180631638328346,-0.0015125,-0.0176,-0.0254375
1680000643286,1180631640830269,0.0015125,-0.015675,-0.0224125
1680000643288,1180631643332346,0.003575,-0.0176,-0.0275
1680000643291,1180631645834269,5.5E-4,-0.015675,-0.032449998
1680000643293,1180631648336346,0.003575,-0.0196625,-0.029424999
1680000643296,1180631650838269,0.003575,-0.0185625,-0.029424999
1680000643299,1180631653340346,0.0045375,-0.0196625,-0.0275
1680000643301,1180631655842269,0.008525,-0.0185625,-0.0314875
1680000643303,1180631658344422,0.0064625,-0.0176,-0.029424999
1680000643307,1180631660846528,0.0064625,-0.015675,-0.0314875
1680000643310,1180631663348451,0.0075625,-0.013612499,-0.0334125
1680000643311,1180631665850528,0.008525,-0.013612499,-0.0334125
1680000643313,1180631668352452,0.0075625,-0.01265,-0.0364375
1680000643317,1180631670854504,0.0075625,-0.01265,-0.0345125
1680000643320,1180631673356351,0.0055,-0.0075625,-0.0334125
1680000643321,1180631675858504,0.0055,-0.0066,-0.0334125
1680000643323,1180631678360452,0.008525,-0.009625,-0.0284625
1680000643326,1180631680862528,0.0075625,-0.0086624995,-0.029424999
1680000643328,1180631683364452,0.008525,-0.0056375,-0.0334125
1680000643330,1180631685866528,0.01045,-0.0066,-0.0235125
1680000643332,1180631688368452,0.01045,-0.0056375,-0.0235125
1680000643336,1180631690870619,0.01155,-0.0086624995,-0.0235125
1680000643339,1180631693372466,0.013475,-0.0056375,-0.0224125
1680000643340,1180631695874542,0.008525,-0.003575,-0.02145
1680000643342,1180631698376466,0.008525,-0.0026125,-0.02145
1680000643346,1180631700878543,0.0075625,-0.0066,-0.019524999
1680000643348,1180631703380466,0.0075625,-0.0075625,-0.018424999
1680000643351,1180631705882543,0.0075625,-0.0066,-0.0165
1680000643354,1180631708384696,0.008525,-0.004675,-0.0125124995
1680000643357,1180631710886619,0.008525,-0.004675,-0.0125124995
1680000643359,1180631713388696,0.008525,-0.004675,-0.0125124995
1680000643360,1180631715890619,0.01045,-0.003575,-0.0094875
1680000643363,1180631718392696,0.01045,-0.00165,-0.008525
1680000643367,1180631720894600,0.008525,-0.00165,-0.008525
1680000643368,1180631723396677,0.0064625,-0.0075625,-0.0064625
1680000643371,1180631725898600,0.01045,-0.0116875,-0.0044
1680000643373,1180631728400677,0.008525,-0.0086624995,-0.0044
1680000643376,1180631730902601,0.0056375,-0.0105875,-0.0044
1680000643378,1180631733404696,0.0056375,-0.013612499,-0.0015125
1680000643380,1180631735906620,0.0056375,-0.014575,-4.125E-4
1680000643383,1180631738408773,0.003575,-0.015675,0.0015125
1680000643386,1180631740910620,0.008525,-0.0185625,0.002475
1680000643388,1180631743412701,0.0056375,-0.0196625,0.003575
1680000643392,1180631745914625,0.0026125,-0.0246125,0.0045375
1680000643393,1180631748416701,0.0026125,-0.0276375,0.0055
1680000643396,1180631750918625,-4.125E-4,-0.0306625,0.0045375
1680000643398,1180631753420701,-0.0053625,-0.0295625,0.0066
1680000643400,1180631755922855,-0.0053625,-0.0356125,0.0105875
1680000643403,1180631758424778,-0.0064625,-0.0356125,0.0105875
1680000643406,1180631760926609,-0.0083875,-0.0356125,0.0094875
1680000643408,1180631763428762,-0.0114124995,-0.034649998,0.01155
1680000643410,1180631765930839,-0.0114124995,-0.036575,0.01155
1680000643413,1180631768432762,-0.01045,-0.037675,0.01155
1680000643419,1180631770934839,-0.01045,-0.036575,0.01155
1680000643424,1180631773436782,-0.01045,-0.034649998,0.013475
1680000643424,1180631775938859,-0.0083875,-0.031625,0.0155375
1680000643427,1180631778440782,-0.012375,-0.0286,0.013475
1680000643427,1180631780942859,-0.0174625,-0.0276375,0.014575
1680000643429,1180631783444791,-0.0144375,-0.025575,0.014575
1680000643431,1180631785946868,-0.0114124995,-0.015675,0.013475
1680000643433,1180631788448791,-0.013475,-0.0176,0.0094875
1680000643437,1180631790950868,-0.0144375,-0.014575,0.0075625
1680000643438,1180631793452792,-0.0174625,-0.0066,0.0094875
1680000643441,1180631795954878,-0.018424999,-0.0056375,0.0075625
1680000643443,1180631798456802,-0.013475,-5.5E-4,0.0075625
1680000643446,1180631800958878,-0.0114124995,0.007425,0.0075625
1680000643448,1180631803461032,-0.0174625,0.0114124995,0.0045375
1680000643450,1180631805962955,-0.0154,0.0114124995,0.003575
1680000643453,1180631808465032,-0.0154,0.0193875,0.002475
1680000643456,1180631810966955,-0.0163625,0.0193875,0.0015125
1680000643459,1180631813469032,-0.0193875,0.0193875,0.003575
1680000643460,1180631815970945,-0.0193875,0.0243375,0.0015125
1680000643463,1180631818473022,-0.0204875,0.0273625,0.0015125
1680000643468,1180631820974945,-0.023375,0.0303875,-0.0015125
1680000643470,1180631823477022,-0.024475,0.028324999,-0.0015125
1680000643472,1180631825978940,-0.0224125,0.0264,5.5E-4
1680000643474,1180631828480787,-0.0224125,0.0273625,5.5E-4
1680000643477,1180631830982940,-0.0264,0.028324999,0.0015125
1680000643479,1180631833485017,-0.0284625,0.0243375,-0.0015125
1680000643481,1180631835986940,-0.0254375,0.0224125,5.5E-4
1680000643483,1180631838489017,-0.0264,0.02035,0.002475
1680000643486,1180631840990940,-0.029424999,0.02035,0.003575
1680000643488,1180631843493017,-0.0303875,0.017324999,0.0055
1680000643492,1180631845994940,-0.0314875,0.0163625,0.0045375
1680000643493,1180631848496998,-0.0334125,0.0163625,0.0066
1680000643496,1180631850998921,-0.0314875,0.0114124995,0.0045375
1680000643498,1180631853500998,-0.0374,0.007425,0.0066
1680000643500,1180631856002921,-0.035475,0.0053625,0.0094875
1680000643504,1180631858504979,-0.034375,0.0034375,0.008525
1680000643507,1180631861007133,-0.034375,0.0053625,0.0075625
1680000643510,1180631863509056,-0.035475,0.0044,0.0075625
1680000643511,1180631866011133,-0.035475,0.0044,0.0075625
1680000643513,1180631868513056,-0.034375,0.006325,0.0055
1680000643517,1180631871015157,-0.034375,0.006325,0.0055
1680000643518,1180631873517080,-0.034375,0.007425,0.002475
1680000643520,1180631876018927,-0.034375,0.006325,-4.125E-4
1680000643523,1180631878521080,-0.0374,0.0133375,-0.0034375
1680000643526,1180631881023162,-0.0374,0.018424999,-0.008525
1680000643528,1180631883525085,-0.040425,0.0224125,-0.007425
1680000643530,1180631886027162,-0.0474375,0.03135,-0.0034375
1680000643533,1180631888529085,-0.0484,0.0374,-0.0044
1680000643536,1180631891031186,-0.0554125,0.0484,-0.0064625
1680000643539,1180631893533340,-0.0584375,0.05335,-0.0064625
1680000643542,1180631896035186,-0.0614625,0.0594,-0.0064625
1680000643544,1180631898537109,-0.0664125,0.0633875,-0.0034375
1680000643547,1180631901039171,-0.068475,0.0683375,-0.0015125
1680000643549,1180631903541094,-0.0713625,0.078375,-4.125E-4
1680000643550,1180631906043171,-0.0724625,0.0793375,-4.125E-4
1680000643553,1180631908545094,-0.0743875,0.0853875,5.5E-4
1680000643556,1180631911047248,-0.079475,0.089375,0.003575
1680000643559,1180631913549306,-0.0804375,0.0903375,-4.125E-4
1680000643561,1180631916051229,-0.0823625,0.095425,-0.0034375
1680000643563,1180631918553306,-0.0823625,0.100375,-0.002475
1680000643567,1180631921055229,-0.08745,0.102437496,-0.0064625
1680000643568,1180631923557090,-0.0924,0.1104125,-0.01045
1680000643571,1180631926059243,-0.0933625,0.1144,-0.0114124995
1680000643573,1180631928561320,-0.0944625,0.117425,-0.0055
1680000643576,1180631931063243,-0.0933625,0.11935,-0.0055
1680000643580,1180631933565325,-0.09845,0.122375,-0.007425
1680000643582,1180631936067248,-0.0974875,0.1293875,-0.0094875
1680000643584,1180631938569325,-0.0963875,0.133375,-0.0094875
1680000643586,1180631941071479,-0.0963875,0.1354375,-0.0055
1680000643588,1180631943573325,-0.09845,0.1403875,-0.0044
1680000643591,1180631946075258,-0.0994125,0.14245,-0.007425
1680000643593,1180631948577335,-0.1043625,0.144375,-0.0094875
1680000643596,1180631951079258,-0.1073875,0.14245,-0.0114124995
1680000643598,1180631953581335,-0.1104125,0.144375,-0.01045
1680000643601,1180631956083243,-0.1153625,0.14533749,-0.007425
1680000643603,1180631958585397,-0.117425,0.144375,-0.0064625
1680000643606,1180631961087474,-0.1214125,0.144375,-0.0094875
1680000643608,1180631963589397,-0.1274625,0.1343375,-0.008525
1680000643610,1180631966091465,-0.128425,0.133375,-0.007425
1680000643613,1180631968593388,-0.1354375,0.1254,-0.0034375
1680000643618,1180631971095234,-0.1414875,0.1214125,-0.0015125
1680000643620,1180631976097388,-0.1464375,0.1153625,0.003575
1680000643622,1180631976243465,-0.155375,0.10945,0.01155
1680000643624,1180631978601388,-0.1593625,0.100375,0.0176
1680000643627,1180631981103465,-0.1623875,0.095425,0.0265375
1680000643628,1180631983605388,-0.167475,0.0853875,0.0325875
1680000643630,1180631986107465,-0.1744875,0.0814,0.0424875
1680000643633,1180631988609383,-0.17847499,0.07535,0.0495
1680000643636,1180631991111460,-0.1804,0.0664125,0.058575
1680000643638,1180631993613383,-0.1874125,0.0573375,0.063525
1680000643641,1180631996115460,-0.1953875,0.050325,0.0675125
1680000643643,1180631998617373,-0.2014375,0.0493625,0.0754875
1680000643646,1180632001119527,-0.2074875,0.043449998,0.07755
1680000643649,1180632003621604,-0.211475,0.040425,0.085525
1680000643651,1180632006123527,-0.221375,0.0444125,0.0895125
1680000643655,1180632008625619,-0.232375,0.0463375,0.0946
1680000643658,1180632011127542,-0.2404875,0.045375,0.102575
1680000643660,1180632013629388,-0.2454375,0.0484,0.1095875
1680000643661,1180632016131566,-0.2514875,0.054449998,0.113575
1680000643663,1180632018633643,-0.2613875,0.0554125,0.1175625
1680000643668,1180632021135566,-0.266475,0.0554125,0.124575
1680000643671,1180632023637643,-0.2704625,0.056375,0.1276
1680000643671,1180632026139570,-0.277475,0.054449998,0.1335125
1680000643673,1180632028641647,-0.2864125,0.0594,0.13859999
1680000643677,1180632031143570,-0.2924625,0.061325,0.13859999
1680000643678,1180632033645647,-0.304425,0.0683375,0.140525
1680000643681,1180632036147570,-0.3133625,0.073425,0.14355
1680000643683,1180632038649638,-0.321475,0.0804375,0.1496
1680000643686,1180632041151561,-0.32945,0.0853875,0.1535875
1680000643688,1180632043653638,-0.3394875,0.09735,0.15853749
1680000643692,1180632046155561,-0.348425,0.1013375,0.1645875
1680000643694,1180632048657719,-0.353375,0.106425,0.1695375
1680000643697,1180632051159796,-0.359425,0.116325,0.1744875
1680000643699,1180632053661719,-0.3674,0.1214125,0.179575
1680000643702,1180632056163796,-0.3774375,0.1263625,0.1835625
1680000643706,1180632058665719,-0.386375,0.13035,0.1885125
1680000643706,1180632061167551,-0.397375,0.133375,0.1915375
1680000643708,1180632063669705,-0.4074125,0.1354375,0.1945625
1680000643711,1180632066171782,-0.4184125,0.1403875,0.1945625
1680000643713,1180632068673705,-0.430375,0.14533749,0.1936
1680000643716,1180632071175796,-0.441375,0.149325,0.1945625
1680000643718,1180632073677719,-0.4563625,0.14739999,0.1925
1680000643721,1180632076179796,-0.474375,0.1464375,0.189475
1680000643725,1180632078681719,-0.486475,0.14533749,0.1854875
1680000643734,1180632081183820,-0.5014625,0.1483625,0.1865875
1680000643734,1180632083685743,-0.518375,0.155375,0.18755
1680000643734,1180632086187820,-0.5324,0.1563375,0.18755
1680000643734,1180632088689743,-0.5434,0.1593625,0.1885125
1680000643737,1180632091191806,-0.5564625,0.1684375,0.189475
1680000643739,1180632093693729,-0.5654,0.171325,0.1885125
1680000643741,1180632096195883,-0.574475,0.182325,0.1915375
1680000643743,1180632098697960,-0.5784625,0.18933749,0.1964875
1680000643746,1180632101199883,-0.5874,0.19745,0.1975875
1680000643748,1180632103701955,-0.596475,0.2094125,0.1975875
1680000643751,1180632106203878,-0.60445,0.216425,0.1964875
1680000643753,1180632108705724,-0.607475,0.2253625,0.1945625
1680000643757,1180632111207801,-0.6114625,0.237325,0.1936
1680000643758,1180632113709950,-0.617375,0.248325,0.1936
1680000643761,1180632116211873,-0.623425,0.259325,0.1854875
1680000643763,1180632118713950,-0.6274125,0.271425,0.1835625
1680000643768,1180632121215873,-0.6314,0.281325,0.1815
1680000643770,1180632123717941,-0.6424,0.293425,0.179575
1680000643772,1180632126219864,-0.64845,0.3053875,0.1775125
1680000643775,1180632128721941,-0.6573875,0.315425,0.1725625
1680000643777,1180632131223864,-0.662475,0.32945,0.1665125
1680000643779,1180632133725960,-0.6683875,0.32945,0.1665125
1680000643781,1180632136227883,-0.678425,0.3323375,0.1665125
1680000643783,1180632138729960,-0.6854375,0.3344,0.1645875
1680000643786,1180632141231883,-0.6903875,0.337425,0.1645875
1680000643788,1180632143733960,-0.69836247,0.331375,0.162525
1680000643791,1180632146236119,-0.706475,0.331375,0.16555
1680000643793,1180632148737965,-0.71445,0.325325,0.1695375
1680000643796,1180632151239888,-0.7214625,0.3133625,0.1705
1680000643799,1180632153741965,-0.73039997,0.2993375,0.168575
1680000643800,1180632156243888,-0.7354875,0.28435,0.168575
1680000643805,1180632158745979,-0.738375,0.265375,0.1665125
1680000643808,1180632161248133,-0.7423625,0.2443375,0.1665125
1680000643809,1180632163750056,-0.750475,0.2223375,0.1705
1680000643811,1180632166252133,-0.7524,0.204325,0.1716
1680000643813,1180632168754056,-0.755425,0.18645,0.1755875
1680000643817,1180632171256133,-0.7574875,0.1703625,0.17847499
1680000643819,1180632173758056,-0.7643625,0.160325,0.1854875
1680000643821,1180632176260133,-0.7634,0.14739999,0.190575
1680000643825,1180632178762056,-0.7673875,0.133375,0.1936
1680000643826,1180632181264133,-0.7684875,0.1214125,0.1945625
1680000643828,1180632183766056,-0.7734375,0.1153625,0.2035
1680000643831,1180632186268133,-0.7783875,0.113437496,0.211475
1680000643833,1180632188770046,-0.7814125,0.1043625,0.2135375
1680000643836,1180632191272123,-0.78636247,0.09735,0.2215125
1680000643838,1180632193774046,-0.794475,0.08635,0.2275625
1680000643842,1180632196276123,-0.8034125,0.07645,0.233475
1680000643844,1180632198778046,-0.810425,0.0594,0.2385625
1680000643847,1180632201280123,-0.8204625,0.0484,0.2404875
1680000643849,1180632203782277,-0.8294,0.04235,0.2475
1680000643851,1180632206284123,-0.8404,0.0334125,0.256575
1680000643853,1180632208786046,-0.84947497,0.03135,0.261525
1680000643857,1180632211288123,-0.860475,0.0374,0.2695
1680000643859,1180632213790046,-0.870375,0.0444125,0.2745875
1680000643861,1180632216292123,-0.882475,0.0484,0.2816
1680000643863,1180632218794282,-0.892375,0.0573375,0.2855875
1680000643867,1180632221296205,-0.90145,0.0664125,0.2905375
1680000643872,1180632223798051,-0.904475,0.07645,0.2935625
1680000643873,1180632226300128,-0.9084625,0.0853875,0.294525
1680000643874,1180632228802041,-0.909425,0.09735,0.29947498
1680000643878,1180632231304195,-0.90639997,0.111375,0.3045625
1680000643881,1180632233806041,-0.904475,0.1324125,0.3075875
1680000643889,1180632236308195,-0.904475,0.14739999,0.3064875
1680000643889,1180632238810272,-0.90543747,0.161425,0.3025
1680000643890,1180632241312195,-0.90543747,0.1794375,0.2926
1680000643890,1180632243814272,-0.9024125,0.19745,0.2875125
1680000643891,1180632246316195,-0.8974625,0.216425,0.2825625
1680000643893,1180632248818272,-0.8954,0.2253625,0.272525
1680000643898,1180632251320407,-0.8965,0.2393875,0.266475
1680000643899,1180632253822253,-0.8914125,0.249425,0.2624875
1680000643902,1180632256324176,-0.887425,0.2564375,0.25753748
1680000643904,1180632258826253,-0.8844,0.2613875,0.25355
1680000643907,1180632261328176,-0.87945,0.2684,0.245575
1680000643908,1180632263830253,-0.8734,0.2784375,0.2355375
1680000643911,1180632266332176,-0.8644625,0.2833875,0.2294875
1680000643913,1180632268834330,-0.8584125,0.2864125,0.2184875
1680000643917,1180632271336437,-0.8514,0.293425,0.2085875
1680000643920,1180632273838283,-0.844525,0.3084125,0.20253749
1680000643921,1180632276340206,-0.8394375,0.3194125,0.1945625
1680000643923,1180632278842283,-0.833525,0.3273875,0.18755
1680000643927,1180632281344206,-0.8234875,0.336325,0.18259999
1680000643928,1180632283846341,-0.82445,0.276375,0.1705
1680000643931,1180632286348418,-0.822525,0.19745,0.1524875
1680000643933,1180632288850341,-0.805475,0.237325,0.14355
1680000643937,1180632291352187,-0.7954375,0.2583625,0.140525
1680000643939,1180632293854264,-0.7984625,0.260425,0.1425875
1680000643941,1180632296356187,-0.80245,0.281325,0.1445125
1680000643943,1180632298858341,-0.800525,0.3023625,0.14355
