system_ts_ms, sensor_ts_ns, accX, accY, accZ
1680000639055,1180627394928056,3.1740003,2.8650002,9.13395
1680000639055,1180627397429979,3.0250502,2.841,8.952001
1680000639055,1180627399932056,2.70405,2.71005,8.73705
1680000639056,1180627402433979,2.63205,2.676,8.734051
1680000639056,1180627404936056,2.6110501,2.67105,8.7289505
1680000639057,1180627407438201,2.56995,2.66205,8.72505
1680000639057,1180627409940047,2.568,2.607,8.75805
1680000639066,1180627412441970,2.60595,2.8150501,8.851951
1680000639066,1180627414944047,2.7210002,2.8630502,9.012
1680000639066,1180627417445965,2.7930002,3.0949502,9.07905
1680000639067,1180627419948042,3.01605,3.14295,9.213
1680000639070,1180627422450196,3.2599502,3.41595,9.06
1680000639070,1180627424952119,3.3100502,3.4759502,9.09795
1680000639072,1180627427454177,3.3409503,3.49005,9.12705
1680000639076,1180627429956023,3.3720002,3.5020502,9.049951
1680000639078,1180627432457946,3.384,3.62505,9.024
1680000639080,1180627434960023,3.2719502,3.5740502,8.991
1680000639086,1180627437461936,3.183,3.41595,8.940001
1680000639086,1180627439964090,3.2070003,3.486,9.036
1680000639087,1180627442466167,3.0370502,3.5530503,8.82495
1680000639089,1180627444968013,2.8909502,3.3750002,8.96205
1680000639092,1180627447469936,2.8549502,3.3319502,8.896951
1680000639094,1180627449972075,2.7160501,3.1219501,9.010051
1680000639098,1180627452473921,2.6440501,3.0210001,9.285001
1680000639102,1180627454976075,2.70705,2.9179502,9.208051
1680000639102,1180627457477921,2.6800501,2.8920002,9.168
1680000639104,1180627459980075,2.8500001,2.9989502,8.991
1680000639107,1180627462481926,2.8860002,3.01605,9.07695
1680000639109,1180627464984080,2.90505,3.0229502,8.908951
1680000639113,1180627467486157,2.8930502,3.1050003,9.010051
1680000639118,1180627469988085,3.08295,3.3079503,9.02595
1680000639118,1180627472489931,2.9890501,3.2050502,9.06705
1680000639121,1180627474992008,3.1039503,3.25305,9.004951
1680000639123,1180627477493931,2.93895,3.2080503,8.92605
1680000639126,1180627479996008,3.04395,3.2920501,8.923051
1680000639127,1180627482498181,3.0010502,3.213,9.08205
1680000639129,1180627485000104,3.0319502,3.2770503,8.964001
1680000639136,1180627487502181,3.1039503,3.3079503,9.036
1680000639137,1180627490004104,2.94105,3.1050003,8.95905
1680000639142,1180627492505940,3.0270002,3.1600502,9.06
1680000639142,1180627495008017,3.0349503,3.1020002,9.052951
1680000639142,1180627497510171,3.08295,3.14295,9.05805
1680000639145,1180627500012094,3.114,3.14295,9.132
1680000639154,1180627502514171,3.1950002,3.01095,8.90205
1680000639154,1180627505016110,3.1590002,3.25605,9.06495
1680000639155,1180627507518187,3.1900501,3.25605,9.06495
1680000639155,1180627510020033,3.1950002,3.3040502,9.06495
1680000639159,1180627512521956,3.1980002,3.28005,8.955001
1680000639159,1180627515024124,3.1950002,3.28905,9.031051
1680000639164,1180627517526201,3.1980002,3.2920501,9.06705
1680000639173,1180627520028124,3.21195,3.28005,9.019051
1680000639173,1180627522530201,3.2020502,3.2770503,9.016951
1680000639178,1180627525032124,3.0949502,3.2410502,9.11505
1680000639178,1180627527534201,3.1350002,3.2290502,9.06495
1680000639178,1180627530036124,3.15405,3.2989502,8.99295
1680000639178,1180627532538201,3.1710002,3.3630002,8.97105
1680000639180,1180627535040124,3.21405,3.34905,9.010051
1680000639186,1180627537542220,3.2329502,3.2749503,8.988001
1680000639186,1180627540044143,3.2070003,3.3750002,9.07905
1680000639189,1180627542546220,3.15405,3.3990002,9.028951
1680000639190,1180627545048374,3.0319502,3.2940001,9.09105
1680000639192,1180627547550297,2.9839501,3.38505,9.04605
1680000639194,1180627550052143,2.9989502,3.3589501,9.32295
1680000639197,1180627552554220,2.9580002,3.1740003,9.165
1680000639200,1180627555056143,3.042,3.1309502,9.153001
1680000639203,1180627557558220,2.9599502,3.21,9.148951
1680000639204,1180627560060081,2.9509501,3.0880501,9.151051
1680000639207,1180627562562235,2.9839501,3.078,9.031051
1680000639209,1180627565064158,2.93895,3.10695,9.09105
1680000639212,1180627567566235,3.01305,3.114,9.168
1680000639214,1180627570068191,2.93595,3.1260002,8.96895
1680000639218,1180627572570268,2.9560502,3.0900002,9.10095
1680000639220,1180627575072191,2.90295,3.1380002,9.09795
1680000639222,1180627577574268,2.93595,3.21,9.148951
1680000639226,1180627580076210,2.877,3.186,9.14595
1680000639229,1180627582578287,2.94105,3.1909502,9.07005
1680000639230,1180627585080210,2.9320502,3.17895,9.05805
1680000639235,1180627587582287,2.87205,3.17895,9.14595
1680000639235,1180627590084210,2.8240502,3.17895,9.1390505
1680000639237,1180627592586307,2.838,3.1960502,9.148951
1680000639239,1180627595088461,2.8240502,3.10995,9.120001
1680000639242,1180627597590307,2.8930502,3.1669502,9.07005
1680000639244,1180627600092230,2.877,3.1980002,9.09795
1680000639247,1180627602594297,2.88105,3.10695,9.010051
1680000639258,1180627605096220,2.946,3.2269502,9.022051
1680000639258,1180627607598297,2.97195,3.2370002,9.03405
1680000639259,1180627610100451,3.0349503,3.1650002,8.991
1680000639259,1180627612602384,3.04905,3.25605,9.0379505
1680000639260,1180627615104230,2.9200501,3.1240501,9.022051
1680000639263,1180627617606307,2.93595,3.1720502,9.1369505
1680000639269,1180627620108461,2.9320502,3.21495,9.10995
1680000639270,1180627622610397,2.8960502,3.1309502,9.144
1680000639271,1180627625112243,2.97195,3.2050502,9.12495
1680000639272,1180627627614320,2.9530501,3.3280501,9.09795
1680000639275,1180627630116243,2.9479501,3.2749503,9.11505
1680000639277,1180627632618320,2.9269502,3.2719502,9.153001
1680000639279,1180627635120180,2.88105,3.2440503,9.048
1680000639283,1180627637622334,2.913,3.2220001,9.022051
1680000639284,1180627640124257,2.94105,3.2989502,9.049951
1680000639287,1180627642626411,3.0010502,3.2650502,9.052951
1680000639289,1180627645128253,3.01095,3.34905,8.99295
1680000639292,1180627647630330,2.9250002,3.28005,8.95695
1680000639294,1180627650132253,2.83605,3.2770503,9.05805
1680000639299,1180627652634407,2.87205,3.3300002,9.049951
1680000639301,1180627655136262,2.87205,3.2389503,9.036
1680000639303,1180627657638339,2.8530002,3.3660002,9.096001
1680000639305,1180627660140262,2.838,3.2920501,9.02595
1680000639308,1180627662642339,2.90295,3.3280501,9.012
1680000639310,1180627665144262,2.7829502,3.2719502,8.988001
1680000639312,1180627667646426,2.9170501,3.21495,8.976001
1680000639314,1180627670148503,2.84505,3.3229501,9.049951
1680000639320,1180627672650349,2.8240502,3.28005,8.955001
1680000639320,1180627675152272,2.7520502,3.31095,9.043051
1680000639322,1180627677654329,2.901,3.3300002,9.120001
1680000639324,1180627680156252,2.76195,3.2320502,8.95695
1680000639328,1180627682658329,2.93595,3.2580001,9.048
1680000639329,1180627685160483,2.8330503,3.2370002,9.1060505
1680000639336,1180627687662406,2.8930502,3.1669502,9.04605
1680000639336,1180627690164464,2.90505,3.3319502,9.085951
1680000639339,1180627692666310,2.9250002,3.25605,8.95905
1680000639341,1180627695168233,2.901,3.177,9.14595
1680000639343,1180627697670291,2.8620002,3.3010502,9.09105
1680000639345,1180627700172445,2.9940002,3.21,9.1369505
1680000639348,1180627702674368,3.0300002,3.213,9.117001
1680000639350,1180627705176445,3.0229502,3.2410502,9.022051
1680000639352,1180627707678368,3.04695,3.318,9.175051
1680000639358,1180627710180450,3.0370502,3.15,9.30405
1680000639358,1180627712682296,3.1020002,3.15,9.148951
1680000639359,1180627715184219,3.0990002,3.1960502,9.07905
1680000639362,1180627717686373,3.1380002,3.1890001,9.06705
1680000639365,1180627720188450,2.9940002,3.2290502,9.043051
1680000639371,1180627722690373,3.0679502,3.3010502,9.09795
1680000639371,1180627725192219,3.075,3.2389503,9.040951
1680000639372,1180627727694296,3.07095,3.246,9.10305
1680000639376,1180627730196204,3.08505,3.186,9.141001
1680000639379,1180627732698358,3.0730503,3.2250001,9.11295
1680000639381,1180627735200435,3.1039503,3.318,9.085951
1680000639384,1180627737702358,3.07095,3.1980002,9.07905
1680000639386,1180627740204204,3.0540001,3.2269502,9.1699505
1680000639387,1180627742706277,3.07995,3.2389503,9.181951
1680000639389,1180627745208200,3.1300502,3.2580001,9.06705
1680000639392,1180627747710354,3.039,3.17895,9.0379505
1680000639394,1180627750212431,3.0679502,3.213,9.022051
1680000639397,1180627752714334,3.1300502,3.1740003,9.09105
1680000639400,1180627755216411,3.0730503,3.22005,9.12705
1680000639402,1180627757718334,3.08295,3.2220001,9.10995
1680000639404,1180627760220181,3.114,3.153,9.120001
1680000639407,1180627762722243,3.0540001,3.2029502,9.09105
1680000639409,1180627765224397,3.0589502,3.186,9.1060505
1680000639413,1180627767726320,3.0199502,3.1720502,9.096001
1680000639417,1180627770228397,3.1039503,3.2290502,9.12495
1680000639419,1180627772730329,3.04395,3.1960502,9.07005
1680000639421,1180627775232406,3.0679502,3.1600502,9.132
1680000639423,1180627777734329,3.0370502,3.1890001,8.988001
1680000639424,1180627780236406,3.13995,3.21,9.10305
1680000639427,1180627782738329,3.0949502,3.117,9.043051
1680000639429,1180627785240397,3.04695,3.1290002,8.976001
1680000639432,1180627787742320,3.0900002,3.1579502,9.12705
1680000639435,1180627790244397,3.0660002,3.081,9.08895
1680000639438,1180627792746320,2.9959502,3.0880501,9.096001
1680000639439,1180627795248397,3.0870001,3.22005,9.165
1680000639442,1180627797750315,3.0660002,3.078,9.144
1680000639444,1180627800252392,3.07995,3.1690502,9.003
1680000639447,1180627802754315,3.0730503,3.177,9.040951
1680000639451,1180627805256387,3.1039503,3.117,9.06495
1680000639453,1180627807758541,3.078,3.1240501,9.117001
1680000639455,1180627810260464,3.17595,3.081,9.040951
1680000639458,1180627812762310,3.15,3.1360502,9.08895
1680000639460,1180627815264387,3.15405,3.2389503,9.06495
1680000639462,1180627817766320,3.1639502,3.2370002,9.04605
1680000639465,1180627820268397,3.1710002,3.1290002,9.07695
1680000639468,1180627822770551,3.1879501,3.1240501,8.955001
1680000639470,1180627825272397,3.1999502,3.1260002,9.085951
1680000639472,1180627827774311,3.15,3.14295,9.06705
1680000639475,1180627830276387,3.13995,3.1189501,9.11505
1680000639478,1180627832778311,3.0970502,3.0859501,9.084001
1680000639480,1180627835280387,3.1020002,3.0550501,9.052951
1680000639484,1180627837782311,3.1980002,3.1309502,8.998051
1680000639484,1180627840284358,3.1639502,3.22005,9.12495
1680000639489,1180627842786282,3.1350002,3.114,9.040951
1680000639492,1180627845288358,3.10905,3.153,8.93295
1680000639493,1180627847790282,3.1020002,3.1240501,9.019051
1680000639494,1180627850292393,3.1039503,3.1600502,9.0
1680000639498,1180627852794317,3.1350002,3.1720502,9.07905
1680000639500,1180627855296470,3.1620002,3.17895,9.07695
1680000639502,1180627857798547,3.1570501,3.2440503,9.06
1680000639505,1180627860300384,3.1020002,3.1620002,8.96205
1680000639507,1180627862802307,3.1020002,3.1909502,8.96895
1680000639509,1180627865304384,3.006,3.21495,9.10095
1680000639512,1180627867806307,3.051,3.17895,9.07905
1680000639514,1180627870308460,3.1519501,3.1620002,9.049951
1680000639518,1180627872810556,3.1590002,3.14295,9.172951
1680000639519,1180627875312479,3.111,3.10695,9.085951
1680000639522,1180627877814556,3.1300502,3.10995,9.08205
1680000639526,1180627880316399,3.1980002,3.18405,9.11295
1680000639528,1180627882818322,3.04905,3.0570002,9.07905
1680000639530,1180627885320399,3.21,3.1000502,9.11505
1680000639532,1180627887822552,3.11805,3.14595,9.096001
1680000639535,1180627890324476,3.1950002,3.1930501,9.08205
1680000639538,1180627892826547,3.2290502,3.153,9.09405
1680000639540,1180627895328471,3.1999502,3.0930002,8.99295
1680000639542,1180627897830317,3.219,3.1189501,9.06
1680000639544,1180627900332394,3.15405,3.078,9.10095
1680000639547,1180627902834547,3.21705,3.1650002,8.943001
1680000639550,1180627905336471,3.2380502,3.14805,9.012
1680000639552,1180627907838547,3.2239501,3.18405,9.052951
1680000639555,1180627910340471,3.2910001,3.2290502,9.12195
1680000639557,1180627912842547,3.2209501,3.1290002,9.181951
1680000639559,1180627915344452,3.25005,3.15,9.07695
1680000639563,1180627917846298,3.28395,3.1240501,9.14595
1680000639566,1180627920348452,3.2290502,3.14595,9.12495
1680000639568,1180627922850529,3.24795,3.03795,9.012
1680000639571,1180627925352456,3.3010502,3.1219501,9.07695
1680000639573,1180627927854533,3.1740003,3.0859501,9.12705
1680000639575,1180627930356456,3.2020502,3.078,9.055051
1680000639578,1180627932858302,3.1879501,3.1549501,9.117001
1680000639580,1180627935360686,3.25005,3.1309502,9.07695
1680000639582,1180627937862548,3.2380502,3.213,9.11505
1680000639584,1180627940364471,3.2980502,3.1960502,9.07905
1680000639589,1180627942866548,3.28395,3.1650002,9.085951
1680000639591,1180627945368394,3.2329502,3.0670502,9.120001
1680000639592,1180627947870321,3.28095,3.17895,9.07905
1680000639595,1180627950372398,3.1900501,3.1260002,9.13395
1680000639597,1180627952874552,3.25305,3.1720502,9.073951
1680000639602,1180627955376475,3.1380002,3.141,9.05805
1680000639603,1180627957878562,3.21,3.114,9.156
1680000639604,1180627960380485,3.1660502,3.1189501,9.144
1680000639609,1180627962882562,3.1980002,3.1240501,9.09795
1680000639611,1180627965384408,3.0870001,3.1600502,9.09105
1680000639612,1180627967886562,3.25005,3.1240501,9.12705
1680000639615,1180627970388504,3.147,3.078,9.031051
1680000639618,1180627972890581,3.2020502,3.1309502,9.073951
1680000639620,1180627975392427,3.15405,3.153,9.06
1680000639622,1180627977894581,3.1690502,3.1669502,9.12705
1680000639626,1180627980396471,3.1999502,3.1020002,9.028951
1680000639628,1180627982898548,3.2410502,3.1600502,9.11295
1680000639637,1180627985400471,3.17595,3.17895,9.096001
1680000639637,1180627987902548,3.2020502,3.117,9.1060505
1680000639637,1180627990404461,3.1980002,3.1720502,9.09105
1680000639640,1180627992906615,3.1570501,3.1549501,9.055051
1680000639641,1180627995408461,3.186,3.1890001,9.061951
1680000639642,1180627997910538,3.2020502,3.186,8.986051
1680000639644,1180628000412461,3.1710002,3.1600502,9.13395
1680000639647,1180628002914552,3.2929502,3.1360502,9.049951
1680000639649,1180628005416475,3.2329502,3.282,9.07905
1680000639652,1180628007918552,3.25305,3.1360502,9.132
1680000639655,1180628010420706,3.15405,3.2320502,9.07005
1680000639658,1180628012922581,3.1980002,3.1890001,9.036
1680000639660,1180628015424504,3.2050502,3.18405,9.036
1680000639662,1180628017926581,3.1660502,3.1219501,9.048
1680000639673,1180628020428474,3.2020502,3.22005,9.073951
1680000639673,1180628022930551,3.17595,3.2029502,8.99295
1680000639673,1180628025432705,3.11595,3.1930501,9.13395
1680000639673,1180628027934628,3.2239501,3.2010002,9.11295
1680000639676,1180628030436734,3.24495,3.1930501,9.160951
1680000639680,1180628032938580,3.11805,3.213,9.117001
1680000639680,1180628035440503,3.1210501,3.213,9.052951
1680000639682,1180628037942580,3.1639502,3.1930501,9.108001
1680000639685,1180628040444503,3.2599502,3.18105,9.049951
1680000639687,1180628042946580,3.1020002,3.2080503,9.108001
1680000639690,1180628045448503,3.1020002,3.21495,9.061951
1680000639692,1180628047950580,3.1570501,3.2410502,9.085951
1680000639695,1180628050452503,3.1519501,3.15,9.06
1680000639698,1180628052954585,3.17595,3.1909502,9.07695
1680000639700,1180628055456508,3.17805,3.22005,9.061951
1680000639702,1180628057958662,3.10905,3.2220001,9.12705
1680000639705,1180628060460508,3.15,3.2650502,9.06705
1680000639709,1180628062962585,3.147,3.246,9.08895
1680000639709,1180628065464503,3.1879501,3.2719502,9.096001
1680000639713,1180628067966580,3.2050502,3.2370002,9.120001
1680000639716,1180628070468503,3.15405,3.25095,9.08205
1680000639718,1180628072970657,3.21705,3.1960502,9.052951
1680000639720,1180628075472715,3.11805,3.117,9.201
1680000639722,1180628077974638,3.14505,3.1930501,9.055051
1680000639725,1180628080476484,3.0679502,3.246,9.11295
1680000639728,1180628082978561,3.1210501,3.3439503,9.073951
1680000639730,1180628085480484,3.0919502,3.2220001,9.10305
1680000639732,1180628087982556,3.075,3.18405,9.165
1680000639735,1180628090484710,3.1380002,3.1890001,9.07005
1680000639738,1180628092986633,3.1690502,3.2719502,9.096001
1680000639740,1180628095488710,3.13995,3.249,9.08205
1680000639742,1180628097990619,3.13995,3.3130503,9.0720005
1680000639746,1180628100492465,3.1420503,3.2650502,8.964001
1680000639748,1180628102994542,3.1380002,3.249,9.153001
1680000639751,1180628105496696,3.1639502,3.2440503,9.1060505
1680000639753,1180628107998618,3.10695,3.25305,9.048
1680000639755,1180628110500695,3.2050502,3.2749503,9.048
1680000639757,1180628113002618,3.0990002,3.2050502,9.0379505
1680000639760,1180628115504695,3.1519501,3.2700002,9.015
1680000639762,1180628118006541,3.0919502,3.1669502,9.129001
1680000639766,1180628120508464,3.186,3.1549501,9.055051
1680000639768,1180628123010618,3.1620002,3.1890001,9.11295
1680000639770,1180628125512695,3.17595,3.0880501,9.129001
1680000639772,1180628128014618,3.0010502,3.1620002,9.10995
1680000639775,1180628130516695,3.04905,3.1309502,9.151051
1680000639778,1180628133018628,3.15,3.1650002,9.132
1680000639780,1180628135520705,3.08295,3.1020002,9.003
1680000639782,1180628138022628,3.10905,3.1260002,9.10095
1680000639786,1180628140524705,3.14505,3.2080503,8.991
1680000639790,1180628143026599,3.17805,3.15,9.11505
1680000639791,1180628145528676,3.0900002,3.1240501,9.11505
1680000639793,1180628148030830,3.13995,3.1980002,8.98095
1680000639795,1180628150532753,3.2050502,3.25605,9.177
1680000639798,1180628153034618,3.1879501,3.17895,9.117001
1680000639800,1180628155536695,3.10695,3.153,9.117001
1680000639802,1180628158038618,3.11595,3.1600502,9.1369505
1680000639805,1180628160540695,3.0589502,3.2050502,8.967
1680000639808,1180628163042580,3.1350002,3.1579502,9.10995
1680000639810,1180628165544734,3.17595,3.2250001,9.07005
1680000639812,1180628168046580,3.1300502,3.1219501,9.10995
1680000639816,1180628170548657,3.1570501,3.14295,9.201
1680000639818,1180628173050565,3.13995,3.07395,9.141001
1680000639820,1180628175552642,3.1620002,3.1930501,9.016951
1680000639822,1180628178054565,3.1039503,3.1669502,8.93295
1680000639827,1180628180556642,3.1210501,3.07095,9.055051
1680000639829,1180628183058536,3.0919502,3.081,8.979
1680000639831,1180628185560613,3.042,3.0949502,9.049951
1680000639833,1180628188062536,3.10905,3.0690002,9.09405
1680000639835,1180628190564613,3.08505,3.1260002,9.0
1680000639837,1180628193066536,2.9890501,3.1669502,9.040951
1680000639840,1180628195568706,3.08295,3.1669502,9.043051
1680000639842,1180628198070783,3.0540001,3.1240501,9.0070505
1680000639846,1180628200572629,3.0559502,3.117,9.153001
1680000639848,1180628203074552,3.0559502,3.15,9.11505
1680000639852,1180628205576633,3.0180001,3.0880501,9.0070505
1680000639854,1180628208078556,2.97195,3.17895,9.108001
1680000639855,1180628210580633,3.07995,3.1309502,8.96205
1680000639858,1180628213082787,3.0990002,3.2389503,9.13395
1680000639860,1180628215584710,3.07995,3.1309502,9.024
1680000639864,1180628218086556,3.13995,3.1600502,9.084001
1680000639866,1180628220588633,3.042,3.1720502,9.08895
1680000639869,1180628223090556,3.15,3.07395,9.11505
1680000639874,1180628225592609,3.0270002,3.0859501,9.10095
1680000639874,1180628228094763,3.0559502,3.1240501,9.14595
1680000639876,1180628230596686,3.051,3.1380002,9.0379505
1680000639878,1180628233098763,3.07095,3.114,9.120001
1680000639880,1180628235600686,3.1710002,3.045,9.096001
1680000639882,1180628238102528,2.9890501,3.1360502,9.18
1680000639886,1180628240604605,3.114,3.14295,8.955001
1680000639888,1180628243106528,3.1230001,3.14595,9.036
1680000639891,1180628245608682,2.9959502,3.2220001,9.07005
1680000639892,1180628248110759,3.07995,3.078,8.99295
1680000639898,1180628250612720,3.0730503,3.153,9.024
1680000639899,1180628253114797,3.0270002,3.22005,9.040951
1680000639901,1180628255616720,3.04905,3.18405,9.040951
1680000639903,1180628258118595,2.9869502,3.2290502,9.040951
1680000639907,1180628260620749,3.0349503,3.153,8.991
1680000639908,1180628263122826,2.97495,3.153,8.99505
1680000639910,1180628265624749,2.90505,3.177,8.919001
1680000639912,1180628268126826,3.0180001,3.18405,8.916
1680000639916,1180628270628763,2.9170501,3.177,8.99505
1680000639918,1180628273130840,2.9580002,3.15,8.95695
1680000639920,1180628275632686,2.9650502,3.1669502,9.052951
1680000639922,1180628278134840,3.01095,3.2719502,8.96895
1680000639925,1180628280636773,2.9269502,3.1909502,8.94495
1680000639927,1180628283138850,2.9290502,3.1020002,8.97105
1680000639930,1180628285640773,3.01605,3.081,9.108001
1680000639932,1180628288142850,2.9530501,3.0979502,8.9740505
1680000639935,1180628290644773,2.94105,3.1240501,9.07695
1680000639941,1180628293146927,2.97705,3.1650002,9.1060505
1680000639941,1180628295648773,2.9680502,3.10695,9.108001
1680000639943,1180628298150850,2.9839501,3.0690002,9.06
1680000639946,1180628300652773,2.9890501,3.0259502,9.049951
1680000639948,1180628303154850,3.0610502,3.1260002,9.08895
1680000639950,1180628305656773,2.90505,3.117,9.12195
1680000639952,1180628308158927,3.0370502,3.17895,9.07695
1680000639956,1180628310661004,2.9479501,3.081,9.052951
1680000639957,1180628313162946,3.0679502,3.05205,9.019051
1680000639960,1180628315664792,3.0270002,3.141,9.05805
1680000639962,1180628318166946,3.0349503,3.0949502,9.031051
1680000639966,1180628320668792,2.90805,3.0949502,9.010051
1680000639968,1180628323170946,2.93895,3.1549501,9.120001
1680000639970,1180628325672792,2.9200501,3.0229502,8.98305
1680000639972,1180628328174869,3.0180001,3.00195,9.0720005
1680000639977,1180628330676840,2.90505,3.009,9.07005
1680000639980,1180628333178686,2.946,3.03795,9.028951
1680000639981,1180628335680840,3.08295,3.0310502,9.016951
1680000639983,1180628338182917,2.97,3.0349503,9.108001
1680000639986,1180628340684840,3.00795,3.08295,9.0720005
1680000639988,1180628343186917,2.9890501,3.0949502,8.9740505
1680000639990,1180628345688840,2.97705,3.1000502,8.94495
1680000639992,1180628348190917,2.9629502,3.081,9.144
1680000639996,1180628350693071,3.042,3.14295,9.11295
1680000639998,1180628353194917,2.9530501,3.0499501,8.95005
1680000640000,1180628355696826,2.9530501,3.1309502,9.015
1680000640003,1180628358198903,2.9560502,3.1219501,9.004951
1680000640006,1180628360700826,2.9890501,3.078,9.019051
1680000640008,1180628363202903,2.9920502,3.1290002,9.08895
1680000640010,1180628365704826,2.9839501,3.05205,9.07905
1680000640014,1180628368206974,2.97195,3.1000502,9.052951
1680000640016,1180628370709051,2.9560502,3.00705,9.052951
1680000640019,1180628373210897,3.01605,3.14295,9.10095
1680000640021,1180628375712810,2.9680502,3.0880501,8.91195
1680000640022,1180628378214887,3.0370502,3.0670502,8.988001
1680000640026,1180628380716810,2.9650502,3.1339502,8.991
1680000640028,1180628383218964,2.98005,3.1020002,8.96205
1680000640030,1180628385721041,3.0040503,3.1260002,9.015
1680000640032,1180628388222945,2.98005,3.1309502,8.9740505
1680000640036,1180628390724791,3.0559502,3.10695,9.02595
1680000640037,1180628393226868,2.9509501,3.11205,9.036
1680000640040,1180628395728791,2.9989502,3.1020002,9.048
1680000640042,1180628398230887,3.0900002,3.0280502,9.019051
1680000640047,1180628400733041,2.97705,3.04305,9.07695
1680000640048,1180628403234964,3.0730503,3.0210001,9.010051
1680000640051,1180628405737041,2.9200501,3.1579502,9.036
1680000640053,1180628408238988,2.93895,3.1000502,9.055051
1680000640056,1180628410740834,3.006,3.1650002,8.976001
1680000640058,1180628413242911,2.9989502,3.0930002,8.90205
1680000640060,1180628415745065,2.9839501,3.1339502,8.964001
1680000640062,1180628418246988,2.94105,3.0900002,9.07905
1680000640066,1180628420749061,2.9340003,3.14805,9.117001
1680000640068,1180628423250984,3.114,3.0589502,9.0720005
1680000640070,1180628425753061,2.97705,3.153,9.085951
1680000640073,1180628428254984,2.93595,3.1050003,9.10995
1680000640076,1180628430757061,3.042,3.07395,9.06705
1680000640078,1180628433258988,3.0540001,3.1050003,9.031051
1680000640080,1180628435761065,3.006,3.0619502,9.016951
1680000640082,1180628438262988,2.9989502,3.0210001,9.049951
1680000640086,1180628440765065,2.9920502,3.07605,9.049951
1680000640089,1180628443266988,3.078,3.1339502,9.019051
1680000640091,1180628445769065,3.08295,3.0229502,9.07005
1680000640092,1180628448270988,3.078,3.081,8.991
1680000640096,1180628450773065,3.0559502,3.0690002,9.13395
1680000640099,1180628453274964,3.01305,3.01605,9.12705
1680000640100,1180628455777041,3.1420503,3.0589502,9.052951
1680000640102,1180628458278964,3.0730503,3.0949502,9.084001
1680000640106,1180628460781041,3.1639502,3.0880501,9.175051
1680000640107,1180628463283200,3.1020002,3.1650002,9.049951
1680000640110,1180628465785123,3.07995,3.0499501,9.049951
1680000640112,1180628468286969,2.9509501,3.045,9.084001
1680000640116,1180628470789046,3.01605,3.05205,9.1369505
1680000640118,1180628473290955,2.982,3.0190501,9.199051
1680000640120,1180628475793032,3.04395,3.1620002,9.1369505
1680000640122,1180628478294955,3.01305,3.08295,9.031051
1680000640127,1180628480797109,3.0730503,3.081,9.108001
1680000640129,1180628483299167,3.006,3.25605,9.022051
1680000640132,1180628485801013,3.04395,3.114,9.06705
1680000640133,1180628488302936,2.913,3.1549501,9.061951
1680000640136,1180628490805090,3.0730503,3.1720502,9.15795
1680000640138,1180628493307167,3.00795,3.0349503,9.189
1680000640141,1180628495809076,3.11805,3.2029502,9.07905
1680000640142,1180628498311153,3.051,3.1620002,9.08205
1680000640146,1180628500812999,3.1380002,3.1720502,9.096001
1680000640148,1180628503314923,3.0180001,3.153,9.03405
1680000640150,1180628505817076,3.1230001,3.10695,9.061951
1680000640152,1180628508319124,3.1260002,3.15,9.048
1680000640156,1180628510821047,3.2310002,3.1579502,9.040951
1680000640157,1180628513323124,3.075,3.1930501,9.1060505
1680000640160,1180628515825047,3.0730503,3.14595,9.177
1680000640164,1180628518327124,3.1020002,3.0949502,9.12495
1680000640167,1180628520828970,3.1230001,3.1360502,9.055051
1680000640169,1180628523331124,3.0559502,3.081,9.148951
1680000640171,1180628525833066,3.10905,3.1600502,9.07905
1680000640176,1180628528335143,3.0870001,3.153,9.12195
1680000640177,1180628530837066,2.9530501,3.0619502,9.09105
1680000640179,1180628533339143,3.039,3.2080503,9.120001
1680000640180,1180628535841066,3.0630002,3.21,9.08895
1680000640183,1180628538343210,3.0589502,3.1720502,9.028951
1680000640186,1180628540845056,2.9959502,3.1549501,9.11505
1680000640188,1180628543347133,3.0370502,3.2680502,9.08205
1680000640190,1180628545849056,3.0229502,3.1890001,9.022051
1680000640192,1180628548351133,3.0180001,3.213,9.052951
1680000640196,1180628550853060,3.01605,3.2389503,8.95695
1680000640197,1180628553355214,2.9940002,3.213,9.004951
1680000640201,1180628555857291,3.0229502,3.2389503,9.08895
1680000640203,1180628558359171,3.1300502,3.2050502,9.132
1680000640206,1180628560861094,3.0270002,3.2440503,9.036
1680000640209,1180628563363171,3.0949502,3.2050502,8.998051
1680000640210,1180628565865094,3.0250502,3.117,9.108001
1680000640212,1180628568367171,3.01605,3.186,8.964001
1680000640216,1180628570869320,3.0250502,3.2320502,9.08205
1680000640218,1180628573371243,3.0040503,3.2029502,9.117001
1680000640220,1180628575873320,3.0589502,3.1890001,9.06
1680000640223,1180628578375166,3.078,3.1720502,8.998051
1680000640226,1180628580877080,3.006,3.21705,9.06495
1680000640228,1180628583379156,3.0589502,3.3040502,9.019051
1680000640230,1180628585881310,3.14505,3.2290502,8.93505
1680000640234,1180628588383233,3.0559502,3.1360502,9.02595
1680000640236,1180628590885325,3.051,3.2080503,8.931001
1680000640240,1180628593387248,3.1020002,3.25605,9.14595
1680000640241,1180628595889325,3.0919502,3.2410502,9.048
1680000640243,1180628598391171,3.08505,3.3130503,9.0379505
1680000640254,1180628600893080,3.0900002,3.177,9.175051
1680000640254,1180628603395233,3.1420503,3.1290002,9.043051
1680000640254,1180628605897310,3.1350002,3.21495,9.09405
1680000640254,1180628608399233,3.1230001,3.21495,8.99295
1680000640258,1180628610901080,3.1620002,3.21,9.120001
1680000640259,1180628613403233,3.1039503,3.25095,9.129001
1680000640261,1180628615905080,3.21195,3.2220001,8.98305
1680000640263,1180628618407233,3.1519501,3.213,9.12495
1680000640266,1180628620909334,3.10905,3.21495,9.12705
1680000640268,1180628623411257,3.1380002,3.2370002,9.0379505
1680000640271,1180628625913334,3.1950002,3.2250001,9.18
1680000640273,1180628628415257,3.0970502,3.21495,9.10995
1680000640278,1180628630917104,3.111,3.22005,9.0720005
1680000640279,1180628633419258,3.1999502,3.25605,9.153001
1680000640281,1180628635921334,3.1590002,3.18105,9.24195
1680000640283,1180628638423258,3.0660002,3.2220001,9.052951
1680000640286,1180628640925334,3.1330502,3.2580001,9.175051
1680000640288,1180628643427249,3.1260002,3.2370002,9.187051
1680000640293,1180628645929325,3.0919502,3.18105,9.040951
1680000640293,1180628648431249,3.1210501,3.18105,9.084001
1680000640296,1180628650933402,3.0559502,3.153,9.144
1680000640299,1180628653435253,3.147,3.2920501,8.98305
1680000640300,1180628655937329,3.0559502,3.2290502,9.1390505
1680000640303,1180628658439253,3.0970502,3.22005,9.1060505
1680000640306,1180628660941329,3.1590002,3.21705,9.07005
1680000640308,1180628663443253,3.1330502,3.31095,9.043051
1680000640310,1180628665945364,3.15405,3.2290502,9.1369505
1680000640314,1180628668447287,3.006,3.2389503,9.12495
1680000640317,1180628670949364,3.1620002,3.3040502,9.192
1680000640319,1180628673451210,3.01605,3.22005,9.06705
1680000640320,1180628675953383,3.1740003,3.1960502,9.12195
1680000640323,1180628678455536,3.13995,3.10995,9.220051
1680000640326,1180628680957459,3.0300002,3.07095,9.06705
1680000640328,1180628683459306,3.0949502,3.17895,9.181951
1680000640330,1180628685961383,3.0900002,3.186,8.991
1680000640332,1180628688463292,3.1710002,3.1600502,9.132
1680000640336,1180628690965369,3.1740003,3.177,9.040951
1680000640338,1180628693467292,3.0900002,3.1579502,9.031051
1680000640340,1180628695969446,3.13995,3.1240501,9.06705
1680000640343,1180628698471536,3.1900501,3.1600502,9.03405
1680000640346,1180628700973460,3.1900501,3.153,9.012
1680000640348,1180628703475306,3.1639502,3.1549501,9.06705
1680000640351,1180628705977393,3.2260501,3.1690502,8.99295
1680000640353,1180628708479546,3.1690502,3.2080503,9.024
1680000640356,1180628710981393,3.147,3.1549501,9.024
1680000640358,1180628713483316,3.186,3.18405,8.99295
1680000640360,1180628715985393,3.2070003,3.114,9.160951
1680000640363,1180628718487311,3.1620002,3.21495,9.1060505
1680000640366,1180628720989388,3.25005,3.1339502,9.073951
1680000640368,1180628723491311,3.1420503,3.1669502,9.148951
1680000640370,1180628725993465,3.17805,3.17895,8.964001
1680000640373,1180628728495508,3.21705,3.17895,9.015
1680000640376,1180628730997431,3.11595,3.1650002,9.016951
1680000640379,1180628733499508,3.1260002,3.1650002,9.11295
1680000640381,1180628736001431,3.08295,3.1620002,9.040951
1680000640383,1180628738503277,3.0970502,3.186,8.97105
1680000640386,1180628741005422,3.25005,3.1309502,8.976001
1680000640389,1180628743507499,3.1020002,3.1909502,9.132
1680000640391,1180628746009422,3.1330502,3.10995,9.141001
1680000640393,1180628748511479,3.0730503,3.153,9.156
1680000640396,1180628751013402,3.0370502,3.213,9.085951
1680000640398,1180628753515479,3.1570501,3.186,8.9740505
1680000640401,1180628756017402,3.1590002,3.186,8.923051
1680000640403,1180628758519479,3.1639502,3.2050502,9.048
1680000640406,1180628761021389,3.07995,3.1360502,9.06705
1680000640409,1180628763523466,3.111,3.141,9.049951
1680000640410,1180628766025389,3.183,3.15,9.07005
1680000640413,1180628768527466,3.114,3.14295,9.096001
1680000640416,1180628771029374,3.1710002,3.2700002,9.012
1680000640418,1180628773531451,3.15,3.1690502,9.0070505
1680000640420,1180628776033374,3.1260002,3.2220001,9.004951
1680000640422,1180628778535451,3.1690502,3.2220001,9.085951
1680000640427,1180628781037370,3.21,3.2050502,9.049951
1680000640429,1180628783539447,3.1660502,3.25095,8.94495
1680000640431,1180628786041370,3.1930501,3.2050502,9.003
1680000640433,1180628788543447,3.1879501,3.2340002,9.120001
1680000640436,1180628791045341,3.1900501,3.1740003,8.979
1680000640438,1180628793547495,3.15405,3.2770503,9.07005
1680000640440,1180628796049341,3.1639502,3.249,8.95695
1680000640443,1180628798551418,3.2620502,3.1650002,9.07005
1680000640446,1180628801053360,3.2260501,3.3370502,9.02595
1680000640448,1180628803555437,3.17805,3.2050502,9.028951
1680000640450,1180628806057591,3.1230001,3.2290502,9.12495
1680000640453,1180628808559437,3.11805,3.1690502,8.98305
1680000640456,1180628811061379,3.1330502,3.2410502,9.03405
1680000640458,1180628813563533,3.21705,3.25605,9.016951
1680000640460,1180628816065610,3.1039503,3.2290502,9.1060505
1680000640464,1180628818567447,3.1300502,3.2340002,9.048
1680000640467,1180628821069601,3.147,3.17895,9.055051
1680000640469,1180628823571524,3.11805,3.2410502,9.055051
1680000640471,1180628826073370,3.1590002,3.2959502,9.022051
1680000640473,1180628828575447,3.2070003,3.32505,8.93805
1680000640476,1180628831077572,3.0730503,3.3040502,9.07905
1680000640478,1180628833579495,3.11805,3.2680502,8.991
1680000640480,1180628836081572,3.183,3.37995,9.0
1680000640483,1180628838583495,3.147,3.2050502,9.05805
1680000640486,1180628841085572,3.075,3.21,8.866051
1680000640488,1180628843587418,3.1039503,3.1669502,8.95905
1680000640491,1180628846089572,3.1980002,3.2080503,9.015
1680000640493,1180628848591495,3.0630002,3.2599502,9.168
1680000640497,1180628851093567,3.11595,3.21,9.06495
1680000640499,1180628853595490,3.0870001,3.2220001,9.024
1680000640502,1180628856097567,3.1020002,3.1930501,9.040951
1680000640504,1180628858599490,3.0900002,3.1260002,9.036
1680000640506,1180628861101336,3.1420503,3.18405,8.93505
1680000640508,1180628863603716,3.075,3.2290502,8.98305
1680000640510,1180628866105562,3.1210501,3.1930501,9.07005
1680000640513,1180628868607485,3.1230001,3.2599502,9.07905
1680000640516,1180628871109562,3.04395,3.177,9.036
1680000640518,1180628873611490,3.17805,3.25605,8.904
1680000640520,1180628876113567,3.114,3.2749503,8.96205
1680000640523,1180628878615490,3.111,3.1740003,9.03405
1680000640526,1180628881117644,3.11595,3.17895,8.93805
1680000640528,1180628883619740,3.1380002,3.1669502,9.010051
1680000640530,1180628886121663,3.1330502,3.117,8.95005
1680000640533,1180628888623509,3.10695,3.1669502,9.040951
1680000640537,1180628891125586,3.1300502,3.153,8.923051
1680000640540,1180628893627543,3.15405,3.18405,9.043051
1680000640542,1180628896129697,3.1300502,3.1960502,8.98095
1680000640544,1180628898631774,3.17595,3.1620002,9.09795
1680000640546,1180628901133697,3.1210501,3.2010002,9.040951
1680000640548,1180628903635774,3.15,3.1339502,8.943001
1680000640550,1180628906137726,3.0970502,3.2580001,9.05805
1680000640553,1180628908639572,3.0970502,3.1620002,8.97105
1680000640556,1180628911141726,3.1950002,3.21,9.0070505
1680000640558,1180628913643803,3.15405,3.0280502,9.052951
1680000640560,1180628916145726,3.25305,3.1290002,8.96205
1680000640563,1180628918647822,3.1260002,3.1930501,8.91405
1680000640566,1180628921149745,3.13995,3.2220001,8.91405
1680000640568,1180628923651822,3.11595,3.1339502,9.0720005
1680000640570,1180628926153745,3.15405,3.2629502,8.952001
1680000640573,1180628928655807,3.1420503,3.1720502,8.96205
1680000640578,1180628931157730,3.1420503,3.3010502,8.919001
1680000640580,1180628933659807,3.114,3.3010502,8.928
1680000640582,1180628936161745,3.0319502,3.2370002,8.943001
1680000640583,1180628938663822,3.1020002,3.186,8.952001
1680000640586,1180628941165745,3.1740003,3.18405,8.98095
1680000640588,1180628943667899,3.1570501,3.1720502,9.010051
1680000640590,1180628946169745,3.15405,3.2440503,8.97105
1680000640593,1180628948671822,3.18105,3.1740003,8.90205
1680000640596,1180628951173745,3.2430003,3.2680502,8.92605
1680000640598,1180628953675822,3.1039503,3.3010502,9.048
1680000640600,1180628956177745,3.1300502,3.213,8.943001
1680000640603,1180628958679903,3.1279502,3.14805,8.892
1680000640606,1180628961181980,3.147,3.2029502,9.010051
1680000640608,1180628963683903,3.17805,3.2410502,9.12705
1680000640610,1180628966185749,3.17595,3.2959502,9.06705
1680000640614,1180628968687812,3.0970502,3.1620002,9.108001
1680000640618,1180628971189735,3.0990002,3.246,9.14595
1680000640619,1180628973691812,3.1260002,3.141,9.12495
1680000640621,1180628976193966,3.17595,3.2410502,9.165
1680000640624,1180628978695889,3.1039503,3.1650002,9.07905
1680000640626,1180628981197942,3.1740003,3.21,8.96205
1680000640628,1180628983699788,3.219,3.25605,9.048
1680000640631,1180628986201711,3.0970502,3.1740003,9.04605
1680000640633,1180628988703788,3.2329502,3.213,9.024
1680000640636,1180628991205961,3.1620002,3.1930501,9.160951
1680000640638,1180628993707884,3.15,3.2719502,9.0070505
1680000640640,1180628996209961,3.2650502,3.1720502,9.12495
1680000640643,1180628998711884,3.1590002,3.2389503,9.073951
1680000640646,1180629001213975,3.1690502,3.2440503,9.07005
1680000640649,1180629003715821,3.2650502,3.3079503,9.1060505
1680000640652,1180629006217744,3.2290502,3.2920501,9.02595
1680000640653,1180629008719898,3.2569501,3.25605,8.931001
1680000640657,1180629011221990,3.18105,3.318,9.085951
1680000640659,1180629013723836,3.2430003,3.31095,9.117001
1680000640661,1180629016225759,3.2260501,3.3280501,9.052951
1680000640663,1180629018727913,3.11595,3.3709502,9.07695
1680000640666,1180629021229990,3.1380002,3.25095,8.97105
1680000640668,1180629023731923,3.1590002,3.25095,9.073951
1680000640671,1180629026234000,3.1300502,3.2680502,9.08895
1680000640673,1180629028735923,3.13995,3.25605,8.96205
1680000640676,1180629031238000,3.0970502,3.2650502,8.976001
1680000640678,1180629033739923,3.111,3.3349502,9.0070505
1680000640680,1180629036241995,3.1350002,3.2989502,9.06495
1680000640683,1180629038743918,3.11595,3.2940001,9.06495
1680000640686,1180629041245995,3.0660002,3.3949502,9.040951
1680000640693,1180629043747918,3.186,3.31995,9.07905
1680000640693,1180629046249995,3.0900002,3.3420002,9.043051
1680000640693,1180629048751918,3.0559502,3.4429502,8.895
1680000640697,1180629051253995,3.11595,3.3439503,9.10995
1680000640699,1180629053755918,3.1519501,3.2580001,8.95695
1680000640702,1180629056257961,3.1350002,3.3709502,8.98095
1680000640703,1180629058759884,3.0900002,3.3439503,9.07905
1680000640706,1180629061261961,3.1260002,3.31605,9.13395
1680000640708,1180629063763884,3.0919502,3.2250001,9.03405
1680000640714,1180629066266038,3.14505,3.3280501,8.952001
1680000640714,1180629068768105,3.0730503,3.3349502,9.11295
1680000640716,1180629071269951,3.11595,3.2719502,8.955001
1680000640719,1180629073771874,3.04395,3.28695,9.14595
1680000640720,1180629076273951,3.0870001,3.3709502,8.98305
1680000640723,1180629078775855,3.2050502,3.2940001,9.049951
1680000640727,1180629081278009,3.13995,3.213,9.07005
1680000640729,1180629083780086,3.14505,3.1980002,8.967
1680000640731,1180629086281995,3.006,3.2959502,8.896951
1680000640733,1180629088784072,3.13995,3.2989502,9.004951
1680000640737,1180629091285918,3.0559502,3.2680502,8.96895
1680000640739,1180629093787841,3.11805,3.38295,8.96205
1680000640741,1180629096289918,3.1710002,3.3130503,9.084001
1680000640743,1180629098792081,3.075,3.28005,9.019051
1680000640746,1180629101294004,3.11805,3.4020002,9.003
1680000640748,1180629103796081,3.11805,3.2580001,9.049951
1680000640751,1180629106298004,3.075,3.387,9.052951
1680000640753,1180629108799850,3.1330502,3.3010502,8.896951
1680000640756,1180629111301922,3.1519501,3.3040502,9.073951
1680000640758,1180629113804076,3.1260002,3.3229501,8.93505
1680000640761,1180629116305999,3.1230001,3.4090502,9.0
1680000640764,1180629118808081,3.111,3.32505,9.07695
1680000640767,1180629121310004,3.1620002,3.3589501,9.010051
1680000640769,1180629123812081,3.0900002,3.35205,9.10095
1680000640778,1180629126314004,3.219,3.3349502,8.998051
1680000640778,1180629128816081,3.1879501,3.246,9.148951
1680000640779,1180629131318019,3.15,3.4429502,9.06
1680000640780,1180629133820096,3.21705,3.28905,9.199051
1680000640781,1180629136322019,3.21195,3.41595,9.0379505
1680000640783,1180629138824096,3.1570501,3.3300002,8.943001
1680000640786,1180629141326023,3.1590002,3.354,9.04605
1680000640788,1180629143828100,3.2569501,3.31095,9.022051
1680000640791,1180629146330254,3.24495,3.34905,9.108001
1680000640793,1180629148832177,3.25305,3.423,8.988001
1680000640796,1180629151334283,3.2020502,3.3370502,9.117001
1680000640798,1180629153836129,3.186,3.4140003,9.11295
1680000640802,1180629156338052,3.0610502,3.2650502,9.052951
1680000640803,1180629158840129,3.1420503,3.2940001,9.117001
1680000640806,1180629161342067,3.1380002,3.31605,8.94495
1680000640809,1180629163844221,3.1690502,3.318,9.055051
1680000640810,1180629166346298,3.07995,3.31995,9.10095
1680000640813,1180629168848221,3.1950002,3.354,9.06705
1680000640817,1180629171350052,3.1900501,3.41895,9.14595
1680000640819,1180629173852206,3.2209501,3.4350002,8.986051
1680000640820,1180629176354052,3.2329502,3.459,9.010051
1680000640823,1180629178856206,3.08505,3.4090502,9.0379505
1680000640826,1180629181358283,3.0559502,3.4039502,8.89995
1680000640828,1180629183860206,3.17595,3.4110003,9.048
1680000640831,1180629186362283,3.15405,3.459,9.031051
1680000640833,1180629188864437,3.0900002,3.3730502,9.1060505
1680000640836,1180629191366283,3.1519501,3.3990002,9.003
1680000640839,1180629193868201,3.1570501,3.4309502,9.10305
1680000640841,1180629196370278,3.1999502,3.37995,9.084001
1680000640843,1180629198872201,3.10695,3.41595,9.019051
1680000640846,1180629201374278,3.2209501,3.354,9.11295
1680000640848,1180629203876432,3.1230001,3.3229501,8.991
1680000640850,1180629206378360,3.1660502,3.3349502,8.95005
1680000640853,1180629208880206,3.2290502,3.387,8.97105
1680000640857,1180629211382283,3.183,3.2770503,9.028951
1680000640859,1180629213884206,3.1900501,3.3319502,9.048
1680000640860,1180629216386277,3.13995,3.21705,9.043051
1680000640863,1180629218888200,3.1350002,3.2940001,9.184951
1680000640866,1180629221390354,3.15405,3.3589501,9.016951
1680000640869,1180629223892431,3.15,3.3400502,8.98095
1680000640871,1180629226394369,3.1210501,3.3079503,9.096001
1680000640873,1180629228896215,3.1350002,3.3370502,9.048
1680000640877,1180629231398292,3.2260501,3.177,9.0720005
1680000640879,1180629233900215,3.1950002,3.213,9.04605
1680000640881,1180629236402349,3.1710002,3.2580001,8.991
1680000640883,1180629238904426,3.0949502,3.2580001,9.04605
1680000640886,1180629241406349,3.17805,3.3400502,9.09795
1680000640888,1180629243908426,3.1930501,3.2220001,9.010051
1680000640891,1180629246410349,3.1930501,3.2290502,9.019051
1680000640893,1180629248912205,3.1519501,3.2749503,9.07005
1680000640897,1180629251414282,3.1710002,3.15,9.048
1680000640899,1180629253916436,3.078,3.1720502,8.94495
1680000640901,1180629256418359,3.1570501,3.153,9.1060505
1680000640903,1180629258920441,3.1710002,3.2290502,9.06495
1680000640906,1180629261422364,3.1420503,3.2269502,8.964001
1680000640908,1180629263924441,3.219,3.117,9.02595
1680000640911,1180629266426287,3.183,3.0550501,9.141001
1680000640914,1180629268928450,3.17595,3.1890001,9.1060505
1680000640922,1180629271430373,3.1590002,3.186,9.061951
1680000640922,1180629273932450,3.21195,3.081,8.919001
1680000640922,1180629276434373,3.17805,3.14295,9.022051
1680000640923,1180629278936450,3.1020002,3.1930501,9.043051
1680000640930,1180629281438369,3.17595,3.2220001,8.98095
1680000640930,1180629283940446,3.1660502,3.28005,8.988001
1680000640930,1180629286442369,3.17805,3.2629502,9.144
1680000640933,1180629288944446,3.1039503,3.3370502,8.998051
1680000640937,1180629291446349,3.13995,3.2770503,9.10305
1680000640939,1180629293948426,3.1570501,3.2749503,8.95005
1680000640940,1180629296450349,3.11805,3.34695,8.856
1680000640943,1180629298952426,3.1330502,3.34695,9.004951
1680000640946,1180629301454566,3.1230001,3.39,9.040951
1680000640948,1180629303956489,3.10695,3.28905,8.976001
1680000640952,1180629306458335,3.15405,3.2920501,8.92605
1680000640954,1180629308960412,3.1660502,3.3990002,9.0070505
1680000640957,1180629311462340,3.13995,3.3040502,8.83695
1680000640958,1180629313964417,3.1710002,3.3679502,9.048
1680000640960,1180629316466571,3.111,3.4660501,8.93505
1680000640963,1180629318968494,3.1380002,3.34695,8.943001
1680000640966,1180629321470571,3.10905,3.3780003,8.856
1680000640968,1180629323972407,3.1660502,3.354,8.920951
1680000640971,1180629326474330,3.0540001,3.4330502,8.95695
1680000640974,1180629328976407,3.1279502,3.3730502,8.88
1680000640977,1180629331478543,3.11595,3.4110003,8.878051
1680000640979,1180629333980466,3.0589502,3.38505,9.012
1680000640981,1180629336482543,3.1660502,3.4399502,8.931001
1680000640983,1180629338984466,3.1660502,3.5460002,8.931001
1680000640986,1180629341486543,3.10905,3.4399502,8.988001
1680000640991,1180629343988479,3.1660502,3.41895,9.003
1680000640991,1180629346490556,3.15,3.4429502,8.868
1680000640994,1180629348992710,3.15,3.423,8.91195
1680000640996,1180629351494633,3.1300502,3.5479503,9.028951
1680000640998,1180629353996479,3.13995,3.5410502,8.95695
1680000641001,1180629356498533,3.0540001,3.5410502,9.09405
1680000641003,1180629359000456,3.147,3.4330502,8.94705
1680000641006,1180629361502533,3.2599502,3.5119503,8.95905
1680000641008,1180629364004456,3.15,3.5140502,8.908951
1680000641010,1180629366506543,3.1620002,3.4279501,8.98095
1680000641013,1180629369008466,3.1570501,3.3990002,9.05805
1680000641017,1180629371510543,3.1330502,3.3919501,9.040951
1680000641021,1180629374012466,3.17805,3.38505,8.92605
1680000641021,1180629376514633,3.1660502,3.38295,9.028951
1680000641023,1180629379016710,3.0610502,3.354,9.06
1680000641028,1180629381518556,3.10695,3.3750002,8.98095
1680000641029,1180629384020479,3.1519501,3.4020002,9.019051
1680000641031,1180629386522576,3.1260002,3.3610501,9.08205
1680000641034,1180629389024499,3.2050502,3.3970501,9.02595
1680000641036,1180629391526653,3.21195,3.3420002,9.024
1680000641038,1180629394028730,3.1020002,3.2680502,9.07005
1680000641041,1180629396530653,3.183,3.32505,9.085951
1680000641043,1180629399032725,3.147,3.2719502,9.016951
1680000641046,1180629401534571,3.147,3.4039502,9.108001
1680000641049,1180629404036494,3.1279502,3.3970501,9.024
1680000641051,1180629406538571,3.1930501,3.38295,9.163051
1680000641053,1180629409040740,3.2070003,3.31095,9.05805
1680000641058,1180629411542663,3.1980002,3.2650502,9.09795
1680000641059,1180629414044740,3.11595,3.1890001,8.94495
1680000641061,1180629416546663,3.1620002,3.28395,9.048
1680000641066,1180629419048716,3.10695,3.2389503,8.93505
1680000641069,1180629421550562,3.2070003,3.141,9.0720005
1680000641071,1180629424052716,3.21195,3.186,9.055051
1680000641073,1180629426554639,3.25005,3.10995,9.061951
1680000641075,1180629429056735,3.14505,3.117,9.07905
1680000641078,1180629431558658,3.21,3.2050502,8.93295
1680000641080,1180629434060735,3.2290502,3.10695,9.03405
1680000641081,1180629436562658,3.183,3.2050502,9.061951
1680000641085,1180629439064735,3.1519501,3.1579502,9.003
1680000641088,1180629441566667,3.2410502,3.1890001,9.024
1680000641088,1180629444068744,3.25005,3.14295,9.085951
1680000641092,1180629446570667,3.1020002,3.213,8.916
1680000641094,1180629449072744,3.21705,3.2940001,8.976001
1680000641097,1180629451574658,3.2959502,3.2389503,9.055051
1680000641099,1180629454076735,3.1420503,3.25305,9.0379505
1680000641103,1180629456578889,3.2290502,3.2599502,9.07005
1680000641105,1180629459080735,3.0919502,3.2599502,8.967
1680000641107,1180629461582643,3.1879501,3.2719502,8.93505
1680000641109,1180629464084720,3.2569501,3.177,9.010051
1680000641111,1180629466586643,3.18105,3.0930002,9.004951
1680000641113,1180629469088720,3.2239501,3.2340002,8.923051
1680000641116,1180629471590879,3.2359502,3.2050502,9.016951
1680000641118,1180629474092802,3.1930501,3.18105,9.08895
1680000641121,1180629476594648,3.219,3.1600502,8.991
1680000641123,1180629479096802,3.2430003,3.21705,8.99505
1680000641126,1180629481598658,3.28605,3.2389503,9.004951
1680000641128,1180629484100812,3.1930501,3.1740003,8.97105
1680000641131,1180629486602658,3.2359502,3.141,8.940001
1680000641133,1180629489104812,3.186,3.0229502,9.06
1680000641137,1180629491606893,3.1950002,3.04305,8.979
1680000641140,1180629494108816,3.15405,3.009,8.955001
1680000641143,1180629496610893,3.21405,3.0619502,8.988001
1680000641144,1180629499112816,3.2569501,3.1260002,8.890051
1680000641147,1180629501614893,3.2620502,3.07095,8.99505
1680000641149,1180629504117052,3.2569501,3.009,8.976001
1680000641151,1180629506618898,3.28095,3.0310502,8.854051
1680000641153,1180629509120821,3.2670002,3.0349503,9.022051
1680000641159,1180629511622898,3.2569501,3.081,9.019051
1680000641159,1180629514124821,3.2310002,2.9520001,9.019051
1680000641161,1180629516626898,3.25005,3.0190501,9.108001
1680000641163,1180629519129052,3.25305,3.01395,9.028951
1680000641167,1180629521630975,3.25305,3.10995,9.06705
1680000641169,1180629524133057,3.38895,3.0619502,9.043051
1680000641171,1180629526634903,3.2599502,3.07395,9.052951
1680000641174,1180629529136826,3.2050502,3.153,9.024
1680000641179,1180629531638903,3.21405,3.1579502,9.019051
1680000641180,1180629534140850,3.2430003,3.21705,9.073951
1680000641182,1180629536643004,3.2410502,3.18105,9.010051
1680000641184,1180629539144850,3.2569501,3.1219501,9.085951
1680000641187,1180629541646927,3.1690502,3.17895,9.073951
1680000641188,1180629544148850,3.1300502,3.10695,9.028951
1680000641191,1180629546650985,3.2070003,3.2290502,9.003
1680000641193,1180629549153062,3.183,3.2650502,9.108001
1680000641196,1180629551654985,3.186,3.28005,9.085951
1680000641199,1180629554157062,3.1980002,3.25305,9.019051
1680000641201,1180629556658970,3.13995,3.246,9.0070505
1680000641204,1180629559160816,3.1300502,3.3079503,9.040951
1680000641206,1180629561662970,3.1999502,3.3300002,8.91195
1680000641208,1180629564165047,3.25005,3.4020002,8.851951
1680000641211,1180629566666970,3.15405,3.45405,8.878051
1680000641215,1180629569169062,3.18105,3.45195,8.931001
1680000641218,1180629571670985,3.1300502,3.48795,8.904
1680000641220,1180629574173062,3.0610502,3.49305,8.93805
1680000641222,1180629576674985,3.1660502,3.5050502,8.96205
1680000641224,1180629579177062,3.147,3.52395,8.923051
1680000641226,1180629581678985,3.0540001,3.55695,8.847
1680000641228,1180629584181062,3.11805,3.52395,9.0070505
1680000641231,1180629586682985,3.11595,3.5070002,8.878051
1680000641234,1180629589185076,3.0630002,3.5050502,8.887951
1680000641236,1180629591686999,3.04395,3.4830003,8.93805
1680000641238,1180629594189153,3.0300002,3.5020502,8.95005
1680000641241,1180629596690999,3.0300002,3.56205,8.95005
1680000641243,1180629599193076,3.075,3.4830003,8.884951
1680000641246,1180629601694975,3.0730503,3.4740002,8.91405
1680000641249,1180629604197129,2.9629502,3.522,8.908951
1680000641252,1180629606698975,3.0040503,3.4710002,8.991
1680000641255,1180629609201038,3.1230001,3.4309502,8.904
1680000641258,1180629611703192,2.97,3.4950001,9.07005
1680000641259,1180629614205115,3.14505,3.45,8.940001
1680000641261,1180629616707192,3.0660002,3.49305,8.890051
1680000641263,1180629619209115,3.08505,3.423,8.97105
1680000641267,1180629621711196,3.01605,3.3439503,9.028951
1680000641269,1180629624213042,3.006,3.423,8.99295
1680000641271,1180629626715196,3.10695,3.3660002,8.99295
1680000641273,1180629629217119,3.1660502,3.4660501,9.012
1680000641276,1180629631719215,3.0540001,3.4950001,9.1390505
1680000641278,1180629634221138,3.11805,3.4660501,9.061951
1680000641281,1180629636723215,3.01605,3.4470003,9.028951
1680000641283,1180629639225138,3.0660002,3.4069502,9.022051
1680000641286,1180629641727307,3.1639502,3.3630002,9.06
1680000641290,1180629644229153,3.0589502,3.4350002,9.043051
1680000641292,1180629646731230,3.11595,3.426,9.08895
1680000641294,1180629649233153,3.1279502,3.4350002,9.09795
1680000641297,1180629651735196,3.1039503,3.426,9.11295
1680000641299,1180629654237119,3.0949502,3.4279501,9.151051
1680000641301,1180629656739196,3.1350002,3.3439503,9.07905
1680000641304,1180629659241350,3.08295,3.45705,9.15795
1680000641306,1180629661743273,3.1380002,3.4309502,9.096001
1680000641308,1180629664245081,3.0970502,3.4690502,9.09105
1680000641311,1180629666747158,3.18105,3.41595,9.1060505
1680000641314,1180629669249081,3.1330502,3.3780003,9.061951
1680000641316,1180629671751158,3.0900002,3.3660002,9.019051
1680000641319,1180629674253312,3.2209501,3.423,8.97105
1680000641321,1180629676755235,3.2050502,3.3780003,9.11295
1680000641323,1180629679257312,3.2290502,3.3630002,9.10305
1680000641328,1180629681759235,3.21705,3.4279501,9.192
1680000641329,1180629684261081,3.2050502,3.3300002,9.189
1680000641331,1180629686763158,3.28905,3.2410502,9.07695
1680000641333,1180629689265081,3.21705,3.2320502,9.012
1680000641337,1180629691767235,3.15,3.3349502,9.07695
1680000641339,1180629694269312,3.1900501,3.31995,8.943001
1680000641342,1180629696771239,3.3270001,3.18405,9.12195
1680000641344,1180629699273316,3.2410502,3.2290502,9.07905
1680000641346,1180629701775162,3.28395,3.17895,9.10305
1680000641348,1180629704277085,3.17595,3.2029502,9.07005
1680000641351,1180629706779215,3.114,3.14595,9.12195
1680000641353,1180629709281292,3.2599502,3.1620002,9.1060505
1680000641357,1180629711783215,3.24795,3.1600502,9.09105
1680000641359,1180629714285061,3.186,3.07395,9.09795
1680000641361,1180629716787215,3.13995,3.078,9.09105
1680000641365,1180629719289297,3.2430003,3.05205,8.998051
1680000641368,1180629721791220,3.2290502,3.01095,9.03405
1680000641370,1180629724293297,3.17595,3.141,8.95905
1680000641372,1180629726795220,3.24795,3.0190501,9.040951
1680000641374,1180629729297297,3.21195,3.1380002,8.97105
1680000641377,1180629731799143,3.2770503,3.15,8.99295
1680000641379,1180629734301297,3.2670002,2.9950502,8.94705
1680000641381,1180629736803451,3.2050502,3.1339502,9.003
1680000641384,1180629739305364,3.28905,3.0949502,8.96895
1680000641387,1180629741807210,3.2070003,3.141,8.94705
1680000641389,1180629744309287,3.2329502,3.0900002,9.043051
1680000641391,1180629746811210,3.25005,3.10695,9.05805
1680000641394,1180629749313360,3.114,3.1050003,8.99505
1680000641396,1180629751815437,3.2260501,3.10695,8.986051
1680000641398,1180629754317360,3.1950002,3.0930002,8.99295
1680000641402,1180629756819437,3.219,3.1600502,8.940001
1680000641404,1180629759321287,3.2430003,3.078,9.031051
1680000641408,1180629761823210,3.2209501,3.1360502,9.07005
1680000641409,1180629764325364,3.24795,3.00195,8.94705
1680000641411,1180629766827441,3.24795,3.2050502,8.967
1680000641413,1180629769329364,3.1620002,3.14595,8.99295
1680000641417,1180629771831461,3.1740003,3.1240501,8.95695
1680000641419,1180629774333384,3.1710002,3.17895,8.93805
1680000641422,1180629776835461,3.1020002,3.1050003,8.907001
1680000641424,1180629779337307,3.111,3.1669502,8.892
1680000641426,1180629781839456,3.111,3.153,8.883
1680000641428,1180629784341379,3.10905,3.10995,8.991
1680000641431,1180629786843456,3.0900002,3.117,8.868
1680000641433,1180629789345379,3.1620002,3.14805,8.79705
1680000641436,1180629791847480,3.1300502,3.07395,8.764951
1680000641440,1180629794349403,3.183,3.0859501,8.890051
1680000641442,1180629796851557,3.10905,3.0330002,8.787001
1680000641444,1180629799353403,3.2070003,3.0690002,8.746051
1680000641446,1180629801855504,3.114,3.1260002,8.878051
1680000641449,1180629804357427,3.0679502,3.117,8.851951
1680000641451,1180629806859504,3.051,3.153,8.90205
1680000641454,1180629809361427,3.0370502,3.1720502,8.907001
1680000641457,1180629811863489,3.0730503,3.1600502,8.91405
1680000641459,1180629814365643,3.006,3.14805,8.96205
1680000641461,1180629816867489,3.042,3.18405,8.78505
1680000641465,1180629819369412,3.0349503,3.1380002,8.79405
1680000641470,1180629821871489,2.9599502,3.1240501,8.83005
1680000641470,1180629824373412,3.0900002,3.21495,8.95695
1680000641472,1180629826875489,3.0610502,3.2080503,8.9740505
1680000641474,1180629829377643,3.0270002,3.28005,8.892
1680000641478,1180629831879600,3.1620002,3.18405,8.871
1680000641480,1180629834381677,3.14505,3.2010002,8.854051
1680000641482,1180629836883523,3.13995,3.31095,8.94495
1680000641483,1180629839385446,3.1639502,3.2599502,8.887951
1680000641486,1180629841887523,3.1020002,3.32505,8.907001
1680000641489,1180629844389744,3.1519501,3.3280501,8.896951
1680000641492,1180629846891590,3.183,3.25605,8.9740505
1680000641494,1180629849393667,3.2260501,3.2320502,9.036
1680000641497,1180629851895590,3.1620002,3.213,8.83005
1680000641500,1180629854397672,3.2410502,3.1690502,8.95905
1680000641501,1180629856899595,3.2050502,3.1740003,9.004951
1680000641503,1180629859401672,3.147,3.1309502,8.93805
1680000641506,1180629861903826,3.14505,3.14805,9.0379505
1680000641508,1180629864405672,3.11805,3.1890001,8.923051
1680000641511,1180629866907581,3.2430003,3.1690502,8.92605
1680000641516,1180629869409658,3.1710002,3.1360502,9.016951
1680000641519,1180629871911581,3.2020502,3.0349503,8.904
1680000641521,1180629874413658,3.2569501,3.1240501,8.940001
1680000641522,1180629876915812,3.1980002,3.2370002,8.83695
1680000641523,1180629879417735,3.21195,3.114,8.93505
1680000641527,1180629881919812,3.21,3.1309502,8.856
1680000641528,1180629884421658,3.1710002,3.2250001,8.74905
1680000641531,1180629886923581,3.1950002,3.1650002,8.859
1680000641534,1180629889425735,3.17595,3.17895,8.892
1680000641537,1180629891927812,3.11805,3.1669502,8.78895
1680000641539,1180629894429735,3.10695,3.2220001,8.751
1680000641547,1180629896931812,3.0270002,3.3130503,8.694
1680000641547,1180629899433652,3.1900501,3.25095,8.80095
1680000641547,1180629901935575,3.10905,3.3300002,8.809051
1680000641549,1180629904437729,3.1020002,3.2629502,8.751
1680000641552,1180629906939815,3.1260002,3.3060002,8.811001
1680000641554,1180629909441738,3.0679502,3.31605,8.811001
1680000641557,1180629911943815,3.15405,3.34905,8.79195
1680000641559,1180629914445738,3.0730503,3.3300002,8.77305
1680000641561,1180629916947815,3.0270002,3.4110003,8.82495
1680000641564,1180629919449743,3.08295,3.3660002,8.72505
1680000641567,1180629921951820,3.01605,3.4429502,8.809051
1680000641569,1180629924453743,3.0180001,3.3780003,8.78205
1680000641572,1180629926955820,2.9989502,3.3970501,8.856
1680000641574,1180629929457758,3.0199502,3.3280501,8.844001
1680000641577,1180629931959835,3.07095,3.426,8.799001
1680000641579,1180629934461758,3.042,3.4660501,8.890051
1680000641581,1180629936963835,3.0679502,3.4950001,8.799001
1680000641584,1180629939465753,3.15,3.4399502,8.77305
1680000641586,1180629941967830,3.2070003,3.3660002,8.82495
1680000641590,1180629944469753,3.14505,3.38505,8.854051
1680000641592,1180629946971830,3.21705,3.38295,8.835
1680000641593,1180629949473753,3.13995,3.3990002,8.919001
1680000641596,1180629951975916,3.25005,3.45,8.81295
1680000641598,1180629954477993,3.1879501,3.5119503,8.835
1680000641601,1180629956979916,3.2929502,3.3709502,8.884951
1680000641604,1180629959481993,3.2770503,3.41895,8.878051
1680000641606,1180629961983921,3.3360002,3.41595,8.908951
1680000641608,1180629964485998,3.2329502,3.45195,8.896951
1680000641611,1180629966987921,3.2689502,3.37995,8.895
1680000641613,1180629969489998,3.3679502,3.4140003,8.916
1680000641617,1180629971991926,3.3360002,3.3780003,8.93805
1680000641619,1180629974494003,3.3049502,3.4350002,8.928
1680000641621,1180629976995926,3.2910001,3.35205,8.908951
1680000641623,1180629979498003,3.3319502,3.4039502,8.81595
1680000641628,1180629981999950,3.2719502,3.3420002,8.93295
1680000641630,1180629984502027,3.2380502,3.2700002,8.916
1680000641632,1180629987003950,3.2209501,3.3079503,8.871
1680000641633,1180629989506027,3.3439503,3.3919501,8.809051
1680000641636,1180629992007974,3.348,3.354,8.847
1680000641638,1180629994510051,3.3390002,3.2719502,8.78895
1680000641641,1180629997011974,3.2670002,3.3130503,8.809051
1680000641644,1180629999514128,3.2740502,3.3970501,8.719951
1680000641647,1180630002016200,3.3289502,3.4350002,8.868
1680000641649,1180630004518046,3.28605,3.426,8.883
1680000641651,1180630007019969,3.2569501,3.32505,8.94495
1680000641654,1180630009522046,3.28605,3.4039502,8.91405
1680000641657,1180630012023984,3.2359502,3.4470003,8.979
1680000641659,1180630014526061,3.21,3.4620001,8.93805
1680000641661,1180630017028215,3.1980002,3.423,8.964001
1680000641667,1180630019530138,3.1980002,3.4710002,8.916
1680000641668,1180630022031993,3.2380502,3.5140502,8.986051
1680000641670,1180630024534070,3.2310002,3.52395,8.96895
1680000641672,1180630027035993,3.3340502,3.45,8.884951
1680000641675,1180630029538070,3.28905,3.5410502,8.93505
1680000641678,1180630032040239,3.4390502,3.5050502,8.952001
1680000641680,1180630034542162,3.3010502,3.5119503,9.031051
1680000641682,1180630037044239,3.3439503,3.5050502,8.904
1680000641684,1180630039546162,3.3289502,3.4429502,8.96205
1680000641687,1180630042048229,3.3340502,3.4830003,8.872951
1680000641689,1180630044550075,3.35295,3.5100002,8.835
1680000641691,1180630047052229,3.3769503,3.459,8.99295
1680000641694,1180630049554383,3.4680002,3.52395,8.80095
1680000641697,1180630052056229,3.4110003,3.5740502,8.90205
1680000641699,1180630054558152,3.4039502,3.5460002,8.851951
1680000641702,1180630057060229,3.4510503,3.4950001,8.93805
1680000641704,1180630059562152,3.3750002,3.5959501,8.81805
1680000641707,1180630062064244,3.4080002,3.52395,8.872951
1680000641709,1180630064566167,3.4150503,3.4620001,8.98305
1680000641711,1180630067068244,3.4470003,3.5050502,8.979
1680000641714,1180630069570167,3.4750502,3.4759502,8.80095
1680000641717,1180630072072244,3.3940501,3.5410502,8.8279505
1680000641719,1180630074574393,3.3679502,3.52905,8.839951
1680000641721,1180630077076316,3.387,3.4830003,8.80605
1680000641724,1180630079578162,3.4350002,3.4639502,8.81295
1680000641726,1180630082080239,3.4150503,3.6130502,8.835
1680000641728,1180630084582162,3.3409503,3.6010501,8.856
1680000641731,1180630087084239,3.4710002,3.5380502,8.863951
1680000641734,1180630089586393,3.4780502,3.555,8.887951
1680000641737,1180630092088316,3.4660501,3.4999502,8.896951
1680000641740,1180630094590360,3.5659502,3.55695,8.854051
1680000641743,1180630097092283,3.4950001,3.4830003,8.80395
1680000641744,1180630099594129,3.59805,3.45,8.93295
1680000641747,1180630102096206,3.5520003,3.41595,8.895
1680000641749,1180630104598129,3.5380502,3.3730502,8.92605
1680000641751,1180630107100268,3.55395,3.34695,8.851951
1680000641754,1180630109602345,3.4830003,3.3660002,8.715
1680000641757,1180630112104268,3.5160003,3.3970501,8.75595
1680000641759,1180630114606345,3.59295,3.3610501,8.884951
1680000641761,1180630117108268,3.5520003,3.4069502,8.88
1680000641764,1180630119610095,3.6019502,3.25305,8.847
1680000641767,1180630122112480,3.5760002,3.3370502,8.931001
1680000641769,1180630124614403,3.6139503,3.3589501,8.844001
1680000641772,1180630127116249,3.56205,3.2700002,8.892
1680000641774,1180630129618321,3.588,3.2220001,8.77005
1680000641779,1180630132120244,3.5710502,3.2650502,8.823
1680000641781,1180630134622321,3.55695,3.21,8.823
1680000641782,1180630137124230,3.6169503,3.25605,8.821051
1680000641784,1180630139626384,3.5710502,3.31095,8.76795
1680000641787,1180630142128461,3.5860503,3.14295,8.67405
1680000641789,1180630144630384,3.5470502,3.282,8.63805
1680000641792,1180630147132230,3.6360002,3.2029502,8.575951
1680000641794,1180630149634283,3.5710502,3.2320502,8.6980505
1680000641796,1180630152136206,3.58995,3.2050502,8.727
1680000641799,1180630154638360,3.5140502,3.246,8.719951
1680000641801,1180630157140437,3.48495,3.1380002,8.718
1680000641804,1180630159642360,3.5299501,3.2269502,8.62395
1680000641806,1180630162144446,3.5110502,3.1309502,8.569051
1680000641810,1180630164646369,3.5470502,3.1890001,8.710051
1680000641811,1180630167148215,3.5350502,3.213,8.563951
1680000641815,1180630169650278,3.5640001,3.2389503,8.542951
1680000641819,1180630172152432,3.5779502,3.1890001,8.563951
1680000641820,1180630174654355,3.62895,3.1890001,8.55
1680000641822,1180630177156432,3.52095,3.2410502,8.734051
1680000641824,1180630179658355,3.624,3.2320502,8.562
1680000641827,1180630182160427,3.4680002,3.3349502,8.65305
1680000641829,1180630184662350,3.6169503,3.3079503,8.65995
1680000641831,1180630187164427,3.59805,3.18105,8.731951
1680000641834,1180630189666350,3.5419502,3.34695,8.63595
1680000641837,1180630192168427,3.55695,3.2080503,8.65005
1680000641839,1180630194670350,3.52605,3.2749503,8.557051
1680000641841,1180630197172427,3.5809503,3.4069502,8.55195
1680000641844,1180630199674350,3.5020502,3.34695,8.47305
1680000641847,1180630202176504,3.6049502,3.3970501,8.574
1680000641849,1180630204678350,3.52095,3.3709502,8.622001
1680000641853,1180630207180504,3.58995,3.3730502,8.45205
1680000641855,1180630209682581,3.5640001,3.45195,8.422951
1680000641858,1180630212184441,3.5779502,3.48795,8.50695
1680000641860,1180630214686364,3.58995,3.4330502,8.404051
1680000641862,1180630217188441,3.52605,3.4710002,8.52795
1680000641864,1180630219690595,3.51795,3.4830003,8.48295
1680000641867,1180630222192518,3.55695,3.5119503,8.533051
1680000641869,1180630224694600,3.5350502,3.52605,8.434951
1680000641871,1180630227196523,3.5040002,3.555,8.52795
1680000641874,1180630229698600,3.5059502,3.5020502,8.51595
1680000641876,1180630232200523,3.55695,3.5650501,8.55
1680000641879,1180630234702600,3.5380502,3.6439502,8.52105
1680000641881,1180630237204528,3.5449502,3.55995,8.48505
1680000641884,1180630239706605,3.6000001,3.5790002,8.385
1680000641887,1180630242208528,3.6090002,3.6649501,8.425051
1680000641890,1180630244710663,3.6019502,3.591,8.443951
1680000641892,1180630247212509,3.6049502,3.62505,8.47095
1680000641894,1180630249714586,3.6480002,3.6990001,8.49495
1680000641899,1180630252216509,3.7200003,3.7750502,8.502001
1680000641900,1180630254718586,3.6769502,3.8140502,8.562
1680000641901,1180630257220499,3.6859503,3.7750502,8.598001
1680000641904,1180630259722576,3.7770002,3.80205,8.50395
1680000641907,1180630262224730,3.8029501,3.7729502,8.583
1680000641909,1180630264726653,3.76305,3.7900503,8.611951
1680000641911,1180630267228499,3.8370001,3.8400002,8.667001
1680000641914,1180630269730581,3.8179502,3.76095,8.533051
1680000641917,1180630272232504,3.8490002,3.8500502,8.53995
1680000641919,1180630274734581,3.8800502,3.831,8.586
1680000641922,1180630277236735,3.8029501,3.8209503,8.599951
1680000641924,1180630279738672,3.8539503,3.9019501,8.646001
1680000641928,1180630282240749,3.8830502,3.933,8.61705
1680000641930,1180630284742672,3.9709501,3.8500502,8.658
1680000641932,1180630287244749,3.9139502,3.8590503,8.6310005
1680000641934,1180630289746691,3.8920503,3.8950503,8.53995
1680000641938,1180630292248845,3.9259503,3.7900503,8.643001
1680000641939,1180630294750922,3.9760501,3.8140502,8.502001
1680000641942,1180630297252768,3.9589503,3.8470502,8.569051
1680000641944,1180630299754682,3.9850502,3.9019501,8.467951
1680000641947,1180630302256759,3.93495,3.8070002,8.63595
1680000641949,1180630304758682,3.86295,3.9139502,8.586
1680000641952,1180630307260759,3.9300003,3.8190002,8.55195
1680000641954,1180630309762913,3.9180002,3.80205,8.48505
1680000641957,1180630312264836,3.9160502,3.8539503,8.542951
1680000641959,1180630314766682,3.86805,3.8419502,8.646001
1680000641961,1180630317268759,3.9139502,3.8899503,8.6980505
1680000641965,1180630319770691,3.8920503,3.9379501,8.583
1680000641969,1180630322272768,3.8749502,3.864,8.59305
1680000641970,1180630324774922,3.9160502,3.8740501,8.611951
1680000641972,1180630327276845,3.8920503,3.9769502,8.67
1680000641974,1180630329778922,3.8370001,3.9720001,8.67405
1680000641977,1180630332280821,3.8710501,3.864,8.646001
1680000641979,1180630334782667,3.897,3.8779502,8.64105
1680000641981,1180630337284744,3.82995,3.86595,8.607
1680000641984,1180630339786667,3.7699502,3.86595,8.72505
1680000641989,1180630342288841,3.8419502,3.8520002,8.62905
1680000641989,1180630344790918,3.9019501,3.96495,8.63805
1680000641992,1180630347292841,3.8470502,3.8760002,8.587951
1680000641994,1180630349794918,3.8940003,3.9,8.581051
1680000641997,1180630352296841,3.8730001,3.9570003,8.63805
1680000641999,1180630354798903,3.8830502,3.99795,8.67405
1680000642003,1180630357300826,3.8590503,4.0020003,8.677051
1680000642005,1180630359802980,3.8779502,4.0009503,8.734051
1680000642007,1180630362304797,3.89895,4.065,8.6310005
1680000642009,1180630364806874,3.86805,3.969,8.62905
1680000642011,1180630367308797,3.9810002,3.9859502,8.6980505
1680000642014,1180630369810874,4.0009503,4.0960503,8.715
1680000642017,1180630372312797,4.04505,4.104,8.731951
1680000642019,1180630374814956,4.01895,4.032,8.78205
1680000642021,1180630377317033,4.038,4.104,8.80605
1680000642024,1180630379818956,4.05,3.9889503,8.76795
1680000642027,1180630382320802,4.14795,4.065,8.62695
1680000642029,1180630384822874,4.2109504,4.1059504,8.68395
1680000642032,1180630387324797,4.22295,4.15605,8.79405
1680000642034,1180630389826951,4.2319503,4.06005,8.72505
1680000642037,1180630392329028,4.2060003,4.1080503,8.752951
1680000642040,1180630394830932,4.26105,4.077,8.731951
1680000642043,1180630397333009,4.23495,4.092,8.79405
1680000642044,1180630399834855,4.359,4.05795,8.731951
1680000642047,1180630402336778,4.3159504,4.1059504,8.787001
1680000642049,1180630404838932,4.27995,4.1659503,8.6959505
1680000642051,1180630407340995,4.302,4.1059504,8.764951
1680000642054,1180630409842918,4.3879504,4.09905,8.883
1680000642059,1180630412344995,4.3900504,4.02705,8.7289505
1680000642060,1180630414846918,4.4380503,3.96495,8.809051
1680000642061,1180630417349019,4.42605,4.0020003,8.78205
1680000642064,1180630419850942,4.3500004,4.03905,8.73705
1680000642067,1180630422353019,4.3780503,3.9430501,8.68605
1680000642070,1180630424854942,4.3969502,3.9,8.713051
1680000642072,1180630427357023,4.3500004,3.9070501,8.655001
1680000642074,1180630429858869,4.3180504,3.8860502,8.562
1680000642078,1180630432361100,4.3780503,3.8539503,8.734051
1680000642080,1180630434863177,4.3879504,3.8500502,8.655001
1680000642083,1180630437365100,4.2900004,3.79695,8.734051
1680000642084,1180630439866975,4.38495,3.8040001,8.55
1680000642087,1180630442369052,4.3110003,3.7780502,8.587951
1680000642089,1180630444870975,4.275,3.8419502,8.52795
1680000642092,1180630447373129,4.287,3.76305,8.443951
1680000642094,1180630449875221,4.203,3.80205,8.382
1680000642098,1180630452377144,4.26105,3.83295,8.36505
1680000642099,1180630454879221,4.22505,3.759,8.41605
1680000642102,1180630457381144,4.242,3.7180502,8.358001
1680000642104,1180630459882965,4.27995,3.76095,8.290951
1680000642107,1180630462385042,4.2130504,3.7710001,8.413051
1680000642109,1180630464887196,4.191,3.627,8.385
1680000642112,1180630467389119,4.26795,3.6169503,8.34195
1680000642115,1180630469891206,4.254,3.7159503,8.36505
1680000642119,1180630472393129,4.19595,3.6700501,8.313001
1680000642121,1180630474895206,4.2130504,3.627,8.443951
1680000642123,1180630477397052,4.24695,3.6150002,8.454
1680000642124,1180630479899206,4.2730503,3.5740502,8.370001
1680000642127,1180630482401143,4.2319503,3.7009501,8.334001
1680000642129,1180630484903220,4.2780004,3.59805,8.32995
1680000642131,1180630487405143,4.3110003,3.6130502,8.36505
1680000642134,1180630489907220,4.191,3.5959501,8.33205
1680000642137,1180630492409148,4.22295,3.6030002,8.3869505
1680000642139,1180630494911225,4.275,3.6169503,8.349
1680000642141,1180630497413148,4.11495,3.591,8.358001
1680000642144,1180630499915225,4.203,3.62505,8.406
1680000642147,1180630502417379,4.16295,3.7080002,8.313001
1680000642149,1180630504919307,4.2319503,3.7039502,8.368051
1680000642153,1180630507421153,4.182,3.7060502,8.32695
1680000642155,1180630509923230,4.26105,3.6030002,8.358001
1680000642158,1180630512425384,4.2390003,3.7750502,8.45895
1680000642159,1180630514927302,4.3110003,3.7680001,8.454
1680000642162,1180630517429379,4.3159504,3.7710001,8.394
1680000642164,1180630519931302,4.41405,3.8089502,8.368051
1680000642173,1180630522433379,4.42395,3.8040001,8.437051
1680000642173,1180630524935225,4.47195,3.831,8.37705
1680000642173,1180630527437384,4.4929504,3.8470502,8.418
1680000642175,1180630529939307,4.49805,3.8520002,8.266951
1680000642177,1180630532441384,4.5600004,3.8539503,8.397
1680000642179,1180630534943307,4.58895,3.828,8.45205
1680000642181,1180630537445397,4.63695,3.8400002,8.422951
1680000642184,1180630539947320,4.65105,3.83505,8.406
1680000642187,1180630542449397,4.69395,3.80205,8.33205
1680000642190,1180630544951316,4.59105,3.7510502,8.397
1680000642192,1180630547453393,4.5820503,3.8110502,8.44695
1680000642194,1180630549955316,4.572,3.7060502,8.47095
1680000642197,1180630552457393,4.563,3.6990001,8.368051
1680000642199,1180630554959316,4.56495,3.7540503,8.380051
1680000642201,1180630557461412,4.539,3.69405,8.278951
1680000642204,1180630559963566,4.54395,3.7080002,8.301001
1680000642207,1180630562465489,4.464,3.6169503,8.31795
1680000642209,1180630564967335,4.51695,3.6439502,8.34195
1680000642212,1180630567469412,4.4500504,3.6840003,8.23095
1680000642214,1180630569971354,4.4380503,3.5809503,8.233951
1680000642217,1180630572473431,4.45695,3.7470002,8.236051
1680000642219,1180630574975354,4.47195,3.7849503,8.241
1680000642221,1180630577477508,4.3759503,3.7510502,8.286
1680000642228,1180630579979600,4.4290504,3.7350001,8.274
1680000642228,1180630582481523,4.359,3.7849503,8.187
1680000642233,1180630584983600,4.32795,3.7750502,8.253
1680000642233,1180630587485533,4.326,3.7870502,8.274
1680000642234,1180630589987610,4.242,3.933,8.19495
1680000642237,1180630592489533,4.2709503,3.8380501,8.20995
1680000642239,1180630594991610,4.28205,3.9480002,8.3220005
1680000642242,1180630597493533,4.23495,4.0140004,8.158951
1680000642244,1180630599995605,4.13595,3.9550502,8.229
1680000642247,1180630602497759,4.1530504,4.077,8.233951
1680000642249,1180630604999682,4.1989503,4.0350003,8.112
1680000642252,1180630607501528,4.1599503,4.11105,8.149051
1680000642254,1180630610003591,4.20795,4.1779504,8.215051
1680000642258,1180630612505514,4.242,4.149,8.121
1680000642259,1180630615007591,4.21995,4.2259502,8.21895
1680000642262,1180630617509514,4.1790004,4.2900004,8.14005
1680000642266,1180630620011658,4.3039503,4.3000503,8.085
1680000642268,1180630622513735,4.1530504,4.341,8.158951
1680000642271,1180630625015581,4.2510004,4.4220004,8.122951
1680000642273,1180630627517523,4.25895,4.43205,8.092051
1680000642275,1180630630019600,4.2060003,4.36905,8.092051
1680000642278,1180630632521523,4.203,4.4100003,8.154
1680000642280,1180630635023677,4.19595,4.539,8.11905
1680000642282,1180630637525754,4.3500004,4.5370502,8.158951
1680000642284,1180630640027663,4.2780004,4.4770503,8.17905
1680000642287,1180630642529740,4.25595,4.458,8.245951
1680000642289,1180630645031663,4.26795,4.47195,8.239051
1680000642292,1180630647533740,4.2709503,4.4560504,8.191051
1680000642294,1180630650035894,4.3570504,4.48395,8.32005
1680000642297,1180630652537797,4.27995,4.446,8.182051
1680000642299,1180630655039643,4.3180504,4.5420003,8.2890005
1680000642303,1180630657541720,4.29405,4.62795,8.187
1680000642306,1180630660043643,4.3380003,4.551,8.30595
1680000642309,1180630662545720,4.347,4.57095,8.161051
1680000642309,1180630665047643,4.41195,4.65,8.254951
1680000642311,1180630667549797,4.3900504,4.65,8.28195
1680000642314,1180630670051874,4.4809504,4.6470003,8.25
1680000642317,1180630672553802,4.4500504,4.635,8.397
1680000642319,1180630675055648,4.43295,4.6540504,8.239051
1680000642321,1180630677557725,4.57695,4.6090503,8.262
1680000642324,1180630680059648,4.6080003,4.65705,8.20695
1680000642327,1180630682561802,4.611,4.6140003,8.35095
1680000642329,1180630685063879,4.563,4.58295,8.262
1680000642332,1180630687565802,4.584,4.6660504,8.269951
1680000642334,1180630690067879,4.596,4.69995,8.301001
1680000642338,1180630692569735,4.60605,4.5540004,8.32995
1680000642341,1180630695071658,4.50495,4.59495,8.260051
1680000642342,1180630697573735,4.5,4.611,8.28405
1680000642344,1180630700075889,4.4809504,4.6140003,8.302951
1680000642347,1180630702577812,4.512,4.5919504,8.277
1680000642349,1180630705079889,4.4380503,4.70895,8.35095
1680000642352,1180630707581812,4.47195,4.6470003,8.358001
1680000642354,1180630710083889,4.3830004,4.5990005,8.253
1680000642357,1180630712585812,4.48395,4.635,8.229
1680000642359,1180630715087956,4.4170504,4.66905,8.23095
1680000642362,1180630717590033,4.4050503,4.6069503,8.101951
1680000642364,1180630720091956,4.2709503,4.64505,8.29605
1680000642367,1180630722593802,4.254,4.63005,8.20695
1680000642369,1180630725095865,4.3639503,4.63005,8.25
1680000642372,1180630727597788,4.2660003,4.62795,8.28195
1680000642375,1180630730099942,4.3060503,4.6810503,8.2240505
1680000642379,1180630732602019,4.38495,4.67805,8.2240505
1680000642381,1180630735103918,4.32105,4.5799503,8.134951
1680000642383,1180630737605995,4.24905,4.61595,8.215051
1680000642384,1180630740107841,4.3230004,4.5990005,8.269951
1680000642388,1180630742609764,4.29705,4.5679502,8.28195
1680000642389,1180630745111841,4.29705,4.55595,8.19495
1680000642392,1180630747613995,4.3330503,4.51095,8.20995
1680000642394,1180630750115918,4.24695,4.4560504,8.257951
1680000642397,1180630752617995,4.2900004,4.518,8.167951
1680000642399,1180630755119918,4.34205,4.4700003,8.25
1680000642402,1180630757621980,4.3570504,4.434,8.239051
1680000642404,1180630760123826,4.4290504,4.43205,8.21895
1680000642407,1180630762625980,4.3710003,4.374,8.125951
1680000642409,1180630765127903,4.3969502,4.43895,8.149051
1680000642412,1180630767629990,4.42395,4.4749503,8.193001
1680000642416,1180630770131836,4.467,4.353,8.05395
1680000642419,1180630772633990,4.3710003,4.46805,8.148001
1680000642421,1180630775136144,4.314,4.31895,8.215051
1680000642422,1180630777637990,4.335,4.434,8.064
1680000642425,1180630780139913,4.4290504,4.293,8.14005
1680000642427,1180630782641990,4.44495,4.37895,8.08005
1680000642434,1180630785143913,4.4359503,4.2660003,8.18595
1680000642434,1180630787645980,4.4809504,4.42395,8.061001
1680000642435,1180630790148134,4.45695,4.30695,8.17905
1680000642437,1180630792650057,4.4209504,4.28805,8.181001
1680000642439,1180630795152134,4.4479504,4.293,8.121
1680000642442,1180630797653961,4.50495,4.32105,8.167951
1680000642444,1180630800155884,4.4880004,4.2979503,8.128051
1680000642447,1180630802657961,4.5150003,4.36905,8.109
1680000642449,1180630805160115,4.551,4.26195,8.04705
1680000642453,1180630807662047,4.5220504,4.42695,8.18595
1680000642456,1180630810164124,4.6150503,4.33605,8.13
1680000642458,1180630812666047,4.54605,4.27395,8.163
1680000642460,1180630815168124,4.59105,4.242,8.20995
1680000642462,1180630817669970,4.57905,4.2829504,8.11905
1680000642464,1180630820171884,4.49595,4.1989503,8.167951
1680000642468,1180630822674038,4.50495,4.3099504,8.19795
1680000642470,1180630825176115,4.42605,4.2109504,8.175
1680000642472,1180630827678038,4.47195,4.24695,8.25
1680000642474,1180630830180115,4.467,4.25895,8.17395
1680000642477,1180630832682023,4.512,4.3170004,8.1
1680000642479,1180630835184100,4.53405,4.197,8.145
1680000642482,1180630837686023,4.55595,4.269,8.175
1680000642484,1180630840188177,4.6129503,4.2259502,8.191051
1680000642487,1180630842690249,4.668,4.21605,8.175
1680000642490,1180630845192095,4.54395,4.1010003,8.205
1680000642492,1180630847694018,4.6420503,4.2520504,8.269951
1680000642494,1180630850196095,4.65105,4.1269503,8.236051
1680000642497,1180630852698254,4.6129503,4.209,8.0779505
1680000642499,1180630855200177,4.7059503,4.1680503,8.06595
1680000642501,1180630857702254,4.7059503,4.11795,8.13
1680000642504,1180630860204177,4.69395,4.03905,8.253
1680000642507,1180630862706240,4.78305,4.1200504,8.109
1680000642509,1180630865208086,4.75395,4.092,8.31495
1680000642512,1180630867710009,4.7400002,4.0459504,8.089951
1680000642514,1180630870212163,4.70205,4.1059504,8.104051
1680000642517,1180630872714244,4.761,4.137,8.2240505
1680000642519,1180630875216167,4.7140503,3.9889503,8.137051
1680000642521,1180630877718244,4.76595,4.044,8.137051
1680000642525,1180630880220167,4.70895,4.0350003,8.257951
1680000642529,1180630882722240,4.7590504,4.0020003,8.181001
1680000642530,1180630885224163,4.7850003,4.137,8.21205
1680000642533,1180630887726240,4.7970004,4.11105,8.154
1680000642534,1180630890228163,4.8360004,4.053,8.215051
1680000642538,1180630892730240,4.72305,4.0630503,8.21205
1680000642540,1180630895232163,4.8190503,3.9810002,8.16705
1680000642542,1180630897734240,4.8520503,4.0339503,8.298
1680000642544,1180630900236163,4.7850003,4.06995,8.227051
1680000642547,1180630902738317,4.7520003,4.0279503,8.227051
1680000642549,1180630905240394,4.7970004,3.99795,8.269951
1680000642552,1180630907742240,4.7710505,3.9499502,8.254951
1680000642554,1180630910244163,4.72305,3.9409502,8.262
1680000642557,1180630912746240,4.7640004,3.9139502,8.25
1680000642559,1180630915248163,4.7380505,3.9550502,8.334001
1680000642562,1180630917750317,4.64895,3.92895,8.18595
1680000642566,1180630920252394,4.6870503,3.9310503,8.3220005
1680000642569,1180630922754317,4.7140503,3.9450002,8.229
1680000642571,1180630925256394,4.7449503,3.9019501,8.221951
1680000642573,1180630927758317,4.8360004,3.8830502,8.32695
1680000642576,1180630930260394,4.8120003,3.8899503,8.35305
1680000642578,1180630932762240,4.88595,3.8470502,8.32995
1680000642580,1180630935264394,4.7850003,3.969,8.262
1680000642582,1180630937766326,4.7899504,3.9379501,8.3869505
1680000642586,1180630940268403,4.7640004,3.9190502,8.34405
1680000642587,1180630942770326,4.8790503,3.8860502,8.31495
1680000642589,1180630945272480,4.86705,3.828,8.25
1680000642592,1180630947774326,4.8640504,3.9049501,8.368051
1680000642594,1180630950276389,4.8240004,3.8860502,8.442
1680000642597,1180630952778312,4.7689505,3.7920003,8.3560505
1680000642600,1180630955280389,4.85505,3.9139502,8.3869505
1680000642603,1180630957782312,4.872,3.8740501,8.31495
1680000642606,1180630960284466,4.83795,3.828,8.385
1680000642608,1180630962786543,4.79505,3.8400002,8.2890005
1680000642610,1180630965288466,4.821,3.9120002,8.361
1680000642612,1180630967790543,4.85505,3.8569503,8.41605
1680000642614,1180630970292485,4.85505,3.80205,8.33895
1680000642618,1180630972794562,4.87605,3.831,8.349
1680000642620,1180630975296485,4.833,3.759,8.404051
1680000642622,1180630977798562,4.80495,3.7900503,8.380051
1680000642624,1180630980300485,4.7689505,3.9430501,8.31495
1680000642627,1180630982802557,4.8450003,3.732,8.29605
1680000642629,1180630985304480,4.7730002,3.7560003,8.35095
1680000642632,1180630987806557,4.8499503,3.8070002,8.32005
1680000642634,1180630990308494,4.8310504,3.7470002,8.253
1680000642637,1180630992810648,4.776,3.7129502,8.20695
1680000642641,1180630995312494,4.7569504,3.79695,8.227051
1680000642643,1180630997814571,4.716,3.7540503,8.28405
1680000642644,1180631000316494,4.66995,3.7680001,8.28195
1680000642647,1180631002818576,4.79505,3.7510502,8.2240505
1680000642649,1180631005320499,4.69005,3.6840003,8.217
1680000642652,1180631007822653,4.66305,3.7870502,8.34405
1680000642655,1180631010324730,4.656,3.7849503,8.163
1680000642658,1180631012826581,4.728,3.8190002,8.21895
1680000642660,1180631015328504,4.6009502,3.8209503,8.274
1680000642662,1180631017830581,4.70205,3.732,8.21205
1680000642665,1180631020332504,4.63005,3.7870502,8.17395
1680000642668,1180631022834596,4.68195,3.7800002,8.245951
1680000642670,1180631025336750,4.63695,3.8470502,8.257951
1680000642672,1180631027838673,4.53405,3.8590503,8.269951
1680000642675,1180631030340750,4.596,3.8500502,8.25
1680000642679,1180631032842701,4.563,3.8230503,8.125951
1680000642680,1180631035344778,4.6150503,3.8779502,8.163
1680000642682,1180631037846701,4.64895,3.8710501,8.203051
1680000642684,1180631040348855,4.66095,3.795,8.121
1680000642687,1180631042850711,4.6270504,3.8190002,8.161051
1680000642689,1180631045352788,4.584,3.8209503,8.2240505
1680000642692,1180631047854711,4.6540504,3.7009501,8.097
1680000642694,1180631050356788,4.5750003,3.8209503,8.154
1680000642698,1180631052858725,4.6150503,3.7780502,8.23095
1680000642699,1180631055360879,4.57905,3.72795,8.193001
1680000642702,1180631057862956,4.52895,3.696,8.128051
1680000642704,1180631060364879,4.6249504,3.7510502,8.17395
1680000642707,1180631062866735,4.6129503,3.7230003,8.128051
1680000642709,1180631065368812,4.59105,3.7489502,8.088
1680000642712,1180631067870735,4.5199504,3.795,8.071051
1680000642716,1180631070372831,4.5220504,3.8470502,8.19795
1680000642719,1180631072874985,4.5700502,3.7420502,8.035951
1680000642721,1180631075376908,4.5150003,3.8140502,8.121
1680000642723,1180631077878985,4.5,3.7830002,8.03505
1680000642725,1180631080380831,4.58895,3.8569503,8.05395
1680000642727,1180631082882739,4.407,3.8899503,8.1
1680000642730,1180631085384893,4.44495,3.8380501,8.17395
1680000642732,1180631087887047,4.5409503,3.8880002,8.148001
1680000642735,1180631090388893,4.4809504,3.8569503,8.04195
1680000642738,1180631092890970,4.4500504,3.8160002,8.002951
1680000642740,1180631095392893,4.49595,3.8500502,8.088
1680000642742,1180631097894970,4.41405,3.8590503,8.02095
1680000642744,1180631100396893,4.431,3.7780502,8.0779505
1680000642747,1180631102898970,4.3879504,3.89805,8.04195
1680000642749,1180631105401095,4.42395,3.8160002,8.017051
1680000642753,1180631107903018,4.419,3.8520002,8.005051
1680000642756,1180631110404864,4.491,3.9379501,8.08005
1680000642758,1180631112906941,4.44495,3.933,8.182051
1680000642760,1180631115408873,4.4550004,3.8740501,8.03505
1680000642762,1180631117911027,4.4380503,3.9070501,8.092051
1680000642764,1180631120412873,4.58895,3.9889503,8.191051
1680000642767,1180631122914950,4.479,4.0339503,8.125951
1680000642769,1180631125416873,4.5199504,4.044,8.101951
1680000642772,1180631127918960,4.42605,3.9,8.20695
1680000642775,1180631130421114,4.4760003,3.8740501,8.205
1680000642778,1180631132923037,4.37295,3.9240003,8.133
1680000642780,1180631135425114,4.5100503,3.8689501,8.20695
1680000642782,1180631137926960,4.5100503,3.8880002,8.049001
1680000642784,1180631140428883,4.51695,3.8470502,8.175
1680000642787,1180631142930960,4.45695,3.8830502,8.167951
1680000642791,1180631145433114,4.49595,3.8929503,8.121
1680000642797,1180631147935037,4.47405,3.8500502,8.163
1680000642797,1180631150437114,4.47405,3.9240003,8.03505
1680000642797,1180631152939037,4.431,3.8740501,8.149051
1680000642799,1180631155441114,4.4430003,3.9310503,8.125951
1680000642802,1180631157943037,4.39305,3.9910502,8.203051
1680000642804,1180631160445114,4.431,4.0009503,8.241
1680000642807,1180631162947268,4.491,3.969,8.073
1680000642809,1180631165449191,4.359,3.9619503,8.064
1680000642812,1180631167951037,4.26795,3.96705,8.071051
1680000642814,1180631170453114,4.40205,4.0020003,8.17905
1680000642818,1180631172955042,4.32105,4.032,8.193001
1680000642819,1180631175457119,4.347,4.02705,8.245951
1680000642822,1180631177959273,4.24695,4.0080004,8.148001
1680000642824,1180631180461191,4.3039503,4.00995,8.20695
1680000642829,1180631182963268,4.3110003,4.0410004,8.175
1680000642830,1180631185465114,4.326,4.065,8.19795
1680000642832,1180631187967037,4.3900504,3.9430501,8.116051
1680000642835,1180631190469104,4.3500004,3.99795,8.205
1680000642837,1180631192971027,4.3060503,4.02495,8.266951
1680000642839,1180631195473181,4.3830004,3.96495,8.290951
1680000642842,1180631197975258,4.275,4.044,8.20005
1680000642845,1180631200477171,4.38105,3.99795,8.236051
1680000642847,1180631202979248,4.40205,3.9409502,8.182051
1680000642849,1180631205481094,4.3639503,3.969,8.260051
1680000642852,1180631207983248,4.36905,4.0350003,8.272051
1680000642855,1180631210485402,4.3900504,3.9810002,8.253
1680000642858,1180631212987312,4.38495,3.9049501,8.28195
1680000642860,1180631215489158,4.44495,3.9720001,8.382
1680000642862,1180631217991235,4.431,4.017,8.361
1680000642867,1180631220493153,4.42395,4.077,8.32005
1680000642870,1180631222995230,4.4550004,4.02495,8.28195
1680000642871,1180631225497153,4.479,4.06995,8.313001
1680000642873,1180631227999307,4.45695,4.02495,8.19495
1680000642876,1180631230501384,4.4479504,4.089,8.31795
1680000642879,1180631233003225,4.4599504,4.07205,8.3220005
1680000642880,1180631235505148,4.3969502,4.0960503,8.30805
1680000642882,1180631238007225,4.45305,4.02105,8.21895
1680000642885,1180631240509148,4.539,4.0459504,8.32695
1680000642887,1180631243011302,4.45695,4.02705,8.443951
1680000642890,1180631245513375,4.467,4.05795,8.406
1680000642892,1180631248015298,4.45305,4.077,8.19795
1680000642895,1180631250517375,4.49595,4.0630503,8.298
1680000642898,1180631253019221,4.53405,4.0810504,8.253
1680000642900,1180631255521138,4.4620504,4.05105,8.334001
1680000642904,1180631258023292,4.4359503,4.005,8.370001
1680000642906,1180631260525446,4.44495,3.9430501,8.3869505
1680000642908,1180631263027292,4.49595,3.92895,8.442
1680000642910,1180631265529369,4.45305,4.0339503,8.28405
1680000642912,1180631268031292,4.3450503,4.0669503,8.30805
1680000642916,1180631270533369,4.3780503,4.05105,8.361
1680000642918,1180631273035292,4.4089503,3.9910502,8.394
1680000642920,1180631275537446,4.53405,4.02705,8.245951
1680000642922,1180631278039542,4.53405,4.02705,8.272051
1680000642925,1180631280541465,4.42605,3.9810002,8.32695
1680000642927,1180631283043311,4.44495,4.116,8.349
1680000642930,1180631285545388,4.45305,4.0740004,8.30805
1680000642932,1180631288047316,4.53405,4.017,8.21895
1680000642935,1180631290549470,4.479,4.065,8.227051
1680000642938,1180631293051547,4.5270004,4.15605,8.301001
1680000642941,1180631295553393,4.4380503,4.0339503,8.163
1680000642943,1180631298055325,4.42395,4.05795,8.24295
1680000642946,1180631300557479,4.39305,4.0800004,8.241
1680000642948,1180631303059556,4.3879504,4.116,8.358001
1680000642950,1180631305561479,4.3660502,4.14195,8.269951
1680000642952,1180631308063556,4.39305,4.1059504,8.187
1680000642955,1180631310565474,4.479,4.1059504,8.167951
1680000642957,1180631313067551,4.4550004,4.13205,8.217
1680000642960,1180631315569397,4.48605,4.149,8.215051
1680000642962,1180631318071628,4.42605,4.08405,8.35305
1680000642966,1180631320573455,4.395,4.08405,8.229
1680000642968,1180631323075609,4.43295,4.15905,8.21205
1680000642970,1180631325577455,4.38495,4.06995,8.149051
1680000642972,1180631328079532,4.3660502,4.065,8.29395
1680000642976,1180631330581455,4.42395,4.125,8.148001
1680000642980,1180631333083619,4.33005,4.06005,8.17905
1680000642982,1180631335585696,4.32105,4.06005,8.109
1680000642983,1180631338087619,4.3900504,4.06005,8.161051
1680000642986,1180631340589681,4.3500004,4.065,8.109
1680000642988,1180631343091527,4.335,4.09305,8.06805
1680000642990,1180631345593450,4.431,4.044,8.19795
1680000642992,1180631348095527,4.4550004,4.0140004,8.21205
1680000642995,1180631350597681,4.41195,4.104,8.16705
1680000642998,1180631353099619,4.42395,4.12995,8.19495
1680000643000,1180631355601696,4.4089503,4.0140004,8.155951
1680000643002,1180631358103619,4.464,4.0020003,8.13
1680000643005,1180631360605696,4.41405,4.056,8.2240505
1680000643008,1180631363107542,4.3780503,4.06005,8.182051
1680000643010,1180631365609696,4.4599504,4.13205,8.229
1680000643012,1180631368111619,4.40205,3.9889503,8.260051
1680000643017,1180631370613705,4.4089503,4.06995,8.370001
1680000643020,1180631373115628,4.4760003,4.0339503,8.36505
1680000643021,1180631375617705,4.3900504,3.9930003,8.298
1680000643023,1180631378119628,4.4599504,4.1010003,8.266951
1680000643026,1180631380621705,4.431,4.1080503,8.109
1680000643028,1180631383123850,4.431,4.0669503,8.161051
1680000643029,1180631385625773,4.5700502,4.089,8.290951
1680000643032,1180631388127850,4.5700502,4.0800004,8.221951
1680000643036,1180631390629696,4.524,4.06005,8.25
1680000643038,1180631393131619,4.44495,4.11105,8.34195
1680000643040,1180631395633696,4.464,4.0630503,8.349
1680000643042,1180631398135850,4.3660502,4.065,8.44695
1680000643046,1180631400637773,4.4380503,4.09305,8.28195
1680000643048,1180631403139850,4.395,4.1059504,8.29395
1680000643050,1180631405641768,4.4760003,4.1680503,8.229
1680000643054,1180631408143845,4.47195,4.06995,8.241
1680000643056,1180631410645691,4.45305,4.0630503,8.274
1680000643059,1180631413147849,4.4809504,4.0350003,8.313001
1680000643061,1180631415649772,4.5220504,4.08405,8.227051
1680000643062,1180631418151849,4.5360003,4.0810504,8.32005
1680000643066,1180631420653772,4.49595,4.0960503,8.21205
1680000643068,1180631423155849,4.44105,4.0740004,8.334001
1680000643070,1180631425657778,4.47195,4.1010003,8.161051
1680000643072,1180631428159855,4.4880004,4.0740004,8.31795
1680000643076,1180631430661778,4.44495,4.017,8.245951
1680000643078,1180631433163932,4.49805,3.9379501,8.334001
1680000643080,1180631435666008,4.4359503,4.044,8.301001
1680000643082,1180631438167932,4.52895,3.9570003,8.28195
1680000643086,1180631440669778,4.4599504,4.02705,8.248051
1680000643087,1180631443171855,4.55595,4.05105,8.31
1680000643091,1180631445674009,4.4380503,3.9889503,8.265
1680000643093,1180631448175922,4.54605,3.969,8.29395
1680000643096,1180631450677999,4.45305,4.07205,8.262
1680000643098,1180631453179922,4.44495,4.02105,8.265
1680000643100,1180631455681999,4.4809504,4.092,8.313001
1680000643102,1180631458183845,4.51695,4.0140004,8.24295
1680000643106,1180631460685782,4.4550004,3.9310503,8.25
1680000643108,1180631463187936,4.4550004,4.06005,8.32995
1680000643110,1180631465690013,4.49805,4.1059504,8.253
1680000643112,1180631468191936,4.47405,3.96495,8.17395
1680000643116,1180631470693735,4.4620504,4.077,8.158951
1680000643118,1180631473195889,4.4599504,4.1730003,8.301001
1680000643120,1180631475697966,4.38105,4.077,8.274
1680000643122,1180631478199889,4.467,4.1659503,8.175
1680000643126,1180631480701971,4.3759503,4.053,8.11905
1680000643129,1180631483203894,4.44495,4.1059504,8.272051
1680000643131,1180631485705971,4.45305,4.1350503,8.21895
1680000643132,1180631488207894,4.467,4.06005,8.193001
1680000643136,1180631490710048,4.431,4.044,8.19495
1680000643138,1180631493211898,4.36905,4.09305,8.205
1680000643140,1180631495714052,4.52895,4.11105,8.18595
1680000643142,1180631498215898,4.6200004,4.0279503,8.167951
1680000643146,1180631500717975,4.47195,4.05105,8.23095
1680000643148,1180631503219903,4.4620504,4.06995,8.158951
1680000643150,1180631505722057,4.4880004,3.9619503,8.20695
1680000643152,1180631508224134,4.4809504,4.125,8.112
1680000643156,1180631510726057,4.491,4.0459504,8.161051
1680000643158,1180631513228130,4.47405,4.0810504,8.20695
1680000643160,1180631515729976,4.54605,4.032,8.18595
1680000643162,1180631518231899,4.56705,4.017,8.121
1680000643168,1180631520734028,4.5220504,3.9889503,8.148001
1680000643169,1180631523236105,4.50495,3.9930003,8.085
1680000643171,1180631525738028,4.491,4.02705,8.112
1680000643173,1180631528240105,4.563,4.0410004,8.2240505
1680000643176,1180631530742028,4.5220504,3.99795,8.023951
1680000643178,1180631533244086,4.54395,3.9739501,8.076
1680000643180,1180631535746009,4.51695,4.053,8.083051
1680000643182,1180631538248086,4.5940504,3.9930003,8.092051
1680000643186,1180631540750009,4.5480003,3.9889503,8.01
1680000643187,1180631543252086,4.4929504,3.9910502,8.06595
1680000643190,1180631545753976,4.54395,3.9190502,8.035951
1680000643192,1180631548256053,4.55805,4.0140004,8.15205
1680000643196,1180631550757976,4.50495,4.02495,8.21205
1680000643198,1180631553260130,4.51695,4.06995,8.155951
1680000643200,1180631555762220,4.56705,3.9169502,8.073
1680000643204,1180631558264144,4.467,3.9859502,8.04195
1680000643206,1180631560766220,4.5199504,3.99795,8.1
1680000643208,1180631563268067,4.5360003,4.00995,8.14005
1680000643210,1180631565769971,4.49805,3.9220502,8.193001
1680000643212,1180631568272125,4.53195,4.077,8.260051
1680000643216,1180631570774202,4.59105,3.9769502,8.19795
1680000643218,1180631573276125,4.5270004,3.9310503,8.170051
1680000643220,1180631575778197,4.5820503,3.9019501,8.05605
1680000643222,1180631578280120,4.5079503,4.02495,8.128051
1680000643226,1180631580782197,4.45695,3.9790502,8.170051
1680000643228,1180631583284043,4.4359503,3.89805,8.149051
1680000643234,1180631585786197,4.4929504,3.9,8.17395
1680000643235,1180631588288120,4.53195,3.9499502,8.134951
1680000643237,1180631590790197,4.55595,4.005,8.13
1680000643237,1180631593292120,4.5199504,4.005,8.116051
1680000643241,1180631595794197,4.4760003,3.936,8.1
1680000643243,1180631598296120,4.524,3.9379501,8.116051
1680000643246,1180631600798274,4.551,4.00995,8.148001
1680000643248,1180631603300350,4.551,4.0470004,8.18595
1680000643255,1180631605802274,4.5199504,4.02,8.16705
1680000643255,1180631608304331,4.51695,4.1080503,8.19795
1680000643256,1180631610806178,4.563,4.044,8.191051
1680000643258,1180631613308101,4.47405,4.03905,8.23095
1680000643260,1180631615810255,4.5750003,4.0080004,8.19495
1680000643263,1180631618312340,4.63695,4.065,8.248051
1680000643267,1180631620814264,4.584,3.9840002,8.17905
1680000643268,1180631623316340,4.4500504,3.9960003,8.089951
1680000643270,1180631625818264,4.49595,3.9600003,8.187
1680000643272,1180631628320312,4.53195,3.96495,8.217
1680000643276,1180631630822159,4.6200004,3.96705,8.071051
1680000643281,1180631633324313,4.55805,3.969,8.137051
1680000643281,1180631635826236,4.53195,3.9840002,8.205
1680000643283,1180631638328346,4.60305,3.9529502,8.182051
1680000643286,1180631640830269,4.57905,3.9859502,8.104051
1680000643288,1180631643332346,4.5820503,4.053,8.0449505
1680000643290,1180631645834269,4.5100503,3.96705,8.245951
1680000643292,1180631648336346,4.4809504,4.02495,8.19495
1680000643296,1180631650838269,4.57695,4.0020003,8.241
1680000643298,1180631653340346,4.512,3.936,8.30595
1680000643300,1180631655842269,4.4760003,3.9550502,8.290951
1680000643302,1180631658344422,4.5270004,3.9739501,8.101951
1680000643306,1180631660846528,4.57905,3.9910502,8.175
1680000643309,1180631663348451,4.5480003,4.0140004,8.137051
1680000643311,1180631665850528,4.52895,4.0009503,8.049001
1680000643312,1180631668352452,4.59105,4.0279503,8.11905
1680000643317,1180631670854504,4.596,4.0470004,8.181001
1680000643319,1180631673356351,4.57695,3.9480002,8.254951
1680000643321,1180631675858504,4.51695,4.0009503,8.18595
1680000643323,1180631678360452,4.5990005,4.0009503,8.04705
1680000643326,1180631680862528,4.53405,4.02495,8.149051
1680000643328,1180631683364452,4.551,3.9220502,8.134951
1680000643330,1180631685866528,4.5270004,3.9529502,8.17395
1680000643332,1180631688368452,4.5529504,4.0140004,8.19795
1680000643336,1180631690870619,4.57695,3.9190502,8.134951
1680000643338,1180631693372466,4.5820503,3.96495,8.20005
1680000643340,1180631695874542,4.61805,3.9840002,8.08005
1680000643342,1180631698376466,4.5990005,3.9409502,8.19495
1680000643346,1180631700878543,4.611,3.9739501,8.191051
1680000643348,1180631703380466,4.59105,3.9859502,8.205
1680000643350,1180631705882543,4.66995,4.0140004,8.175
1680000643354,1180631708384696,4.59105,4.0080004,8.154
1680000643356,1180631710886619,4.6129503,4.0020003,8.148001
1680000643358,1180631713388696,4.63905,3.9480002,8.236051
1680000643360,1180631715890619,4.596,4.0410004,8.2240505
1680000643362,1180631718392696,4.56495,3.9910502,8.187
1680000643366,1180631720894600,4.55805,4.0279503,8.03295
1680000643368,1180631723396677,4.6270504,4.032,8.28405
1680000643370,1180631725898600,4.5220504,4.017,8.085
1680000643373,1180631728400677,4.5100503,4.053,8.30595
1680000643376,1180631730902601,4.6200004,4.0800004,8.245951
1680000643378,1180631733404696,4.572,4.0459504,8.248051
1680000643380,1180631735906620,4.53195,4.0279503,8.346001
1680000643382,1180631738408773,4.56705,3.9930003,8.158951
1680000643386,1180631740910620,4.5529504,4.13205,8.23095
1680000643388,1180631743412701,4.53195,4.0410004,8.241
1680000643392,1180631745914625,4.57695,4.1130004,8.298
1680000643393,1180631748416701,4.5409503,4.053,8.262
1680000643396,1180631750918625,4.52895,4.1059504,8.254951
1680000643398,1180631753420701,4.563,4.1080503,8.236051
1680000643400,1180631755922855,4.57695,4.0630503,8.278951
1680000643402,1180631758424778,4.66995,4.1680503,8.18595
1680000643406,1180631760926625,4.6660504,4.0810504,8.19495
1680000643408,1180631763428762,4.6270504,4.1200504,8.3560505
1680000643410,1180631765930839,4.635,4.05105,8.163
1680000643412,1180631768432762,4.6270504,4.0740004,8.30805
1680000643416,1180631770934839,4.6660504,4.05795,8.19795
1680000643424,1180631773436782,4.5870004,3.9450002,8.203051
1680000643424,1180631775938859,4.60605,4.07205,8.290951
1680000643424,1180631778440782,4.6009502,4.06005,8.29395
1680000643426,1180631780942859,4.6270504,4.0129504,8.23095
1680000643429,1180631783444791,4.6729503,4.044,8.182051
1680000643431,1180631785946868,4.6320004,4.0459504,8.29605
1680000643433,1180631788448791,4.5820503,3.9720001,8.325001
1680000643437,1180631790950868,4.6270504,3.9840002,8.3220005
1680000643438,1180631793452792,4.6800003,4.06005,8.245951
1680000643440,1180631795954878,4.66095,3.96495,8.215051
1680000643443,1180631798456802,4.6420503,3.9739501,8.154
1680000643446,1180631800958878,4.59105,4.05105,8.133
1680000643448,1180631803461032,4.5940504,3.9889503,8.24295
1680000643450,1180631805962955,4.6800003,4.0410004,8.349
1680000643452,1180631808465032,4.596,3.9600003,8.286
1680000643456,1180631810966955,4.49805,4.044,8.215051
1680000643459,1180631813469032,4.54395,3.9889503,8.349
1680000643460,1180631815970945,4.491,4.05795,8.248051
1680000643463,1180631818473022,4.4809504,4.1059504,8.3560505
1680000643467,1180631820974945,4.49595,4.0669503,8.248051
1680000643469,1180631823477022,4.5030003,4.077,8.254951
1680000643472,1180631825978940,4.45305,4.12995,8.254951
1680000643474,1180631828480787,4.5270004,4.1059504,8.262
1680000643477,1180631830982940,4.524,4.077,8.233951
1680000643479,1180631833485017,4.56705,4.0800004,8.30595
1680000643481,1180631835986940,4.4760003,4.06005,8.274
1680000643483,1180631838489017,4.5529504,4.06995,8.349
1680000643486,1180631840990940,4.53195,4.05795,8.203051
1680000643488,1180631843493017,4.58895,4.077,8.253
1680000643492,1180631845994940,4.49805,4.1269503,8.265
1680000643493,1180631848497017,4.5,4.13205,8.269951
1680000643496,1180631850998921,4.6080003,4.08705,8.28405
1680000643498,1180631853500998,4.5480003,4.08405,8.277
1680000643500,1180631856002921,4.623,4.14405,8.30805
1680000643504,1180631858504979,4.5199504,4.0140004,8.32995
1680000643507,1180631861007133,4.70205,4.09305,8.385
1680000643510,1180631863509056,4.66305,4.05105,8.257951
1680000643511,1180631866011133,4.6800003,4.0410004,8.28405
1680000643513,1180631868513056,4.7140503,4.05795,8.28405
1680000643517,1180631871015157,4.73295,4.0669503,8.466001
1680000643518,1180631873517080,4.5870004,4.0960503,8.313001
1680000643520,1180631876018927,4.7179503,4.1200504,8.380051
1680000643523,1180631878521080,4.6470003,4.11105,8.35305
1680000643526,1180631881023162,4.6920004,4.15605,8.368051
1680000643528,1180631883525085,4.635,4.08405,8.3220005
1680000643530,1180631886027162,4.63695,4.2109504,8.31
1680000643532,1180631888529085,4.66095,4.1779504,8.325001
1680000643536,1180631891031186,4.6249504,4.2070503,8.370001
1680000643539,1180631893533340,4.6849504,4.092,8.385
1680000643542,1180631896035186,4.72305,4.0630503,8.35095
1680000643543,1180631898537109,4.7299504,4.15395,8.32995
1680000643547,1180631901039171,4.70895,4.1389503,8.434951
1680000643548,1180631903541094,4.6920004,4.07205,8.455951
1680000643550,1180631906043171,4.72305,4.1010003,8.502001
1680000643553,1180631908545094,4.7970004,4.0960503,8.586
1680000643556,1180631911047248,4.8019505,3.9960003,8.42805
1680000643559,1180631913549306,4.7970004,3.936,8.530951
1680000643560,1180631916051229,4.88595,4.044,8.500051
1680000643563,1180631918553306,4.7899504,4.08405,8.46405
1680000643566,1180631921055229,4.8960004,4.005,8.3560505
1680000643568,1180631923557090,4.84095,3.969,8.490001
1680000643570,1180631926059243,4.8840003,4.02105,8.406
1680000643573,1180631928561320,4.87395,4.08705,8.43
1680000643576,1180631931063243,4.80705,3.9739501,8.44695
1680000643580,1180631933565325,4.7470503,3.9859502,8.437051
1680000643582,1180631936067248,4.78095,3.9499502,8.437051
1680000643584,1180631938569325,4.71105,3.936,8.437051
1680000643586,1180631941071479,4.7590504,3.936,8.33205
1680000643588,1180631943573325,4.716,3.9220502,8.30595
1680000643591,1180631946075258,4.68195,3.9100502,8.2890005
1680000643593,1180631948577335,4.788,3.828,8.262
1680000643596,1180631951079258,4.7380505,3.7920003,8.229
1680000643598,1180631953581335,4.6849504,3.9070501,8.298
1680000643600,1180631956083243,4.7260504,3.8520002,8.32695
1680000643603,1180631958585397,4.7730002,3.9190502,8.36505
1680000643606,1180631961087474,4.7470503,3.831,8.346001
1680000643608,1180631963589397,4.776,3.8760002,8.3869505
1680000643610,1180631966091465,4.74195,3.8760002,8.3869505
1680000643613,1180631968593388,4.7470503,3.9139502,8.413051
1680000643618,1180631971095234,4.7710505,3.9550502,8.385
1680000643620,1180631976097388,4.72095,3.9720001,8.442
1680000643622,1180631976243465,4.75395,4.0630503,8.349
1680000643624,1180631978601388,4.7299504,4.08405,8.610001
1680000643627,1180631981103465,4.70895,4.053,8.55
1680000643628,1180631983605388,4.8310504,4.032,8.622001
1680000643630,1180631986107465,4.80495,3.9409502,8.622001
1680000643633,1180631988609383,4.88805,4.05105,8.575951
1680000643636,1180631991111460,4.97895,4.02105,8.611951
1680000643638,1180631993613383,5.0539503,3.9720001,8.727
1680000643641,1180631996115460,5.025,3.9720001,8.722051
1680000643643,1180631998617373,5.0610003,3.9930003,8.722051
1680000643646,1180632001119527,5.1259503,4.0350003,8.65995
1680000643648,1180632003621604,5.0659504,4.0080004,8.751
1680000643651,1180632006123527,5.0659504,4.0339503,8.67195
1680000643654,1180632008625619,5.181,3.9889503,8.67405
1680000643658,1180632011127542,5.0389504,4.0009503,8.64795
1680000643659,1180632013629388,5.1400504,3.9379501,8.78205
1680000643661,1180632016131566,5.142,4.0080004,8.799001
1680000643663,1180632018633643,5.097,3.9169502,8.787001
1680000643666,1180632021135566,5.2210503,3.9480002,8.7289505
1680000643670,1180632023637643,5.14905,3.96705,8.734051
1680000643671,1180632026139566,5.169,4.017,8.658
1680000643673,1180632028641647,5.2050004,4.0009503,8.62395
1680000643676,1180632031143570,5.1280503,3.9550502,8.65995
1680000643678,1180632033645647,5.19495,4.09305,8.710051
1680000643680,1180632036147570,5.097,4.1389503,8.67405
1680000643683,1180632038649638,5.0989504,4.149,8.82495
1680000643686,1180632041151561,4.94595,3.96705,8.84895
1680000643688,1180632043653638,4.953,3.9910502,8.86095
1680000643692,1180632046155561,4.8360004,3.9790502,8.91405
1680000643693,1180632048657719,4.872,4.0009503,8.884951
1680000643697,1180632051159796,4.905,3.9379501,8.964001
1680000643699,1180632053661719,4.81395,3.933,8.79405
1680000643702,1180632056163796,4.8790503,3.9600003,8.895
1680000643705,1180632058665719,4.9360504,3.9550502,8.923051
1680000643706,1180632061167551,4.95795,3.8880002,9.07005
1680000643708,1180632063669705,5.013,4.005,8.907001
1680000643710,1180632066171782,5.0610003,4.06005,9.13395
1680000643713,1180632068673705,5.118,3.96705,9.10095
1680000643716,1180632071175796,4.9750504,4.005,9.061951
1680000643718,1180632073677719,5.01795,3.9739501,9.055051
1680000643721,1180632076179796,5.07495,4.0960503,9.12705
1680000643725,1180632078681719,5.07495,4.1269503,9.03405
1680000643733,1180632081183820,5.00295,4.18995,9.003
1680000643733,1180632083685743,4.9630504,4.1659503,9.004951
1680000643733,1180632086187820,4.9440002,4.0800004,9.003
1680000643734,1180632088689743,4.9750504,4.2979503,8.93295
1680000643737,1180632091191806,4.893,4.12305,8.964001
1680000643739,1180632093693729,4.8499503,4.1200504,9.144
1680000643741,1180632096195883,4.84095,4.05795,8.991
1680000643743,1180632098697960,4.8570004,4.05105,9.177
1680000643746,1180632101199883,4.8690004,4.149,9.117001
1680000643748,1180632103701955,4.8019505,4.1470504,9.049951
1680000643750,1180632106203878,4.9080005,4.0459504,9.028951
1680000643753,1180632108705724,4.87395,4.125,9.05805
1680000643756,1180632111207801,4.7970004,3.9739501,9.175051
1680000643758,1180632113709950,4.79505,4.02,9.23505
1680000643760,1180632116211873,4.8289504,4.0339503,9.252001
1680000643763,1180632118713950,4.7299504,3.92895,9.141001
1680000643768,1180632121215873,4.7179503,3.92895,9.06
1680000643770,1180632123717941,4.70205,3.9259503,8.916
1680000643772,1180632126219864,4.7730002,3.9720001,9.0
1680000643775,1180632128721941,4.7590504,4.00995,9.019051
1680000643777,1180632131223864,4.5700502,3.96495,9.0
1680000643779,1180632133725960,4.704,3.9499502,9.07905
1680000643781,1180632136227883,4.584,3.9550502,9.1390505
1680000643783,1180632138729960,4.54605,3.9,9.148951
1680000643786,1180632141231883,4.52895,3.8520002,9.084001
1680000643788,1180632143733960,4.3879504,3.8620503,8.986051
1680000643791,1180632146236119,4.33005,3.9190502,8.799001
1680000643793,1180632148737965,4.5079503,3.8380501,8.93295
1680000643796,1180632151239888,4.60305,3.8590503,8.83695
1680000643798,1180632153741965,4.563,3.8140502,8.78205
1680000643800,1180632156243888,4.50495,3.8520002,8.715
1680000643805,1180632158745979,4.4599504,3.8569503,8.574
1680000643808,1180632161248133,4.42605,3.7780502,8.66205
1680000643809,1180632163750056,4.38105,3.8740501,8.67
1680000643811,1180632166252133,4.3830004,3.8400002,8.643001
1680000643813,1180632168754056,4.362,3.8190002,8.809051
1680000643817,1180632171256133,4.3110003,3.7680001,8.63805
1680000643818,1180632173758056,4.275,3.7470002,8.722051
1680000643820,1180632176260133,4.19595,3.80205,8.727
1680000643823,1180632178762056,4.2439504,3.7540503,8.746051
1680000643826,1180632181264133,4.09305,3.6720002,8.78895
1680000643828,1180632183766056,4.14405,3.663,8.811001
1680000643830,1180632186268133,4.00005,3.5689502,8.734051
1680000643833,1180632188770046,4.08405,3.5359502,8.746051
1680000643836,1180632191272123,4.122,3.5809503,8.6980505
1680000643838,1180632193774046,3.9970503,3.4810503,8.569051
1680000643842,1180632196276123,4.1460004,3.41895,8.718
1680000643844,1180632198778046,4.0669503,3.4090502,8.655001
1680000643846,1180632201280123,4.06005,3.25305,8.607
1680000643848,1180632203782277,4.1509504,3.3750002,8.78205
1680000643850,1180632206284123,4.1940002,3.21495,8.73705
1680000643853,1180632208786046,4.2439504,3.2290502,8.854051
1680000643857,1180632211288123,4.24905,3.1960502,8.91195
1680000643858,1180632213790046,4.26795,3.2320502,8.875951
1680000643860,1180632216292123,4.39305,3.1740003,8.97105
1680000643863,1180632218794277,4.3639503,3.1890001,9.055051
1680000643867,1180632221296205,4.596,3.07605,8.991
1680000643872,1180632223798051,4.59105,3.17895,9.13395
1680000643873,1180632226300128,4.6270504,3.14595,9.12705
1680000643874,1180632228802051,4.6540504,3.177,9.24195
1680000643876,1180632231304195,4.6150503,3.10695,9.151051
1680000643881,1180632233806041,4.776,3.0570002,9.14595
1680000643889,1180632236308195,4.8640504,3.0280502,9.252001
1680000643889,1180632238810272,4.881,2.98305,9.193951
1680000643889,1180632241312195,4.7380505,3.01395,9.048
1680000643890,1180632243814272,4.5820503,2.8650002,8.92605
1680000643891,1180632246316195,4.6009502,2.8249502,8.77005
1680000643893,1180632248818272,4.49805,2.79795,8.811001
1680000643897,1180632251320407,4.2730503,2.63805,8.703
1680000643899,1180632253822253,4.3060503,2.6899502,8.59305
1680000643902,1180632256324176,4.2780004,2.47005,8.559
1680000643904,1180632258826253,4.2439504,2.47005,8.643001
1680000643906,1180632261328176,4.0470004,2.49195,8.740951
1680000643908,1180632263830253,3.9540002,2.322,8.59095
1680000643910,1180632266332176,3.9160502,2.3119502,8.554951
1680000643913,1180632268834330,3.8800502,2.2810502,8.59095
1680000643917,1180632271336437,3.7530003,2.36205,8.46405
1680000643919,1180632273838283,3.729,2.1349502,8.413051
1680000643921,1180632276340206,3.624,2.1709502,8.442
1680000643923,1180632278842283,3.5140502,2.1420002,8.557051
1680000643926,1180632281344206,3.9850502,1.6560001,7.9920006
1680000643928,1180632283846341,3.897,2.013,9.261001
1680000643930,1180632286348418,3.8490002,2.13,8.655001
1680000643933,1180632288850341,3.5089502,2.18505,7.8310504
1680000643937,1180632291352187,3.32205,2.1370502,7.7809505
1680000643939,1180632293854264,3.3030002,2.154,7.9099503
1680000643940,1180632296356187,3.4320002,2.0269501,7.8480005
1680000643943,1180632298858341,3.5020502,2.094,8.33205
1680000643946,1180632301360418,3.5160003,2.0059502,8.51895
1680000643948,1180632303862341,3.5040002,1.9740001,8.703
1680000643951,1180632306364418,3.4390502,1.90005,8.677051
1680000643954,1180632308866341,3.4390502,1.9260001,8.595
1680000643957,1180632311368187,3.4750502,1.8280501,8.380051
1680000643959,1180632313870264,3.6169503,1.797,8.059051
1680000643960,1180632316372398,3.6360002,1.7160001,8.128051
1680000643963,1180632318874321,3.5380502,1.6150501,8.203051
1680000643966,1180632321376398,3.5419502,1.7659501,8.361
1680000643968,1180632323878321,3.528,1.7160001,8.34195
1680000643970,1180632326380398,3.63105,1.692,8.32005
1680000643973,1180632328882244,3.7339501,1.6459501,8.3560505
1680000643977,1180632331384398,3.7240503,1.5769501,8.28195
1680000643978,1180632333886321,3.8800502,1.6390501,8.2890005
1680000643982,1180632336388398,3.8610003,1.54305,8.422951
1680000643983,1180632338890321,3.729,1.5979501,8.302951
1680000643987,1180632341392398,3.8080502,1.488,8.47605
1680000643989,1180632343894321,3.9139502,1.6060501,8.47995
1680000643992,1180632346396374,3.9640503,1.4980501,8.433001
1680000643994,1180632348898297,4.0279503,1.416,8.490001
1680000643997,1180632351400374,3.9019501,1.40205,8.571
1680000643998,1180632353902297,4.03305,1.38495,8.533051
1680000644001,1180632356404374,3.9949503,1.3920001,8.575951
1680000644003,1180632358906514,3.8230503,1.3090501,8.557051
1680000644006,1180632361408437,3.8440502,1.2409501,8.442
1680000644008,1180632363910514,4.02405,1.2270001,8.535001
1680000644011,1180632366412360,4.0669503,1.1340001,8.563951
1680000644013,1180632368914283,4.22505,1.18605,8.715
1680000644017,1180632371416369,4.20795,1.1050501,8.682
1680000644018,1180632373918523,4.1790004,1.12905,8.677051
1680000644020,1180632376420446,4.13595,1.04805,8.64795
1680000644023,1180632378922523,4.098,1.098,8.775001
1680000644026,1180632381424369,3.9300003,1.0690501,8.562
1680000644029,1180632383926292,3.897,1.08105,8.62695
1680000644031,1180632386428446,3.89895,1.014,8.703
1680000644033,1180632388930292,4.053,0.95595,8.610001
1680000644036,1180632391432432,4.09095,0.82995003,8.63595
1680000644038,1180632393934509,4.0609503,0.91800004,8.62905
1680000644041,1180632396436432,3.9760501,0.89205,8.574
1680000644047,1180632398938509,3.8800502,0.81495005,8.65305
1680000644047,1180632401440461,3.9019501,0.75495005,8.72505
1680000644048,1180632403942538,3.8470502,0.83400005,8.710051
1680000644051,1180632406444461,3.79605,0.77205,8.622001
1680000644053,1180632408946615,3.68895,0.82995003,8.710051
1680000644057,1180632411448470,3.7750502,0.75795,8.710051
1680000644059,1180632413950547,3.696,0.86295,8.78205
1680000644062,1180632416452470,3.6859503,0.78405005,8.718
1680000644063,1180632418954547,3.6690001,0.73905003,8.734051
1680000644068,1180632421456730,3.7240503,0.822,8.677051
1680000644070,1180632423958653,3.7560003,0.89895004,8.67195
1680000644072,1180632426460730,3.7720501,0.76695,8.715
1680000644074,1180632428962639,3.7440002,0.87495005,8.799001
1680000644077,1180632431464485,3.8130002,0.85395,8.713051
1680000644079,1180632433966562,3.7480502,0.83895004,8.706
1680000644081,1180632436468485,3.6379502,0.79095006,8.91405
1680000644083,1180632438970639,3.6979501,0.822,8.83695
1680000644088,1180632441472697,3.7390501,0.82005006,8.821051
1680000644088,1180632443974620,3.8250003,0.813,8.80605
1680000644091,1180632446476697,3.7680001,0.91605,8.928
1680000644093,1180632448978543,3.7390501,0.94500005,8.7289505
1680000644097,1180632451480489,3.765,0.95205003,8.75595
1680000644098,1180632453982643,3.732,0.897,8.81295
1680000644100,1180632456484720,3.6739502,0.906,8.84895
1680000644105,1180632458986643,3.5400002,0.88695,8.78895
1680000644107,1180632461488739,3.5710502,0.91305006,8.94495
1680000644110,1180632463990662,3.6070502,0.92295,8.884951
1680000644111,1180632466492739,3.59505,0.91800004,8.83695
1680000644113,1180632468994585,3.6690001,0.88905007,8.967
1680000644116,1180632471496739,3.6769502,0.873,8.799001
1680000644118,1180632473998652,3.6690001,0.86100006,8.923051
1680000644120,1180632476500729,3.7200003,0.77400005,9.120001
1680000644123,1180632479002652,3.7200003,0.88905007,8.98095
1680000644126,1180632481504729,3.588,0.82695,8.86095
1680000644129,1180632484006652,3.6450002,0.837,8.895
1680000644131,1180632486508820,3.6810002,0.94200003,9.0
1680000644133,1180632489010666,3.7600503,0.96105003,9.108001
1680000644137,1180632491512743,3.6840003,0.83895004,8.95905
1680000644139,1180632494014666,3.7890003,0.77895004,8.920951
1680000644142,1180632496516743,3.6769502,0.846,8.908951
1680000644144,1180632499018666,3.7120502,0.846,8.856
1680000644148,1180632501520820,3.6480002,0.777,8.952001
1680000644148,1180632504022897,3.72705,0.77205,9.010051
1680000644151,1180632506524724,3.68895,0.64305,9.06495
1680000644153,1180632509026647,3.6379502,0.64305,9.004951
1680000644156,1180632511528724,3.6379502,0.76005006,9.132
1680000644158,1180632514030647,3.5860503,0.68295,9.096001
1680000644161,1180632516532739,3.6169503,0.79095006,8.952001
1680000644163,1180632519034893,3.6499503,0.89400005,8.955001
1680000644167,1180632521536816,3.59295,0.88695,9.0379505
1680000644170,1180632524038662,3.6649501,0.90900004,8.99295
1680000644171,1180632526540763,3.7240503,0.84405005,8.986051
1680000644173,1180632529042917,3.696,0.882,8.904
1680000644177,1180632531544840,3.6979501,0.94200003,9.048
1680000644180,1180632534046917,3.732,0.96795005,9.0379505
1680000644182,1180632536548758,3.7219503,0.99195004,9.06
1680000644184,1180632539050681,3.7200003,1.0020001,9.073951
1680000644187,1180632541552758,3.6670501,1.0210501,9.06495
1680000644189,1180632544054912,3.66,1.0330501,8.904
1680000644191,1180632546556835,3.6769502,1.0020001,8.964001
1680000644193,1180632549058912,3.6810002,1.0710001,9.03405
1680000644196,1180632551560835,3.6670501,0.94500005,9.12495
1680000644198,1180632554062681,3.6550503,0.91800004,9.193951
1680000644200,1180632556564758,3.75795,0.93705004,9.220051
1680000644203,1180632559066681,3.6810002,1.0189501,9.187051
1680000644206,1180632561568835,3.68895,1.0309501,9.168
1680000644208,1180632564070912,3.7339501,1.03995,9.14595
1680000644211,1180632566572835,3.7800002,1.131,9.12495
1680000644213,1180632569074883,3.7720501,1.19595,9.18
1680000644218,1180632571576806,3.8149502,1.1220001,9.220051
1680000644220,1180632574078653,3.8130002,1.131,9.165
1680000644222,1180632576580806,3.8179502,1.074,9.24195
1680000644223,1180632579082883,3.8710501,1.04295,9.28005
1680000644227,1180632581584806,3.8110502,1.12695,9.364051
1680000644228,1180632584086883,3.8179502,1.146,9.3
1680000644231,1180632586588806,3.7440002,1.1029501,9.38805
1680000644233,1180632589090863,3.6910503,1.1910001,9.36705
1680000644236,1180632591592786,3.7819502,1.11705,9.358951
1680000644238,1180632594094863,3.7410002,1.062,9.283051
1680000644241,1180632596596786,3.86595,1.0210501,9.369
1680000644243,1180632599098863,3.7770002,1.146,9.27795
1680000644246,1180632601600796,3.8730001,1.0860001,9.38805
1680000644248,1180632604102873,3.83205,1.12395,9.41895
1680000644251,1180632606604796,3.8899503,1.014,9.337951
1680000644254,1180632609106950,3.8610003,1.08105,9.307051
1680000644258,1180632611608796,3.8610003,1.0519501,9.35505
1680000644260,1180632614110873,3.86295,1.1700001,9.319051
1680000644262,1180632616612796,3.9139502,1.059,9.42195
1680000644263,1180632619114873,3.8470502,1.07595,9.333
1680000644267,1180632621616773,3.9420002,1.12695,9.38805
1680000644269,1180632624118927,3.9160502,1.16505,9.252001
1680000644271,1180632626621004,4.0009503,1.2730501,9.37605
1680000644275,1180632629122927,3.9090002,1.2529501,9.228001
1680000644276,1180632631624768,3.8869503,1.20105,9.41895
1680000644278,1180632634126845,3.9060001,1.20105,9.240001
1680000644281,1180632636628769,3.9300003,1.1359501,9.229951
1680000644283,1180632639130845,3.9760501,1.1740501,9.273001
1680000644286,1180632641632999,3.9019501,1.16505,9.313951
1680000644288,1180632644134912,3.9229503,1.21305,9.39105
1680000644292,1180632646636989,3.9709501,1.1839501,9.331051
1680000644294,1180632649138912,3.8899503,1.23705,9.34305
1680000644297,1180632651640755,3.8899503,1.146,9.349951
1680000644299,1180632654142831,3.8610003,1.2730501,9.450001
1680000644301,1180632656644985,3.8710501,1.23405,9.36705
1680000644303,1180632659146908,3.8869503,1.2870001,9.382951
1680000644307,1180632661648985,3.8730001,1.2270001,9.5460005
1680000644308,1180632664150907,3.9139502,1.2970501,9.39795
1680000644311,1180632666652984,3.8920503,1.2220501,9.496051
1680000644313,1180632669154831,3.8940003,1.31595,9.484051
1680000644316,1180632671656754,3.83205,1.3780501,9.41895
1680000644319,1180632674158922,3.8200502,1.3060501,9.5130005
