system_ts_ms, sensor_ts_ns, accX, accY, accZ
1680001706801,1181695155538895,7.6860003,6.393,3.1420503
1680001706803,1181695158041097,7.6140003,6.3810005,3.0649502
1680001706805,1181695160543250,7.695,6.5490003,2.8930502
1680001706807,1181695163045173,7.6789503,6.5940003,2.73705
1680001706810,1181695165547327,7.767,6.5490003,2.9290502
1680001706812,1181695168049712,7.7380505,6.537,2.8189502
1680001706822,1181695170551880,7.6860003,6.558,2.7540002
1680001706822,1181695173054034,7.6470003,6.6330004,2.7630002
1680001706823,1181695175556187,7.4340005,6.6450005,2.7970502
1680001706823,1181695178058341,7.56405,6.6660004,2.74005
1680001706825,1181695180560495,7.5060005,6.63495,2.7870002
1680001706827,1181695183062649,7.46505,6.7120504,2.93805
1680001706830,1181695185564880,7.4130006,6.6139503,2.90505
1680001706833,1181695188067034,7.4610004,6.6210003,2.80395
1680001706835,1181695190569178,7.5349503,6.51105,2.7799501
1680001706837,1181695193071331,7.4149504,6.609,2.7870002
1680001706840,1181695195573485,7.4730005,6.558,2.706
1680001706842,1181695198075639,7.4220004,6.477,2.7520502
1680001706845,1181695200577793,7.4010005,6.3790503,2.89995
1680001706847,1181695203080178,7.49205,6.4030504,2.9170501
1680001706850,1181695205582331,7.4220004,6.4099503,2.94105
1680001706852,1181695208084485,7.4560504,6.40005,2.88105
1680001706855,1181695210586639,7.45095,6.43905,2.80395
1680001706857,1181695213088779,7.42995,6.4339504,2.7850502
1680001706860,1181695215590933,7.4370003,6.35505,2.86905
1680001706862,1181695218093164,7.4220004,6.42,2.9569502
1680001706868,1181695220595317,7.5469503,6.3910503,3.015
1680001706868,1181695223097427,7.4440503,6.33795,2.9260502
1680001706872,1181695225599581,7.52505,6.40005,2.9860501
1680001706873,1181695228101658,7.5109506,6.4669504,2.83095
1680001706875,1181695230603812,7.5090003,6.4630504,2.9340003
1680001706877,1181695233106253,7.5490503,6.3570004,2.7850502
1680001706880,1181695235608407,7.56405,6.42,2.7850502
1680001706885,1181695238110330,7.56405,6.393,2.7970502
1680001706886,1181695240612484,7.602,6.3640504,2.93595
1680001706887,1181695243114648,7.5709505,6.453,2.9020503
1680001706890,1181695245617033,7.7380505,6.36,2.8330503
1680001706893,1181695248118956,7.7860503,6.3169503,2.91195
1680001706895,1181695250621340,7.7430005,6.3499503,2.83095
1680001706901,1181695253123489,7.7380505,6.36705,2.8210502
1680001706901,1181695255625643,7.7310004,6.3240004,2.9340003
1680001706903,1181695258127797,7.7700005,6.35505,2.8279502
1680001706905,1181695260629951,7.7239504,6.3960004,2.9170501
1680001706909,1181695263132134,7.6590004,6.38805,2.91405
1680001706912,1181695265634364,7.6309505,6.28095,2.86905
1680001706913,1181695268136518,7.66905,6.3570004,2.9890501
1680001706918,1181695270638672,7.65705,6.3840003,2.9650502
1680001706918,1181695273140826,7.65495,6.405,2.9670002
1680001706920,1181695275642975,7.5400505,6.4150505,2.8930502
1680001706922,1181695278145129,7.5589504,6.3790503,2.8930502
1680001706926,1181695280647283,7.602,6.4099503,2.8900502
1680001706928,1181695283149667,7.55595,6.3739505,2.83995
1680001706930,1181695285651831,7.5040503,6.4290004,2.7520502
1680001706935,1181695288153985,7.53,6.34005,2.7919502
1680001706935,1181695290656139,7.518,6.4080005,2.8330503
1680001706938,1181695293158293,7.5919504,6.4480505,2.8879502
1680001706940,1181695295660201,7.6450505,6.46005,2.91
1680001706943,1181695298162662,7.5660005,6.5230503,2.7949502
1680001706946,1181695300664816,7.53,6.465,2.8260002
1680001706954,1181695303166970,7.5060005,6.4240503,2.8620002
1680001706954,1181695305669018,7.5400505,6.49095,2.84505
1680001706955,1181695308171249,7.4820004,6.47205,2.8230002
1680001706955,1181695310673403,7.5370502,6.4480505,2.84295
1680001706957,1181695313175556,7.5469503,6.4360504,2.8950002
1680001706960,1181695315677710,7.5679502,6.5080504,2.93805
1680001706962,1181695318179869,7.5610504,6.4819503,2.83995
1680001706968,1181695320682023,7.6429505,6.4480505,2.874
1680001706968,1181695323184408,7.6140003,6.4960504,2.9310002
1680001706970,1181695325686331,7.4820004,6.38805,2.87595
1680001706972,1181695328188470,7.52505,6.3910503,2.95005
1680001706975,1181695330690855,7.6260004,6.49905,2.8830001
1680001706978,1181695333193009,7.5280504,6.4410005,2.80695
1680001706981,1181695335695163,7.5520506,6.5149503,2.9020503
1680001706985,1181695338197298,7.5040503,6.4510503,2.86905
1680001706986,1181695340699452,7.46505,6.40005,2.91195
1680001706987,1181695343201605,7.5760503,6.5230503,2.8900502
1680001706991,1181695345703836,7.5469503,6.4960504,2.871
1680001706992,1181695348205990,7.5679502,6.54405,2.8590002
1680001706996,1181695350708110,7.5660005,6.5610003,2.73705
1680001706998,1181695353210264,7.4490004,6.525,2.8260002
1680001707003,1181695355712418,7.6000504,6.4429502,2.9550002
1680001707004,1181695358214571,7.5160503,6.3840003,2.88105
1680001707007,1181695360716735,7.4869504,6.4819503,2.8620002
1680001707008,1181695363219120,7.4490004,6.5010004,2.87595
1680001707011,1181695365721274,7.485,6.4510503,2.8210502
1680001707013,1181695368223428,7.5469503,6.453,2.84295
1680001707020,1181695370725581,7.4890504,6.4870505,2.835
1680001707021,1181695373227725,7.5400505,6.4150505,2.8900502
1680001707024,1181695375729879,7.42995,6.4960504,2.94105
1680001707025,1181695378232110,7.4749503,6.49905,2.9220002
1680001707026,1181695380734187,7.4340005,6.5080504,2.8279502
1680001707028,1181695383236360,7.45095,6.4750504,2.8879502
1680001707035,1181695385738590,7.5330005,6.3790503,2.874
1680001707036,1181695388240744,7.56405,6.4429502,2.8879502
1680001707038,1181695390742821,7.5610504,6.4630504,2.8500001
1680001707038,1181695393244975,7.5130506,6.3840003,2.8230002
1680001707040,1181695395747260,7.5850506,6.40005,2.8279502
1680001707043,1181695398249414,7.5679502,6.4480505,2.8159502
1680001707046,1181695400751568,7.5210004,6.4099503,2.8570502
1680001707050,1181695403253731,7.5709505,6.36705,2.8950002
1680001707051,1181695405755885,7.5799503,6.4789505,2.84295
1680001707052,1181695408258039,7.5540004,6.50295,2.8590002
1680001707055,1181695410760424,7.52505,6.49905,2.77305
1680001707059,1181695413262558,7.4890504,6.38595,2.7540002
1680001707061,1181695415764711,7.497,6.5010004,2.8500001
1680001707064,1181695418266865,7.518,6.52995,2.9239502
1680001707068,1181695420769019,7.4749503,6.2899504,2.91
1680001707069,1181695423271173,7.5160503,6.453,2.8500001
1680001707070,1181695425773414,7.4460006,6.3310504,2.86905
1680001707073,1181695428275568,7.41795,6.3120003,2.9530501
1680001707075,1181695430777721,7.43205,6.35505,2.8500001
1680001707077,1181695433279875,7.4389505,6.3190503,2.775
1680001707080,1181695435781937,7.4680505,6.3910503,2.8830001
1680001707086,1181695438284168,7.5130506,6.3690004,2.8210502
1680001707087,1181695440786322,7.458,6.38805,2.80695
1680001707087,1181695443288476,7.4610004,6.4099503,2.73495
1680001707090,1181695445790635,7.4460006,6.3790503,2.7540002
1680001707093,1181695448292788,7.4820004,6.4429502,2.88105
1680001707096,1181695450794942,7.49205,6.4750504,2.7610502
1680001707101,1181695453297327,7.49205,6.4429502,2.8330503
1680001707102,1181695455799481,7.5040503,6.4080005,2.8260002
1680001707103,1181695458301635,7.5760503,6.4429502,2.7559502
1680001707105,1181695460803788,7.5420003,6.4219503,2.799
1680001707108,1181695463305942,7.5420003,6.38805,2.7469501
1680001707111,1181695465808096,7.5799503,6.4410005,2.6869502
1680001707113,1181695468310356,7.5400505,6.4030504,2.69595
1680001707117,1181695470812510,7.5210004,6.4339504,2.6820002
1680001707118,1181695473314664,7.4940004,6.4290004,2.7280502
1680001707121,1181695475816818,7.6039505,6.4170003,2.6839502
1680001707124,1181695478318990,7.4890504,6.3910503,2.8189502
1680001707126,1181695480821144,7.497,6.5130005,2.6460001
1680001707128,1181695483323298,7.5040503,6.4840503,2.69895
1680001707131,1181695485825452,7.5060005,6.4669504,2.70795
1680001707135,1181695488327597,7.4989505,6.4030504,2.766
1680001707136,1181695490829981,7.458,6.453,2.6440501
1680001707138,1181695493332135,7.4730005,6.5059505,2.70795
1680001707140,1181695495834058,7.5589504,6.4840503,2.6200502
1680001707143,1181695498336212,7.5660005,6.4480505,2.67
1680001707145,1181695500838587,7.4749503,6.50295,2.7439501
1680001707152,1181695503340818,7.5349503,6.5659504,2.6869502
1680001707154,1181695505842895,7.5330005,6.52995,2.6920502
1680001707155,1181695508345048,7.6090503,6.4429502,2.80695
1680001707157,1181695510847207,7.53,6.4939504,2.811
1680001707159,1181695513349361,7.53,6.5080504,2.6940002
1680001707161,1181695515851515,7.5540004,6.5130005,2.7180002
1680001707163,1181695518353746,7.4820004,6.49095,2.87805
1680001707168,1181695520855914,7.5109506,6.4890003,2.73495
1680001707169,1181695523358067,7.5730505,6.4939504,2.8210502
1680001707173,1181695525860221,7.5780005,6.46005,2.84295
1680001707174,1181695528362375,7.4800506,6.45795,2.799
1680001707176,1181695530864529,7.4820004,6.4939504,2.775
1680001707178,1181695533366914,7.4389505,6.4240503,2.7250502
1680001707181,1181695535869067,7.485,6.4170003,2.799
1680001707186,1181695538371221,7.5370502,6.4789505,2.8620002
1680001707187,1181695540873375,7.5160503,6.4219503,2.67705
1680001707188,1181695543375543,7.52505,6.42705,2.6749501
1680001707191,1181695545877697,7.5610504,6.4080005,2.7160501
1680001707194,1181695548379928,7.5610504,6.4890003,2.6220002
1680001707195,1181695550882081,7.6000504,6.4030504,2.73195
1680001707199,1181695553384231,7.5589504,6.3310504,2.742
1680001707200,1181695555886385,7.6210504,6.43905,2.69595
1680001707203,1181695558388539,7.5829506,6.4840503,2.69595
1680001707206,1181695560890693,7.5610504,6.36,2.7280502
1680001707209,1181695563392716,7.6069503,6.38595,2.6800501
1680001707211,1181695565895177,7.72695,6.3640504,2.6200502
1680001707213,1181695568397331,7.59705,6.38595,2.5890002
1680001707216,1181695570899485,7.6980004,6.2470503,2.70105
1680001707218,1181695573401408,7.6789503,6.3169503,2.5500002
1680001707221,1181695575903562,7.6399503,6.34005,2.56695
1680001707223,1181695578405716,7.6210504,6.288,2.6170502
1680001707225,1181695580908100,7.63605,6.3570004,2.5810502
1680001707228,1181695583410244,7.6260004,6.29505,2.56005
1680001707231,1181695585912398,7.5280504,6.2590504,2.6580002
1680001707233,1181695588414552,7.5160503,6.29505,2.56695
1680001707235,1181695590916706,7.2400503,6.4170003,2.6200502
1680001707238,1181695593418860,7.1970005,6.465,2.5530002
1680001707241,1181695595921019,7.3390503,6.43905,2.6130002
1680001707243,1181695598423249,7.2790504,6.3430505,2.56005
1680001707247,1181695600925403,7.22805,6.30495,2.637
1680001707250,1181695603427547,7.11105,6.249,2.4829502
1680001707252,1181695605929701,7.3050003,6.2850003,2.40405
1680001707254,1181695608431855,7.2070503,6.333,2.3040001
1680001707256,1181695610934009,7.1590505,6.2689505,2.29395
1680001707258,1181695613436393,7.188,6.2779503,2.217
1680001707261,1181695615938557,7.2520504,6.31395,2.14995
1680001707263,1181695618440711,7.1610003,6.3090005,2.11905
1680001707265,1181695620942865,7.18305,6.3,2.2080002
1680001707269,1181695623445019,7.1899505,6.38595,2.22495
1680001707271,1181695625947172,7.1179504,6.4630504,2.232
1680001707273,1181695628449326,7.1970005,6.4030504,2.2009501
1680001707276,1181695630951480,7.2240005,6.4339504,2.325
1680001707278,1181695633453711,7.1950502,6.4819503,2.4499502
1680001707281,1181695635955865,7.1520004,6.47205,2.3490002
1680001707284,1181695638457980,7.149,6.5389504,2.4499502
1680001707287,1181695640960057,7.3840504,6.5509505,2.4139502
1680001707290,1181695643462210,7.1899505,6.6450005,2.4859502
1680001707292,1181695645964417,7.2690005,6.6139503,2.4709501
1680001707293,1181695648466571,7.2910504,6.6280503,2.5140002
1680001707296,1181695650968725,7.32705,6.5940003,2.3779502
1680001707298,1181695653470879,7.4100003,6.6330004,2.35605
1680001707301,1181695655973052,7.497,6.6060004,2.3760002
1680001707304,1181695658475205,7.602,6.597,2.43105
1680001707306,1181695660977590,7.5919504,6.5149503,2.328
1680001707308,1181695663479744,7.6189504,6.6109505,2.3440502
1680001707311,1181695665981898,7.827,6.4890003,2.49
1680001707313,1181695668484043,7.8460503,6.5389504,2.2050002
1680001707315,1181695670986197,7.9440002,6.5800505,2.3160002
1680001707319,1181695673488350,7.9849505,6.4549503,2.22
1680001707323,1181695675990504,8.13,6.54405,2.31795
1680001707325,1181695678492744,8.200951,6.537,2.43105
1680001707327,1181695680994898,8.11905,6.57,2.5240502
1680001707330,1181695683497052,8.089951,6.53205,2.502
1680001707332,1181695685999206,8.068951,6.5490003,2.505
1680001707334,1181695688501359,8.02095,6.5509505,2.4400501
1680001707336,1181695691003533,7.9950004,6.5800505,2.4499502
1680001707338,1181695693505918,7.9609504,6.59205,2.46405
1680001707341,1181695696008072,7.96605,6.525,2.49
1680001707343,1181695698509995,7.9090505,6.5560503,2.56695
1680001707346,1181695701012379,7.9420505,6.5730004,2.35605
1680001707348,1181695703514533,7.8220506,6.5059505,2.4760501
1680001707351,1181695706016687,7.8409505,6.45795,2.40405
1680001707353,1181695708518610,7.839,6.5059505,2.49495
1680001707355,1181695711021072,7.827,6.4290004,2.4520502
1680001707359,1181695713523235,7.839,6.453,2.4160502
1680001707361,1181695716025312,7.8180003,6.4290004,2.5240502
1680001707364,1181695718527465,7.794,6.50295,2.3800502
1680001707366,1181695721029706,7.8820505,6.3520503,2.3830502
1680001707368,1181695723531860,7.806,6.36705,2.5530002
1680001707371,1181695726034014,7.7839503,6.3090005,2.457
1680001707373,1181695728536168,7.7410502,6.34005,2.5189502
1680001707376,1181695731038322,7.7220006,6.3310504,2.4709501
1680001707378,1181695733540499,7.7119503,6.3520503,2.526
1680001707381,1181695736042884,7.7860503,6.3019505,2.502
1680001707383,1181695738545038,7.87305,6.3240004,2.5410001
1680001707385,1181695741047192,7.7959504,6.33795,2.5530002
1680001707388,1181695743549351,7.8700504,6.3499503,2.5740001
1680001707391,1181695746051504,7.8460503,6.2970004,2.5840502
1680001707393,1181695748553658,7.9180503,6.30495,2.634
1680001707397,1181695751055812,7.9249506,6.29505,2.60295
1680001707400,1181695753558071,7.9759502,6.2899504,2.50005
1680001707402,1181695756060225,7.9950004,6.46005,2.53395
1680001707404,1181695758562302,8.031,6.40005,2.4810002
1680001707406,1181695761064456,8.050051,6.4549503,2.39505
1680001707408,1181695763566609,8.031,6.4890003,2.469
1680001707411,1181695766068831,8.1,6.43905,2.4499502
1680001707413,1181695768570985,8.148001,6.53205,2.35395
1680001707416,1181695771073139,8.170051,6.4429502,2.3490002
1680001707418,1181695773575293,8.158051,6.4410005,2.3419502
1680001707421,1181695776077447,8.20605,6.453,2.3440502
1680001707423,1181695778579609,8.161051,6.3910503,2.33205
1680001707432,1181695781081763,8.16495,6.53205,2.2699502
1680001707432,1181695783584148,8.14095,6.5080504,2.18895
1680001707432,1181695786086302,8.128051,6.4840503,2.28195
1680001707434,1181695788588451,8.149051,6.477,2.29605
1680001707436,1181695791090605,7.9230003,6.46995,2.217
1680001707438,1181695793592758,7.9900503,6.4870505,2.2390501
1680001707441,1181695796094912,7.87305,6.46005,2.22495
1680001707443,1181695798597066,7.9230003,6.4870505,2.229
1680001707446,1181695801099297,7.8580503,6.5230503,2.24895
1680001707448,1181695803601451,7.899,6.47205,2.2459502
1680001707452,1181695806103605,7.86495,6.51105,2.24895
1680001707453,1181695808605787,7.8889503,6.5560503,2.232
1680001707455,1181695811107941,7.7770505,6.57,2.229
1680001707458,1181695813610095,7.80105,6.4960504,2.15295
1680001707460,1181695816112249,7.7550006,6.6210003,2.18895
1680001707463,1181695818614649,7.7890506,6.5509505,2.12895
1680001707465,1181695821116802,7.767,6.5869503,2.01405
1680001707468,1181695823618956,7.76205,6.558,1.9060501
1680001707472,1181695826120859,7.767,6.45795,2.0670002
1680001707474,1181695828623013,7.72905,6.537,2.1340501
1680001707476,1181695831125398,7.806,6.5610003,2.08095
1680001707478,1181695833627629,7.839,6.5080504,2.1430502
1680001707481,1181695836129706,7.8130503,6.52995,2.2080002
1680001707483,1181695838631879,7.8700504,6.63,2.016
1680001707487,1181695841134033,7.8300004,6.5179505,2.09805
1680001707489,1181695843636264,7.9210505,6.5340004,2.18205
1680001707492,1181695846138341,7.8439503,6.477,2.1409502
1680001707493,1181695848640586,7.9159503,6.5539503,2.1720002
1680001707496,1181695851142740,7.8970504,6.5989504,2.09805
1680001707499,1181695853644893,7.8970504,6.5730004,2.09295
1680001707502,1181695856147047,7.9129505,6.5820003,2.09805
1680001707504,1181695858649187,7.9110003,6.6610503,2.1430502
1680001707505,1181695861151341,7.9350004,6.537,2.1340501
1680001707509,1181695863653726,7.8850503,6.537,1.9920001
1680001707512,1181695866155879,7.8559504,6.6709504,2.112
1680001707513,1181695868658018,7.8250504,6.54195,2.14995
1680001707516,1181695871160172,7.8820505,6.5560503,2.29605
1680001707518,1181695873662326,7.7359505,6.6540003,2.2770002
1680001707521,1181695876164480,7.83195,6.66405,2.22495
1680001707527,1181695878666615,7.7310004,6.6139503,2.301
1680001707528,1181695881168845,7.7980504,6.60195,2.24895
1680001707530,1181695883670999,7.8610506,6.5989504,2.25105
1680001707532,1181695886173153,7.7550006,6.6259503,2.2390501
1680001707534,1181695888675307,7.7100005,6.5560503,2.2369502
1680001707536,1181695891177442,7.7430005,6.4669504,2.16195
1680001707538,1181695893679519,7.7239504,6.5340004,2.05695
1680001707541,1181695896181980,7.7500505,6.5080504,2.2009501
1680001707543,1181695898684134,7.7890506,6.5149503,2.148
1680001707549,1181695901186278,7.7479506,6.5200505,1.9800001
1680001707550,1181695903688201,7.68795,6.59205,2.079
1680001707553,1181695906190355,7.6759505,6.4890003,2.11905
1680001707554,1181695908692509,7.7119503,6.4789505,2.09505
1680001707557,1181695911194663,7.62405,6.597,2.028
1680001707558,1181695913697061,7.6429505,6.5130005,2.00895
1680001707561,1181695916199215,7.5730505,6.537,2.05005
1680001707564,1181695918701369,7.602,6.525,2.05695
1680001707566,1181695921203523,7.59495,6.5080504,1.94895
1680001707568,1181695923705668,7.6500006,6.4960504,2.02605
1680001707571,1181695926207822,7.7100005,6.49095,2.01405
1680001707576,1181695928710052,7.63605,6.5010004,2.052
1680001707579,1181695931212206,7.6639504,6.525,1.9990501
1680001707579,1181695933714374,7.8130503,6.6060004,2.0689502
1680001707581,1181695936216528,7.8850503,6.60195,1.968
1680001707585,1181695938718682,7.8919506,6.465,2.1049502
1680001707586,1181695941220836,7.8460503,6.5269504,2.0070002
1680001707590,1181695943723210,7.8199506,6.4960504,2.0299501
1680001707591,1181695946225364,7.8439503,6.5680504,2.0070002
1680001707593,1181695948727518,7.7839503,6.49905,2.0380502
1680001707596,1181695951229672,7.8199506,6.5490003,1.9350001
1680001707599,1181695953731826,7.7959504,6.54195,1.9350001
1680001707601,1181695956233976,7.8370504,6.5149503,1.932
1680001707603,1181695958736129,7.72905,6.6160502,1.9590001
1680001707606,1181695961238283,7.7410502,6.597,1.9969501
1680001707609,1181695963740514,7.7500505,6.6280503,1.84395
1680001707611,1181695966242677,7.7500505,6.5389504,1.9759501
1680001707613,1181695968744754,7.7770505,6.6109505,1.899
1680001707617,1181695971246908,7.7380505,6.60195,1.9350001
1680001707620,1181695973749047,7.8100505,6.64905,1.9540501
1680001707623,1181695976251278,7.8559504,6.57,2.0380502
1680001707624,1181695978753432,7.7530503,6.6109505,1.9780501
1680001707627,1181695981255586,7.8150005,6.6109505,1.9519501
1680001707628,1181695983757740,7.7910004,6.62295,1.9369501
1680001707631,1181695986259908,7.7460003,6.7000504,2.08605
1680001707634,1181695988762062,7.7770505,6.6139503,1.9110001
1680001707637,1181695991264215,7.6980004,6.6210003,2.02605
1680001707642,1181695993766619,7.77405,6.60195,1.87995
1680001707642,1181695996268773,7.6710005,6.57,1.968
1680001707644,1181695998770927,7.7220006,6.7000504,1.88505
1680001707647,1181696001273081,7.6260004,6.6709504,2.05005
1680001707651,1181696003775244,7.7100005,6.62295,1.9009501
1680001707652,1181696006277475,7.695,6.609,1.9110001
1680001707653,1181696008779552,7.7310004,6.6259503,1.94895
1680001707656,1181696011281706,7.6470003,6.5989504,1.91295
1680001707661,1181696013783860,7.63605,6.59205,1.9200001
1680001707662,1181696016286004,7.6759505,6.63,1.8700501
1680001707665,1181696018788234,7.6309505,6.5779505,2.02605
1680001707666,1181696021290388,7.6189504,6.5779505,2.05695
1680001707670,1181696023792542,7.6260004,6.6139503,2.09805
1680001707672,1181696026294696,7.6039505,6.642,2.00895
1680001707673,1181696028796874,7.6039505,6.6139503,2.1000001
1680001707676,1181696031299028,7.5880504,6.5779505,1.9990501
1680001707679,1181696033801182,7.62795,6.5940003,2.055
1680001707681,1181696036303566,7.59705,6.5230503,2.055
1680001707684,1181696038805730,7.5780005,6.5850005,2.1670501
1680001707687,1181696041307884,7.5660005,6.5989504,2.2080002
1680001707693,1181696043810038,7.6759505,6.537,2.196
1680001707693,1181696046312192,7.5709505,6.702,2.232
1680001707694,1181696048814350,7.6000504,6.63,2.15805
1680001707697,1181696051316581,7.6069503,6.60195,2.217
1680001707700,1181696053818735,7.6140003,6.6730504,2.1769502
1680001707702,1181696056320812,7.6189504,6.66405,2.217
1680001707704,1181696058823057,7.66905,6.5869503,2.2770002
1680001707707,1181696061325211,7.695,6.6180005,2.124
1680001707709,1181696063827364,7.5850506,6.5800505,2.2030501
1680001707712,1181696066329518,7.6309505,6.681,2.12595
1680001707714,1181696068831672,7.59,6.72795,2.055
1680001707716,1181696071334096,7.6590004,6.642,1.9920001
1680001707718,1181696073836250,7.5469503,6.6660004,2.1000001
1680001707721,1181696076338173,7.6330504,6.66405,2.02605
1680001707724,1181696078840327,7.6309505,6.6829505,2.052
1680001707727,1181696081342466,7.6860003,6.5730004,1.8529501
1680001707729,1181696083844851,7.6930504,6.6400504,1.9710001
1680001707732,1181696086347005,7.6710005,6.6930003,1.84905
1680001707734,1181696088849159,7.6909504,6.63,1.8919501
1680001707736,1181696091351313,7.6710005,6.5869503,1.8940501
1680001707739,1181696093853480,7.6710005,6.6280503,1.7820001
1680001707741,1181696096355634,7.662,6.62295,1.9879501
1680001707743,1181696098857865,7.6909504,6.5940003,1.9969501
1680001707745,1181696101360019,7.66695,6.6589503,1.9200001
1680001707749,1181696103862169,7.6909504,6.7309504,1.9009501
1680001707752,1181696106364323,7.6189504,6.5230503,1.968
1680001707753,1181696108866476,7.6789503,6.5659504,1.9710001
1680001707756,1181696111368630,7.6399503,6.7759504,2.0020502
1680001707759,1181696113870784,7.6090503,6.6139503,1.968
1680001707761,1181696116373164,7.6429505,6.72795,1.9279501
1680001707763,1181696118875318,7.65705,6.681,1.94895
1680001707767,1181696121377472,7.59,6.67605,1.932
1680001707770,1181696123879606,7.6120505,6.76695,1.8049501
1680001707773,1181696126381760,7.662,6.73605,1.84395
1680001707775,1181696128883914,7.6159506,6.6469502,1.9969501
1680001707776,1181696131386145,7.6039505,6.702,1.81305
1680001707779,1181696133888222,7.63605,6.7189503,1.8559501
1680001707781,1181696136390371,7.63605,6.66405,1.91295
1680001707784,1181696138892601,7.6639504,6.7050004,1.8250501
1680001707786,1181696141394678,7.6470003,6.7380004,1.8970501
1680001707790,1181696143896832,7.6309505,6.5680504,1.794
1680001707792,1181696146398981,7.66905,6.6139503,1.7740501
1680001707794,1181696148901212,7.6590004,6.6730504,1.7670001
1680001707796,1181696151403366,7.63605,6.73605,1.8750001
1680001707799,1181696153905520,7.66905,6.6780005,1.9560001
1680001707801,1181696156407658,7.68795,6.5779505,1.968
1680001707803,1181696158909812,7.7149506,6.5800505,2.0020502
1680001707807,1181696161411966,7.69995,6.4960504,2.0760002
1680001707810,1181696163914351,7.7410502,6.6610503,2.019
1680001707813,1181696166416477,7.7380505,6.5610003,2.0689502
1680001707814,1181696168918630,7.7460003,6.5340004,2.193
1680001707816,1181696171420784,7.806,6.4890003,2.15805
1680001707820,1181696173922938,7.8889503,6.6469502,2.02605
1680001707822,1181696176425092,7.8490505,6.6280503,2.08305
1680001707824,1181696178927313,7.8130503,6.6060004,2.1460502
1680001707826,1181696181429467,7.8409505,6.49905,2.1700501
1680001707829,1181696183931620,7.8220506,6.59205,2.12895
1680001707832,1181696186433774,7.827,6.5680504,2.00895
1680001707834,1181696188935846,7.7460003,6.5230503,2.0070002
1680001707836,1181696191438000,7.8850503,6.5179505,2.0689502
1680001707840,1181696193940231,7.767,6.5130005,1.9759501
1680001707842,1181696196442615,7.806,6.6610503,1.9990501
1680001707844,1181696198944529,7.8130503,6.60405,1.9780501
1680001707848,1181696201446682,7.75995,6.6180005,1.863
1680001707850,1181696203948836,7.7239504,6.5389504,2.05695
1680001707852,1181696206451221,7.8439503,6.5680504,1.9759501
1680001707854,1181696208953144,7.7890506,6.6610503,2.02605
1680001707857,1181696211455529,7.7790003,6.7260003,2.0760002
1680001707859,1181696213957682,7.76205,6.5730004,1.9780501
1680001707861,1181696216459836,7.7310004,6.62295,1.968
1680001707863,1181696218961990,7.7380505,6.6570005,1.9039501
1680001707866,1181696221464135,7.7239504,6.69495,1.8870001
1680001707869,1181696223966289,7.6519504,6.6610503,1.7670001
1680001707871,1181696226468443,7.695,6.73605,1.8730501
1680001707873,1181696228970673,7.6189504,6.7720504,1.8220501
1680001707876,1181696231472827,7.63605,6.7960505,1.7580001
1680001707879,1181696233974976,7.485,6.6259503,1.64295
1680001707881,1181696236477130,7.6639504,6.714,1.6159501
1680001707885,1181696238979284,7.5919504,6.6450005,1.7820001
1680001707887,1181696241481408,7.6140003,6.7549505,1.5439501
1680001707891,1181696243983792,7.5709505,6.7189503,1.7070001
1680001707892,1181696246485946,7.6039505,6.6450005,1.69095
1680001707894,1181696248988100,7.6309505,6.6900005,1.7170501
1680001707896,1181696251490254,7.5880504,6.73605,1.69305
1680001707899,1181696253992408,7.6450505,6.6610503,1.743
1680001707901,1181696256494331,7.53,6.669,1.6140001
1680001707903,1181696258996715,7.59705,6.6259503,1.69305
1680001707906,1181696261498946,7.5679502,6.5940003,1.7220001
1680001707909,1181696264001100,7.5610504,6.6829505,1.8010501
1680001707911,1181696266503172,7.5709505,6.54195,1.84905
1680001707913,1181696269005326,7.518,6.63,1.8010501
1680001707916,1181696271507480,7.66905,6.6610503,1.7119501
1680001707919,1181696274009710,7.6140003,6.67605,1.9399501
1680001707922,1181696276511864,7.6000504,6.5509505,1.81305
1680001707924,1181696279014018,7.59,6.72795,1.8580501
1680001707927,1181696281516172,7.6039505,6.63705,1.81305
1680001707930,1181696284018326,7.53,6.7549505,1.83405
1680001707931,1181696286520726,7.4989505,6.6709504,1.71405
1680001707933,1181696289022879,7.55595,6.5850005,1.7860501
1680001707936,1181696291525033,7.5349503,6.8149505,1.6140001
1680001707940,1181696294027187,7.458,6.702,1.69305
1680001707942,1181696296529360,7.4010005,6.8170505,1.7580001
1680001707943,1181696299031514,7.42005,6.8050504,1.7310001
1680001707946,1181696301533745,7.5010505,6.81195,1.8529501
1680001707949,1181696304035898,7.4440503,6.7450504,1.8079501
1680001707951,1181696306538037,7.46505,6.7720504,1.8510001
1680001707953,1181696309040114,7.458,6.8239503,1.8580501
1680001707956,1181696311542268,7.5160503,6.867,1.79595
1680001707961,1181696314044499,7.45305,6.846,1.7070001
1680001707962,1181696316546668,7.3699503,6.9370503,1.9350001
1680001707966,1181696319048822,7.3939505,6.774,1.9540501
1680001707967,1181696321550975,7.45095,6.8599505,1.794
1680001707970,1181696324053129,7.4389505,6.8509502,1.8679501
1680001707971,1181696326555283,7.41795,6.8869505,1.88505
1680001707973,1181696329057451,7.37895,6.9270005,1.88205
1680001707976,1181696331559605,7.3699503,6.8170505,1.794
1680001707979,1181696334061989,7.31505,6.7429504,1.7190001
1680001707981,1181696336564143,7.39095,6.76905,1.7260501
1680001707984,1181696339066326,7.2739506,6.79995,1.7890501
1680001707986,1181696341568480,7.2670503,6.8170505,1.674
1680001707990,1181696344070634,7.2829504,6.7980003,1.8370501
1680001707992,1181696346572788,7.2070503,6.8029504,1.6830001
1680001707994,1181696349074928,7.3840504,6.7450504,1.6690501
1680001707997,1181696351577158,7.2979503,6.85305,1.7550001
1680001708000,1181696354079312,7.25895,6.76905,1.863
1680001708003,1181696356581466,7.28595,6.7549505,1.6330501
1680001708005,1181696359083605,7.25895,6.74805,1.7220001
1680001708007,1181696361585759,7.2739506,6.8100004,1.7479501
1680001708010,1181696364087913,7.2570004,6.7930503,1.69095
1680001708012,1181696366590066,7.25505,6.7840505,1.7410501
1680001708014,1181696369092451,7.2760506,6.8629503,1.6380001
1680001708018,1181696371594605,7.3390503,6.7380004,1.7359501
1680001708020,1181696374096759,7.2979503,6.7639503,1.6789501
1680001708021,1181696376598682,7.3050003,6.8269506,1.6210501
1680001708024,1181696379100836,7.3050003,6.7450504,1.7479501
1680001708027,1181696381603220,7.2790504,6.88395,1.6690501
1680001708030,1181696384105437,7.3050003,6.8550005,1.7260501
1680001708032,1181696386607514,7.3840504,6.8149505,1.72395
1680001708035,1181696389109668,7.3720503,6.774,1.7410501
1680001708037,1181696391611822,7.3549504,6.80805,1.6690501
1680001708040,1181696394113985,7.3120503,6.7549505,1.6690501
1680001708041,1181696396616138,7.3500004,6.6900005,1.6210501
1680001708045,1181696399118369,7.4269505,6.7429504,1.8100501
1680001708046,1181696401620523,7.3960505,6.7909503,1.69095
1680001708050,1181696404122677,7.386,6.8290505,1.75995
1680001708058,1181696406624846,7.4100003,6.74805,1.67595
1680001708058,1181696409127000,7.36005,6.8149505,1.79805
1680001708058,1181696411629153,7.386,6.834,1.6500001
1680001708059,1181696414131538,7.4389505,6.8599505,1.65495
1680001708061,1181696416633701,7.3960505,6.87195,1.60905
1680001708064,1181696419135855,7.3650002,6.91095,1.7839501
1680001708066,1181696421638009,7.3720503,6.8239503,1.76505
1680001708069,1181696424140162,7.2619505,6.77895,1.695
1680001708073,1181696426642302,7.2829504,6.8479505,1.7190001
1680001708074,1181696429144456,7.2979503,6.8550005,1.64295
1680001708076,1181696431646687,7.34595,6.72795,1.6570501
1680001708079,1181696434148764,7.2040505,6.7879505,1.76205
1680001708081,1181696436650918,7.2739506,6.8770504,1.83405
1680001708085,1181696439153145,7.2670503,6.7429504,1.8610501
1680001708086,1181696441655298,7.2739506,6.8239503,1.8390001
1680001708089,1181696444157375,7.3699503,6.84105,1.9110001
1680001708091,1181696446659606,7.25505,6.8220005,1.7260501
1680001708094,1181696449161760,7.3120503,6.9420004,1.7260501
1680001708097,1181696451664149,7.35795,6.8149505,1.79805
1680001708100,1181696454166072,7.3939505,6.8629503,1.7220001
1680001708102,1181696456668225,7.3050003,6.8820004,1.8079501
1680001708104,1181696459170379,7.39095,6.84105,1.7479501
1680001708107,1181696461672542,7.4100003,6.8100004,1.674
1680001708111,1181696464174927,7.4560504,6.8629503,1.82895
1680001708113,1181696466677081,7.35795,6.83895,1.72905
1680001708115,1181696469179235,7.4130006,6.91305,1.7070001
1680001708117,1181696471681383,7.425,6.8509502,1.7550001
1680001708121,1181696474183537,7.43205,6.9250503,1.6500001
1680001708122,1181696476685691,7.5090003,6.89895,1.6140001
1680001708124,1181696479187922,7.4220004,6.9270005,1.7580001
1680001708126,1181696481690100,7.37895,6.9340506,1.69305
1680001708129,1181696484192254,7.4869504,7.01805,1.659
1680001708131,1181696486694407,7.46505,6.9750004,1.659
1680001708134,1181696489196561,7.518,7.0020003,1.7119501
1680001708136,1181696491698638,7.5850506,7.0729504,1.60395
1680001708140,1181696494201100,7.5349503,6.9199505,1.71
1680001708141,1181696496703254,7.5439506,6.9940505,1.6470001
1680001708146,1181696499205378,7.6710005,6.9750004,1.7890501
1680001708151,1181696501707302,7.6590004,7.0330505,1.6350001
1680001708151,1181696504209455,7.662,6.9679503,1.6810501
1680001708153,1181696506711840,7.6930504,7.0129504,1.6669501
1680001708155,1181696509213763,7.7359505,7.0729504,1.6879501
1680001708159,1181696511716125,7.6860003,7.01805,1.674
1680001708160,1181696514218279,7.6909504,6.9820504,1.6500001
1680001708163,1181696516720432,7.7100005,7.011,1.7310001
1680001708165,1181696519222586,7.7910004,7.0969505,1.6570501
1680001708166,1181696521724740,7.6189504,7.1050506,1.485
1680001708170,1181696524226927,7.6210504,7.0540504,1.6140001
1680001708174,1181696526729158,7.6429505,7.0690503,1.5949501
1680001708174,1181696529231312,7.6210504,7.09005,1.626
1680001708176,1181696531733465,7.62795,7.143,1.6279501
1680001708180,1181696534235624,7.6260004,7.1329503,1.5949501
1680001708181,1181696536737778,7.62795,7.1740503,1.5130501
1680001708185,1181696539239932,7.55595,7.071,1.5010501
1680001708187,1181696541742086,7.5370502,7.1640005,1.542
1680001708191,1181696544244455,7.6330504,7.14795,1.5130501
1680001708192,1181696546746609,7.46505,7.1260505,1.5439501
1680001708194,1181696549248763,7.5520506,7.1520004,1.4320501
1680001708197,1181696551750917,7.5469503,7.227,1.47
1680001708200,1181696554253071,7.4800506,7.1520004,1.542
1680001708201,1181696556755245,7.52505,7.2910504,1.4440501
1680001708205,1181696559257399,7.5420003,7.0609503,1.422
1680001708207,1181696561759552,7.497,7.1860504,1.3980001
1680001708209,1181696564261706,7.5109506,7.116,1.5370501
1680001708215,1181696566763937,7.5040503,7.0639505,1.5589501
1680001708215,1181696569266091,7.5660005,7.15005,1.55595
1680001708216,1181696571768245,7.5400505,7.15005,1.5109501
1680001708219,1181696574270399,7.52295,7.1640005,1.7340001
1680001708223,1181696576772537,7.5130506,7.1380506,1.5010501
1680001708224,1181696579274691,7.5760503,7.0849504,1.5780001
1680001708229,1181696581776845,7.5090003,7.12095,1.50405
1680001708230,1181696584279230,7.5780005,7.1020503,1.5589501
1680001708231,1181696586781153,7.53,7.0810504,1.5280501
1680001708234,1181696589283307,7.497,7.1190004,1.60395
1680001708236,1181696591785691,7.5160503,7.1520004,1.5520501
1680001708240,1181696594287845,7.4800506,7.1260505,1.623
1680001708242,1181696596789768,7.458,7.116,1.6980001
1680001708245,1181696599291937,7.4010005,7.1839504,1.626
1680001708246,1181696601794322,7.3669505,7.10895,1.57605
1680001708250,1181696604296553,7.3650002,7.1860504,1.5850501
1680001708252,1181696606798629,7.3050003,7.2240005,1.5109501
1680001708254,1181696609300783,7.32705,7.155,1.5300001
1680001708257,1181696611802941,7.2829504,7.2070503,1.4940001
1680001708261,1181696614305095,7.2120004,7.1280003,1.48695
1680001708263,1181696616807326,7.2979503,7.22205,1.5850501
1680001708265,1181696619309480,7.248,7.143,1.5090001
1680001708266,1181696621811633,7.209,7.1929502,1.5469501
1680001708270,1181696624313787,7.1659503,7.1239505,1.4749501
1680001708272,1181696626815941,7.21605,7.28205,1.5880501
1680001708274,1181696629318095,7.2040505,7.2750006,1.6189501
1680001708276,1181696631820226,7.1520004,7.215,1.47
1680001708280,1181696634322611,7.25505,7.18095,1.6020001
1680001708282,1181696636824764,7.1850004,7.2030005,1.5660001
1680001708285,1181696639326918,7.209,7.1670003,1.6159501
1680001708287,1181696641829058,7.2760506,7.08795,1.64295
1680001708290,1181696644330981,7.2790504,7.2310505,1.6710001
1680001708292,1181696646833366,7.2739506,7.1790004,1.5679501
1680001708294,1181696649335597,7.3650002,7.143,1.4610001
1680001708298,1181696651837735,7.2739506,7.176,1.57605
1680001708300,1181696654339812,7.31895,7.2510004,1.6830001
1680001708303,1181696656841966,7.3339505,7.176,1.6210501
1680001708305,1181696659344197,7.2619505,7.3030505,1.5850501
1680001708307,1181696661846351,7.2829504,7.35795,1.6500001
1680001708310,1181696664348419,7.3740005,7.3180504,1.6639501
1680001708312,1181696666850650,7.2829504,7.2840004,1.5520501
1680001708314,1181696669352803,7.3339505,7.3969502,1.3770001
1680001708317,1181696671854957,7.3740005,7.34595,1.5010501
1680001708321,1181696674357092,7.3410006,7.3630505,1.4490001
1680001708324,1181696676859246,7.37895,7.32705,1.4460001
1680001708325,1181696679361400,7.4100003,7.3699503,1.5520501
1680001708327,1181696681863784,7.3549504,7.4010005,1.4320501
1680001708329,1181696684365938,7.3360505,7.3699503,1.3410001
1680001708332,1181696686868082,7.3360505,7.4160004,1.422
1680001708335,1181696689370236,7.293,7.5600004,1.33395
1680001708337,1181696691872390,7.3000503,7.4059505,1.3050001
1680001708340,1181696694374544,7.2690005,7.4830503,1.33395
1680001708342,1181696696876760,7.2190504,7.4689503,1.338
1680001708344,1181696699378914,7.3000503,7.4010005,1.33605
1680001708347,1181696701880991,7.15395,7.4539504,1.3410001
1680001708350,1181696704383222,7.1470504,7.4610004,1.317
1680001708352,1181696706885390,7.1659503,7.485,1.40295
1680001708354,1181696709387544,7.116,7.3699503,1.25205
1680001708356,1181696711889621,7.1400003,7.4470506,1.2709501
1680001708360,1181696714391851,7.0849504,7.3750505,1.281
1680001708362,1181696716894236,7.1449504,7.32705,1.4629501
1680001708365,1181696719396385,7.0849504,7.34595,1.3600501
1680001708367,1181696721898308,6.9600005,7.248,1.4680501
1680001708371,1181696724400462,7.0030503,7.2000003,1.48695
1680001708374,1181696726902592,7.0800004,7.2840004,1.353
1680001708376,1181696729404976,7.0339503,7.3030505,1.4320501
1680001708377,1181696731907130,6.9820504,7.3369503,1.5370501
1680001708380,1181696734409284,7.0129504,7.1239505,1.4130001
1680001708382,1181696736911438,7.089,7.2070503,1.5109501
1680001708384,1181696739413611,7.0129504,7.1329503,1.554
1680001708387,1181696741915765,6.9580503,7.2390003,1.59195
1680001708390,1181696744417918,7.01805,7.2390003,1.65495
1680001708392,1181696746920149,7.0249505,7.2390003,1.5780001
1680001708394,1181696749422303,7.0729504,7.2430506,1.52505
1680001708397,1181696751924457,7.03695,7.2670503,1.6210501
1680001708400,1181696754426611,7.077,7.2889504,1.59195
1680001708402,1181696756928765,7.0129504,7.287,1.52295
1680001708408,1181696759430913,7.0249505,7.287,1.4820001
1680001708408,1181696761933298,7.0459504,7.31505,1.57095
1680001708411,1181696764435452,7.089,7.28205,1.5589501
1680001708413,1181696766937606,7.077,7.425,1.45305
1680001708415,1181696769439760,7.00605,7.2750006,1.48905
1680001708417,1181696771941683,7.0849504,7.3420506,1.5280501
1680001708420,1181696774444067,7.06995,7.3630505,1.473
1680001708422,1181696776946298,7.03905,7.3780503,1.5010501
1680001708424,1181696779448375,7.04895,7.4610004,1.473
1680001708427,1181696781950515,6.9910502,7.392,1.4970001
1680001708430,1181696784452669,6.984,7.4350505,1.4320501
1680001708432,1181696786954899,7.1010003,7.38705,1.45305
1680001708434,1181696789456976,7.0249505,7.42995,1.4170501
1680001708437,1181696791959130,7.0270505,7.452,1.4800501
1680001708440,1181696794461375,7.0420504,7.4610004,1.3549501
1680001708441,1181696796963529,7.0650005,7.4419503,1.40295
1680001708445,1181696799465683,7.0609503,7.5000005,1.36695
1680001708448,1181696801967856,7.0540504,7.5160503,1.3960501
1680001708450,1181696804470009,7.0129504,7.5430503,1.422
1680001708452,1181696806972163,7.0009503,7.4710503,1.3789501
1680001708454,1181696809474548,7.0339503,7.5480003,1.5300001
1680001708457,1181696811976702,7.03695,7.5070505,1.41495
1680001708460,1181696814478875,7.0320005,7.5000005,1.422
1680001708461,1181696816981028,7.0920005,7.524,1.4460001
1680001708464,1181696819483182,7.00995,7.5550504,1.3789501
1680001708467,1181696821985336,7.03695,7.4730005,1.4680501
1680001708470,1181696824487490,7.0339503,7.5600004,1.56105
1680001708472,1181696826989644,7.0630503,7.5330005,1.4989501
1680001708474,1181696829491875,7.0729504,7.5000005,1.4989501
1680001708477,1181696831994029,6.9240003,7.4950504,1.51995
1680001708480,1181696834496191,6.9889503,7.45905,1.5319501
1680001708482,1181696836998268,6.8929505,7.48995,1.4610001
1680001708486,1181696839500422,6.8280005,7.5670505,1.52505
1680001708488,1181696842002653,6.9100504,7.5670505,1.5180001
1680001708491,1181696844504855,6.8380504,7.66695,1.4770501
1680001708493,1181696847007009,6.8689504,7.6069503,1.48905
1680001708495,1181696849509162,6.7639503,7.5040503,1.51995
1680001708497,1181696852011547,6.8280005,7.6189504,1.3980001
1680001708500,1181696854513720,6.7759504,7.6720505,1.5180001
1680001708502,1181696857015874,6.7159505,7.6650004,1.5180001
1680001708505,1181696859518028,6.80205,7.6510506,1.51995
1680001708507,1181696862020182,6.69705,7.689,1.473
1680001708510,1181696864522335,6.7110004,7.6050005,1.473
1680001708512,1181696867024475,6.6580505,7.6819506,1.4970001
1680001708514,1181696869526629,6.6180005,7.6720505,1.5090001
1680001708517,1181696872028860,6.6150002,7.557,1.4490001
1680001708519,1181696874531014,6.6660004,7.6050005,1.4080501
1680001708523,1181696877033163,6.60795,7.7200503,1.5640501
1680001708526,1181696879535239,6.591,7.6459503,1.3960501
1680001708527,1181696882037393,6.558,7.6530004,1.473
1680001708530,1181696884539855,6.5940003,7.5979505,1.4650501
1680001708532,1181696887042014,6.5119505,7.5480003,1.4440501
1680001708534,1181696889543937,6.4789505,7.62405,1.3549501
1680001708537,1181696892046091,6.49305,7.6189504,1.4269501
1680001708540,1181696894548245,6.4360504,7.6099505,1.317
1680001708542,1181696897050398,6.4740005,7.5720005,1.2910501
1680001708544,1181696899552783,6.5340004,7.4470506,1.34595
1680001708547,1181696902054937,6.49095,7.5210004,1.3579501
1680001708550,1181696904557091,6.4740005,7.59105,1.3939501
1680001708552,1181696907059245,6.4549503,7.5040503,1.3960501
1680001708554,1181696909561369,6.5190005,7.5520506,1.34595
1680001708556,1181696912063523,6.57705,7.4449506,1.45305
1680001708561,1181696914565677,6.6580505,7.4809504,1.45095
1680001708563,1181696917067913,6.6010504,7.5139503,1.4290501
1680001708565,1181696919570067,6.6220503,7.5070505,1.4170501
1680001708567,1181696922072221,6.6340504,7.5760503,1.44105
1680001708570,1181696924574374,6.7110004,7.452,1.422
1680001708572,1181696927076528,6.7210503,7.557,1.35
1680001708574,1181696929578702,6.6919503,7.5430503,1.41495
1680001708577,1181696932081087,6.70905,7.524,1.45605
1680001708580,1181696934583241,6.6390004,7.497,1.44105
1680001708581,1181696937085164,6.7489505,7.65495,1.4170501
1680001708584,1181696939587318,6.7110004,7.6189504,1.5160501
1680001708587,1181696942089687,6.66795,7.6069503,1.4800501
1680001708591,1181696944591841,6.747,7.60305,1.38195
1680001708592,1181696947093764,6.7710004,7.7370005,1.506
1680001708594,1181696949596149,6.6850505,7.6429505,1.3429501
1680001708598,1181696952098318,6.7489505,7.6819506,1.40295
1680001708601,1181696954600471,6.6610503,7.6750503,1.45605
1680001708603,1181696957102625,6.72795,7.7560506,1.45605
1680001708606,1181696959604760,6.735,7.7820005,1.38405
1680001708608,1181696962106914,6.6769505,7.7320504,1.3549501
1680001708610,1181696964609145,6.64905,7.7370005,1.3939501
1680001708612,1181696967111299,6.7210503,7.7539506,1.41495
1680001708614,1181696969613452,6.6199503,7.734,1.4250001
1680001708617,1181696972115582,6.6559505,7.7509503,1.3069501
1680001708621,1181696974617736,6.6390004,7.7490005,1.3939501
1680001708622,1181696977119890,6.5860505,7.7560506,1.45095
1680001708625,1181696979622044,6.5839505,7.689,1.45095
1680001708627,1181696982124428,6.6439505,7.6909504,1.4680501
1680001708630,1181696984626582,6.68205,7.7580004,1.4629501
1680001708632,1181696987128736,6.6319504,7.6840506,1.4100001
1680001708637,1181696989630890,6.5839505,7.8130503,1.365
1680001708637,1181696992133053,6.5890503,7.6980004,1.40295
1680001708640,1181696994634976,6.5790005,7.59495,1.4580001
1680001708643,1181696997137361,6.56295,7.6429505,1.4440501
1680001708646,1181696999639591,6.5940003,7.7200503,1.38195
1680001708647,1181697002141745,6.53595,7.69395,1.4940001
1680001708650,1181697004643822,6.59805,7.761,1.389
1680001708652,1181697007145976,6.61005,7.6909504,1.401
1680001708654,1181697009648130,6.531,7.8520503,1.4490001
1680001708657,1181697012150361,6.69705,7.7250004,1.4269501
1680001708660,1181697014652490,6.543,7.69395,1.386
1680001708662,1181697017154644,6.5119505,7.761,1.5280501
1680001708664,1181697019656798,6.558,7.701,1.4080501
1680001708667,1181697022158952,6.558,7.794,1.4290501
1680001708670,1181697024661121,6.51,7.7800503,1.3579501
1680001708673,1181697027163275,6.53595,7.76805,1.4389501
1680001708675,1181697029665659,6.6250505,7.866,1.422
1680001708681,1181697032167813,6.5599504,7.8370504,1.38405
1680001708681,1181697034669971,6.57705,7.8349504,1.3290001
1680001708682,1181697037172125,6.49305,7.8300004,1.31505
1680001708685,1181697039674279,6.4999504,7.8690004,1.3909501
1680001708687,1181697042176433,6.4840503,7.84005,1.45305
1680001708691,1181697044678668,6.46005,7.90005,1.28805
1680001708692,1181697047180822,6.5290504,7.8829503,1.3600501
1680001708694,1181697049682976,6.4549503,7.87305,1.37205
1680001708697,1181697052185053,6.5410504,7.8450003,1.45095
1680001708700,1181697054687222,6.5599504,7.9399505,1.40295
1680001708702,1181697057189453,6.5530505,7.9020004,1.2859501
1680001708704,1181697059691530,6.558,7.9740005,1.26705
1680001708707,1181697062193760,6.6439505,8.007,1.3579501
1680001708711,1181697064695938,6.6460505,7.9810505,1.23105
1680001708713,1181697067198092,6.6580505,8.017051,1.30005
1680001708715,1181697069700246,6.61005,7.8780003,1.36695
1680001708717,1181697072202400,6.6390004,7.9450502,1.2760501
1680001708719,1181697074704554,6.69705,8.026951,1.2859501
1680001708722,1181697077206942,6.6850505,7.9399505,1.33395
1680001708725,1181697079709096,6.60795,8.007,1.3410001
1680001708727,1181697082211250,6.6540003,7.9549503,1.4059501
1680001708730,1181697084713404,6.6610503,7.9759502,1.3240501
1680001708733,1181697087215558,6.64905,7.9620004,1.4290501
1680001708734,1181697089717712,6.74205,7.97205,1.4100001
1680001708737,1181697092219942,6.6850505,7.9189506,1.317
1680001708741,1181697094722096,6.6990004,7.9450502,1.31895
1680001708743,1181697097224250,6.6870003,7.96395,1.3770001
1680001708744,1181697099726302,6.6340504,7.97205,1.317
1680001708748,1181697102228533,6.6150002,7.9519506,1.26405
1680001708750,1181697104730687,6.7039504,7.8780003,1.3549501
1680001708752,1181697107232840,6.68205,7.8690004,1.40295
1680001708754,1181697109735023,6.5890503,7.82805,1.386
1680001708757,1181697112237177,6.7450504,7.7970004,1.31505
1680001708760,1181697114739562,6.6130505,7.8109503,1.28295
1680001708762,1181697117241485,6.7039504,7.8229504,1.36995
1680001708765,1181697119743649,6.71295,7.9120502,1.3240501
1680001708767,1181697122245803,6.70095,7.8300004,1.37205
1680001708770,1181697124748187,6.6510005,7.84005,1.4170501
1680001708772,1181697127250341,6.66795,7.9519506,1.389
1680001708774,1181697129752495,6.6580505,7.8780003,1.389
1680001708776,1181697132254663,6.57,7.96395,1.365
1680001708780,1181697134756817,6.5790005,7.9159503,1.33395
1680001708782,1181697137258970,6.63,7.9620004,1.3960501
1680001708785,1181697139761124,6.5389504,8.026951,1.4250001
1680001708787,1181697142263278,6.52395,8.01,1.3740001
1680001708790,1181697144765509,6.47205,7.9549503,1.386
1680001708792,1181697147267586,6.4999504,7.998,1.28805
1680001708794,1181697149769740,6.37095,7.9909506,1.28295
1680001708797,1181697152271970,6.3370504,8.161051,1.4320501
1680001708800,1181697154774134,6.40395,8.076,1.3480501
1680001708802,1181697157276288,6.3570004,8.050051,1.338
1680001708805,1181697159778442,6.321,8.127001,1.31895
1680001708807,1181697162280596,6.3520503,8.125051,1.26195
1680001708810,1181697164782740,6.26595,8.155951,1.26405
1680001708812,1181697167285124,6.2370005,8.094001,1.31505
1680001708815,1181697169787278,6.22695,8.200951,1.2760501
1680001708817,1181697172289432,6.1050005,8.22105,1.281
1680001708820,1181697174791571,6.1980004,8.20905,1.23105
1680001708824,1181697177293725,6.19395,8.211,1.18305
1680001708825,1181697179795879,6.2700005,8.194051,1.149
1680001708827,1181697182298032,6.2250004,8.20395,1.28295
1680001708830,1181697184800182,6.1600504,8.19705,1.077
1680001708832,1181697187302336,6.1050005,8.20395,1.1400001
1680001708834,1181697189804567,6.15105,8.311951,1.10895
1680001708837,1181697192306721,6.1530004,8.235001,1.05795
1680001708841,1181697194808798,6.1459503,8.151,0.984
1680001708842,1181697197310952,6.18195,8.158051,1.0129501
1680001708845,1181697199813182,6.234,8.158051,1.008
1680001708847,1181697202315336,6.189,8.211,1.0870501
1680001708850,1181697204817509,6.2029505,8.161051,1.1539501
1680001708852,1181697207319663,6.2100005,8.13405,1.128
1680001708854,1181697209821817,6.3040504,8.194051,1.1179501
1680001708857,1181697212323971,6.29895,8.149051,1.161
1680001708861,1181697214826350,6.3520503,8.11305,1.14195
1680001708863,1181697217328504,6.234,8.101951,1.14405
1680001708865,1181697219830658,6.2370005,8.139,1.1370001
1680001708867,1181697222332812,6.2389503,8.047951,1.06305
1680001708870,1181697224834966,6.2700005,8.137051,1.02495
1680001708872,1181697227337100,6.18195,8.050051,1.18005
1680001708874,1181697229839254,6.2800503,7.9810505,1.14705
1680001708877,1181697232341485,6.2509503,8.056951,1.077
1680001708880,1181697234843639,6.3229504,7.9279504,1.1899501
1680001708882,1181697237345788,6.19395,7.938,1.1590501
1680001708885,1181697239847942,6.2460003,7.9810505,1.149
1680001708887,1181697242350019,6.2370005,7.9480505,1.2240001
1680001708891,1181697244852172,6.16695,7.87095,1.25205
1680001708893,1181697247354624,6.2130003,7.9669504,1.2040501
1680001708895,1181697249856778,6.2200503,7.90005,1.2760501
1680001708899,1181697252358701,6.2440505,7.93095,1.1539501
1680001708901,1181697254860855,6.1720505,7.9240503,1.269
1680001708903,1181697257363005,6.2320504,7.8540006,1.29795
1680001708906,1181697259865158,6.2250004,7.90005,1.31895
1680001708907,1181697262367312,6.16305,7.8780003,1.3480501
1680001708910,1181697264869697,6.12405,7.9879503,1.281
1680001708912,1181697267371851,6.084,8.017051,1.2859501
1680001708914,1181697269874029,6.129,7.9879503,1.2589501
1680001708917,1181697272376182,6.1579504,8.026951,1.233
1680001708920,1181697274878336,6.1270504,8.055,1.2210001
1680001708923,1181697277380490,6.096,8.068951,1.28295
1680001708926,1181697279882683,6.1000504,8.13405,1.26405
1680001708927,1181697282384837,6.0739503,8.13405,1.2240001
1680001708930,1181697284886991,5.9350505,8.200951,1.1850001
1680001708932,1181697287389145,6.057,8.137051,1.1520001
1680001708936,1181697289891192,6.03105,8.08605,1.0210501
1680001708938,1181697292393423,6.0360003,8.13195,1.0819501
1680001708940,1181697294895577,6.0600004,8.17695,1.092
1680001708942,1181697297397962,5.9710503,8.21595,1.176
1680001708944,1181697299899885,5.973,8.182051,1.0129501
1680001708947,1181697302402029,5.9689503,8.23995,0.9979501
1680001708950,1181697304904182,5.9929504,8.137051,0.96195006
1680001708952,1181697307406567,5.90595,8.059951,0.9670501
1680001708954,1181697309908490,5.9610004,8.247001,0.97395
1680001708957,1181697312410885,5.8900504,8.154,0.96495
1680001708960,1181697314913039,5.90595,8.139,0.984
1680001708962,1181697317415193,5.8440003,8.21805,0.96000004
1680001708965,1181697319917346,5.8390503,8.11995,0.9289501
1680001708967,1181697322419486,5.8110003,8.187,0.99405
1680001708970,1181697324921640,5.7289505,8.21595,0.97905004
1680001708973,1181697327423871,5.70795,8.167951,0.89505005
1680001708975,1181697329926025,5.82,8.161051,0.94605005
1680001708977,1181697332428174,5.7670503,8.13,0.91200006
1680001708980,1181697334930327,5.75295,8.13195,0.95505005
1680001708982,1181697337432404,5.8180504,8.16495,0.85905004
1680001708984,1181697339934635,5.7720003,8.097,0.94305
1680001708987,1181697342436789,5.81505,8.062051,0.93795
1680001708990,1181697344939183,5.81505,8.139,0.95295006
1680001708992,1181697347441106,5.7289505,8.151,0.9580501
1680001708995,1181697349943260,5.7889504,8.062051,0.95505005
1680001708997,1181697352445644,5.7670503,8.19705,0.94305
1680001709000,1181697354947803,5.7580504,8.079,0.924
1680001709002,1181697357449726,5.7390003,8.16495,0.91695005
1680001709005,1181697359952111,5.7630005,8.21805,0.97200006
1680001709007,1181697362454265,5.7790504,8.149051,1.02495
1680001709011,1181697364956510,5.8219504,8.20905,1.0129501
1680001709013,1181697367458587,5.7910504,8.097,0.9670501
1680001709015,1181697369960741,5.7649503,8.17305,0.90705
1680001709017,1181697372462895,5.9089503,8.21595,0.95505005
1680001709020,1181697374965039,5.8180504,8.13195,0.93795
1680001709022,1181697377467270,5.8900504,8.137051,0.93600005
1680001709024,1181697379969423,5.87505,8.188951,0.97395
1680001709027,1181697382471577,5.8819504,8.22105,0.92205006
1680001709030,1181697384973731,5.84595,8.13405,1.00605
1680001709032,1181697387475885,5.9490004,8.191951,1.0390501
1680001709034,1181697389978039,5.9929504,8.149051,1.0870501
1680001709037,1181697392480423,6.0430503,8.188951,0.9670501
1680001709040,1181697394982357,6.0600004,8.059951,0.98205006
1680001709042,1181697397484741,6.13395,8.071051,0.97005004
1680001709045,1181697399986895,6.1750503,8.101951,1.0699501
1680001709048,1181697402489049,6.189,8.071051,0.99105006
1680001709051,1181697404990957,6.2059503,8.21805,0.98205006
1680001709053,1181697407493342,6.1770005,8.161051,0.9670501
1680001709055,1181697409995495,6.14295,8.212951,1.0390501
1680001709057,1181697412497726,6.25605,8.167951,1.03005
1680001709060,1181697414999803,6.25605,8.097,1.05795
1680001709062,1181697417502053,6.2800503,8.13,1.00995
1680001709064,1181697420004207,6.37305,8.21595,1.06095
1680001709067,1181697422506361,6.3229504,8.2570505,1.0009501
1680001709070,1181697425008514,6.25605,8.20905,1.1010001
1680001709072,1181697427510673,6.2730002,8.115001,1.10895
1680001709075,1181697430012827,6.30105,8.200951,1.0870501
1680001709077,1181697432514981,6.29895,8.23695,1.0129501
1680001709080,1181697435017366,6.2700005,8.22795,0.99405
1680001709082,1181697437519289,6.22695,8.188951,1.0890001
1680001709086,1181697440021418,6.306,8.13,0.97905004
1680001709088,1181697442523802,6.2629504,8.223001,1.02705
1680001709091,1181697445025956,6.2700005,8.20395,0.94305
1680001709093,1181697447527903,6.2080503,8.179951,0.99405
1680001709095,1181697450030288,6.21495,8.23005,0.984
1680001709098,1181697452532442,6.2320504,8.23005,0.87600005
1680001709100,1181697455034595,6.19395,8.224951,1.041
1680001709105,1181697457536749,6.084,8.182051,0.86895007
1680001709105,1181697460038913,6.0259504,8.268001,0.95295006
1680001709107,1181697462541067,6.1050005,8.21805,0.91200006
1680001709110,1181697465043221,6.0430503,8.23995,0.88605005
1680001709112,1181697467545452,6.117,8.161051,0.83805007
1680001709115,1181697470047601,6.0090003,8.188951,0.87600005
1680001709117,1181697472549754,5.925,8.2900505,0.83805007
1680001709120,1181697475051908,6.0090003,8.182051,0.87105006
1680001709124,1181697477554062,6.0070505,8.332951,0.80205005
1680001709126,1181697480056197,5.8969502,8.158051,0.82605004
1680001709128,1181697482558582,6.0139503,8.14605,0.82605004
1680001709130,1181697485060735,5.9760003,8.20905,0.77295005
1680001709133,1181697487562889,5.95695,8.328,0.83100003
1680001709135,1181697490065043,5.9280005,8.23695,0.71805006
1680001709137,1181697492567197,5.9040003,8.23005,0.79200006
1680001709141,1181697495069351,5.9089503,8.23695,0.71295005
1680001709142,1181697497571274,5.9370003,8.25405,0.72495
1680001709145,1181697500073658,5.87295,8.28495,0.69405
1680001709148,1181697502575792,5.8609505,8.211,0.82095003
1680001709150,1181697505077946,5.85405,8.24205,0.72795004
1680001709152,1181697507580100,5.7790504,8.2570505,0.73005
1680001709155,1181697510082254,5.9020505,8.223001,0.675
1680001709157,1181697512584408,5.8680005,8.25405,0.69900006
1680001709161,1181697515086634,5.83395,8.26095,0.74895006
1680001709163,1181697517588787,5.90595,8.23995,0.72300005
1680001709165,1181697520090941,5.8300505,8.211,0.70605004
1680001709167,1181697522593095,5.8819504,8.223001,0.69705003
1680001709170,1181697525095269,5.9490004,8.25405,0.75195
1680001709172,1181697527597423,5.90595,8.211,0.75600004
1680001709175,1181697530099807,5.8609505,8.283,0.78300005
1680001709177,1181697532601961,5.8560004,8.27595,0.73305005
1680001709180,1181697535104100,5.7910504,8.161051,0.804
1680001709182,1181697537606254,5.8680005,8.39805,0.735
1680001709185,1181697540108408,5.8369503,8.323951,0.78795004
1680001709189,1181697542610562,5.9370003,8.26395,0.70905006
1680001709191,1181697545112485,5.8680005,8.2900505,0.66795003
1680001709192,1181697547614869,5.8819504,8.316,0.64395005
1680001709195,1181697550117100,5.8819504,8.247001,0.77595
1680001709199,1181697552619177,5.89905,8.335951,0.711
1680001709201,1181697555121336,5.8630505,8.22795,0.73305005
1680001709203,1181697557623490,5.84595,8.299951,0.77295005
1680001709206,1181697560125644,5.8699503,8.352,0.69705003
1680001709208,1181697562627874,5.9160004,8.24205,0.68700004
1680001709210,1181697565130028,5.8699503,8.299951,0.67005
1680001709212,1181697567632196,5.8969502,8.26605,0.74700004
1680001709214,1181697570134350,5.8510504,8.403001,0.76395005
1680001709217,1181697572636504,5.8900504,8.40705,0.67005
1680001709220,1181697575138658,5.8440003,8.280001,0.70095
1680001709223,1181697577640812,5.84595,8.26395,0.62700003
1680001709225,1181697580143201,5.81505,8.3880005,0.675
1680001709227,1181697582645355,5.8180504,8.3550005,0.75900006
1680001709230,1181697585147509,5.85795,8.27295,0.64905006
1680001709232,1181697587649663,5.7390003,8.40495,0.70395005
1680001709236,1181697590151817,5.7289505,8.3880005,0.76395005
1680001709238,1181697592653740,5.775,8.391001,0.69900006
1680001709240,1181697595156201,5.7510004,8.316,0.63705003
1680001709243,1181697597658355,5.72205,8.343,0.67305005
1680001709247,1181697600160432,5.75505,8.304001,0.64905006
1680001709248,1181697602662586,5.7790504,8.38605,0.67695004
1680001709250,1181697605164740,5.74305,8.35005,0.70905006
1680001709252,1181697607666894,5.7630005,8.39805,0.69405
1680001709255,1181697610169139,5.7390003,8.30895,0.57000005
1680001709257,1181697612671293,5.7190504,8.368951,0.60795003
1680001709260,1181697615173447,5.6449504,8.379001,0.522
1680001709262,1181697617675601,5.64795,8.38605,0.582
1680001709265,1181697620177741,5.655,8.379001,0.57195
1680001709267,1181697622679895,5.6839504,8.376,0.60300004
1680001709270,1181697625182048,5.6329503,8.38605,0.58905005
1680001709274,1181697627684438,5.6860504,8.36205,0.47595003
1680001709276,1181697630186592,5.6839504,8.39805,0.64605004
1680001709277,1181697632688746,5.6860504,8.476951,0.49305
1680001709280,1181697635190900,5.64795,8.3880005,0.49500003
1680001709282,1181697637693053,5.64795,8.3880005,0.48105
1680001709285,1181697640194982,5.6959505,8.359051,0.46695003
1680001709287,1181697642697443,5.64795,8.43105,0.50505
1680001709290,1181697645199597,5.63595,8.415,0.47895002
1680001709293,1181697647701751,5.655,8.458051,0.36600003
1680001709295,1181697650203828,5.62095,8.35005,0.42795002
1680001709297,1181697652706006,5.70795,8.39805,0.45000002
1680001709301,1181697655208236,5.61705,8.42205,0.41895002
1680001709307,1181697657710313,5.6719503,8.323951,0.40695003
1680001709307,1181697660212544,5.655,8.448,0.46905002
1680001709307,1181697662714678,5.74095,8.47395,0.58605003
1680001709311,1181697665216832,5.736,8.35005,0.45900002
1680001709313,1181697667718986,5.7580504,8.458051,0.47595003
1680001709315,1181697670221139,5.82495,8.367001,0.31800002
1680001709319,1181697672723313,5.8180504,8.415,0.34005
1680001709321,1181697675225698,5.7889504,8.4529505,0.44505003
1680001709324,1181697677727852,5.8510504,8.42895,0.40005
1680001709327,1181697680230006,5.84595,8.448,0.39000002
1680001709328,1181697682732154,5.91795,8.43105,0.45705003
1680001709331,1181697685234308,5.9490004,8.427,0.41595003
1680001709333,1181697687736462,5.9689503,8.51505,0.38295
1680001709335,1181697690238616,5.9830503,8.476951,0.37305
1680001709337,1181697692740847,6.0000005,8.503051,0.34005
1680001709340,1181697695242996,5.9539504,8.580001,0.37305
1680001709342,1181697697745073,5.9160004,8.59395,0.342
1680001709345,1181697700247226,5.9040003,8.6640005,0.45000002
1680001709350,1181697702749423,6.06405,8.5990505,0.39495003
1680001709352,1181697705251577,5.9329505,8.647051,0.38805002
1680001709353,1181697707753731,5.9490004,8.680051,0.42405003
1680001709355,1181697710255885,5.9830503,8.635051,0.48105
1680001709358,1181697712758039,6.024,8.6970005,0.42795002
1680001709360,1181697715260187,5.88,8.58705,0.46695003
1680001709362,1181697717762341,5.9950504,8.677951,0.354
1680001709365,1181697720264726,6.024,8.608951,0.24195
1680001709367,1181697722766880,5.9929504,8.637,0.51900005
1680001709371,1181697725268803,6.0000005,8.629951,0.321
1680001709372,1181697727770952,6.0739503,8.601001,0.294
1680001709375,1181697730273106,5.94705,8.637,0.45900002
1680001709377,1181697732775567,5.9689503,8.70195,0.41205
1680001709380,1181697735277644,5.9929504,8.676001,0.402
1680001709382,1181697737779794,6.0000005,8.64,0.30405003
1680001709387,1181697740281948,5.9929504,8.661,0.44805002
1680001709388,1181697742784102,6.0210004,8.743051,0.35205
1680001709391,1181697745286255,5.9490004,8.668051,0.37095
1680001709393,1181697747788413,5.9350505,8.745001,0.354
1680001709395,1181697750290644,6.0090003,8.73795,0.40395
1680001709397,1181697752792798,6.0139503,8.83605,0.40005
1680001709400,1181697755294952,6.0360003,8.842951,0.37095
1680001709402,1181697757797097,5.925,8.842951,0.37095
1680001709405,1181697760299251,5.985,8.932051,0.333
1680001709408,1181697762801404,6.0019503,8.89095,0.38505003
1680001709410,1181697765303789,6.0880504,9.03495,0.32295
1680001709412,1181697767805928,6.012,9.06105,0.25800002
1680001709415,1181697770308082,5.9710503,9.109051,0.33705002
1680001709417,1181697772810005,5.9710503,9.19995,0.27495003
1680001709420,1181697775312159,6.012,9.229051,0.27705002
1680001709424,1181697777814312,5.98995,9.27705,0.282
1680001709425,1181697780316697,5.9539504,9.27,0.37095
1680001709427,1181697782818851,5.9929504,9.35595,0.28005
1680001709431,1181697785321005,5.97795,9.37695,0.16995001
1680001709432,1181697787823159,6.0000005,9.32205,0.23700002
1680001709435,1181697790325327,5.9689503,9.430051,0.27
1680001709437,1181697792827481,5.9929504,9.406051,0.124050006
1680001709441,1181697795329635,5.9659505,9.42,0.24195
1680001709443,1181697797831866,5.9929504,9.265051,0.30405003
1680001709445,1181697800334034,6.024,9.231001,0.17895001
1680001709448,1181697802836188,5.9929504,9.16905,0.20295002
1680001709451,1181697805338342,6.1189504,9.102,0.12900001
1680001709452,1181697807840495,6.0070505,9.0060005,0.36105
1680001709455,1181697810342649,6.06405,8.956051,0.24195
1680001709457,1181697812844803,5.9830503,8.7619505,0.32805002
1680001709461,1181697815347188,5.94,8.757,0.25800002
1680001709463,1181697817849342,6.0000005,8.733001,0.50505
1680001709465,1181697820351265,5.8489504,8.72595,0.41595003
1680001709468,1181697822853423,5.8390503,8.608951,0.47400004
1680001709470,1181697825355808,5.81295,8.53695,0.57195
1680001709473,1181697827857962,5.7049503,8.51295,0.56505
1680001709475,1181697830360116,5.6260505,8.46,0.66495
1680001709477,1181697832862270,5.5950003,8.458051,0.78000003
1680001709480,1181697835364448,5.53695,8.400001,0.72300005
1680001709482,1181697837866601,5.49195,8.34,0.771
1680001709485,1181697840368755,5.46105,8.3550005,0.81600004
1680001709488,1181697842870909,5.39895,8.35005,0.795
1680001709491,1181697845373125,5.2720504,8.3209505,0.79995006
1680001709493,1181697847875279,5.274,8.27805,0.86895007
1680001709497,1181697850377433,5.2519503,8.21805,0.84000003
1680001709500,1181697852879586,5.274,8.283,0.82605004
1680001709503,1181697855381740,5.181,8.191951,0.83295006
1680001709504,1181697857883894,5.1280503,8.23695,0.89295006
1680001709506,1181697860386048,5.1709504,8.26395,0.73005
1680001709508,1181697862888433,5.1450005,8.20905,0.85905004
1680001709510,1181697865390567,5.09205,8.211,0.79200006
1680001709512,1181697867892721,4.97895,8.182051,0.82605004
1680001709515,1181697870394644,5.109,8.095051,0.78000003
1680001709518,1181697872896798,4.97895,8.082001,0.651
1680001709521,1181697875399212,5.0010004,8.11305,0.76095
1680001709523,1181697877901443,4.94805,8.13195,0.67005
1680001709525,1181697880403520,4.9819503,8.10795,0.744
1680001709527,1181697882905673,4.9750504,8.088,0.73305005
1680001709530,1181697885407889,4.9960504,8.08605,0.68505
1680001709532,1181697887909966,4.9360504,8.08605,0.78495
1680001709536,1181697890412120,4.96995,8.154,0.68205005
1680001709538,1181697892914274,4.99095,8.127001,0.69900006
1680001709541,1181697895416501,4.93905,8.068951,0.67005
1680001709543,1181697897918654,4.9939504,8.16495,0.60795003
1680001709545,1181697900420808,4.9410005,8.170051,0.65295005
1680001709547,1181697902922962,4.95795,8.212951,0.50295
1680001709550,1181697905425116,5.0659504,8.25405,0.53400004
1680001709552,1181697907927270,4.9939504,8.079,0.58905005
1680001709555,1181697910429654,5.013,8.224951,0.51195
1680001709557,1181697912931808,5.04405,8.18505,0.60300004
1680001709560,1181697915433962,5.0059505,8.26605,0.546
1680001709562,1181697917936116,5.0059505,8.23305,0.57900006
1680001709566,1181697920438274,5.0389504,8.223001,0.47595003
1680001709567,1181697922940428,5.07,8.2900505,0.45705003
1680001709570,1181697925442659,5.01795,8.38605,0.49095002
1680001709573,1181697927944735,5.15205,8.323951,0.60105
1680001709575,1181697930446889,5.10195,8.271001,0.49500003
1680001709577,1181697932949120,5.097,8.3880005,0.50295
1680001709580,1181697935451197,5.0539503,8.38305,0.47595003
1680001709583,1181697937953351,5.0680504,8.439,0.47400004
1680001709585,1181697940455486,5.12295,8.42205,0.52395004
1680001709588,1181697942957716,5.07495,8.51295,0.49095002
1680001709591,1181697945459870,5.181,8.52705,0.40005
1680001709592,1181697947962024,5.19495,8.46195,0.46695003
1680001709596,1181697950464173,5.28105,8.52,0.48795003
1680001709598,1181697952966327,5.1210003,8.521951,0.40005
1680001709601,1181697955468481,5.20695,8.601001,0.57705003
1680001709602,1181697957970865,5.1930003,8.641951,0.45195
1680001709606,1181697960473034,5.2170005,8.611051,0.41895002
1680001709608,1181697962975188,5.2450504,8.59395,0.35895002
1680001709612,1181697965477342,5.2380004,8.53695,0.26505002
1680001709613,1181697967979496,5.31195,8.71605,0.37095
1680001709615,1181697970481650,5.2759504,8.611051,0.39495003
1680001709618,1181697972983784,5.1880503,8.6640005,0.39495003
1680001709620,1181697975485938,5.28105,8.620951,0.29205
1680001709622,1181697977988169,5.1589503,8.533951,0.246
1680001709625,1181697980490246,5.2309504,8.60595,0.40395
1680001709627,1181697982992395,5.25705,8.556001,0.43605003
1680001709630,1181697985494626,5.2450504,8.51805,0.40395
1680001709632,1181697987996780,5.2000504,8.60595,0.40695003
1680001709635,1181697990498933,5.2120504,8.42895,0.35700002
1680001709637,1181697993001067,5.1060004,8.47395,0.41205
1680001709640,1181697995503221,5.2120504,8.509951,0.27705002
1680001709642,1181697998005375,5.1780005,8.54895,0.37605003
1680001709646,1181698000507760,5.20695,8.45505,0.44505003
1680001709649,1181698003009899,5.2170005,8.49405,0.38805002
1680001709651,1181698005512053,5.18295,8.53005,0.46695003
1680001709653,1181698008014207,5.16405,8.58705,0.47100002
1680001709655,1181698010516361,5.1880503,8.53005,0.32505003
1680001709658,1181698013018515,5.1730504,8.56995,0.36405003
1680001709660,1181698015520679,5.1660004,8.48595,0.36600003
1680001709662,1181698018022833,5.118,8.56305,0.48600003
1680001709665,1181698020524986,5.2050004,8.54205,0.43305
1680001709669,1181698023027217,5.0989504,8.39805,0.45495003
1680001709671,1181698025529351,5.13,8.41905,0.42600003
1680001709673,1181698028031428,5.09205,8.476951,0.44505003
1680001709675,1181698030533582,5.1280503,8.400001,0.39495003
1680001709677,1181698033035813,5.10195,8.391001,0.40905002
1680001709680,1181698035537981,5.08995,8.40495,0.29895002
1680001709683,1181698038040135,5.0389504,8.271001,0.45195
1680001709688,1181698040542289,4.9960504,8.359051,0.51900005
1680001709691,1181698043044409,4.95795,8.356951,0.46695003
1680001709692,1181698045546563,5.04195,8.368951,0.42600003
1680001709694,1181698048048947,5.025,8.326051,0.35895002
1680001709698,1181698050551101,4.98705,8.364,0.462
1680001709699,1181698053053274,4.905,8.307,0.54300004
1680001709702,1181698055555428,4.90005,8.191951,0.44805002
1680001709704,1181698058057582,4.87605,8.314051,0.49095002
1680001709706,1181698060559736,4.99905,8.247001,0.32295
1680001709708,1181698063061890,4.9240503,8.29695,0.46395
1680001709711,1181698065564053,4.8360004,8.20905,0.33705002
1680001709713,1181698068066284,4.9890003,8.283,0.43605003
1680001709716,1181698070568438,4.848,8.2879505,0.37095
1680001709718,1181698073070592,4.84305,8.175,0.43800002
1680001709721,1181698075572659,4.91505,8.211,0.54105
1680001709724,1181698078074813,4.8840003,8.247001,0.34500003
1680001709727,1181698080577043,4.84095,8.154,0.46695003
1680001709729,1181698083079428,4.788,8.142,0.48600003
1680001709732,1181698085581370,4.7850003,8.127001,0.47400004
1680001709737,1181698088083524,4.89795,8.082001,0.47100002
1680001709738,1181698090585678,4.8289504,8.026951,0.35895002
1680001709740,1181698093087832,4.80495,8.079,0.36405003
1680001709741,1181698095589986,4.70895,8.13195,0.29895002
1680001709742,1181698098092370,4.704,8.097,0.37095
1680001709745,1181698100594524,4.7590504,8.038051,0.29205
1680001709748,1181698103096678,4.7710505,8.14605,0.39705002
1680001709750,1181698105598832,4.7140503,8.095051,0.42600003
1680001709753,1181698108101006,4.6849504,8.083051,0.55995005
1680001709755,1181698110603159,4.704,8.10105,0.41205
1680001709757,1181698113105390,4.6990504,8.200951,0.40005
1680001709761,1181698115607523,4.63005,8.151,0.34905002
1680001709763,1181698118109677,4.72305,8.179951,0.33495003
1680001709766,1181698120611831,4.6849504,8.106,0.402
1680001709768,1181698123113908,4.716,8.13195,0.28905
1680001709770,1181698125616138,4.7470503,8.211,0.36795002
1680001709773,1181698128118519,4.656,8.39805,0.43605003
1680001709775,1181698130620673,4.6800003,8.39505,0.36105
1680001709777,1181698133122596,4.6270504,8.464951,0.20595
1680001709781,1181698135624750,4.67805,8.42205,0.30105
1680001709783,1181698138126904,4.74195,8.54595,0.19395001
1680001709785,1181698140629058,4.7059503,8.589001,0.15105
1680001709788,1181698143131211,4.716,8.637,0.109950006
1680001709790,1181698145633596,4.72305,8.71905,0.22200002
1680001709793,1181698148135754,4.7730002,8.79105,0.079050004
1680001709795,1181698150637908,4.7449503,8.81505,0.16995001
1680001709799,1181698153140062,4.7689505,8.87895,0.10305001
1680001709801,1181698155642215,4.7899504,8.82405,0.10305001
1680001709803,1181698158144389,4.8289504,9.0400505,0.009000001
1680001709806,1181698160646620,4.8570004,8.97,-0.04095
1680001709808,1181698163148774,4.8289504,8.982,0.048
1680001709810,1181698165650928,4.93905,9.054001,-0.003
1680001709812,1181698168153082,4.9240503,9.19995,-0.02205
1680001709815,1181698170655168,4.893,9.229051,-0.15300001
1680001709818,1181698173157321,5.0010004,9.34095,-0.120000005
1680001709821,1181698175659552,4.9510503,9.27,-0.18105
1680001709823,1181698178161937,5.02005,9.4129505,-0.22200002
1680001709825,1181698180663860,4.953,9.375,-0.26295
1680001709828,1181698183166009,5.06295,9.538051,-0.35895002
1680001709831,1181698185668163,5.04195,9.624001,-0.36795002
1680001709833,1181698188170547,5.0820003,9.604951,-0.342
1680001709836,1181698190672485,5.1160502,9.580951,-0.35895002
1680001709838,1181698193174870,5.08995,9.636001,-0.47805002
1680001709841,1181698195677024,5.142,9.658051,-0.49305
1680001709843,1181698198179178,5.18295,9.78495,-0.43800002
1680001709846,1181698200681331,5.1540003,9.77505,-0.555
1680001709848,1181698203183475,5.22405,9.732,-0.54795
1680001709850,1181698205685629,5.2450504,9.837001,-0.54495
1680001709853,1181698208187783,5.2429504,9.768001,-0.52605003
1680001709855,1181698210690014,5.26695,9.813001,-0.58395004
1680001709858,1181698213192207,5.31195,9.816001,-0.52395004
1680001709860,1181698215694361,5.2909503,9.82995,-0.56505
1680001709863,1181698218196437,5.38395,9.8560505,-0.61200005
1680001709865,1181698220698591,5.3100004,9.898951,-0.651
1680001709868,1181698223200807,5.33895,9.946951,-0.66495
1680001709871,1181698225703192,5.3629503,9.835051,-0.73200005
1680001709874,1181698228205115,5.4679503,9.873,-0.64095
1680001709876,1181698230707269,5.511,9.816001,-0.675
1680001709877,1181698233209422,5.4490504,9.880051,-0.67695004
1680001709880,1181698235711812,5.50395,9.78495,-0.63195
1680001709883,1181698238213735,5.52495,9.703051,-0.68895006
1680001709886,1181698240716120,5.4490504,9.76095,-0.69195
1680001709888,1181698243218274,5.5609503,9.624001,-0.60105
1680001709891,1181698245720437,5.49405,9.604951,-0.74205005
1680001709893,1181698248222590,5.5350003,9.50895,-0.68205005
1680001709896,1181698250724744,5.5849504,9.46395,-0.80205005
1680001709898,1181698253226898,5.63595,9.328951,-0.77295005
1680001709900,1181698255729033,5.63595,9.31305,-0.62895006
1680001709903,1181698258231264,5.51805,9.298051,-0.57195
1680001709906,1181698260733418,5.60505,9.19995,-0.58095
1680001709908,1181698263235494,5.64795,9.195001,-0.624
1680001709912,1181698265737658,5.63595,9.03195,-0.54795
1680001709913,1181698268239889,5.5420504,8.953051,-0.58395004
1680001709915,1181698270742043,5.5519505,8.956051,-0.43305
1680001709918,1181698273244197,5.60895,8.85495,-0.52905005
1680001709921,1181698275746327,5.5999503,8.769,-0.56205004
1680001709924,1181698278248481,5.59695,8.661,-0.55695003
1680001709926,1181698280750634,5.56605,8.7949505,-0.47805002
1680001709934,1181698283253019,5.53305,8.6970005,-0.41595003
1680001709934,1181698285755198,5.51595,8.5990505,-0.37995002
1680001709935,1181698288257352,5.38395,8.613001,-0.342
1680001709935,1181698290759506,5.3430004,8.56095,-0.423
1680001709938,1181698293261659,5.3029504,8.521951,-0.31305
1680001709940,1181698295763572,5.28105,8.565001,-0.462
1680001709943,1181698298265957,5.274,8.532001,-0.47400004
1680001709945,1181698300768111,5.1330004,8.484,-0.33900002
1680001709949,1181698303270342,5.1400504,8.44095,-0.40695003
1680001709951,1181698305772429,4.96995,8.553,-0.39000002
1680001709953,1181698308274583,4.94805,8.42205,-0.40695003
1680001709955,1181698310776736,4.893,8.52705,-0.32700002
1680001709958,1181698313278890,4.7779503,8.49405,-0.40395
1680001709960,1181698315781121,4.8019505,8.589001,-0.37800002
1680001709963,1181698318283275,4.6849504,8.565001,-0.36795002
1680001709966,1181698320785429,4.6849504,8.565001,-0.36600003
1680001709968,1181698323287583,4.75005,8.58495,-0.37800002
1680001709971,1181698325789736,4.6660504,8.649,-0.37500003
1680001709974,1181698328291890,4.6200004,8.6640005,-0.41805002
1680001709975,1181698330794044,4.6129503,8.68995,-0.423
1680001709978,1181698333296429,4.63695,8.709001,-0.37305
1680001709980,1181698335798583,4.64895,8.647051,-0.46905002
1680001709982,1181698338300736,4.5600004,8.67105,-0.483
1680001709986,1181698340802909,4.551,8.6970005,-0.43500003
1680001709988,1181698343304832,4.60305,8.78295,-0.48795003
1680001709991,1181698345806986,4.5700502,8.75205,-0.38700002
1680001709993,1181698348309448,4.63005,8.70405,-0.45900002
1680001709997,1181698350811611,4.63005,8.676001,-0.45900002
1680001709999,1181698353313688,4.57905,8.75205,-0.35895002
1680001710001,1181698355815841,4.5480003,8.73795,-0.47400004
1680001710003,1181698358317995,4.6249504,8.71395,-0.37500003
1680001710007,1181698360820164,4.55805,8.817,-0.42105
1680001710008,1181698363322395,4.6540504,8.724,-0.44505003
1680001710011,1181698365824549,4.5990005,8.841001,-0.37500003
1680001710013,1181698368326703,4.69395,8.862,-0.53805
1680001710015,1181698370828870,4.6579504,8.87895,-0.48600003
1680001710018,1181698373331024,4.59105,8.886001,-0.45405003
1680001710020,1181698375833178,4.6660504,8.87205,-0.46905002
1680001710024,1181698378335327,4.6729503,8.830951,-0.41400003
1680001710026,1181698380837712,4.67805,8.913,-0.42600003
1680001710028,1181698383339865,4.70205,8.830951,-0.50100005
1680001710030,1181698385842019,4.6920004,8.997001,-0.45000002
1680001710032,1181698388344173,4.635,8.973001,-0.55005
1680001710035,1181698390846096,4.716,8.994,-0.47805002
1680001710038,1181698393348250,4.70895,8.949,-0.47805002
1680001710040,1181698395850712,4.761,9.0060005,-0.44205
1680001710043,1181698398352865,4.7449503,9.066,-0.49305
1680001710046,1181698400854928,4.6660504,8.946,-0.423
1680001710048,1181698403357082,4.83795,8.938951,-0.56505
1680001710051,1181698405859236,4.7970004,8.997001,-0.591
1680001710053,1181698408361467,4.69395,8.985001,-0.57705003
1680001710055,1181698410863544,4.7400002,8.997001,-0.41805002
1680001710058,1181698413365746,4.7730002,9.102,-0.56700003
1680001710062,1181698415867899,4.833,8.986951,-0.54795
1680001710064,1181698418370053,4.809,9.009001,-0.49005002
1680001710066,1181698420872207,4.7569504,9.06105,-0.52605003
1680001710068,1181698423374351,4.78095,9.114,-0.615
1680001710073,1181698425876505,4.84095,9.15495,-0.53295004
1680001710074,1181698428378889,4.76595,9.04695,-0.56205004
1680001710075,1181698430881043,4.728,9.135,-0.45195
1680001710078,1181698433383197,4.7899504,9.042001,-0.44700003
1680001710081,1181698435885351,4.79505,9.0400505,-0.46605003
1680001710083,1181698438387274,4.821,9.018001,-0.531
1680001710086,1181698440889659,4.8,9.066,-0.53595
1680001710088,1181698443391919,4.8619504,9.052051,-0.53595
1680001710091,1181698445894072,4.704,8.986951,-0.50505
1680001710093,1181698448396149,4.6579504,8.958,-0.34905002
1680001710098,1181698450898303,4.7380505,9.03495,-0.50100005
1680001710100,1181698453400442,4.776,8.973001,-0.43995002
1680001710103,1181698455902673,4.8240004,8.944051,-0.50505
1680001710104,1181698458404750,4.8019505,8.965051,-0.51195
1680001710108,1181698460906980,4.8190503,8.965051,-0.60105
1680001710109,1181698463409134,4.704,8.98005,-0.52905005
1680001710111,1181698465911283,4.761,9.0060005,-0.462
1680001710113,1181698468413437,4.7970004,8.953051,-0.58605003
1680001710115,1181698470915591,4.81395,8.85795,-0.51900005
1680001710118,1181698473417745,4.79295,8.98005,-0.47400004
1680001710121,1181698475920138,4.7850003,8.944051,-0.57705003
1680001710124,1181698478422292,4.821,8.922001,-0.52095
1680001710126,1181698480924446,4.78095,8.913,-0.42795002
1680001710128,1181698483426600,4.7640004,8.86995,-0.54795
1680001710131,1181698485928509,4.7689505,8.86005,-0.46395
1680001710133,1181698488430894,4.704,8.910001,-0.43500003
1680001710136,1181698490933047,4.68195,8.908051,-0.44205
1680001710139,1181698493435278,4.7569504,8.83905,-0.55995005
1680001710142,1181698495937369,4.6800003,8.86995,-0.43800002
1680001710144,1181698498439523,4.7470503,8.89395,-0.45900002
1680001710145,1181698500941677,4.6870503,8.841001,-0.55005
1680001710148,1181698503443908,4.69395,8.898001,-0.43995002
1680001710151,1181698505945985,4.66995,8.86695,-0.54795
1680001710153,1181698508448201,4.79295,8.830951,-0.42600003
1680001710156,1181698510950355,4.7260504,8.862,-0.40395
1680001710158,1181698513452509,4.7179503,8.877001,-0.42795002
1680001710161,1181698515954663,4.611,8.908051,-0.49995002
1680001710163,1181698518456807,4.8019505,8.89095,-0.39900002
1680001710166,1181698520958961,4.7380505,8.932051,-0.43305
1680001710168,1181698523461114,4.64895,8.920051,-0.45900002
1680001710171,1181698525963499,4.6470003,9.030001,-0.55305004
1680001710175,1181698528465639,4.69395,8.956051,-0.49800003
1680001710177,1181698530967793,4.6660504,8.986951,-0.54495
1680001710179,1181698533469947,4.6849504,8.901,-0.52605003
1680001710182,1181698535972101,4.5990005,9.03495,-0.57705003
1680001710183,1181698538474254,4.668,9.01305,-0.49305
1680001710186,1181698540976466,4.49805,8.898001,-0.50895
1680001710188,1181698543478543,4.5700502,8.946,-0.50505
1680001710191,1181698545980697,4.5870004,9.009001,-0.48600003
1680001710193,1181698548482851,4.5700502,9.0060005,-0.38295
1680001710197,1181698550985067,4.6009502,9.04905,-0.57900006
1680001710200,1181698553487220,4.5750003,8.962951,-0.50895
1680001710201,1181698555989374,4.6200004,8.98005,-0.45900002
1680001710203,1181698558491528,4.56705,9.03705,-0.49800003
1680001710210,1181698560993682,4.5409503,9.030001,-0.39195
1680001710210,1181698563495836,4.4760003,9.02505,-0.46605003
1680001710212,1181698565998220,4.5100503,9.00405,-0.48600003
1680001710214,1181698568500374,4.5150003,9.01605,-0.50505
1680001710217,1181698571002528,4.52895,9.042001,-0.54105
1680001710219,1181698573504682,4.61805,9.02295,-0.40695003
1680001710221,1181698576006836,4.54605,8.917951,-0.42795002
1680001710224,1181698578508759,4.49805,9.04695,-0.462
1680001710225,1181698581011144,4.4880004,9.01095,-0.46395
1680001710228,1181698583513374,4.584,9.054001,-0.39495003
1680001710230,1181698586015480,4.596,9.02295,-0.45000002
1680001710233,1181698588517634,4.5750003,9.06795,-0.37500003
1680001710236,1181698591019788,4.58895,9.042001,-0.45195
1680001710238,1181698593521942,4.6420503,9.06795,-0.42105
1680001710241,1181698596024096,4.64895,9.00405,-0.49305
1680001710243,1181698598526326,4.5940504,9.06105,-0.36600003
1680001710246,1181698601028480,4.5199504,9.04905,-0.41805002
1680001710249,1181698603530629,4.5480003,9.09,-0.43305
1680001710252,1181698606032783,4.57905,9.030001,-0.47400004
1680001710253,1181698608534937,4.596,8.99895,-0.46605003
1680001710256,1181698611037091,4.6080003,9.04695,-0.47595003
1680001710258,1181698613539245,4.6150503,9.054001,-0.47805002
1680001710260,1181698616041638,4.611,9.03705,-0.53295004
1680001710263,1181698618543792,4.656,8.961,-0.47595003
1680001710265,1181698621045946,4.563,8.986951,-0.49800003
1680001710268,1181698623548100,4.5870004,9.097051,-0.52905005
1680001710271,1181698626050039,4.57695,9.018001,-0.52395004
1680001710273,1181698628552423,4.539,9.03195,-0.54105
1680001710276,1181698631054654,4.563,8.962951,-0.48105
1680001710278,1181698633556731,4.5990005,9.04395,-0.43500003
1680001710281,1181698636058890,4.6800003,9.01605,-0.56700003
1680001710283,1181698638561044,4.644,8.994,-0.52605003
1680001710288,1181698641063275,4.58895,8.994,-0.46605003
1680001710290,1181698643565332,4.60605,9.01605,-0.48600003
1680001710293,1181698646067485,4.6470003,9.151951,-0.53295004
1680001710298,1181698648569716,4.5870004,9.04395,-0.50895
1680001710298,1181698651071870,4.6200004,8.98005,-0.47100002
1680001710299,1181698653574024,4.6009502,9.09195,-0.462
1680001710301,1181698656076193,4.6009502,9.00405,-0.507
1680001710304,1181698658578347,4.6080003,8.97,-0.44505003
1680001710305,1181698661080500,4.63005,8.98005,-0.47400004
1680001710308,1181698663582885,4.611,8.925,-0.44205
1680001710311,1181698666085039,4.5529504,9.064051,-0.49305
1680001710314,1181698668587174,4.63695,8.910001,-0.46395
1680001710316,1181698671089328,4.60605,9.066,-0.40395
1680001710318,1181698673591481,4.63005,8.92695,-0.47400004
1680001710321,1181698676093635,4.56705,9.01305,-0.44205
1680001710324,1181698678595856,4.5940504,8.989051,-0.34695002
1680001710327,1181698681097933,4.6320004,9.01605,-0.52905005
1680001710329,1181698683600087,4.635,9.05595,-0.47805002
1680001710332,1181698686102241,4.61805,9.06105,-0.507
1680001710333,1181698688604471,4.623,9.0400505,-0.483
1680001710335,1181698691106577,4.6750503,9.009001,-0.50505
1680001710338,1181698693608731,4.6200004,8.989051,-0.43305
1680001710341,1181698696110962,4.60605,8.997001,-0.43005002
1680001710343,1181698698613116,4.6870503,8.986951,-0.45195
1680001710345,1181698701115303,4.584,9.04905,-0.44505003
1680001710348,1181698703617457,4.6579504,8.92695,-0.55305004
1680001710351,1181698706119610,4.6849504,8.974951,-0.57405
1680001710353,1181698708621764,4.63695,9.030001,-0.52095
1680001710355,1181698711124149,4.67805,8.87895,-0.51195
1680001710358,1181698713626303,4.67805,8.994,-0.54795
1680001710362,1181698716128457,4.63005,8.937,-0.45000002
1680001710364,1181698718630610,4.64895,8.956051,-0.45900002
1680001710367,1181698721132783,4.6200004,8.853001,-0.46905002
1680001710369,1181698723634937,4.596,8.953051,-0.46395
1680001710371,1181698726137091,4.63695,8.922001,-0.49005002
1680001710373,1181698728639322,4.6470003,8.938951,-0.46605003
1680001710376,1181698731141399,4.6320004,8.925,-0.402
1680001710378,1181698733643553,4.6150503,8.99895,-0.50895
1680001710380,1181698736145783,4.563,9.009001,-0.51900005
1680001710383,1181698738647937,4.63005,9.066,-0.43800002
1680001710385,1181698741150014,4.57695,9.139951,-0.51195
1680001710388,1181698743652260,4.6470003,9.11205,-0.54795
1680001710391,1181698746154414,4.6080003,9.094951,-0.55695003
1680001710393,1181698748656568,4.6729503,9.1039505,-0.51900005
1680001710396,1181698751158721,4.5940504,9.030001,-0.54105
1680001710399,1181698753660860,4.584,9.06105,-0.52605003
1680001710402,1181698756163014,4.6150503,9.088051,-0.69405
1680001710404,1181698758665399,4.57905,8.986951,-0.615
1680001710406,1181698761167553,4.6270504,9.05595,-0.56895
1680001710409,1181698763669707,4.572,9.030001,-0.63195
1680001710411,1181698766171860,4.57695,9.078,-0.56205004
1680001710413,1181698768674014,4.6249504,9.01605,-0.53295004
1680001710416,1181698771176168,4.6270504,9.03195,-0.58095
1680001710418,1181698773678322,4.63695,9.009001,-0.50505
1680001710421,1181698776180558,4.623,8.989051,-0.58905005
1680001710423,1181698778682635,4.6009502,9.02805,-0.52095
1680001710426,1181698781184865,4.7400002,9.03195,-0.54495
1680001710429,1181698783687019,4.60605,8.953051,-0.52395004
1680001710431,1181698786189183,4.6249504,8.99205,-0.55695003
1680001710433,1181698788691260,4.6729503,9.00405,-0.58905005
1680001710437,1181698791193491,4.63695,9.085051,-0.60300004
1680001710441,1181698793695634,4.5990005,8.989051,-0.56205004
1680001710442,1181698796197788,4.6420503,9.01095,-0.49995002
1680001710443,1181698798699941,4.5940504,8.98005,-0.51405
1680001710447,1181698801202095,4.66095,8.986951,-0.51900005
1680001710449,1181698803704249,4.63905,8.941051,-0.48600003
1680001710451,1181698806206389,4.5990005,8.98005,-0.53805
1680001710453,1181698808708774,4.60605,8.86995,-0.45900002
1680001710456,1181698811210927,4.66305,8.99205,-0.59805006
1680001710458,1181698813713081,4.63005,9.009001,-0.51195
1680001710461,1181698816215244,4.5940504,8.989051,-0.39000002
1680001710463,1181698818717398,4.63905,8.961,-0.43500003
1680001710465,1181698821219552,4.6270504,8.982,-0.56895
1680001710468,1181698823721783,4.635,8.937,-0.40695003
1680001710471,1181698826223846,4.6750503,8.937,-0.44505003
1680001710474,1181698828725999,4.66995,8.950951,-0.47805002
1680001710476,1181698831228153,4.6660504,8.86695,-0.44505003
1680001710478,1181698833730384,4.6129503,8.953051,-0.48795003
1680001710481,1181698836232538,4.6009502,8.86695,-0.591
1680001710483,1181698838734692,4.66995,8.938951,-0.49995002
1680001710487,1181698841236846,4.60605,8.83905,-0.43305
1680001710488,1181698843738999,4.5990005,8.92695,-0.531
1680001710491,1181698846241162,4.6320004,8.898001,-0.45705003
1680001710494,1181698848743316,4.572,9.042001,-0.402
1680001710496,1181698851245701,4.6080003,8.965051,-0.423
1680001710499,1181698853747855,4.524,8.98005,-0.49995002
1680001710502,1181698856249759,4.53405,8.917951,-0.507
1680001710503,1181698858752143,4.45695,9.030001,-0.46905002
1680001710505,1181698861254297,4.5360003,8.958,-0.55005
1680001710508,1181698863756220,4.51695,8.974951,-0.55005
1680001710512,1181698866258581,4.5409503,8.994,-0.47400004
1680001710514,1181698868760735,4.5529504,8.973001,-0.46395
1680001710516,1181698871262965,4.5750003,8.997001,-0.55995005
1680001710518,1181698873765042,4.55595,8.96805,-0.53595
1680001710521,1181698876267196,4.4809504,9.085051,-0.66300005
1680001710524,1181698878769350,4.4880004,8.989051,-0.555
1680001710527,1181698881271581,4.4809504,8.962951,-0.56205004
1680001710529,1181698883773735,4.5409503,8.974951,-0.63405
1680001710531,1181698886275889,4.5480003,8.97,-0.49005002
1680001710533,1181698888778052,4.54395,9.06795,-0.50505
1680001710536,1181698891280206,4.5,9.06105,-0.63600004
1680001710539,1181698893782360,4.479,9.042001,-0.57705003
1680001710542,1181698896284514,4.57695,8.989051,-0.58395004
1680001710543,1181698898786899,4.49595,8.99895,-0.56700003
1680001710546,1181698901289047,4.6920004,8.994,-0.55005
1680001710550,1181698903790971,4.5199504,9.04905,-0.49995002
1680001710553,1181698906293355,4.5750003,8.90295,-0.51405
1680001710557,1181698908795509,4.584,8.941051,-0.54105
1680001710558,1181698911297432,4.5700502,9.030001,-0.50895
1680001710559,1181698913799817,4.5529504,9.01095,-0.54105
1680001710561,1181698916302047,4.5990005,9.05895,-0.47805002
1680001710563,1181698918804201,4.60305,9.02505,-0.64095
1680001710566,1181698921306292,4.5750003,9.01605,-0.56205004
1680001710568,1181698923808446,4.57905,9.06105,-0.55305004
1680001710571,1181698926310600,4.61805,9.03495,-0.53595
1680001710573,1181698928812754,4.5700502,9.052051,-0.54795
1680001710575,1181698931314985,4.644,8.941051,-0.45195
1680001710579,1181698933817134,4.5360003,9.04695,-0.52605003
1680001710581,1181698936319288,4.63905,8.985001,-0.54795
1680001710583,1181698938821442,4.56495,8.961,-0.507
1680001710587,1181698941323596,4.6080003,9.0060005,-0.58605003
1680001710592,1181698943825716,4.635,9.00405,-0.56895
1680001710592,1181698946328100,4.6129503,8.96805,-0.423
1680001710593,1181698948830254,4.5990005,8.98005,-0.48795003
1680001710596,1181698951332408,4.56705,8.99205,-0.47400004
1680001710600,1181698953834562,4.6270504,9.01305,-0.49995002
1680001710602,1181698956336692,4.644,8.941051,-0.60795003
1680001710603,1181698958838846,4.67805,8.862,-0.62205005
1680001710608,1181698961341000,4.623,8.958,-0.54795
1680001710609,1181698963843230,4.6660504,8.950951,-0.46605003
1680001710611,1181698966345394,4.54395,8.929951,-0.53805
1680001710613,1181698968847471,4.61805,8.982,-0.51195
1680001710616,1181698971349625,4.584,8.97,-0.61005
1680001710619,1181698973851779,4.6729503,8.920051,-0.61200005
1680001710621,1181698976353933,4.6660504,8.88405,-0.555
1680001710624,1181698978856163,4.6270504,8.89395,-0.507
1680001710626,1181698981358317,4.5600004,8.84805,-0.56700003
1680001710629,1181698983860471,4.6420503,8.922001,-0.47400004
1680001710631,1181698986362625,4.60305,8.99205,-0.63195
1680001710633,1181698988864779,4.611,8.901,-0.58605003
1680001710636,1181698991366933,4.55805,8.961,-0.59805006
1680001710639,1181698993869317,4.584,8.910001,-0.61695004
1680001710641,1181698996371471,4.563,8.88195,-0.55005
1680001710643,1181698998873625,4.59105,8.938951,-0.69195
1680001710646,1181699001375779,4.60305,9.066,-0.60300004
1680001710648,1181699003877933,4.66995,9.00405,-0.684
1680001710651,1181699006380087,4.68195,8.962951,-0.63195
1680001710653,1181699008882240,4.5820503,8.949,-0.64605004
1680001710656,1181699011384476,4.644,8.908051,-0.59595
1680001710659,1181699013886630,4.5480003,8.958,-0.50100005
1680001710662,1181699016388707,4.635,8.965051,-0.65295005
1680001710664,1181699018890875,4.56705,9.042001,-0.651
1680001710665,1181699021393029,4.6009502,8.961,-0.70305
1680001710669,1181699023895183,4.6129503,8.997001,-0.72300005
1680001710671,1181699026397413,4.6800003,9.018001,-0.61200005
1680001710673,1181699028899567,4.5990005,9.00405,-0.61200005
1680001710676,1181699031401736,4.611,9.009001,-0.54795
1680001710679,1181699033903890,4.623,8.982,-0.61995006
1680001710681,1181699036406044,4.5990005,9.05895,-0.58095
1680001710683,1181699038908198,4.623,8.97,-0.61995006
1680001710686,1181699041410370,4.65105,9.030001,-0.60105
1680001710688,1181699043912755,4.59105,8.994,-0.65595
1680001710691,1181699046414909,4.539,8.925,-0.56700003
1680001710693,1181699048917063,4.58895,8.89605,-0.52605003
1680001710696,1181699051419217,4.6150503,8.985001,-0.648
1680001710700,1181699053921371,4.71105,8.958,-0.49995002
1680001710702,1181699056423294,4.6969504,8.961,-0.59805006
1680001710704,1181699058925755,4.63695,9.00405,-0.54495
1680001710705,1181699061427909,4.644,8.99895,-0.52095
1680001710709,1181699063929986,4.635,9.04395,-0.54300004
1680001710711,1181699066432116,4.58895,8.92695,-0.59595
1680001710713,1181699068934270,4.78305,8.922001,-0.48795003
1680001710716,1181699071436423,4.66305,8.937,-0.57195
1680001710719,1181699073938654,4.6920004,8.961,-0.591
1680001710721,1181699076440822,4.6729503,8.89395,-0.37500003
1680001710723,1181699078942976,4.644,8.962951,-0.55005
1680001710727,1181699081445130,4.6920004,9.066,-0.66
1680001710729,1181699083947284,4.73505,9.03195,-0.54495
1680001710731,1181699086449419,4.656,9.01305,-0.56205004
1680001710733,1181699088951572,4.69005,8.997001,-0.48600003
1680001710737,1181699091453957,4.668,8.994,-0.52395004
1680001710739,1181699093956111,4.716,9.01605,-0.61695004
1680001710741,1181699096458265,4.6129503,8.994,-0.60795003
1680001710743,1181699098960419,4.59105,8.92695,-0.56205004
1680001710746,1181699101462572,4.6540504,8.986951,-0.37500003
1680001710749,1181699103964726,4.6849504,8.950951,-0.54495
1680001710751,1181699106466957,4.6729503,8.925,-0.61200005
1680001710753,1181699108969039,4.7730002,8.973001,-0.58905005
1680001710756,1181699111471193,4.68195,8.958,-0.61200005
1680001710759,1181699113973347,4.59105,9.0060005,-0.63600004
1680001710761,1181699116475808,4.70895,8.977051,-0.53805
1680001710763,1181699118977764,4.6800003,9.042001,-0.58605003
1680001710766,1181699121479918,4.6800003,9.01605,-0.59805006
1680001710769,1181699123982072,4.66095,8.910001,-0.55695003
1680001710772,1181699126484226,4.72305,8.953051,-0.69195
1680001710775,1181699128986395,4.611,9.009001,-0.60300004
1680001710776,1181699131488549,4.60605,8.925,-0.57705003
1680001710779,1181699133990933,4.5700502,8.974951,-0.58905005
1680001710782,1181699136493087,4.6129503,9.0400505,-0.51705
1680001710784,1181699138995226,4.635,8.941051,-0.624
1680001710786,1181699141497380,4.5750003,9.05895,-0.70095
1680001710789,1181699143999534,4.7470503,9.042001,-0.60300004
1680001710793,1181699146501687,4.64895,8.985001,-0.55695003
1680001710795,1181699149003913,4.6320004,8.985001,-0.69900006
1680001710797,1181699151506067,4.5990005,8.901,-0.60300004
1680001710800,1181699154008221,4.5360003,8.962951,-0.65595
1680001710801,1181699156510298,4.6270504,9.078,-0.624
1680001710803,1181699159012452,4.563,9.0709505,-0.57900006
1680001710806,1181699161514611,4.6009502,8.99205,-0.54300004
1680001710818,1181699164016841,4.6249504,9.066,-0.57900006
1680001710819,1181699166518995,4.6660504,8.997001,-0.651
1680001710820,1181699169021153,4.66095,8.949,-0.54795
1680001710821,1181699171841768,4.623,9.03705,-0.61005
1680001710823,1181699174025461,4.5870004,8.946,-0.54105
1680001710824,1181699176527615,4.635,8.961,-0.63195
1680001710826,1181699179029768,4.5700502,8.944051,-0.59805006
1680001710827,1181699181532139,4.611,8.961,-0.65805006
1680001710830,1181699184034293,4.6800003,8.958,-0.52905005
1680001710831,1181699186536447,4.5600004,8.88195,-0.58905005
1680001710833,1181699189038601,4.623,8.88195,-0.49800003
1680001710836,1181699191540735,4.6470003,8.91495,-0.48105
1680001710840,1181699194042889,4.63005,8.98005,-0.57900006
1680001710841,1181699196545120,4.64895,8.98005,-0.57900006
1680001710843,1181699199047274,4.60605,8.91495,-0.63405
1680001710847,1181699201549418,4.6129503,8.908051,-0.57900006
1680001710851,1181699204051495,4.6750503,9.00105,-0.58605003
1680001710853,1181699206553649,4.5700502,9.01305,-0.45705003
1680001710854,1181699209055879,4.66095,9.02805,-0.68700004
1680001710856,1181699211558033,4.60605,8.90295,-0.624
1680001710859,1181699214060187,4.5220504,8.98005,-0.50100005
1680001710861,1181699216562341,4.63905,8.941051,-0.60795003
1680001710863,1181699219064495,4.5220504,8.910001,-0.57900006
1680001710866,1181699221566649,4.611,8.946,-0.51195
1680001710869,1181699224068826,4.572,8.997001,-0.67005
1680001710871,1181699226570980,4.58895,8.956051,-0.68895006
1680001710873,1181699229073365,4.60605,8.973001,-0.55995005
1680001710876,1181699231575519,4.584,8.941051,-0.591
1680001710879,1181699234077706,4.51695,8.986951,-0.61995006
1680001710881,1181699236579859,4.68195,8.958,-0.615
1680001710884,1181699239082013,4.55595,8.922001,-0.62895006
1680001710887,1181699241584167,4.6249504,8.986951,-0.58605003
1680001710890,1181699244086326,4.66095,8.88195,-0.54105
1680001710892,1181699246588557,4.53405,8.917951,-0.63195
1680001710894,1181699249090711,4.56495,8.89605,-0.64605004
1680001710896,1181699251592788,4.644,9.01305,-0.57900006
1680001710899,1181699254094941,4.61805,8.953051,-0.55995005
1680001710901,1181699256597182,4.644,8.925,-0.45195
1680001710903,1181699259099336,4.584,8.944051,-0.56505
1680001710906,1181699261601490,4.5030003,8.982,-0.59595
1680001710909,1181699264103644,4.49595,8.862,-0.50895
1680001710911,1181699266605783,4.5750003,8.889001,-0.61995006
1680001710913,1181699269108167,4.563,9.00105,-0.54105
1680001710916,1181699271610090,4.54605,8.956051,-0.57705003
1680001710919,1181699274112244,4.65105,8.99895,-0.54495
1680001710921,1181699276614639,4.623,8.97,-0.58605003
1680001710925,1181699279116793,4.59105,8.946,-0.615
1680001710927,1181699281618947,4.644,8.910001,-0.54795
1680001710929,1181699284121100,4.5990005,8.956051,-0.51195
1680001710931,1181699286623254,4.60605,8.994,-0.49005002
1680001710933,1181699289125408,4.6660504,8.989051,-0.69405
1680001710936,1181699291627562,4.6870503,8.920051,-0.52605003
1680001710939,1181699294129793,4.6249504,9.030001,-0.57195
1680001710942,1181699296631937,4.584,9.0400505,-0.57900006
1680001710943,1181699299134090,4.6009502,9.078,-0.53805
1680001710946,1181699301636244,4.5700502,8.937,-0.57705003
1680001710950,1181699304138398,4.6200004,8.97,-0.58095
1680001710951,1181699306640577,4.60605,9.0400505,-0.51900005
1680001710953,1181699309142731,4.623,8.989051,-0.58905005
1680001710956,1181699311644885,4.6009502,9.009001,-0.69405
1680001710959,1181699314147269,4.6920004,8.973001,-0.66495
1680001710962,1181699316649443,4.60605,8.962951,-0.55695003
1680001710964,1181699319151366,4.67805,9.0060005,-0.58095
1680001710967,1181699321653520,4.728,9.0730505,-0.53595
1680001710969,1181699324155674,4.563,8.977051,-0.58395004
1680001710971,1181699326658059,4.6800003,9.009001,-0.591
1680001710973,1181699329160192,4.66305,9.042001,-0.57900006
1680001710976,1181699331662346,4.5270004,9.021001,-0.531
1680001710979,1181699334164500,4.6129503,9.0060005,-0.67695004
1680001710981,1181699336666654,4.66305,8.937,-0.52095
1680001710983,1181699339168813,4.6729503,9.02505,-0.58605003
1680001710986,1181699341671044,4.6129503,9.05895,-0.591
1680001710989,1181699344173197,4.6129503,8.953051,-0.56895
1680001710992,1181699346675351,4.5990005,8.950951,-0.624
1680001710993,1181699349177515,4.56705,9.04695,-0.47805002
1680001710996,1181699351679669,4.584,9.03195,-0.54105
1680001711000,1181699354181823,4.572,9.118951,-0.62205005
1680001711002,1181699356683900,4.52895,9.03495,-0.51900005
1680001711004,1181699359186361,4.47405,9.0060005,-0.59295005
1680001711006,1181699361688515,4.5030003,9.009001,-0.48105
1680001711009,1181699364190669,4.551,8.92695,-0.54105
1680001711011,1181699366692592,4.5100503,9.02505,-0.60300004
1680001711013,1181699369194746,4.5409503,9.042001,-0.59805006
1680001711016,1181699371696881,4.5940504,8.946,-0.55695003
1680001711019,1181699374199265,4.5480003,8.934,-0.624
1680001711021,1181699376701419,4.539,9.02295,-0.49305
1680001711025,1181699379203573,4.611,9.03495,-0.73200005
1680001711026,1181699381705727,4.55595,8.961,-0.56505
1680001711029,1181699384207871,4.5409503,9.009001,-0.55695003
1680001711031,1181699386710025,4.596,9.02505,-0.64605004
1680001711033,1181699389212179,4.5199504,8.91495,-0.68205005
1680001711037,1181699391714399,4.50495,8.985001,-0.69405
1680001711040,1181699394216553,4.56705,9.01605,-0.57900006
1680001711041,1181699396718630,4.464,8.98005,-0.58095
1680001711044,1181699399220861,4.5150003,8.962951,-0.59595
1680001711046,1181699401723015,4.563,8.920051,-0.58395004
1680001711049,1181699404225136,4.6129503,9.085051,-0.531
1680001711051,1181699406727289,4.69395,8.853001,-0.50505
1680001711053,1181699409229443,4.60305,9.00405,-0.52905005
1680001711057,1181699411731597,4.491,8.944051,-0.63600004
1680001711060,1181699414233731,4.5409503,8.92695,-0.45405003
1680001711061,1181699416736116,4.56495,8.96805,-0.49005002
1680001711063,1181699419238269,4.57695,8.937,-0.55005
1680001711066,1181699421740423,4.539,9.009001,-0.50505
1680001711069,1181699424242577,4.4880004,8.929951,-0.63195
1680001711071,1181699426744736,4.51695,9.0400505,-0.615
1680001711076,1181699429246890,4.623,9.04905,-0.57900006
1680001711077,1181699431749121,4.611,9.01605,-0.64395005
1680001711079,1181699434251198,4.58895,9.0400505,-0.71505004
1680001711081,1181699436753375,4.55805,9.07995,-0.62895006
1680001711084,1181699439255606,4.5940504,9.03705,-0.60795003
1680001711086,1181699441757760,4.6080003,9.085051,-0.675
1680001711090,1181699444259837,4.5360003,9.02295,-0.65295005
1680001711092,1181699446761977,4.5750003,9.00405,-0.74895006
1680001711094,1181699449264208,4.69395,9.0060005,-0.53805
1680001711096,1181699451766361,4.6009502,8.953051,-0.72300005
1680001711100,1181699454268515,4.6249504,9.05595,-0.62205005
1680001711101,1181699456770654,4.59105,9.052051,-0.64605004
1680001711104,1181699459272808,4.539,8.97,-0.57195
1680001711106,1181699461774962,4.54605,8.997001,-0.615
1680001711109,1181699464277346,4.584,8.961,-0.64605004
1680001711112,1181699466779505,4.5409503,8.889001,-0.68895006
1680001711115,1181699469281659,4.5990005,8.913,-0.58395004
1680001711117,1181699471783813,4.54605,9.018001,-0.60300004
1680001711120,1181699474285967,4.5600004,8.982,-0.55005
1680001711121,1181699476788121,4.55595,9.082951,-0.66495
1680001711125,1181699479290265,4.524,8.962951,-0.66300005
1680001711126,1181699481792418,4.6249504,9.01305,-0.58395004
1680001711129,1181699484294572,4.5360003,9.118951,-0.65595
1680001711132,1181699486796803,4.5940504,9.076051,-0.63600004
1680001711134,1181699489298957,4.63905,8.997001,-0.62895006
1680001711136,1181699491801020,4.6249504,9.0400505,-0.70305
1680001711141,1181699494303174,4.563,9.162001,-0.69195
1680001711142,1181699496805404,4.644,9.00105,-0.624
1680001711144,1181699499307789,4.596,9.0060005,-0.65295005
1680001711146,1181699501809712,4.623,9.03705,-0.63600004
1680001711151,1181699504311866,4.56495,9.00405,-0.648
1680001711152,1181699506814020,4.6200004,9.066,-0.67995006
1680001711154,1181699509316174,4.61805,9.06795,-0.64095
1680001711156,1181699511818558,4.60605,9.126,-0.65805006
1680001711159,1181699514320717,4.5990005,9.05895,-0.67200005
1680001711161,1181699516822871,4.60605,9.0730505,-0.61695004
1680001711165,1181699519325025,4.5870004,9.042001,-0.70095
1680001711167,1181699521827169,4.6579504,9.04905,-0.76305
1680001711169,1181699524329323,4.611,9.021001,-0.55695003
1680001711171,1181699526831476,4.57695,8.997001,-0.65805006
1680001711174,1181699529333630,4.6920004,9.054001,-0.675
1680001711176,1181699531835861,4.6729503,9.06105,-0.684
1680001711183,1181699534338005,4.65105,9.02295,-0.72495
1680001711183,1181699536840159,4.6660504,9.018001,-0.64095
1680001711184,1181699539342236,4.7059503,8.962951,-0.64095
1680001711187,1181699541844390,4.57695,8.994,-0.72705
1680001711190,1181699544346625,4.6969504,9.076051,-0.67005
1680001711192,1181699546849010,4.6579504,9.030001,-0.72705
1680001711194,1181699549350933,4.63905,9.0730505,-0.50505
1680001711196,1181699551853087,4.6540504,8.944051,-0.64605004
1680001711200,1181699554355246,4.656,8.91495,-0.56505
1680001711201,1181699556857400,4.635,8.96805,-0.49005002
1680001711205,1181699559359553,4.656,9.021001,-0.624
1680001711207,1181699561861938,4.7260504,8.977051,-0.66300005
1680001711209,1181699564364092,4.66995,9.02805,-0.56205004
1680001711211,1181699566866241,4.7260504,8.965051,-0.64605004
1680001711214,1181699569368395,4.644,9.06795,-0.64095
1680001711217,1181699571870549,4.66305,8.88195,-0.61695004
1680001711220,1181699574372702,4.63005,8.92695,-0.60795003
1680001711221,1181699576874943,4.6270504,8.961,-0.66
1680001711225,1181699579377097,4.6320004,8.973001,-0.60495
1680001711227,1181699581879251,4.49805,8.89605,-0.61005
1680001711229,1181699584381405,4.524,9.00105,-0.51705
1680001711232,1181699586883496,4.668,8.932051,-0.531
1680001711234,1181699589385649,4.563,8.917951,-0.63600004
1680001711236,1181699591887880,4.596,8.982,-0.47805002
1680001711239,1181699594390265,4.5,8.89395,-0.58605003
1680001711241,1181699596892197,4.5360003,8.950951,-0.57900006
1680001711244,1181699599394351,4.551,8.997001,-0.49800003
1680001711246,1181699601896505,4.5480003,8.944051,-0.58605003
1680001711249,1181699604398659,4.55595,9.00405,-0.591
1680001711251,1181699606900784,4.5079503,8.96805,-0.63195
1680001711253,1181699609403169,4.5150003,8.994,-0.72300005
1680001711256,1181699611905323,4.49595,8.973001,-0.67200005
1680001711260,1181699614407477,4.623,9.009001,-0.60795003
1680001711262,1181699616909635,4.48395,8.965051,-0.531
1680001711265,1181699619411788,4.56705,8.953051,-0.68205005
1680001711266,1181699621913942,4.47405,8.920051,-0.65295005
1680001711270,1181699624416173,4.4760003,8.908051,-0.56895
1680001711272,1181699626918327,4.49595,9.02295,-0.615
1680001711274,1181699629420496,4.5199504,8.96805,-0.675
1680001711276,1181699631922650,4.4550004,9.02295,-0.61995006
1680001711280,1181699634424727,4.5100503,9.066,-0.73005
1680001711281,1181699636926880,4.6009502,8.929951,-0.65805006
1680001711284,1181699639429106,4.47405,9.02295,-0.59295005
1680001711286,1181699641931491,4.55805,8.97,-0.768
1680001711290,1181699644433414,4.5360003,8.982,-0.52605003
1680001711292,1181699646935568,4.584,8.99205,-0.50895
1680001711294,1181699649437722,4.5409503,9.00405,-0.57900006
1680001711296,1181699651939870,4.4760003,9.02805,-0.54795
1680001711301,1181699654442024,4.5199504,8.965051,-0.56895
1680001711303,1181699656944409,4.5030003,8.956051,-0.50100005
1680001711305,1181699659446573,4.38495,8.985001,-0.46605003
1680001711308,1181699661948727,4.4550004,8.986951,-0.59595
1680001711310,1181699664450880,4.48395,9.030001,-0.65295005
1680001711312,1181699666953034,4.44495,8.989051,-0.61695004
1680001711314,1181699669455188,4.5480003,8.946,-0.55695003
1680001711316,1181699671957419,4.5220504,9.0400505,-0.615
1680001711320,1181699674459573,4.5220504,8.977051,-0.49800003
1680001711323,1181699676961650,4.4880004,9.02505,-0.57405
1680001711326,1181699679463804,4.5409503,9.00405,-0.51195
1680001711327,1181699681965966,4.4359503,8.89605,-0.63600004
1680001711330,1181699684468428,4.4380503,8.91495,-0.52905005
1680001711331,1181699686970351,4.38105,8.99205,-0.53295004
1680001711333,1181699689472505,4.44495,8.910001,-0.49995002
1680001711337,1181699691974669,4.5079503,9.042001,-0.49800003
1680001711342,1181699694476823,4.5150003,8.937,-0.52605003
1680001711343,1181699696978976,4.47405,9.00105,-0.54300004
1680001711344,1181699699481361,4.4170504,8.989051,-0.53295004
1680001711346,1181699701983515,4.49805,8.925,-0.59295005
1680001711349,1181699704485664,4.4809504,8.934,-0.44205
1680001711351,1181699706987818,4.49805,9.04395,-0.53805
1680001711354,1181699709489971,4.50495,9.0060005,-0.49305
1680001711357,1181699711992125,4.5750003,9.0060005,-0.56895
1680001711359,1181699714494370,4.491,9.02505,-0.37995002
1680001711361,1181699716996447,4.54605,8.994,-0.51705
1680001711365,1181699719498678,4.5529504,9.05595,-0.51705
1680001711366,1181699722000832,4.4880004,8.944051,-0.46605003
1680001711369,1181699724502909,4.49805,8.986951,-0.423
1680001711371,1181699727005048,4.5409503,8.99205,-0.51900005
1680001711375,1181699729507202,4.54395,9.02295,-0.54300004
1680001711377,1181699732009664,4.53405,9.094951,-0.66300005
1680001711380,1181699734511587,4.52895,9.076051,-0.56205004
1680001711381,1181699737013746,4.4689503,9.088051,-0.63195
1680001711384,1181699739515900,4.5100503,9.114,-0.50100005
1680001711386,1181699742018053,4.5820503,8.961,-0.69405
1680001711390,1181699744520207,4.5529504,9.139951,-0.58905005
1680001711392,1181699747022592,4.4929504,9.14295,-0.63900006
1680001711394,1181699749524746,4.5480003,9.0730505,-0.60105
1680001711396,1181699752026900,4.524,9.102,-0.63900006
1680001711400,1181699754529053,4.5220504,9.13095,-0.60495
1680001711401,1181699757031207,4.54395,9.121051,-0.63405
1680001711404,1181699759533361,4.50495,9.082951,-0.55995005
1680001711406,1181699762035515,4.53195,9.078,-0.70305
1680001711410,1181699764537746,4.5100503,9.04905,-0.60300004
1680001711413,1181699767039876,4.53195,9.115951,-0.67200005
1680001711414,1181699769542030,4.48395,8.982,-0.55995005
1680001711416,1181699772044106,4.5750003,9.0709505,-0.63195
1680001711421,1181699774546260,4.60605,9.114,-0.66300005
1680001711422,1181699777048500,4.54605,9.052051,-0.62205005
1680001711424,1181699779550885,4.59105,9.03705,-0.57900006
1680001711426,1181699782052808,4.5220504,9.04395,-0.78300005
1680001711429,1181699784554962,4.49595,9.03495,-0.57705003
1680001711431,1181699787057130,4.563,9.05895,-0.58095
1680001711433,1181699789559284,4.60305,9.082951,-0.651
1680001711437,1181699792061438,4.56495,9.00105,-0.61200005
1680001711439,1181699794563823,4.5220504,9.064051,-0.59805006
1680001711441,1181699797065977,4.5079503,8.965051,-0.62895006
1680001711444,1181699799568131,4.6129503,9.01605,-0.60795003
1680001711446,1181699802070284,4.596,8.986951,-0.60105
1680001711450,1181699804572438,4.57695,8.934,-0.63195
1680001711452,1181699807074592,4.57905,9.066,-0.684
1680001711454,1181699809576746,4.6129503,8.88195,-0.51195
1680001711457,1181699812078977,4.6150503,8.941051,-0.75900006
1680001711459,1181699814581131,4.5820503,8.917951,-0.53805
1680001711462,1181699817083284,4.6129503,8.944051,-0.51405
1680001711464,1181699819585442,4.6420503,8.949,-0.55305004
1680001711467,1181699822087519,4.55805,8.917951,-0.59805006
1680001711469,1181699824589750,4.56705,8.910001,-0.61695004
1680001711471,1181699827092135,4.58895,8.934,-0.51405
1680001711474,1181699829594058,4.54605,8.889001,-0.54105
1680001711476,1181699832096217,4.56705,9.009001,-0.58395004
1680001711480,1181699834598370,4.6660504,8.922001,-0.62700003
1680001711481,1181699837100524,4.60305,8.962951,-0.59295005
1680001711484,1181699839602707,4.53195,8.91495,-0.70305
1680001711487,1181699842104861,4.5990005,8.989051,-0.60495
1680001711490,1181699844607246,4.5220504,8.98005,-0.57195
1680001711492,1181699847109399,4.656,8.944051,-0.62700003
1680001711494,1181699849611553,4.55805,9.042001,-0.63900006
1680001711496,1181699852113697,4.6270504,8.929951,-0.77295005
1680001711500,1181699854615851,4.5150003,8.934,-0.64605004
1680001711502,1181699857118005,4.5409503,8.953051,-0.56895
1680001711504,1181699859620236,4.54395,8.986951,-0.67005
1680001711506,1181699862122375,4.51695,8.97,-0.58605003
1680001711509,1181699864624529,4.4089503,9.01305,-0.47595003
1680001711511,1181699867126683,4.42605,8.986951,-0.64395005
1680001711514,1181699869628760,4.4929504,8.994,-0.675
1680001711516,1181699872131015,4.5600004,8.965051,-0.65295005
1680001711519,1181699874633169,4.44495,8.965051,-0.71295005
1680001711521,1181699877135553,4.5079503,8.87205,-0.71295005
1680001711525,1181699879637476,4.51695,9.05895,-0.69600004
1680001711527,1181699882139625,4.467,8.989051,-0.73905003
1680001711530,1181699884641779,4.4880004,8.994,-0.57195
1680001711532,1181699887143933,4.55595,9.06795,-0.675
1680001711534,1181699889646087,4.51695,8.974951,-0.72300005
1680001711536,1181699892148471,4.4550004,9.076051,-0.66795003
1680001711539,1181699894650620,4.5150003,9.054001,-0.69405
1680001711541,1181699897152774,4.5,8.98005,-0.711
1680001711544,1181699899654928,4.5270004,9.094951,-0.76605004
1680001711546,1181699902157082,4.5100503,9.076051,-0.73200005
1680001711549,1181699904659251,4.45695,8.949,-0.70305
1680001711551,1181699907161481,4.48605,9.03705,-0.735
1680001711554,1181699909663635,4.3879504,9.0730505,-0.66495
1680001711556,1181699912165789,4.4760003,9.04695,-0.68895006
1680001711559,1181699914667933,4.44495,8.965051,-0.624
1680001711562,1181699917170010,4.43295,8.946,-0.62700003
1680001711565,1181699919672241,4.45695,9.0400505,-0.57900006
1680001711567,1181699922174395,4.42605,9.04905,-0.71805006
1680001711569,1181699924676784,4.39305,8.985001,-0.56700003
1680001711571,1181699927178707,4.431,9.009001,-0.58605003
1680001711574,1181699929680861,4.4359503,9.030001,-0.66300005
1680001711576,1181699932183015,4.3570504,9.01605,-0.56505
1680001711580,1181699934685169,4.48605,8.89605,-0.69195
1680001711581,1181699937187332,4.4500504,9.04395,-0.60795003
1680001711584,1181699939689716,4.4479504,9.02805,-0.62895006
1680001711587,1181699942191870,4.53195,9.102,-0.72495
1680001711591,1181699944694024,4.512,9.052051,-0.66
1680001711592,1181699947196169,4.45305,9.088051,-0.76605004
1680001711594,1181699949698323,4.4500504,9.030001,-0.62700003
1680001711597,1181699952200553,4.407,8.965051,-0.66495
1680001711601,1181699954702611,4.4760003,8.997001,-0.63600004
1680001711603,1181699957204765,4.4380503,9.00105,-0.67200005
1680001711606,1181699959706919,4.51695,9.030001,-0.71805006
1680001711608,1181699962209073,4.55805,8.953051,-0.684
1680001711610,1181699964711227,4.5700502,9.04695,-0.61995006
1680001711613,1181699967213453,4.55595,9.030001,-0.744
1680001711615,1181699969715606,4.4500504,8.950951,-0.768
1680001711617,1181699972217760,4.551,9.066,-0.76095
1680001711620,1181699974719914,4.5030003,8.938951,-0.69600004
1680001711622,1181699977222068,4.5270004,8.997001,-0.63195
1680001711624,1181699979724222,4.49595,9.02295,-0.73200005
1680001711626,1181699982226606,4.4760003,8.961,-0.74700004
1680001711629,1181699984728760,4.539,9.126,-0.80595005
1680001711631,1181699987230914,4.57905,8.958,-0.66495
1680001711634,1181699989733052,4.572,9.094951,-0.76605004
1680001711637,1181699992234975,4.60305,8.986951,-0.79695004
1680001711640,1181699994737129,4.584,8.958,-0.71805006
1680001711642,1181699997239298,4.596,8.974951,-0.65805006
1680001711645,1181699999741759,4.596,9.0060005,-0.71295005
1680001711647,1181700002243836,4.6470003,8.986951,-0.74700004
1680001711652,1181700004745990,4.6420503,8.90295,-0.69600004
1680001711652,1181700007248144,4.6870503,9.054001,-0.67695004
1680001711655,1181700009750269,4.70205,8.982,-0.81600004
1680001711657,1181700012252423,4.6200004,9.01605,-0.81795
1680001711659,1181700014754653,4.635,9.01305,-0.83295006
1680001711661,1181700017256807,4.61805,9.042001,-0.76305
1680001711664,1181700019758961,4.5700502,9.01605,-0.73905003
1680001711666,1181700022261110,4.70205,8.962951,-0.81600004
1680001711670,1181700024763264,4.635,8.961,-0.71805006
1680001711672,1181700027265418,4.66305,8.994,-0.81405
1680001711675,1181700029767797,4.63005,9.02505,-0.70095
1680001711677,1181700032269951,4.656,9.009001,-0.64395005
1680001711680,1181700034772105,4.644,8.92695,-0.79905003
1680001711682,1181700037274259,4.728,8.973001,-0.79200006
1680001711685,1181700039776413,4.67805,9.06795,-0.744
1680001711687,1181700042278341,4.66995,8.986951,-0.72495
1680001711690,1181700044780495,4.72095,8.99895,-0.75105006
1680001711692,1181700047282956,4.63005,8.994,-0.85005003
1680001711695,1181700049785110,4.6150503,8.961,-0.81405
1680001711697,1181700052287177,4.66995,8.973001,-0.85395
1680001711700,1181700054789331,4.66305,8.953051,-0.71805006
1680001711702,1181700057291485,4.6729503,8.973001,-0.79905003
1680001711705,1181700059793639,4.6270504,8.89605,-0.804
1680001711708,1181700062295865,4.61805,8.92695,-0.90705
1680001711710,1181700064798019,4.6420503,9.018001,-0.86595005
1680001711713,1181700067300173,4.6579504,9.009001,-0.84000003
1680001711715,1181700069802327,4.63005,8.84595,-0.83505005
1680001711717,1181700072304481,4.72305,8.932051,-0.768
1680001711721,1181700074806610,4.6540504,9.0060005,-0.768
1680001711722,1181700077308763,4.6870503,9.04395,-0.84705
1680001711726,1181700079811148,4.6420503,8.85,-0.90495
1680001711727,1181700082313302,4.64895,8.961,-0.84705
1680001711730,1181700084815466,4.71105,8.913,-0.87405
1680001711732,1181700087317620,4.6870503,8.910001,-0.88605005
1680001711734,1181700089819543,4.69005,8.86005,-0.924
1680001711737,1181700092321697,4.6660504,8.85795,-0.85905004
1680001711741,1181700094824153,4.7400002,8.97,-0.94500005
1680001711742,1181700097326307,4.6729503,8.87205,-0.91695005
1680001711744,1181700099828384,4.6800003,8.92695,-0.81600004
1680001711747,1181700102330538,4.6969504,8.901,-0.87105006
1680001711751,1181700104832697,4.67805,8.88405,-0.88305
1680001711753,1181700107334850,4.635,8.84595,-0.90705
1680001711755,1181700109837081,4.70895,8.92695,-0.9480001
1680001711757,1181700112339235,4.68195,8.965051,-0.97200006
1680001711760,1181700114841418,4.6750503,8.941051,-0.89505005
1680001711761,1181700117343572,4.6969504,8.85,-0.771
1680001711765,1181700119845726,4.623,8.874001,-0.8880001
1680001711767,1181700122347880,4.7059503,8.946,-0.9670501
1680001711769,1181700124850033,4.6729503,8.97,-0.957
1680001711772,1181700127352437,4.66305,8.865001,-0.83805007
1680001711774,1181700129854591,4.596,8.913,-0.82995003
1680001711777,1181700132356745,4.60605,8.92695,-0.93105006
1680001711780,1181700134858899,4.6200004,8.889001,-1.0210501
1680001711782,1181700137360812,4.71105,8.83905,-0.91395
1680001711784,1181700139862965,4.64895,8.946,-0.88305
1680001711788,1181700142365427,4.644,8.84595,-0.75900006
1680001711792,1181700144867576,4.60605,8.950951,-0.795
1680001711793,1181700147369653,4.57695,8.917951,-0.76605004
1680001711795,1181700149871807,4.64895,8.973001,-0.82605004
1680001711797,1181700152373961,4.623,8.88195,-0.78300005
1680001711800,1181700154876114,4.6129503,8.985001,-0.83505005
1680001711802,1181700157378293,4.61805,8.922001,-0.72300005
1680001711809,1181700159880524,4.64895,8.82195,-0.87600005
1680001711809,1181700162382678,4.64895,8.925,-0.87405
1680001711810,1181700164884832,4.6270504,8.91495,-0.78705
1680001711812,1181700167386958,4.6129503,9.009001,-0.84705
1680001711814,1181700169889111,4.74195,8.901,-0.924
1680001711817,1181700172391265,4.6920004,8.97,-0.86205006
1680001711820,1181700174893650,4.7520003,8.953051,-0.96195006
1680001711822,1181700177395804,4.7710505,8.89605,-0.85200006
1680001711825,1181700179897967,4.7850003,8.98005,-0.89295006
1680001711827,1181700182400120,4.7299504,8.961,-0.94095004
1680001711831,1181700184902044,4.84305,8.922001,-0.90705
1680001711832,1181700187404428,4.8289504,8.925,-0.99300003
1680001711834,1181700189906341,4.82595,8.917951,-0.9289501
1680001711837,1181700192408803,4.80495,8.86695,-0.96495
1680001711840,1181700194910880,4.821,8.82405,-1.00995
1680001711842,1181700197413034,4.8169503,8.853001,-0.99300003
1680001711845,1181700199915207,4.80495,8.785951,-0.96495
1680001711847,1181700202417361,4.85505,8.84805,-1.011
1680001711850,1181700204919515,4.75005,8.7640505,-0.97395
1680001711851,1181700207421746,4.85505,8.83905,-0.87405
1680001711854,1181700209923890,4.8499503,8.88405,-0.89505005
1680001711856,1181700212426044,4.82595,8.85795,-0.87105006
1680001711859,1181700214928197,4.881,8.84595,-0.96000004
1680001711863,1181700217430365,4.8120003,8.87205,-0.91695005
1680001711865,1181700219932519,4.8520503,8.925,-0.864
1680001711867,1181700222434904,4.87605,8.962951,-0.88305
1680001711869,1181700224937058,4.85505,8.96805,-0.96900004
1680001711871,1181700227439211,4.95795,8.977051,-0.90705
1680001711874,1181700229941375,4.90005,8.925,-0.924
1680001711877,1181700232443529,4.953,8.986951,-1.008
1680001711879,1181700234945683,4.87395,8.89395,-0.97395
1680001711882,1181700237447837,4.9360504,8.965051,-0.94095004
1680001711885,1181700239950015,4.893,8.898001,-0.9979501
1680001711887,1181700242452169,4.9120502,8.99895,-0.984
1680001711890,1181700244954322,4.8960004,8.953051,-0.98805004
1680001711892,1181700247456476,4.99095,8.944051,-1.0510501
1680001711894,1181700249958707,4.9410005,8.908051,-1.09605
1680001711897,1181700252460851,4.97205,8.82195,-0.98100007
1680001711901,1181700254963005,4.9120502,9.02295,-1.04805
1680001711903,1181700257465159,4.953,8.989051,-0.9670501
1680001711904,1181700259967312,4.9360504,8.89395,-0.9979501
1680001711907,1181700262469466,4.8019505,8.950951,-0.984
1680001711910,1181700264971620,4.8690004,8.898001,-0.88305
1680001711912,1181700267474005,4.9099503,8.937,-0.91695005
1680001711914,1181700269976159,4.87395,8.944051,-0.96495
1680001711917,1181700272478293,4.8450003,8.953051,-0.96495
1680001711920,1181700274980217,4.9219503,8.85795,-0.87105006
1680001711922,1181700277482370,4.9240503,8.80305,-0.98595005
1680001711925,1181700279984524,4.893,8.755051,-0.88095003
1680001711927,1181700282486900,4.9290004,8.874001,-0.89295006
1680001711930,1181700284989054,4.87605,8.83395,-0.93795
1680001711932,1181700287491208,4.893,8.85495,-0.96195006
1680001711934,1181700289993361,4.8840003,8.91495,-0.96495
1680001711938,1181700292495515,4.85505,8.89095,-0.91200006
1680001711941,1181700294997669,4.83795,8.72805,-0.83295006
1680001711943,1181700297499900,4.833,8.84595,-0.81105006
1680001711944,1181700300002054,4.7970004,8.818951,-0.83505005
1680001711947,1181700302504208,4.79505,8.788051,-0.73005
1680001711949,1181700305006360,4.833,8.805,-0.771
1680001711952,1181700307508514,4.8190503,8.797951,-0.81795
1680001711954,1181700310010668,4.7710505,8.82405,-0.75900006
1680001711958,1181700312512745,4.7590504,8.886001,-0.78000003
1680001711960,1181700315015203,4.72095,8.89095,-0.76095
1680001711962,1181700317517357,4.66305,8.80305,-0.79905003
1680001711965,1181700320019510,4.82595,8.85495,-0.66495
1680001711967,1181700322521433,4.7179503,8.89095,-0.67200005
1680001711970,1181700325023572,4.70895,8.901,-0.66
