system_ts_ms, sensor_ts_ns, gyrX, gyrY, gyrZ
1680001706801,1181695155538895,-0.0017875,-0.0460625,0.0540375
1680001706803,1181695158041097,0.0061875,-0.0369875,0.0540375
1680001706805,1181695160543250,0.0072875,-0.040975,0.050049998
1680001706807,1181695163045173,0.010175,-0.0320375,0.0430375
1680001706810,1181695165547327,0.0061875,-0.029975,0.0411125
1680001706812,1181695168049712,0.005225,-0.031075,0.0380875
1680001706822,1181695170551880,0.005225,-0.0339625,0.0301125
1680001706823,1181695173054034,0.0022,-0.0350625,0.026124999
1680001706823,1181695175556187,-0.00275,-0.0380875,0.0240625
1680001706823,1181695178058341,-0.0067375,-0.069025,0.025024999
1680001706825,1181695180560495,-0.0077,-0.097075,0.0231
1680001706827,1181695183062649,-0.010725,-0.1120625,0.0210375
1680001706830,1181695185564880,-0.014712499,-0.1170125,0.020075
1680001706833,1181695188067034,-0.011825,-0.109037496,0.0160875
1680001706835,1181695190569178,-0.01375,-0.1010625,0.014025
1680001706837,1181695193071331,-0.014712499,-0.108075,0.0100375
1680001706840,1181695195573485,-0.0187,-0.119075,0.0081124995
1680001706842,1181695198075639,-0.021724999,-0.1310375,0.00605
1680001706845,1181695200577793,-0.02475,-0.135025,0.0020625
1680001706850,1181695203080178,-0.0237875,-0.139975,0.0081124995
1680001706850,1181695205582331,-0.0198,-0.143,0.0081124995
1680001706853,1181695208084485,-0.0207625,-0.139975,0.0081124995
1680001706856,1181695210586639,-0.0187,-0.139975,0.0070125
1680001706857,1181695213088779,-0.011825,-0.141075,0.0100375
1680001706860,1181695215590933,-0.0097624995,-0.1439625,0.0100375
1680001706863,1181695218093164,-0.011825,-0.152075,0.011
1680001706868,1181695220595317,-0.0088,-0.157025,0.014025
1680001706868,1181695223097427,-0.0037125,-0.1500125,0.01705
1680001706872,1181695225599581,-0.00275,-0.1450625,0.015125
1680001706874,1181695228101658,0.0022,-0.139975,0.015125
1680001706875,1181695230603812,0.0042625,-0.1310375,0.01705
1680001706878,1181695233106253,0.0033,-0.130075,0.0210375
1680001706885,1181695235608407,0.0012375,-0.128975,0.020075
1680001706885,1181695238110330,0.0022,-0.1260875,0.022
1680001706886,1181695240612484,0.0012375,-0.11605,0.0240625
1680001706888,1181695243114648,2.75E-4,-0.0999625,0.0210375
1680001706891,1181695245617033,-0.0017875,-0.09405,0.0210375
1680001706893,1181695248118956,0.0033,-0.0919875,0.0160875
1680001706895,1181695250621340,0.0033,-0.0779625,0.015125
1680001706901,1181695253123489,0.0042625,-0.058025,0.013062499
1680001706902,1181695255625643,0.0092124995,-0.042075,0.014025
1680001706903,1181695258127797,0.00825,-0.02805,0.0121
1680001706905,1181695260629951,0.0092124995,-0.0180125,0.0081124995
1680001706909,1181695263132134,0.010175,-0.020075,0.0070125
1680001706912,1181695265634364,0.015262499,-0.007975,0.0070125
1680001706913,1181695268136518,0.01925,-0.0,0.0050875
1680001706918,1181695270638672,0.0232375,0.0039875,0.0070125
1680001706918,1181695273140826,0.03025,0.0059125,0.009075
1680001706920,1181695275642975,0.0312125,0.00495,0.0081124995
1680001706923,1181695278145129,0.033275,0.0039875,0.009075
1680001706926,1181695280647283,0.0363,0.0059125,0.013062499
1680001706928,1181695283149667,0.0402875,0.003025,0.0100375
1680001706934,1181695285651831,0.043175,0.0039875,0.014025
1680001706935,1181695288153985,0.043175,0.007975,0.013062499
1680001706935,1181695290656139,0.041249998,0.0039875,0.011
1680001706938,1181695293158293,0.0402875,0.0059125,0.0100375
1680001706941,1181695295660201,0.0391875,9.625E-4,0.0081124995
1680001706943,1181695298162662,0.038225,0.00495,0.0081124995
1680001706947,1181695300664816,0.0342375,0.0059125,0.0070125
1680001706954,1181695303166970,0.0342375,-9.625E-4,0.009075
1680001706954,1181695305669018,0.0312125,-0.0039875,0.0070125
1680001706955,1181695308171249,0.0292875,-9.625E-4,0.0081124995
1680001706955,1181695310673403,0.0292875,-0.003025,0.00605
1680001706958,1181695313175556,0.0281875,-0.0050875,0.0050875
1680001706960,1181695315677710,0.027224999,-0.0070125,0.0050875
1680001706963,1181695318179869,0.027224999,-0.00605,0.003025
1680001706968,1181695320682023,0.0253,-0.0070125,0.0
1680001706968,1181695323184408,0.027224999,-0.007975,0.0011
1680001706971,1181695325686331,0.0281875,-0.0100375,-9.625E-4
1680001706973,1181695328188470,0.027224999,-0.011,-0.0039875
1680001706975,1181695330690855,0.027224999,-0.009075,-0.0039875
1680001706978,1181695333193009,0.0242,-0.011,-0.0039875
1680001706981,1181695335695163,0.022275,-0.0149875,-0.006875
1680001706985,1181695338197298,0.021175,-0.0119624995,-0.007975
1680001706986,1181695340699452,0.0202125,-0.0160875,-0.0089375
1680001706988,1181695343201605,0.0171875,-0.01705,-0.0099
1680001706991,1181695345703836,0.0171875,-0.014025,-0.0089375
1680001706993,1181695348205990,0.0171875,-0.0149875,-0.0089375
1680001706996,1181695350708110,0.0122375,-0.014025,-0.0089375
1680001707002,1181695353210264,0.0122375,-0.0180125,-0.0099
1680001707003,1181695355712418,0.0132,-0.025024999,-0.0089375
1680001707004,1181695358214571,0.0132,-0.022,-0.0099
1680001707007,1181695360716735,0.011275,-0.0180125,-0.011
1680001707008,1181695363219120,0.0132,-0.020075,-0.0149875
1680001707011,1181695365721274,0.0132,-0.0240625,-0.0149875
1680001707013,1181695368223428,0.0122375,-0.025024999,-0.0169125
1680001707020,1181695370725581,0.0092124995,-0.022,-0.0199375
1680001707022,1181695373227725,0.011275,-0.020075,-0.0119624995
1680001707024,1181695375729879,0.010175,-0.022,-0.0169125
1680001707025,1181695378232110,0.0072875,-0.0240625,-0.017875
1680001707026,1181695380734187,0.005225,-0.0210375,-0.018975
1680001707028,1181695383236360,0.0042625,-0.020075,-0.0169125
1680001707035,1181695385738590,0.0033,-0.022,-0.017875
1680001707037,1181695388240744,0.0012375,-0.0210375,-0.0169125
1680001707038,1181695390742821,0.0012375,-0.025024999,-0.017875
1680001707038,1181695393244975,0.0033,-0.0240625,-0.01595
1680001707040,1181695395747260,0.0061875,-0.0270875,-0.017875
1680001707043,1181695398249414,0.005225,-0.022,-0.0209
1680001707046,1181695400751568,0.0022,-0.033,-0.0229625
1680001707051,1181695403253731,0.0031625,-0.036025,-0.023924999
1680001707051,1181695405755885,0.0022,-0.044,-0.0248875
1680001707053,1181695408258039,0.0022,-0.044,-0.0259875
1680001707055,1181695410760424,0.0012375,-0.0449625,-0.0279125
1680001707059,1181695413262558,0.0012375,-0.0479875,-0.0279125
1680001707061,1181695415764711,-0.0017875,-0.051975,-0.02695
1680001707064,1181695418266865,2.75E-4,-0.0540375,-0.02695
1680001707068,1181695420769019,-0.0017875,-0.0540375,-0.0279125
1680001707069,1181695423271173,-0.0017875,-0.055,-0.02695
1680001707071,1181695425773414,-0.00275,-0.0620125,-0.028875
1680001707073,1181695428275568,-0.0037125,-0.0620125,-0.0259875
1680001707076,1181695430777721,-0.0037125,-0.062975,-0.0229625
1680001707078,1181695433279875,-0.005775,-0.066,-0.0229625
1680001707080,1181695435781937,-0.005775,-0.066,-0.0248875
1680001707086,1181695438284168,-0.0037125,-0.066,-0.023924999
1680001707087,1181695440786322,-0.0067375,-0.0710875,-0.022
1680001707088,1181695443288476,-0.0078375,-0.0699875,-0.0209
1680001707091,1181695445790635,-0.0097624995,-0.075075,-0.0229625
1680001707093,1181695448292788,-0.0088,-0.077,-0.0259875
1680001707097,1181695450794942,-0.0088,-0.0779625,-0.022
1680001707101,1181695453297327,-0.0078375,-0.075075,-0.023924999
1680001707102,1181695455799481,-0.0067375,-0.080025,-0.0209
1680001707104,1181695458301635,-0.005775,-0.0790625,-0.0209
1680001707105,1181695460803788,-0.005775,-0.075075,-0.022
1680001707108,1181695463305942,-0.0037125,-0.080025,-0.0199375
1680001707111,1181695465808096,-0.0048125,-0.0820875,-0.0209
1680001707113,1181695468310356,-0.005775,-0.0809875,-0.0209
1680001707118,1181695470812510,-0.0048125,-0.087037496,-0.0209
1680001707119,1181695473314664,-0.0037125,-0.087037496,-0.0199375
1680001707122,1181695475816818,-0.0048125,-0.0919875,-0.0169125
1680001707124,1181695478318990,-0.0048125,-0.0950125,-0.017875
1680001707127,1181695480821144,-0.0048125,-0.098037496,-0.0149875
1680001707128,1181695483323298,-0.005775,-0.0999625,-0.0119624995
1680001707131,1181695485825452,-0.005775,-0.1010625,-0.0119624995
1680001707136,1181695488327597,-0.0088,-0.109037496,-0.007975
1680001707136,1181695490829981,-0.005775,-0.109037496,-0.006875
1680001707138,1181695493332135,-0.0048125,-0.108075,-0.00495
1680001707141,1181695495834058,-0.010725,-0.109037496,-0.0039875
1680001707143,1181695498336212,-0.0097624995,-0.1139875,-0.00495
1680001707145,1181695500838587,-0.0127875,-0.11605,-0.0059125
1680001707152,1181695503340818,-0.014712499,-0.119075,-0.00495
1680001707154,1181695505842895,-0.014712499,-0.1260875,-0.00495
1680001707156,1181695508345048,-0.0158125,-0.132,-0.007975
1680001707157,1181695510847207,-0.022824999,-0.1329625,-0.0099
1680001707159,1181695513349361,-0.0188375,-0.1370875,-0.0119624995
1680001707161,1181695515851515,-0.021724999,-0.13805,-0.01595
1680001707163,1181695518353746,-0.0237875,-0.1450625,-0.01595
1680001707168,1181695520855914,-0.0268125,-0.14905,-0.0209
1680001707169,1181695523358067,-0.0268125,-0.157025,-0.0248875
1680001707173,1181695525860221,-0.0257125,-0.16005,-0.0279125
1680001707174,1181695528362375,-0.0257125,-0.1640375,-0.028875
1680001707176,1181695530864529,-0.02475,-0.16499999,-0.029975
1680001707178,1181695533366914,-0.022824999,-0.168025,-0.0279125
1680001707185,1181695535869067,-0.0207625,-0.168025,-0.02695
1680001707186,1181695538371221,-0.0198,-0.1659625,-0.028875
1680001707187,1181695540873375,-0.0177375,-0.17105,-0.028875
1680001707188,1181695543375543,-0.0207625,-0.172975,-0.0279125
1680001707191,1181695545877697,-0.0198,-0.1750375,-0.02695
1680001707194,1181695548379928,-0.0237875,-0.17407499,-0.02695
1680001707196,1181695550882081,-0.0237875,-0.176,-0.0279125
1680001707199,1181695553384231,-0.0237875,-0.1769625,-0.033
1680001707201,1181695555886385,-0.022824999,-0.176,-0.033
1680001707203,1181695558388539,-0.0207625,-0.172975,-0.033
1680001707206,1181695560890639,-0.0207625,-0.1750375,-0.0339625
1680001707209,1181695563392716,-0.0198,-0.1750375,-0.0339625
1680001707212,1181695565895177,-0.021724999,-0.172975,-0.03795
1680001707214,1181695568397331,-0.0207625,-0.17105,-0.0389125
1680001707216,1181695570899485,-0.0207625,-0.1769625,-0.0419375
1680001707218,1181695573401408,-0.0207625,-0.176,-0.045925
1680001707221,1181695575903562,-0.0237875,-0.17105,-0.04895
1680001707223,1181695578405716,-0.0177375,-0.1780625,-0.044
1680001707226,1181695580908100,-0.016775,-0.179025,-0.0479875
1680001707228,1181695583410244,-0.0177375,-0.176,-0.050875
1680001707231,1181695585912398,-0.01375,-0.1750375,-0.051975
1680001707233,1181695588414552,-0.0127875,-0.1769625,-0.050875
1680001707235,1181695590916706,-0.011825,-0.179025,-0.0479875
1680001707238,1181695593418865,-0.010725,-0.207075,-0.0419375
1680001707241,1181695595921019,-0.0088,-0.2410375,-0.029975
1680001707243,1181695598423249,-0.0078375,-0.2649625,-0.0229625
1680001707247,1181695600925403,-0.005775,-0.2789875,-0.01595
1680001707250,1181695603427547,-0.00275,-0.2850375,-0.0059125
1680001707252,1181695605929701,-0.005775,-0.286,-0.0039875
1680001707254,1181695608431855,-0.00275,-0.286,0.0
1680001707256,1181695610934009,-0.0078375,-0.2930125,0.0050875
1680001707258,1181695613436393,-0.011825,-0.300025,0.0081124995
1680001707261,1181695615938557,-0.0177375,-0.315975,0.0081124995
1680001707263,1181695618440711,-0.016775,-0.326975,0.009075
1680001707266,1181695620942865,-0.0198,-0.33605,0.014025
1680001707269,1181695623445019,-0.022824999,-0.350075,0.0160875
1680001707271,1181695625947172,-0.02475,-0.3639625,0.0210375
1680001707273,1181695628449326,-0.027775,-0.3749625,0.025024999
1680001707276,1181695630951480,-0.0298375,-0.3810125,0.02805
1680001707278,1181695633453711,-0.0298375,-0.3810125,0.0301125
1680001707281,1181695635955826,-0.027775,-0.3900875,0.0341
1680001707284,1181695638457980,-0.0317625,-0.394075,0.039049998
1680001707287,1181695640960057,-0.027775,-0.3969625,0.044
1680001707291,1181695643462210,-0.0268125,-0.407,0.048125
1680001707292,1181695645964417,-0.027775,-0.4140125,0.0521125
1680001707294,1181695648466571,-0.02475,-0.429,0.0561
1680001707296,1181695650968725,-0.021724999,-0.4390375,0.0650375
1680001707299,1181695653470879,-0.0207625,-0.4500375,0.066
1680001707302,1181695655973052,-0.022824999,-0.4610375,0.069025
1680001707304,1181695658475205,-0.0188375,-0.476025,0.0710875
1680001707306,1181695660977590,-0.021724999,-0.495,0.07205
1680001707308,1181695663479744,-0.0207625,-0.506,0.070125
1680001707311,1181695665981898,-0.0237875,-0.5190625,0.0671
1680001707314,1181695668484043,-0.022824999,-0.531025,0.064075
1680001707316,1181695670986197,-0.0257125,-0.5410625,0.0600875
1680001707319,1181695673488350,-0.027775,-0.5550875,0.050049998
1680001707324,1181695675990504,-0.0257125,-0.5619625,0.042075
1680001707325,1181695678492744,-0.0257125,-0.5680125,0.031075
1680001707328,1181695680994898,-0.0257125,-0.572,0.01705
1680001707331,1181695683497052,-0.0207625,-0.5680125,0.0081124995
1680001707332,1181695685999206,-0.0188375,-0.5630625,-0.001925
1680001707334,1181695688501359,-0.0207625,-0.5619625,-0.0119624995
1680001707336,1181695691003533,-0.0177375,-0.557975,-0.0209
1680001707339,1181695693505918,-0.0158125,-0.5550875,-0.0279125
1680001707341,1181695696008072,-0.0198,-0.5550875,-0.0339625
1680001707344,1181695698509995,-0.021724999,-0.5509625,-0.0369875
1680001707346,1181695701012379,-0.0198,-0.54202497,-0.040975
1680001707348,1181695703514533,-0.021724999,-0.5380375,-0.044
1680001707351,1181695706016687,-0.0188375,-0.5319875,-0.0429
1680001707353,1181695708518610,-0.016775,-0.5319875,-0.044
1680001707356,1181695711021081,-0.01375,-0.528,-0.0449625
1680001707359,1181695713523235,-0.0127875,-0.5220875,-0.0429
1680001707362,1181695716025312,-0.0088,-0.51301247,-0.0419375
1680001707364,1181695718527465,-0.0067375,-0.502975,-0.040975
1680001707366,1181695721029706,-0.0067375,-0.4970625,-0.0389125
1680001707369,1181695723531860,-0.0088,-0.4860625,-0.034925
1680001707371,1181695726034014,2.75E-4,-0.4690125,-0.034925
1680001707373,1181695728536168,0.0031625,-0.45705,-0.0319
1680001707376,1181695731038322,0.0072875,-0.4409625,-0.028875
1680001707379,1181695733540499,0.00825,-0.42405,-0.028875
1680001707381,1181695736042884,0.0132,-0.407,-0.023924999
1680001707383,1181695738545038,0.014162499,-0.3900875,-0.0248875
1680001707386,1181695741047192,0.0182875,-0.3730375,-0.023924999
1680001707388,1181695743549351,0.0202125,-0.348975,-0.0229625
1680001707391,1181695746051504,0.021175,-0.3240875,-0.017875
1680001707393,1181695748553658,0.0251625,-0.2930125,-0.017875
1680001707397,1181695751055812,0.03025,-0.267025,-0.0199375
1680001707400,1181695753558071,0.0342375,-0.2470875,-0.0199375
1680001707402,1181695756060225,0.0352,-0.2250875,-0.022
1680001707404,1181695758562302,0.0352,-0.205975,-0.018975
1680001707406,1181695761064456,0.0391875,-0.190025,-0.0209
1680001707408,1181695763566609,0.0422125,-0.176,-0.0209
1680001707411,1181695766068831,0.044275,-0.16005,-0.0209
1680001707413,1181695768570985,0.043175,-0.1469875,-0.023924999
1680001707416,1181695771073139,0.043175,-0.1359875,-0.0259875
1680001707418,1181695773575293,0.0482625,-0.1249875,-0.033
1680001707421,1181695776077447,0.0501875,-0.1120625,-0.033
1680001707426,1181695778579609,0.0512875,-0.108075,-0.0358875
1680001707432,1181695781081763,0.0471625,-0.095975,-0.0419375
1680001707432,1181695783584148,0.0482625,-0.087037496,-0.0429
1680001707432,1181695786086302,0.0471625,-0.084975,-0.0479875
1680001707435,1181695788588451,0.044275,-0.0760375,-0.051975
1680001707436,1181695791090605,0.043175,-0.069025,-0.0529375
1680001707438,1181695793592758,0.043175,-0.0650375,-0.055
1680001707441,1181695796094912,0.043175,-0.0589875,-0.055
1680001707443,1181695798597066,0.0422125,-0.050049998,-0.0559625
1680001707446,1181695801099297,0.038225,-0.0460625,-0.0539
1680001707448,1181695803601451,0.041249998,-0.042075,-0.0578875
1680001707452,1181695806103634,0.044275,-0.0339625,-0.056925
1680001707453,1181695808605787,0.044275,-0.033,-0.0578875
1680001707456,1181695811107941,0.0471625,-0.0320375,-0.0578875
1680001707458,1181695813610095,0.0482625,-0.0270875,-0.0578875
1680001707461,1181695816112249,0.0482625,-0.0259875,-0.0589875
1680001707463,1181695818614649,0.0482625,-0.0270875,-0.0578875
1680001707466,1181695821116802,0.0462,-0.02805,-0.05995
1680001707468,1181695823618956,0.043175,-0.0320375,-0.056925
1680001707473,1181695826120859,0.0361625,-0.0320375,-0.055
1680001707474,1181695828623013,0.0312125,-0.0270875,-0.0539
1680001707476,1181695831125398,0.0292875,-0.0320375,-0.055
1680001707478,1181695833627629,0.0292875,-0.0339625,-0.0529375
1680001707481,1181695836129706,0.0292875,-0.0350625,-0.0529375
1680001707483,1181695838631879,0.033275,-0.0430375,-0.0529375
1680001707487,1181695841134033,0.0361625,-0.0460625,-0.056925
1680001707489,1181695843636264,0.0372625,-0.0490875,-0.0559625
1680001707492,1181695846138341,0.0352,-0.0540375,-0.0589875
1680001707493,1181695848640586,0.0361625,-0.055,-0.0578875
1680001707496,1181695851142740,0.0361625,-0.061049998,-0.0609125
1680001707499,1181695853644893,0.0361625,-0.0620125,-0.061875
1680001707502,1181695856147047,0.0361625,-0.0669625,-0.064899996
1680001707504,1181695858649187,0.0361625,-0.073975,-0.066
1680001707507,1181695861151341,0.0372625,-0.080025,-0.0669625
1680001707509,1181695863653726,0.0372625,-0.0790625,-0.0688875
1680001707512,1181695866155879,0.0352,-0.0820875,-0.0719125
1680001707513,1181695868658018,0.0352,-0.087037496,-0.0719125
1680001707516,1181695871160172,0.038225,-0.0950125,-0.07095
1680001707518,1181695873662326,0.043175,-0.091025,-0.072875
1680001707521,1181695876164480,0.0462,-0.0840125,-0.073975
1680001707527,1181695878666615,0.0452375,-0.086075,-0.0779625
1680001707528,1181695881168845,0.054175,-0.08305,-0.0809875
1680001707531,1181695883670999,0.0562375,-0.080025,-0.0809875
1680001707532,1181695886173153,0.0592625,-0.077,-0.0829125
1680001707534,1181695888675307,0.0622875,-0.0760375,-0.08195
1680001707536,1181695891177442,0.0611875,-0.069025,-0.0809875
1680001707538,1181695893679519,0.0611875,-0.066,-0.078925
1680001707541,1181695896181980,0.0622875,-0.0589875,-0.0809875
1680001707544,1181695898684134,0.0622875,-0.050049998,-0.0809875
1680001707549,1181695901186278,0.060225,-0.050049998,-0.08195
1680001707550,1181695903688201,0.0572,-0.0430375,-0.0809875
1680001707553,1181695906190355,0.055275,-0.03795,-0.0759
1680001707554,1181695908692509,0.052249998,-0.0369875,-0.0759
1680001707557,1181695911194663,0.0532125,-0.0339625,-0.072875
1680001707559,1181695913697061,0.050325,-0.033,-0.07095
1680001707561,1181695916199215,0.050325,-0.029975,-0.066
1680001707564,1181695918701369,0.044275,-0.029975,-0.066
1680001707567,1181695921203523,0.0433125,-0.031075,-0.05995
1680001707568,1181695923705668,0.041249998,-0.0430375,-0.0559625
1680001707572,1181695926207822,0.0372625,-0.047025,-0.0529375
1680001707576,1181695928710052,0.039325,-0.0510125,-0.0499125
1680001707579,1181695931212206,0.0402875,-0.0570625,-0.0449625
1680001707580,1181695933714374,0.0422125,-0.05995,-0.045925
1680001707581,1181695936216528,0.0422125,-0.0620125,-0.044
1680001707585,1181695938718682,0.0462,-0.066,-0.0429
1680001707586,1181695941220836,0.0462,-0.0650375,-0.045925
1680001707590,1181695943723210,0.050325,-0.062975,-0.0499125
1680001707592,1181695946225364,0.0512875,-0.05995,-0.050875
1680001707593,1181695948727518,0.0512875,-0.05995,-0.051975
1680001707596,1181695951229672,0.050325,-0.055,-0.0539
1680001707599,1181695953731826,0.0473,-0.053075,-0.051975
1680001707601,1181695956233976,0.0452375,-0.0570625,-0.055
1680001707604,1181695958736129,0.041249998,-0.0570625,-0.0539
1680001707607,1181695961238283,0.0422125,-0.058025,-0.0578875
1680001707609,1181695963740523,0.044275,-0.0540375,-0.055
1680001707611,1181695966242677,0.0402875,-0.053075,-0.051975
1680001707613,1181695968744754,0.0433125,-0.0540375,-0.0529375
1680001707618,1181695971246908,0.039325,-0.051975,-0.051975
1680001707620,1181695973749047,0.038225,-0.0540375,-0.051975
1680001707624,1181695976251278,0.0372625,-0.0540375,-0.0499125
1680001707624,1181695978753432,0.038225,-0.0570625,-0.050875
1680001707627,1181695981255586,0.038225,-0.0570625,-0.0499125
1680001707628,1181695983757740,0.0352,-0.0510125,-0.0479875
1680001707631,1181695986259908,0.038225,-0.051975,-0.04895
1680001707634,1181695988762062,0.039325,-0.051975,-0.04895
1680001707637,1181695991264215,0.0363,-0.051975,-0.04895
1680001707642,1181695993766619,0.0352,-0.051975,-0.045925
1680001707644,1181695996268773,0.0372625,-0.04895,-0.0479875
1680001707645,1181695998770927,0.0372625,-0.04895,-0.044
1680001707647,1181696001273081,0.033275,-0.050049998,-0.0429
1680001707651,1181696003775244,0.0312125,-0.0540375,-0.040975
1680001707652,1181696006277475,0.0262625,-0.0510125,-0.0429
1680001707653,1181696008779552,0.022275,-0.0510125,-0.0389125
1680001707657,1181696011281706,0.0202125,-0.053075,-0.03795
1680001707661,1181696013783860,0.017324999,-0.053075,-0.0369875
1680001707663,1181696016286004,0.0122375,-0.051975,-0.033
1680001707665,1181696018788234,0.00825,-0.0570625,-0.029975
1680001707667,1181696021290388,0.006325,-0.0570625,-0.028875
1680001707671,1181696023792542,0.006325,-0.0620125,-0.02695
1680001707672,1181696026294696,0.005225,-0.064075,-0.02695
1680001707673,1181696028796874,-0.0017875,-0.066,-0.023924999
1680001707676,1181696031299028,-0.00275,-0.0680625,-0.0229625
1680001707680,1181696033801182,-0.0037125,-0.069025,-0.023924999
1680001707681,1181696036303566,-0.0088,-0.07095,-0.0229625
1680001707684,1181696038805730,-0.0067375,-0.0779625,-0.0199375
1680001707687,1181696041307884,-0.0077,-0.08195,-0.0199375
1680001707693,1181696043810038,-0.0077,-0.084975,-0.0209
1680001707693,1181696046312192,-0.0067375,-0.09405,-0.018975
1680001707695,1181696048814350,-0.005775,-0.098037496,-0.0199375
1680001707698,1181696051316581,-0.0017875,-0.1010625,-0.0229625
1680001707701,1181696053818735,0.0042625,-0.10505,-0.023924999
1680001707702,1181696056320812,0.006325,-0.108075,-0.023924999
1680001707704,1181696058823057,0.011275,-0.1109625,-0.0279125
1680001707707,1181696061325211,0.0132,-0.113025,-0.033
1680001707709,1181696063827364,0.0143,-0.11605,-0.034925
1680001707712,1181696066329518,0.017324999,-0.1170125,-0.039875
1680001707714,1181696068831672,0.017324999,-0.11605,-0.0389125
1680001707716,1181696071334096,0.0182875,-0.1170125,-0.0429
1680001707719,1181696073836250,0.017324999,-0.1170125,-0.045925
1680001707721,1181696076338173,0.0143,-0.119075,-0.0449625
1680001707724,1181696078840327,0.0132,-0.119075,-0.04895
1680001707727,1181696081342466,0.0103124995,-0.1170125,-0.0499125
1680001707729,1181696083844851,0.006325,-0.119075,-0.04895
1680001707732,1181696086347005,0.0072875,-0.1249875,-0.0479875
1680001707735,1181696088849159,0.0033,-0.1219625,-0.045925
1680001707736,1181696091351327,-0.00275,-0.120037496,-0.045925
1680001707740,1181696093853480,-0.0067375,-0.120037496,-0.0479875
1680001707741,1181696096355634,-0.0077,-0.1280125,-0.0499125
1680001707744,1181696098857865,-0.0097624995,-0.1249875,-0.050875
1680001707746,1181696101360019,-0.014712499,-0.1249875,-0.051975
1680001707749,1181696103862169,-0.0177375,-0.12595,-0.0539
1680001707752,1181696106364323,-0.0187,-0.12705,-0.051975
1680001707753,1181696108866476,-0.0226875,-0.1249875,-0.0529375
1680001707756,1181696111368630,-0.0257125,-0.130075,-0.0539
1680001707759,1181696113870779,-0.0317625,-0.135025,-0.0559625
1680001707761,1181696116373164,-0.0347875,-0.1340625,-0.0559625
1680001707763,1181696118875318,-0.03575,-0.128975,-0.0589875
1680001707767,1181696121377472,-0.0336875,-0.1310375,-0.0589875
1680001707770,1181696123879606,-0.0347875,-0.135025,-0.061875
1680001707773,1181696126381760,-0.0347875,-0.1359875,-0.061875
1680001707775,1181696128883914,-0.0367125,-0.139975,-0.061875
1680001707777,1181696131386145,-0.038775,-0.13805,-0.062975
1680001707779,1181696133888222,-0.0418,-0.141075,-0.062975
1680001707782,1181696136390371,-0.0427625,-0.1420375,-0.064899996
1680001707784,1181696138892601,-0.043725,-0.1450625,-0.066
1680001707786,1181696141394678,-0.0477125,-0.150975,-0.066
1680001707791,1181696143896827,-0.048675,-0.154,-0.0669625
1680001707792,1181696146398981,-0.0537625,-0.154,-0.0669625
1680001707794,1181696148901212,-0.0528,-0.157025,-0.0688875
1680001707796,1181696151403366,-0.0556875,-0.15895,-0.067925
1680001707799,1181696153905520,-0.05775,-0.161975,-0.067925
1680001707801,1181696156407658,-0.060775,-0.163075,-0.0669625
1680001707804,1181696158909812,-0.0627,-0.16499999,-0.0669625
1680001707807,1181696161411966,-0.0627,-0.1689875,-0.066
1680001707810,1181696163914351,-0.0617375,-0.16995,-0.0669625
1680001707813,1181696166416477,-0.0587125,-0.16995,-0.067925
1680001707815,1181696168918630,-0.0556875,-0.172975,-0.0669625
1680001707816,1181696171420784,-0.0517,-0.1750375,-0.0719125
1680001707820,1181696173922938,-0.0528,-0.179025,-0.0719125
1680001707823,1181696176425092,-0.0446875,-0.1780625,-0.077
1680001707824,1181696178927313,-0.037675,-0.17407499,-0.08195
1680001707826,1181696181429467,-0.03575,-0.1750375,-0.078925
1680001707830,1181696183931620,-0.0347875,-0.16995,-0.0859375
1680001707832,1181696186433774,-0.0287375,-0.163075,-0.0919875
1680001707834,1181696188935846,-0.0237875,-0.157025,-0.0919875
1680001707837,1181696191438000,-0.0198,-0.150975,-0.094875
1680001707841,1181696193940231,-0.016775,-0.1469875,-0.095975
1680001707842,1181696196442615,-0.014712499,-0.13695,-0.0979
1680001707844,1181696198944529,-0.0127875,-0.128975,-0.1029875
1680001707848,1181696201446682,-0.0116875,-0.1249875,-0.1029875
1680001707850,1181696203948836,-0.0097624995,-0.121,-0.1049125
1680001707852,1181696206451221,-0.0067375,-0.1120625,-0.105875
1680001707854,1181696208953144,-0.0037125,-0.1029875,-0.10395
1680001707857,1181696211455529,0.0012375,-0.1010625,-0.11
1680001707859,1181696213957682,0.0012375,-0.0950125,-0.11495
1680001707861,1181696216459836,0.0042625,-0.0900625,-0.1159125
1680001707864,1181696218961990,0.0072875,-0.0779625,-0.117975
1680001707866,1181696221464135,0.006325,-0.075075,-0.1189375
1680001707870,1181696223966289,0.00825,-0.069025,-0.122925
1680001707871,1181696226468443,0.0072875,-0.05995,-0.12595
1680001707874,1181696228970673,0.006325,-0.055,-0.127875
1680001707876,1181696231472822,0.0042625,-0.047025,-0.1309
1680001707880,1181696233974976,0.0022,-0.042075,-0.1309
1680001707881,1181696236477130,-0.0017875,-0.03795,-0.1309
1680001707885,1181696238979284,-0.0037125,-0.0369875,-0.1269125
1680001707887,1181696241481408,-0.0067375,-0.0339625,-0.1238875
1680001707891,1181696243983792,-0.0116875,-0.0320375,-0.127875
1680001707892,1181696246485946,-0.0116875,-0.031075,-0.127875
1680001707894,1181696248988100,-0.016775,-0.031075,-0.12595
1680001707896,1181696251490254,-0.0207625,-0.036025,-0.12595
1680001707900,1181696253992408,-0.021724999,-0.0350625,-0.12595
1680001707902,1181696256494331,-0.021724999,-0.033,-0.1249875
1680001707904,1181696258996715,-0.0257125,-0.0369875,-0.122925
1680001707907,1181696261498946,-0.0257125,-0.044,-0.1199
1680001707910,1181696264001095,-0.021724999,-0.0460625,-0.121
1680001707911,1181696266503172,-0.02475,-0.0449625,-0.117975
1680001707914,1181696269005326,-0.0237875,-0.050049998,-0.116875
1680001707916,1181696271507480,-0.0207625,-0.053075,-0.121
1680001707919,1181696274009710,-0.0226875,-0.0570625,-0.1238875
1680001707922,1181696276511864,-0.0207625,-0.058025,-0.1219625
1680001707924,1181696279014018,-0.0207625,-0.0570625,-0.1238875
1680001707927,1181696281516172,-0.0207625,-0.0570625,-0.1249875
1680001707930,1181696284018341,-0.0207625,-0.0589875,-0.12595
1680001707932,1181696286520726,-0.0226875,-0.0570625,-0.12595
1680001707933,1181696289022879,-0.0237875,-0.0570625,-0.1238875
1680001707936,1181696291525033,-0.0257125,-0.061049998,-0.1269125
1680001707940,1181696294027187,-0.0287375,-0.0620125,-0.1269125
1680001707942,1181696296529360,-0.0317625,-0.062975,-0.128975
1680001707944,1181696299031514,-0.03575,-0.062975,-0.132
1680001707946,1181696301533745,-0.038775,-0.069025,-0.128975
1680001707950,1181696304035898,-0.0397375,-0.0699875,-0.128975
1680001707951,1181696306538037,-0.0397375,-0.069025,-0.1348875
1680001707953,1181696309040114,-0.038775,-0.077,-0.1309
1680001707957,1181696311542268,-0.0336875,-0.080025,-0.1348875
1680001707961,1181696314044499,-0.0308,-0.088,-0.14093749
1680001707962,1181696316546668,-0.0257125,-0.0919875,-0.1439625
1680001707966,1181696319048822,-0.021724999,-0.09405,-0.149875
1680001707967,1181696321550975,-0.0177375,-0.0999625,-0.154
1680001707971,1181696324053129,-0.010725,-0.102025,-0.1639
1680001707972,1181696326555283,-0.0088,-0.11,-0.166925
1680001707974,1181696329057451,-0.004675,-0.108075,-0.1749
1680001707977,1181696331559605,-0.0037125,-0.11495,-0.18287499
1680001707980,1181696334061989,2.75E-4,-0.11495,-0.187
1680001707981,1181696336564143,0.0012375,-0.1170125,-0.19195
1680001707984,1181696339066326,2.75E-4,-0.121,-0.198
1680001707986,1181696341568480,0.0012375,-0.1280125,-0.2019875
1680001707991,1181696344070634,-0.00275,-0.128975,-0.20487499
1680001707992,1181696346572788,-0.0037125,-0.1329625,-0.205975
1680001707994,1181696349074928,-0.0037125,-0.13695,-0.2079
1680001707997,1181696351577158,-0.00275,-0.141075,-0.20899999
1680001708000,1181696354079312,-0.005775,-0.1500125,-0.2079
1680001708003,1181696356581466,-0.0077,-0.1530375,-0.20899999
1680001708005,1181696359083605,-0.0088,-0.15895,-0.210925
1680001708007,1181696361585759,-0.0097624995,-0.161975,-0.2149125
1680001708010,1181696364087913,-0.0116875,-0.16499999,-0.2179375
1680001708012,1181696366590066,-0.01375,-0.1670625,-0.216975
1680001708014,1181696369092451,-0.014712499,-0.1780625,-0.2179375
1680001708018,1181696371594605,-0.014712499,-0.1830125,-0.22
1680001708020,1181696374096759,-0.021724999,-0.1879625,-0.2209625
1680001708022,1181696376598682,-0.0207625,-0.19305,-0.2228875
1680001708024,1181696379100836,-0.0237875,-0.1970375,-0.2209625
1680001708027,1181696381603220,-0.0287375,-0.2019875,-0.221925
1680001708030,1181696384105437,-0.0308,-0.205975,-0.2228875
1680001708032,1181696386607514,-0.0297,-0.212025,-0.22495
1680001708035,1181696389109668,-0.037675,-0.22,-0.2239875
1680001708037,1181696391611822,-0.038775,-0.229075,-0.2259125
1680001708040,1181696394113985,-0.038775,-0.2300375,-0.2259125
1680001708041,1181696396616138,-0.0427625,-0.2330625,-0.22687499
1680001708045,1181696399118369,-0.0477125,-0.2380125,-0.22893749
1680001708047,1181696401620523,-0.048675,-0.2440625,-0.232925
1680001708053,1181696404122692,-0.0526625,-0.249975,-0.23595
1680001708058,1181696406624846,-0.054725,-0.25795,-0.23595
1680001708058,1181696409127000,-0.0537625,-0.256025,-0.238975
1680001708058,1181696411629153,-0.0587125,-0.25795,-0.238975
1680001708060,1181696414131538,-0.0587125,-0.260975,-0.243925
1680001708061,1181696416633701,-0.059675,-0.267025,-0.24695
1680001708064,1181696419135855,-0.0617375,-0.27101249,-0.24887499
1680001708067,1181696421638009,-0.0666875,-0.27005,-0.24887499
1680001708070,1181696424140162,-0.06875,-0.2740375,-0.2509375
1680001708073,1181696426642302,-0.0697125,-0.275,-0.2509375
1680001708074,1181696429144456,-0.0746625,-0.275,-0.254925
1680001708076,1181696431646687,-0.0757625,-0.2740375,-0.254925
1680001708079,1181696434148764,-0.0787875,-0.27101249,-0.2569875
1680001708081,1181696436650918,-0.0787875,-0.2740375,-0.2589125
1680001708085,1181696439153145,-0.0776875,-0.278025,-0.25795
1680001708086,1181696441655298,-0.07975,-0.2770625,-0.25795
1680001708089,1181696444157375,-0.081675,-0.27995,-0.264
1680001708091,1181696446659606,-0.07975,-0.2789875,-0.2619375
1680001708094,1181696449161760,-0.0787875,-0.282975,-0.2539625
1680001708097,1181696451664149,-0.07975,-0.2850375,-0.2539625
1680001708101,1181696454166072,-0.0807125,-0.2899875,-0.2539625
1680001708102,1181696456668225,-0.0776875,-0.2869625,-0.2539625
1680001708104,1181696459170379,-0.0807125,-0.284075,-0.254925
1680001708107,1181696461672542,-0.07975,-0.284075,-0.2569875
1680001708111,1181696464174927,-0.0776875,-0.2850375,-0.254925
1680001708113,1181696466677081,-0.081675,-0.27995,-0.253
1680001708115,1181696469179235,-0.081675,-0.2759625,-0.2539625
1680001708117,1181696471681383,-0.0837375,-0.2770625,-0.2509375
1680001708121,1181696474183537,-0.0837375,-0.275,-0.253
1680001708122,1181696476685691,-0.0847,-0.267025,-0.254925
1680001708125,1181696479187946,-0.0867625,-0.2649625,-0.2558875
1680001708126,1181696481690100,-0.0897875,-0.267025,-0.253
1680001708129,1181696484192254,-0.0917125,-0.262075,-0.253
1680001708131,1181696486694407,-0.092675,-0.2600125,-0.253
1680001708134,1181696489196561,-0.0917125,-0.25795,-0.2539625
1680001708137,1181696491698638,-0.093775,-0.2600125,-0.2558875
1680001708141,1181696494201100,-0.0996875,-0.256025,-0.2558875
1680001708141,1181696496703254,-0.0977625,-0.2569875,-0.2558875
1680001708149,1181696499205378,-0.0966625,-0.2600125,-0.259875
1680001708151,1181696501707302,-0.0947375,-0.264,-0.260975
1680001708151,1181696504209455,-0.0897875,-0.2660625,-0.2679875
1680001708153,1181696506711840,-0.09075,-0.26895,-0.2729375
1680001708155,1181696509213763,-0.0897875,-0.27101249,-0.2759625
1680001708159,1181696511716125,-0.0837375,-0.2740375,-0.27995
1680001708160,1181696514218279,-0.0886875,-0.2759625,-0.2869625
1680001708163,1181696516720432,-0.087725,-0.267025,-0.29095
1680001708165,1181696519222586,-0.0847,-0.264,-0.297
1680001708167,1181696521724740,-0.087725,-0.267025,-0.3029125
1680001708170,1181696524226927,-0.087725,-0.25905,-0.3059375
1680001708174,1181696526729158,-0.087725,-0.256025,-0.3069
1680001708174,1181696529231312,-0.0856625,-0.24805,-0.309925
1680001708177,1181696531733465,-0.087725,-0.24007499,-0.3089625
1680001708180,1181696534235624,-0.0897875,-0.234025,-0.309925
1680001708181,1181696536737778,-0.09075,-0.2330625,-0.31295
1680001708185,1181696539239932,-0.092675,-0.2300375,-0.314875
1680001708187,1181696541742086,-0.093775,-0.2239875,-0.315975
1680001708191,1181696544244455,-0.093775,-0.2190375,-0.315975
1680001708192,1181696546746609,-0.0947375,-0.2160125,-0.314875
1680001708194,1181696549248763,-0.0947375,-0.2110625,-0.309925
1680001708197,1181696551750917,-0.0947375,-0.205975,-0.31295
1680001708200,1181696554253071,-0.095699996,-0.20405,-0.3089625
1680001708202,1181696556755245,-0.095699996,-0.1970375,-0.3089625
1680001708205,1181696559257399,-0.0966625,-0.1909875,-0.308
1680001708208,1181696561759552,-0.0977625,-0.1909875,-0.30195
1680001708210,1181696564261706,-0.0977625,-0.187,-0.2998875
1680001708215,1181696566763937,-0.1007875,-0.185075,-0.293975
1680001708215,1181696569266091,-0.1027125,-0.18205,-0.2899875
1680001708216,1181696571768245,-0.0996875,-0.179025,-0.286
1680001708220,1181696574270399,-0.0996875,-0.1799875,-0.2849
1680001708223,1181696576772537,-0.0966625,-0.176,-0.28187498
1680001708225,1181696579274691,-0.0996875,-0.17407499,-0.276925
1680001708229,1181696581776845,-0.0977625,-0.1670625,-0.271975
1680001708230,1181696584279230,-0.1007875,-0.16499999,-0.2699125
1680001708232,1181696586781153,-0.1007875,-0.16005,-0.2679875
1680001708234,1181696589283307,-0.0996875,-0.1579875,-0.2649625
1680001708237,1181696591785691,-0.10175,-0.154,-0.260975
1680001708243,1181696594287845,-0.1027125,-0.1500125,-0.260975
1680001708243,1181696596789768,-0.0996875,-0.1439625,-0.259875
1680001708245,1181696599291937,-0.10175,-0.13805,-0.2569875
1680001708246,1181696601794322,-0.10175,-0.1340625,-0.2539625
1680001708250,1181696604296553,-0.1007875,-0.1329625,-0.249975
1680001708252,1181696606798629,-0.1027125,-0.1280125,-0.2479125
1680001708254,1181696609300783,-0.1027125,-0.12595,-0.243925
1680001708258,1181696611802941,-0.103675,-0.120037496,-0.242
1680001708261,1181696614305095,-0.104775,-0.11605,-0.2369125
1680001708263,1181696616807326,-0.1067,-0.11605,-0.2338875
1680001708265,1181696619309480,-0.104775,-0.1120625,-0.231
1680001708267,1181696621811633,-0.1067,-0.1120625,-0.2239875
1680001708270,1181696624313787,-0.1057375,-0.11,-0.2209625
1680001708272,1181696626815941,-0.109725,-0.106975,-0.2179375
1680001708274,1181696629318095,-0.1106875,-0.10505,-0.21395
1680001708277,1181696631820226,-0.1087625,-0.106975,-0.20899999
1680001708280,1181696634322611,-0.1067,-0.108075,-0.20693749
1680001708282,1181696636824764,-0.104775,-0.108075,-0.20295
1680001708285,1181696639326918,-0.10175,-0.10505,-0.199925
1680001708287,1181696641829058,-0.095699996,-0.109037496,-0.1969
1680001708290,1181696644330981,-0.0917125,-0.1120625,-0.194975
1680001708292,1181696646833366,-0.0856625,-0.11495,-0.193875
1680001708294,1181696649335597,-0.0807125,-0.1170125,-0.1909875
1680001708298,1181696651837735,-0.0746625,-0.11605,-0.194975
1680001708301,1181696654339812,-0.06875,-0.11495,-0.1909875
1680001708303,1181696656841966,-0.0627,-0.113025,-0.1909875
1680001708305,1181696659344197,-0.0556875,-0.1109625,-0.19195
1680001708307,1181696661846351,-0.0517,-0.11,-0.198
1680001708311,1181696664348419,-0.0477125,-0.11,-0.198
1680001708312,1181696666850650,-0.0427625,-0.109037496,-0.1969
1680001708314,1181696669352803,-0.038775,-0.109037496,-0.199925
1680001708317,1181696671854957,-0.0347875,-0.10505,-0.2019875
1680001708321,1181696674357092,-0.0306625,-0.10395,-0.2039125
1680001708324,1181696676859246,-0.0306625,-0.1029875,-0.20693749
1680001708325,1181696679361400,-0.026675,-0.099,-0.205975
1680001708327,1181696681863784,-0.0297,-0.097075,-0.205975
1680001708330,1181696684365938,-0.0287375,-0.09405,-0.205975
1680001708332,1181696686868082,-0.0287375,-0.09295,-0.2118875
1680001708336,1181696689370236,-0.0317625,-0.09295,-0.210925
1680001708337,1181696691872390,-0.0317625,-0.088,-0.2118875
1680001708340,1181696694374544,-0.0347875,-0.086075,-0.216975
1680001708342,1181696696876760,-0.0367125,-0.0809875,-0.215875
1680001708344,1181696699378914,-0.0397375,-0.0840125,-0.216975
1680001708347,1181696701880991,-0.043725,-0.08305,-0.2179375
1680001708350,1181696704383222,-0.043725,-0.084975,-0.2149125
1680001708352,1181696706885390,-0.0457875,-0.087037496,-0.21395
1680001708354,1181696709387544,-0.0507375,-0.0919875,-0.2118875
1680001708357,1181696711889621,-0.0567875,-0.0950125,-0.2118875
1680001708360,1181696714391851,-0.059675,-0.098037496,-0.2099625
1680001708362,1181696716894236,-0.05775,-0.102025,-0.20899999
1680001708365,1181696719396385,-0.05775,-0.10505,-0.205975
1680001708367,1181696721898308,-0.0587125,-0.1120625,-0.20295
1680001708371,1181696724400462,-0.0627,-0.113025,-0.2019875
1680001708376,1181696726902592,-0.0636625,-0.11605,-0.199925
1680001708376,1181696729404976,-0.059675,-0.119075,-0.199925
1680001708378,1181696731907130,-0.0587125,-0.1280125,-0.198
1680001708381,1181696734409284,-0.0617375,-0.130075,-0.193875
1680001708382,1181696736911438,-0.0636625,-0.1329625,-0.188925
1680001708384,1181696739413611,-0.05775,-0.13695,-0.183975
1680001708387,1181696741915765,-0.0537625,-0.1359875,-0.1819125
1680001708390,1181696744417918,-0.0507375,-0.1450625,-0.1769625
1680001708392,1181696746920149,-0.0477125,-0.14795,-0.176
1680001708394,1181696749422303,-0.0427625,-0.14905,-0.171875
1680001708397,1181696751924457,-0.043725,-0.157025,-0.1678875
1680001708401,1181696754426611,-0.0397375,-0.15895,-0.166925
1680001708402,1181696756928765,-0.0336875,-0.1549625,-0.1659625
1680001708408,1181696759430913,-0.0297,-0.1549625,-0.16499999
1680001708408,1181696761933298,-0.0287375,-0.1579875,-0.166925
1680001708412,1181696764435452,-0.027775,-0.15895,-0.1639
1680001708413,1181696766937606,-0.0257125,-0.154,-0.160875
1680001708415,1181696769439760,-0.02475,-0.1530375,-0.161975
1680001708417,1181696771941683,-0.0207625,-0.152075,-0.160875
1680001708420,1181696774444067,-0.0196625,-0.1500125,-0.160875
1680001708422,1181696776946298,-0.015675,-0.1450625,-0.1599125
1680001708424,1181696779448375,-0.0187,-0.13805,-0.155925
1680001708427,1181696781950515,-0.0196625,-0.1340625,-0.155925
1680001708430,1181696784452669,-0.0177375,-0.128975,-0.155925
1680001708432,1181696786954899,-0.016775,-0.124025,-0.1549625
1680001708434,1181696789456976,-0.0177375,-0.121,-0.150975
1680001708437,1181696791959144,-0.0187,-0.11495,-0.1519375
1680001708440,1181696794461375,-0.0177375,-0.11,-0.150975
1680001708441,1181696796963529,-0.0196625,-0.11,-0.150975
1680001708445,1181696799465683,-0.0187,-0.106975,-0.149875
1680001708448,1181696801967856,-0.0207625,-0.098037496,-0.1458875
1680001708451,1181696804470009,-0.021724999,-0.0950125,-0.1439625
1680001708453,1181696806972163,-0.0226875,-0.091025,-0.14795
1680001708455,1181696809474548,-0.0226875,-0.086075,-0.1439625
1680001708457,1181696811976702,-0.0237875,-0.0840125,-0.144925
1680001708460,1181696814478875,-0.0257125,-0.0809875,-0.1458875
1680001708462,1181696816981028,-0.021724999,-0.080025,-0.1458875
1680001708464,1181696819483182,-0.0226875,-0.0790625,-0.1489125
1680001708467,1181696821985336,-0.0226875,-0.0760375,-0.1489125
1680001708470,1181696824487490,-0.0226875,-0.073975,-0.1489125
1680001708472,1181696826989644,-0.0207625,-0.073975,-0.150975
1680001708474,1181696829491875,-0.0187,-0.07205,-0.154
1680001708477,1181696831994029,-0.0177375,-0.07095,-0.155925
1680001708480,1181696834496191,-0.0177375,-0.0680625,-0.1579875
1680001708482,1181696836998268,-0.0177375,-0.0699875,-0.155925
1680001708486,1181696839500422,-0.014712499,-0.0669625,-0.1568875
1680001708488,1181696842002653,-0.015675,-0.0680625,-0.160875
1680001708491,1181696844504855,-0.014712499,-0.07205,-0.16499999
1680001708493,1181696847007009,-0.010725,-0.07095,-0.1659625
1680001708495,1181696849509162,-0.0116875,-0.073975,-0.166925
1680001708497,1181696852011547,-0.0116875,-0.075075,-0.16995
1680001708500,1181696854513720,-0.010725,-0.0790625,-0.172975
1680001708503,1181696857015874,-0.010725,-0.080025,-0.1749
1680001708505,1181696859518028,-0.0097624995,-0.08195,-0.177925
1680001708507,1181696862020182,-0.0086624995,-0.086075,-0.18095
1680001708510,1181696864522321,-0.0097624995,-0.0919875,-0.1879625
1680001708512,1181696867024475,-0.0067375,-0.097075,-0.19195
1680001708514,1181696869526629,-0.0037125,-0.1029875,-0.194975
1680001708517,1181696872028860,2.75E-4,-0.11,-0.198
1680001708520,1181696874531014,-0.004675,-0.11605,-0.2019875
1680001708523,1181696877033163,2.75E-4,-0.121,-0.205975
1680001708526,1181696879535239,2.75E-4,-0.12705,-0.2118875
1680001708528,1181696882037393,2.75E-4,-0.1359875,-0.2118875
1680001708531,1181696884539855,2.75E-4,-0.146025,-0.216975
1680001708532,1181696887042014,2.75E-4,-0.14905,-0.221925
1680001708534,1181696889543937,-0.0037125,-0.1530375,-0.22495
1680001708537,1181696892046091,-0.0077,-0.161975,-0.2259125
1680001708540,1181696894548245,-0.0077,-0.168025,-0.2259125
1680001708542,1181696897050398,-0.0097624995,-0.1750375,-0.22495
1680001708544,1181696899552783,-0.01375,-0.18205,-0.2228875
1680001708547,1181696902054937,-0.015675,-0.185075,-0.2259125
1680001708550,1181696904557091,-0.0198,-0.1909875,-0.221925
1680001708552,1181696907059245,-0.02475,-0.2030875,-0.2209625
1680001708555,1181696909561369,-0.0257125,-0.205975,-0.221925
1680001708557,1181696912063523,-0.0308,-0.212025,-0.2209625
1680001708561,1181696914565677,-0.03575,-0.2190375,-0.2189
1680001708563,1181696917067913,-0.0297,-0.22605,-0.2189
1680001708566,1181696919570067,-0.0347875,-0.227975,-0.2179375
1680001708567,1181696922072221,-0.03575,-0.2300375,-0.2149125
1680001708570,1181696924574374,-0.0347875,-0.23705,-0.2179375
1680001708572,1181696927076528,-0.03575,-0.23705,-0.2189
1680001708574,1181696929578702,-0.0336875,-0.2349875,-0.2228875
1680001708577,1181696932081087,-0.03575,-0.23705,-0.2239875
1680001708580,1181696934583241,-0.0367125,-0.24007499,-0.2259125
1680001708582,1181696937085164,-0.0378125,-0.245025,-0.22893749
1680001708584,1181696939587303,-0.03575,-0.2429625,-0.2319625
1680001708587,1181696942089687,-0.0347875,-0.2410375,-0.2319625
1680001708591,1181696944591841,-0.03575,-0.2410375,-0.23595
1680001708592,1181696947093764,-0.0378125,-0.242,-0.2409
1680001708594,1181696949596149,-0.0336875,-0.2429625,-0.243925
1680001708598,1181696952098318,-0.03575,-0.2440625,-0.243925
1680001708601,1181696954600471,-0.0317625,-0.2459875,-0.243925
1680001708603,1181696957102625,-0.027775,-0.2440625,-0.249975
1680001708606,1181696959604760,-0.0317625,-0.242,-0.2558875
1680001708608,1181696962106914,-0.0397375,-0.2440625,-0.254925
1680001708610,1181696964609145,-0.0378125,-0.245025,-0.2569875
1680001708612,1181696967111299,-0.038775,-0.2459875,-0.2589125
1680001708614,1181696969613452,-0.0407,-0.2459875,-0.260975
1680001708617,1181696972115582,-0.0397375,-0.2440625,-0.2589125
1680001708621,1181696974617736,-0.0397375,-0.2440625,-0.264
1680001708622,1181696977119890,-0.0427625,-0.245025,-0.2649625
1680001708625,1181696979622044,-0.043725,-0.2470875,-0.2668875
1680001708627,1181696982124428,-0.0446875,-0.2470875,-0.2668875
1680001708630,1181696984626582,-0.0427625,-0.24805,-0.2679875
1680001708632,1181696987128736,-0.0446875,-0.2490125,-0.265925
1680001708637,1181696989630899,-0.04675,-0.249975,-0.2679875
1680001708638,1181696992133053,-0.04675,-0.253,-0.2699125
1680001708640,1181696994634976,-0.043725,-0.251075,-0.2699125
1680001708643,1181696997137361,-0.0427625,-0.256025,-0.2679875
1680001708646,1181696999639591,-0.0427625,-0.2539625,-0.2679875
1680001708647,1181697002141745,-0.0407,-0.256025,-0.26895
1680001708650,1181697004643822,-0.0418,-0.2520375,-0.2668875
1680001708652,1181697007145976,-0.043725,-0.251075,-0.26895
1680001708655,1181697009648130,-0.0397375,-0.2539625,-0.2679875
1680001708657,1181697012150361,-0.0407,-0.251075,-0.2649625
1680001708660,1181697014652490,-0.0418,-0.253,-0.2679875
1680001708662,1181697017154644,-0.0418,-0.249975,-0.2699125
1680001708665,1181697019656798,-0.0446875,-0.249975,-0.2699125
1680001708667,1181697022158952,-0.043725,-0.249975,-0.2699125
1680001708670,1181697024661121,-0.0446875,-0.2520375,-0.2699125
1680001708673,1181697027163275,-0.043725,-0.2490125,-0.270875
1680001708676,1181697029665659,-0.04675,-0.2470875,-0.271975
1680001708681,1181697032167813,-0.0517,-0.24805,-0.2739
1680001708681,1181697034669971,-0.0517,-0.253,-0.276925
1680001708682,1181697037172125,-0.0528,-0.2569875,-0.276925
1680001708685,1181697039674279,-0.054725,-0.253,-0.2778875
1680001708687,1181697042176433,-0.0556875,-0.2539625,-0.2809125
1680001708691,1181697044678668,-0.0567875,-0.262075,-0.27995
1680001708692,1181697047180822,-0.0598125,-0.2660625,-0.28187498
1680001708695,1181697049682976,-0.0627,-0.27005,-0.2809125
1680001708697,1181697052185053,-0.0627,-0.27005,-0.27995
1680001708700,1181697054687222,-0.0627,-0.27005,-0.2778875
1680001708702,1181697057189453,-0.0697125,-0.27101249,-0.2778875
1680001708704,1181697059691530,-0.0727375,-0.275,-0.2778875
1680001708707,1181697062193760,-0.0727375,-0.2759625,-0.2778875
1680001708711,1181697064695938,-0.0748,-0.275,-0.27995
1680001708713,1181697067198092,-0.076725,-0.2800875,-0.27995
1680001708715,1181697069700246,-0.0757625,-0.2850375,-0.2778875
1680001708717,1181697072202400,-0.0818125,-0.2899875,-0.2809125
1680001708722,1181697074704554,-0.0867625,-0.2899875,-0.28187498
1680001708722,1181697077206942,-0.0867625,-0.2930125,-0.27995
1680001708725,1181697079709096,-0.087725,-0.2960375,-0.28187498
1680001708727,1181697082211250,-0.0917125,-0.300025,-0.282975
1680001708731,1181697084713404,-0.0947375,-0.30305,-0.2849
1680001708733,1181697087215558,-0.0968,-0.306075,-0.28393748
1680001708735,1181697089717712,-0.0968,-0.308,-0.28393748
1680001708737,1181697092219942,-0.1027125,-0.311025,-0.286
1680001708741,1181697094722096,-0.1038125,-0.3100625,-0.2869625
1680001708743,1181697097224250,-0.104775,-0.3130875,-0.2849
1680001708744,1181697099726302,-0.1078,-0.3180375,-0.28393748
1680001708748,1181697102228533,-0.1078,-0.31501248,-0.2849
1680001708751,1181697104730687,-0.1106875,-0.315975,-0.287925
1680001708752,1181697107232840,-0.1067,-0.31405,-0.2849
1680001708754,1181697109735023,-0.1106875,-0.3119875,-0.28393748
1680001708757,1181697112237177,-0.1117875,-0.3130875,-0.2809125
1680001708760,1181697114739562,-0.11275,-0.3119875,-0.2809125
1680001708762,1181697117241485,-0.1167375,-0.306075,-0.2778875
1680001708765,1181697119743649,-0.117699996,-0.3020875,-0.27995
1680001708768,1181697122245803,-0.1148125,-0.3009875,-0.2759625
1680001708770,1181697124748187,-0.1167375,-0.2990625,-0.2759625
1680001708772,1181697127250341,-0.117699996,-0.295075,-0.2778875
1680001708774,1181697129752495,-0.1188,-0.2930125,-0.2739
1680001708777,1181697132254663,-0.1188,-0.2869625,-0.276925
1680001708780,1181697134756817,-0.1167375,-0.28105,-0.275
1680001708782,1181697137258970,-0.117699996,-0.282975,-0.2739
1680001708785,1181697139761124,-0.1137125,-0.2800875,-0.2729375
1680001708787,1181697142263278,-0.1117875,-0.27005,-0.2699125
1680001708790,1181697144765509,-0.1117875,-0.27005,-0.2739
1680001708792,1181697147267586,-0.1167375,-0.2690875,-0.2729375
1680001708795,1181697149769740,-0.1148125,-0.2660625,-0.2729375
1680001708798,1181697152271980,-0.1148125,-0.267025,-0.2759625
1680001708800,1181697154774134,-0.117699996,-0.2649625,-0.2729375
1680001708802,1181697157276288,-0.1188,-0.2649625,-0.275
1680001708805,1181697159778442,-0.120725,-0.264,-0.2778875
1680001708807,1181697162280596,-0.1216875,-0.2649625,-0.2739
1680001708810,1181697164782740,-0.120725,-0.264,-0.2759625
1680001708812,1181697167285124,-0.1216875,-0.264,-0.2778875
1680001708815,1181697169787278,-0.1258125,-0.267025,-0.2778875
1680001708818,1181697172289432,-0.1287,-0.267025,-0.276925
1680001708820,1181697174791571,-0.12773749,-0.27307498,-0.2759625
1680001708825,1181697177293725,-0.1287,-0.2740375,-0.2759625
1680001708825,1181697179795879,-0.1287,-0.2740375,-0.2778875
1680001708827,1181697182298032,-0.12979999,-0.2770625,-0.27995
1680001708830,1181697184800182,-0.13475,-0.2820125,-0.2778875
1680001708832,1181697187302336,-0.1397,-0.289025,-0.276925
1680001708835,1181697189804567,-0.1397,-0.295075,-0.276925
1680001708838,1181697192306721,-0.1436875,-0.3009875,-0.2759625
1680001708841,1181697194808798,-0.1447875,-0.308,-0.2739
1680001708842,1181697197310952,-0.1478125,-0.3100625,-0.2729375
1680001708845,1181697199813182,-0.153725,-0.315975,-0.270875
1680001708848,1181697202315336,-0.15675,-0.322025,-0.2699125
1680001708850,1181697204817509,-0.1577125,-0.3290375,-0.26895
1680001708852,1181697207319663,-0.164725,-0.3339875,-0.2649625
1680001708855,1181697209821817,-0.16775,-0.3460875,-0.2619375
1680001708857,1181697212323971,-0.16775,-0.352,-0.2619375
1680001708861,1181697214826350,-0.170775,-0.35805,-0.259875
1680001708863,1181697217328504,-0.1797125,-0.3639625,-0.260975
1680001708865,1181697219830658,-0.1808125,-0.3680875,-0.2589125
1680001708867,1181697222332812,-0.17875,-0.377025,-0.260975
1680001708870,1181697224834966,-0.1808125,-0.3870625,-0.260975
1680001708872,1181697227337100,-0.186725,-0.3870625,-0.260975
1680001708875,1181697229839254,-0.1876875,-0.396,-0.259875
1680001708878,1181697232341485,-0.186725,-0.4010875,-0.2589125
1680001708881,1181697234843639,-0.1907125,-0.4090625,-0.2619375
1680001708882,1181697237345788,-0.1907125,-0.4170375,-0.2619375
1680001708885,1181697239847942,-0.1887875,-0.4200625,-0.2589125
1680001708887,1181697242350019,-0.1876875,-0.4250125,-0.260975
1680001708892,1181697244852162,-0.1876875,-0.427075,-0.259875
1680001708893,1181697247354624,-0.18975,-0.429,-0.259875
1680001708895,1181697249856778,-0.18975,-0.429,-0.25795
1680001708899,1181697252358701,-0.1848,-0.4280375,-0.25795
1680001708901,1181697254860855,-0.1827375,-0.4280375,-0.25795
1680001708904,1181697257363005,-0.17875,-0.4299625,-0.2558875
1680001708906,1181697259865158,-0.1777875,-0.427075,-0.25795
1680001708908,1181697262367312,-0.1747625,-0.4219875,-0.2539625
1680001708911,1181697264869697,-0.17173749,-0.4189625,-0.2519
1680001708913,1181697267371851,-0.16775,-0.4140125,-0.249975
1680001708914,1181697269874029,-0.164725,-0.4079625,-0.249975
1680001708918,1181697272376182,-0.1637625,-0.407,-0.2509375
1680001708921,1181697274878336,-0.1628,-0.4010875,-0.2479125
1680001708924,1181697277380490,-0.1546875,-0.3950375,-0.24695
1680001708926,1181697279882683,-0.1518,-0.3900875,-0.2479125
1680001708927,1181697282384837,-0.1507,-0.3889875,-0.2448875
1680001708930,1181697284886991,-0.1478125,-0.3859625,-0.243925
1680001708932,1181697287389145,-0.1417625,-0.383075,-0.24695
1680001708936,1181697289891192,-0.1417625,-0.381975,-0.2448875
1680001708938,1181697292393423,-0.1436875,-0.381975,-0.24695
1680001708941,1181697294895577,-0.1397,-0.383075,-0.24887499
1680001708943,1181697297397962,-0.137775,-0.385,-0.249975
1680001708945,1181697299899885,-0.1417625,-0.381975,-0.253
1680001708947,1181697302402029,-0.1397,-0.383075,-0.2509375
1680001708950,1181697304904182,-0.137775,-0.3889875,-0.253
1680001708952,1181697307406567,-0.1417625,-0.392975,-0.25795
1680001708955,1181697309908490,-0.142725,-0.3950375,-0.259875
1680001708958,1181697312410885,-0.142725,-0.40205,-0.260975
1680001708960,1181697314913039,-0.1436875,-0.4140125,-0.264
1680001708962,1181697317415193,-0.1478125,-0.4219875,-0.26895
1680001708966,1181697319917346,-0.1527625,-0.4299625,-0.271975
1680001708967,1181697322419486,-0.1507,-0.4420625,-0.2739
1680001708971,1181697324921640,-0.14973749,-0.4530625,-0.275
1680001708974,1181697327423871,-0.153725,-0.458975,-0.2759625
1680001708975,1181697329926025,-0.1546875,-0.476025,-0.276925
1680001708977,1181697332428174,-0.1527625,-0.480975,-0.2729375
1680001708980,1181697334930327,-0.1518,-0.491975,-0.275
1680001708982,1181697337432404,-0.1577125,-0.5050375,-0.2759625
1680001708985,1181697339934635,-0.15675,-0.5160375,-0.2729375
1680001708988,1181697342436798,-0.1557875,-0.526075,-0.2699125
1680001708990,1181697344939183,-0.1577125,-0.53405,-0.26895
1680001708992,1181697347441106,-0.1557875,-0.5429875,-0.2699125
1680001708995,1181697349943260,-0.153725,-0.55,-0.2699125
1680001708998,1181697352445649,-0.1557875,-0.5570125,-0.2699125
1680001709000,1181697354947803,-0.1557875,-0.568975,-0.26895
1680001709002,1181697357449726,-0.1577125,-0.57805,-0.2699125
1680001709005,1181697359952111,-0.1628,-0.5839625,-0.26895
1680001709007,1181697362454265,-0.1607375,-0.594,-0.2649625
1680001709011,1181697364956510,-0.159775,-0.60101247,-0.2649625
1680001709013,1181697367458587,-0.1617,-0.6089875,-0.259875
1680001709015,1181697369960741,-0.1628,-0.612975,-0.25795
1680001709017,1181697372462895,-0.1637625,-0.6180625,-0.2539625
1680001709020,1181697374965039,-0.1628,-0.627,-0.249975
1680001709022,1181697377467270,-0.16775,-0.6290625,-0.24887499
1680001709025,1181697379969423,-0.1667875,-0.63002497,-0.2448875
1680001709027,1181697382471577,-0.1617,-0.63208747,-0.238975
1680001709030,1181697384973731,-0.1687125,-0.6340125,-0.232925
1680001709032,1181697387475885,-0.1687125,-0.634975,-0.227975
1680001709035,1181697389978039,-0.164725,-0.63305,-0.2239875
1680001709037,1181697392480423,-0.1637625,-0.63208747,-0.215875
1680001709040,1181697394982357,-0.16775,-0.63002497,-0.210925
1680001709042,1181697397484741,-0.16775,-0.627,-0.205975
1680001709045,1181697399986895,-0.1727,-0.625075,-0.20295
1680001709048,1181697402489049,-0.170775,-0.62205,-0.199925
1680001709051,1181697404990957,-0.1747625,-0.6150375,-0.198
1680001709053,1181697407493342,-0.1727,-0.6120125,-0.1929125
1680001709055,1181697409995495,-0.1698125,-0.6059625,-0.1898875
1680001709057,1181697412497726,-0.1698125,-0.5979875,-0.1879625
1680001709060,1181697414999803,-0.16775,-0.592075,-0.18493749
1680001709062,1181697417502053,-0.1637625,-0.590975,-0.1879625
1680001709065,1181697420004207,-0.1667875,-0.5820375,-0.1859
1680001709067,1181697422506361,-0.1628,-0.5740625,-0.18287499
1680001709070,1181697425008514,-0.159775,-0.5680125,-0.183975
1680001709072,1181697427510673,-0.1577125,-0.5600375,-0.183975
1680001709075,1181697430012827,-0.1557875,-0.5550875,-0.18287499
1680001709077,1181697432514981,-0.153725,-0.546975,-0.183975
1680001709080,1181697435017366,-0.1518,-0.5410625,-0.18493749
1680001709082,1181697437519289,-0.1467125,-0.5330875,-0.1859
1680001709087,1181697440021418,-0.142725,-0.526075,-0.1879625
1680001709088,1181697442523802,-0.142725,-0.5190625,-0.1879625
1680001709091,1181697445025956,-0.1387375,-0.5160375,-0.187
1680001709093,1181697447527903,-0.13475,-0.5099875,-0.1898875
1680001709096,1181697450030288,-0.13475,-0.5020125,-0.188925
1680001709098,1181697452532442,-0.13475,-0.4989875,-0.1898875
1680001709101,1181697455034595,-0.1307625,-0.49307498,-0.1929125
1680001709105,1181697457536749,-0.1307625,-0.49005,-0.19195
1680001709107,1181697460038913,-0.12979999,-0.4860625,-0.1909875
1680001709108,1181697462541067,-0.12979999,-0.4830375,-0.1909875
1680001709110,1181697465043221,-0.1337875,-0.482075,-0.188925
1680001709112,1181697467545452,-0.12979999,-0.47808748,-0.188925
1680001709115,1181697470047601,-0.12773749,-0.4769875,-0.188925
1680001709118,1181697472549754,-0.126775,-0.469975,-0.18493749
1680001709120,1181697475051908,-0.1287,-0.476025,-0.18493749
1680001709124,1181697477554062,-0.12979999,-0.4750625,-0.1819125
1680001709126,1181697480056197,-0.1287,-0.4690125,-0.1788875
1680001709128,1181697482558582,-0.1307625,-0.4670875,-0.1769625
1680001709131,1181697485060735,-0.131725,-0.4690125,-0.172975
1680001709133,1181697487562889,-0.131725,-0.469975,-0.176
1680001709135,1181697490065043,-0.1368125,-0.4690125,-0.172975
1680001709137,1181697492567197,-0.1368125,-0.46805,-0.1689875
1680001709141,1181697495069351,-0.1357125,-0.469975,-0.1689875
1680001709142,1181697497571274,-0.1387375,-0.4720375,-0.1678875
1680001709145,1181697500073658,-0.1387375,-0.4670875,-0.161975
1680001709148,1181697502575792,-0.1387375,-0.469975,-0.15895
1680001709151,1181697505077946,-0.1417625,-0.473,-0.161975
1680001709153,1181697507580100,-0.1408,-0.4750625,-0.1599125
1680001709155,1181697510082254,-0.1397,-0.4720375,-0.1529
1680001709157,1181697512584408,-0.1387375,-0.4739625,-0.1519375
1680001709161,1181697515086634,-0.1387375,-0.4769875,-0.1549625
1680001709163,1181697517588787,-0.1397,-0.4750625,-0.1519375
1680001709166,1181697520090941,-0.1397,-0.473,-0.14795
1680001709168,1181697522593095,-0.1387375,-0.4769875,-0.14795
1680001709170,1181697525095269,-0.1357125,-0.47905,-0.144925
1680001709173,1181697527597423,-0.13475,-0.4800125,-0.1439625
1680001709175,1181697530099807,-0.1287,-0.4800125,-0.143
1680001709177,1181697532601961,-0.1307625,-0.4800125,-0.14093749
1680001709180,1181697535104100,-0.126775,-0.4750625,-0.139975
1680001709182,1181697537606254,-0.12375,-0.476025,-0.138875
1680001709185,1181697540108408,-0.121825,-0.480975,-0.1379125
1680001709189,1181697542610562,-0.121825,-0.4800125,-0.13695
1680001709191,1181697545112485,-0.120725,-0.476025,-0.13695
1680001709192,1181697547614869,-0.117699996,-0.4769875,-0.13695
1680001709195,1181697550117100,-0.1137125,-0.47808748,-0.13695
1680001709199,1181697552619177,-0.1148125,-0.4769875,-0.1348875
1680001709201,1181697555121336,-0.1117875,-0.473,-0.1359875
1680001709204,1181697557623490,-0.1078,-0.4739625,-0.138875
1680001709206,1181697560125644,-0.1067,-0.476025,-0.1359875
1680001709208,1181697562627874,-0.1027125,-0.4739625,-0.1359875
1680001709211,1181697565130028,-0.1007875,-0.4690125,-0.1348875
1680001709212,1181697567632196,-0.0968,-0.46805,-0.13695
1680001709215,1181697570134350,-0.0917125,-0.4670875,-0.139975
1680001709217,1181697572636504,-0.0897875,-0.465025,-0.1379125
1680001709220,1181697575138658,-0.088825,-0.4580125,-0.139975
1680001709223,1181697577640817,-0.0818125,-0.4580125,-0.143
1680001709225,1181697580143201,-0.076725,-0.45705,-0.143
1680001709228,1181697582645355,-0.0757625,-0.4530625,-0.143
1680001709230,1181697585147509,-0.0748,-0.4530625,-0.143
1680001709232,1181697587649663,-0.0708125,-0.447975,-0.144925
1680001709236,1181697590151817,-0.0647625,-0.44605,-0.1458875
1680001709238,1181697592653740,-0.0617375,-0.4439875,-0.1458875
1680001709240,1181697595156201,-0.055825,-0.4420625,-0.149875
1680001709243,1181697597658355,-0.0537625,-0.44,-0.1519375
1680001709247,1181697600160432,-0.0528,-0.4360125,-0.154
1680001709248,1181697602662586,-0.0507375,-0.4310625,-0.1529
1680001709250,1181697605164740,-0.0457875,-0.4310625,-0.1529
1680001709253,1181697607666909,-0.043725,-0.4299625,-0.1568875
1680001709255,1181697610169139,-0.038775,-0.4299625,-0.1568875
1680001709257,1181697612671293,-0.03575,-0.4280375,-0.1579875
1680001709260,1181697615173447,-0.03575,-0.429,-0.160875
1680001709262,1181697617675587,-0.033825,-0.4280375,-0.16499999
1680001709265,1181697620177741,-0.0308,-0.429,-0.1689875
1680001709268,1181697622679895,-0.0287375,-0.4299625,-0.16995
1680001709270,1181697625182048,-0.0297,-0.4299625,-0.1739375
1680001709275,1181697627684438,-0.027775,-0.4299625,-0.176
1680001709276,1181697630186592,-0.027775,-0.432025,-0.1769625
1680001709277,1181697632688746,-0.0268125,-0.43505,-0.177925
1680001709280,1181697635190900,-0.027775,-0.44,-0.1819125
1680001709284,1181697637693053,-0.0287375,-0.438075,-0.183975
1680001709286,1181697640194982,-0.0297,-0.4439875,-0.183975
1680001709287,1181697642697443,-0.0347875,-0.4500375,-0.187
1680001709292,1181697645199597,-0.03575,-0.4530625,-0.1898875
1680001709293,1181697647701751,-0.03575,-0.458975,-0.1898875
1680001709295,1181697650203828,-0.038775,-0.458975,-0.1909875
1680001709298,1181697652706006,-0.0418,-0.462,-0.1909875
1680001709303,1181697655208236,-0.0418,-0.46805,-0.1929125
1680001709307,1181697657710313,-0.0427625,-0.4690125,-0.19195
1680001709307,1181697660212544,-0.04675,-0.4750625,-0.1909875
1680001709308,1181697662714678,-0.0477125,-0.4720375,-0.1879625
1680001709312,1181697665216832,-0.0528,-0.4750625,-0.187
1680001709313,1181697667718986,-0.054725,-0.4739625,-0.1859
1680001709315,1181697670221139,-0.055825,-0.476025,-0.1859
1680001709319,1181697672723313,-0.0587125,-0.47905,-0.1859
1680001709321,1181697675225698,-0.0587125,-0.47808748,-0.18287499
1680001709326,1181697677727852,-0.0598125,-0.47905,-0.18287499
1680001709327,1181697680230006,-0.066825,-0.4800125,-0.1819125
1680001709328,1181697682732154,-0.071775,-0.4800125,-0.18287499
1680001709331,1181697685234308,-0.0727375,-0.47905,-0.18095
1680001709333,1181697687736462,-0.0727375,-0.473,-0.18287499
1680001709335,1181697690238616,-0.0787875,-0.4739625,-0.183975
1680001709337,1181697692740847,-0.0818125,-0.476025,-0.18287499
1680001709340,1181697695242996,-0.0858,-0.469975,-0.183975
1680001709343,1181697697745073,-0.0847,-0.4670875,-0.183975
1680001709345,1181697700247226,-0.087725,-0.4670875,-0.18287499
1680001709351,1181697702749423,-0.093775,-0.4640625,-0.183975
1680001709352,1181697705251577,-0.0947375,-0.4629625,-0.18493749
1680001709353,1181697707753731,-0.0977625,-0.4580125,-0.1859
1680001709355,1181697710255885,-0.099825,-0.4549875,-0.18493749
1680001709358,1181697712758039,-0.1038125,-0.44907498,-0.18493749
1680001709360,1181697715260187,-0.1067,-0.44701248,-0.183975
1680001709362,1181697717762341,-0.109725,-0.4420625,-0.18493749
1680001709366,1181697720264726,-0.11275,-0.43505,-0.183975
1680001709367,1181697722766880,-0.1197625,-0.432025,-0.18287499
1680001709371,1181697725268798,-0.1247125,-0.4299625,-0.18493749
1680001709373,1181697727770952,-0.1247125,-0.42405,-0.18493749
1680001709375,1181697730273106,-0.126775,-0.4170375,-0.1859
1680001709378,1181697732775567,-0.1337875,-0.41305,-0.1879625
1680001709380,1181697735277644,-0.137775,-0.4060375,-0.188925
1680001709383,1181697737779794,-0.1447875,-0.40301248,-0.1859
1680001709387,1181697740281948,-0.1467125,-0.3969625,-0.1879625
1680001709388,1181697742784102,-0.1467125,-0.39105,-0.188925
1680001709391,1181697745286259,-0.1507,-0.39105,-0.187
1680001709393,1181697747788413,-0.154825,-0.3889875,-0.188925
1680001709395,1181697750290644,-0.15675,-0.3779875,-0.188925
1680001709397,1181697752792798,-0.1588125,-0.374,-0.18493749
1680001709401,1181697755294952,-0.164725,-0.372075,-0.183975
1680001709403,1181697757797097,-0.1698125,-0.3669875,-0.187
1680001709405,1181697760299251,-0.17379999,-0.3639625,-0.183975
1680001709408,1181697762801404,-0.17379999,-0.3559875,-0.18493749
1680001709411,1181697765303789,-0.1777875,-0.3529625,-0.18493749
1680001709413,1181697767805928,-0.1837,-0.3460875,-0.1819125
1680001709415,1181697770308082,-0.1848,-0.341,-0.1819125
1680001709418,1181697772810005,-0.1907125,-0.333025,-0.1859
1680001709420,1181697775312159,-0.192775,-0.3240875,-0.1898875
1680001709424,1181697777814312,-0.1958,-0.319,-0.1879625
1680001709425,1181697780316697,-0.20075,-0.3180375,-0.188925
1680001709427,1181697782818851,-0.2057,-0.308,-0.1879625
1680001709431,1181697785321005,-0.209825,-0.3009875,-0.1898875
1680001709433,1181697787823159,-0.2167,-0.2960375,-0.1898875
1680001709435,1181697790325327,-0.219725,-0.2910875,-0.19195
1680001709438,1181697792827481,-0.225775,-0.286,-0.1898875
1680001709442,1181697795329635,-0.2347125,-0.282975,-0.19195
1680001709443,1181697797831866,-0.2407625,-0.2800875,-0.193875
1680001709446,1181697800334034,-0.2457125,-0.2759625,-0.193875
1680001709448,1181697802836188,-0.253825,-0.27101249,-0.194975
1680001709451,1181697805338342,-0.263725,-0.2740375,-0.194975
1680001709452,1181697807840495,-0.2688125,-0.27307498,-0.2008875
1680001709455,1181697810342649,-0.275825,-0.2740375,-0.2039125
1680001709457,1181697812844803,-0.2847625,-0.278025,-0.20693749
1680001709461,1181697815347188,-0.2908125,-0.2820125,-0.2118875
1680001709463,1181697817849342,-0.2957625,-0.286,-0.2149125
1680001709465,1181697820351265,-0.3037375,-0.2910875,-0.2189
1680001709468,1181697822853423,-0.3037375,-0.295075,-0.2179375
1680001709471,1181697825355808,-0.308825,-0.2979625,-0.22687499
1680001709473,1181697827857962,-0.308825,-0.3070375,-0.2259125
1680001709475,1181697830360116,-0.3047,-0.311025,-0.231
1680001709478,1181697832862294,-0.3047,-0.3199625,-0.2349875
1680001709480,1181697835364448,-0.3037375,-0.3240875,-0.2319625
1680001709483,1181697837866601,-0.296725,-0.3290375,-0.22893749
1680001709486,1181697840368755,-0.2937,-0.33605,-0.227975
1680001709488,1181697842870909,-0.2937,-0.3370125,-0.22495
1680001709491,1181697845373125,-0.2877875,-0.3400375,-0.22
1680001709493,1181697847875279,-0.285725,-0.3460875,-0.215875
1680001709499,1181697850377433,-0.285725,-0.3480125,-0.20899999
1680001709500,1181697852879586,-0.27775,-0.3510375,-0.20899999
1680001709503,1181697855381740,-0.2717,-0.3510375,-0.20487499
1680001709504,1181697857883894,-0.26675,-0.350075,-0.199925
1680001709506,1181697860386048,-0.2618,-0.3540625,-0.19195
1680001709508,1181697862888433,-0.25575,-0.3559875,-0.1879625
1680001709511,1181697865390567,-0.2508,-0.3529625,-0.177925
1680001709513,1181697867892721,-0.2468125,-0.3559875,-0.172975
1680001709515,1181697870394644,-0.2407625,-0.3559875,-0.166925
1680001709518,1181697872896798,-0.2358125,-0.3559875,-0.161975
1680001709521,1181697875399212,-0.2347125,-0.3540625,-0.1568875
1680001709523,1181697877901443,-0.2297625,-0.352,-0.149875
1680001709526,1181697880403520,-0.225775,-0.3529625,-0.143
1680001709528,1181697882905673,-0.22275,-0.3529625,-0.138875
1680001709531,1181697885407889,-0.220825,-0.3529625,-0.133925
1680001709533,1181697887909966,-0.2167,-0.348975,-0.12595
1680001709536,1181697890412120,-0.2167,-0.34705,-0.121
1680001709538,1181697892914274,-0.2138125,-0.348975,-0.117975
1680001709541,1181697895416501,-0.2077625,-0.34705,-0.1109625
1680001709544,1181697897918654,-0.2017125,-0.3460875,-0.106975
1680001709545,1181697900420808,-0.197725,-0.3419625,-0.1018875
1680001709548,1181697902922962,-0.197725,-0.339075,-0.0979
1680001709550,1181697905425116,-0.1967625,-0.3350875,-0.09295
1680001709553,1181697907927270,-0.18975,-0.3400375,-0.0889625
1680001709555,1181697910429654,-0.186725,-0.3370125,-0.0859375
1680001709558,1181697912931808,-0.186725,-0.3350875,-0.0859375
1680001709560,1181697915433962,-0.1808125,-0.3309625,-0.0829125
1680001709563,1181697917936120,-0.17875,-0.3350875,-0.077
1680001709566,1181697920438274,-0.1727,-0.3350875,-0.077
1680001709568,1181697922940428,-0.1687125,-0.3320625,-0.078925
1680001709571,1181697925442659,-0.164725,-0.3339875,-0.078925
1680001709574,1181697927944735,-0.1617,-0.32999998,-0.0809875
1680001709575,1181697930446889,-0.15675,-0.326975,-0.078925
1680001709578,1181697932949120,-0.154825,-0.3240875,-0.08195
1680001709581,1181697935451197,-0.14973749,-0.3229875,-0.0859375
1680001709583,1181697937953351,-0.142725,-0.326975,-0.088
1680001709585,1181697940455486,-0.137775,-0.328075,-0.0908875
1680001709588,1181697942957716,-0.1357125,-0.328075,-0.095975
1680001709591,1181697945459870,-0.1287,-0.3240875,-0.100925
1680001709593,1181697947962024,-0.12375,-0.32999998,-0.100925
1680001709596,1181697950464173,-0.120725,-0.32999998,-0.108899996
1680001709598,1181697952966327,-0.1188,-0.3320625,-0.11495
1680001709601,1181697955468481,-0.1087625,-0.3309625,-0.1219625
1680001709603,1181697957970865,-0.104775,-0.33605,-0.1219625
1680001709606,1181697960473034,-0.1038125,-0.339075,-0.1309
1680001709608,1181697962975188,-0.099825,-0.3400375,-0.138875
1680001709612,1181697965477342,-0.0947375,-0.3400375,-0.1439625
1680001709614,1181697967979496,-0.09075,-0.344025,-0.1519375
1680001709616,1181697970481650,-0.0858,-0.3430625,-0.1579875
1680001709618,1181697972983784,-0.0787875,-0.3419625,-0.1599125
1680001709621,1181697975485938,-0.0757625,-0.3430625,-0.1659625
1680001709624,1181697977988169,-0.0757625,-0.344025,-0.176
1680001709625,1181697980490246,-0.0727375,-0.34705,-0.1819125
1680001709628,1181697982992395,-0.0708125,-0.3460875,-0.188925
1680001709630,1181697985494626,-0.0677875,-0.348975,-0.19195
1680001709633,1181697987996780,-0.0617375,-0.350075,-0.194975
1680001709635,1181697990498933,-0.05775,-0.3529625,-0.1989625
1680001709638,1181697993001067,-0.0567875,-0.3510375,-0.20295
1680001709640,1181697995503221,-0.0528,-0.350075,-0.20487499
1680001709643,1181697998005375,-0.04675,-0.352,-0.20899999
1680001709647,1181698000507760,-0.044825,-0.352,-0.2099625
1680001709649,1181698003009899,-0.0397375,-0.3540625,-0.2149125
1680001709652,1181698005512053,-0.0347875,-0.359975,-0.22
1680001709653,1181698008014207,-0.0257125,-0.35901248,-0.2209625
1680001709655,1181698010516361,-0.022824999,-0.35901248,-0.2239875
1680001709658,1181698013018515,-0.0198,-0.3639625,-0.22893749
1680001709661,1181698015520679,-0.01375,-0.3620375,-0.231
1680001709663,1181698018022833,-0.0097624995,-0.3639625,-0.2349875
1680001709665,1181698020524986,-0.005775,-0.3639625,-0.2369125
1680001709670,1181698023027197,0.0022,-0.359975,-0.242
1680001709671,1181698025529351,0.00825,-0.3620375,-0.243925
1680001709673,1181698028031428,0.0122375,-0.359975,-0.24887499
1680001709675,1181698030533582,0.0202125,-0.3620375,-0.249975
1680001709678,1181698033035813,0.0262625,-0.3639625,-0.254925
1680001709680,1181698035537981,0.0312125,-0.363,-0.254925
1680001709683,1181698038040135,0.0363,-0.363,-0.2569875
1680001709690,1181698040542255,0.041249998,-0.363,-0.25795
1680001709691,1181698043044409,0.0452375,-0.359975,-0.259875
1680001709692,1181698045546563,0.0501875,-0.3540625,-0.260975
1680001709694,1181698048048947,0.0572,-0.35805,-0.264
1680001709698,1181698050551101,0.0622875,-0.359975,-0.2649625
1680001709700,1181698053053274,0.0642125,-0.3540625,-0.264
1680001709703,1181698055555428,0.071225,-0.3540625,-0.2619375
1680001709704,1181698058057582,0.077275,-0.352,-0.264
1680001709707,1181698060559736,0.0803,-0.3529625,-0.260975
1680001709708,1181698063061890,0.087175,-0.3510375,-0.2619375
1680001709711,1181698065564053,0.091299996,-0.34705,-0.2589125
1680001709713,1181698068066284,0.0972125,-0.3460875,-0.25795
1680001709716,1181698070568438,0.1062875,-0.3430625,-0.2569875
1680001709719,1181698073070592,0.111237496,-0.3430625,-0.2558875
1680001709721,1181698075572659,0.111237496,-0.3419625,-0.2558875
1680001709724,1181698078074813,0.1172875,-0.3350875,-0.253
1680001709727,1181698080577043,0.122237496,-0.32999998,-0.249975
1680001709729,1181698083079428,0.1252625,-0.328075,-0.24695
1680001709733,1181698085581370,0.1332375,-0.328075,-0.24887499
1680001709737,1181698088083524,0.137225,-0.326975,-0.243925
1680001709738,1181698090585678,0.143275,-0.32505,-0.2399375
1680001709740,1181698093087832,0.1442375,-0.3229875,-0.2409
1680001709741,1181698095589986,0.15125,-0.32505,-0.238975
1680001709743,1181698098092370,0.15619999,-0.3240875,-0.238975
1680001709746,1181698100594524,0.159225,-0.326975,-0.2338875
1680001709748,1181698103096678,0.1632125,-0.3260125,-0.22893749
1680001709751,1181698105598852,0.170225,-0.326975,-0.232925
1680001709753,1181698108101006,0.176275,-0.326975,-0.227975
1680001709756,1181698110603159,0.1832875,-0.32999998,-0.22495
1680001709757,1181698113105390,0.18727499,-0.32999998,-0.2259125
1680001709762,1181698115607523,0.1942875,-0.32999998,-0.22495
1680001709763,1181698118109677,0.2022625,-0.3320625,-0.2228875
1680001709766,1181698120611831,0.2072125,-0.3339875,-0.221925
1680001709768,1181698123113908,0.2112,-0.3309625,-0.2228875
1680001709771,1181698125616138,0.219175,-0.3309625,-0.2209625
1680001709773,1181698128118519,0.2272875,-0.3290375,-0.216975
1680001709775,1181698130620673,0.2352625,-0.328075,-0.2149125
1680001709778,1181698133122596,0.2382875,-0.32999998,-0.2079
1680001709781,1181698135624750,0.2402125,-0.326975,-0.20693749
1680001709783,1181698138126904,0.2492875,-0.3290375,-0.2039125
1680001709786,1181698140629058,0.2563,-0.326975,-0.2008875
1680001709788,1181698143131211,0.2563,-0.3320625,-0.1989625
1680001709791,1181698145633596,0.2591875,-0.3309625,-0.199925
1680001709793,1181698148135754,0.2673,-0.3290375,-0.1969
1680001709796,1181698150637908,0.2732125,-0.32999998,-0.193875
1680001709799,1181698153140062,0.2732125,-0.3350875,-0.1969
1680001709802,1181698155642215,0.274175,-0.339075,-0.1969
1680001709804,1181698158144389,0.27719998,-0.3370125,-0.1989625
1680001709806,1181698160646620,0.28325,-0.3400375,-0.2019875
1680001709808,1181698163148774,0.285175,-0.3460875,-0.199925
1680001709811,1181698165650928,0.285175,-0.34705,-0.2039125
1680001709813,1181698168153082,0.285175,-0.352,-0.20899999
1680001709815,1181698170655168,0.286275,-0.35901248,-0.210925
1680001709818,1181698173157321,0.286275,-0.366025,-0.21395
1680001709821,1181698175659552,0.2893,-0.3700125,-0.2149125
1680001709823,1181698178161937,0.2902625,-0.3749625,-0.216975
1680001709826,1181698180663855,0.2842125,-0.381975,-0.2209625
1680001709828,1181698183166009,0.2822875,-0.3889875,-0.221925
1680001709831,1181698185668163,0.2783,-0.4010875,-0.22495
1680001709833,1181698188170547,0.27225,-0.4109875,-0.2259125
1680001709837,1181698190672485,0.2682625,-0.414975,-0.232925
1680001709838,1181698193174870,0.2673,-0.42405,-0.2349875
1680001709841,1181698195677024,0.2591875,-0.427075,-0.2369125
1680001709843,1181698198179178,0.2542375,-0.43408749,-0.238975
1680001709846,1181698200681321,0.2492875,-0.443025,-0.2399375
1680001709848,1181698203183475,0.242275,-0.44605,-0.242
1680001709851,1181698205685629,0.2332,-0.4560875,-0.24695
1680001709853,1181698208187783,0.225225,-0.4690125,-0.2479125
1680001709855,1181698210690014,0.2182125,-0.469975,-0.2539625
1680001709858,1181698213192207,0.2102375,-0.476025,-0.24887499
1680001709861,1181698215694361,0.2013,-0.480975,-0.2509375
1680001709863,1181698218196437,0.1931875,-0.4849625,-0.2519
1680001709865,1181698220698591,0.18425,-0.49005,-0.2509375
1680001709868,1181698223200807,0.1711875,-0.49101248,-0.249975
1680001709871,1181698225703192,0.16225,-0.4940375,-0.249975
1680001709874,1181698228205115,0.154275,-0.495,-0.24887499
1680001709876,1181698230707269,0.142175,-0.49307498,-0.24887499
1680001709878,1181698233209422,0.1332375,-0.4940375,-0.24887499
1680001709880,1181698235711812,0.120175,-0.491975,-0.242
1680001709883,1181698238213735,0.1082125,-0.4890875,-0.242
1680001709886,1181698240716120,0.098175,-0.4860625,-0.238975
1680001709888,1181698243218274,0.0902,-0.47808748,-0.237875
1680001709891,1181698245720437,0.0782375,-0.4720375,-0.2338875
1680001709893,1181698248222590,0.069299996,-0.4640625,-0.231
1680001709896,1181698250724744,0.060225,-0.45705,-0.227975
1680001709898,1181698253226898,0.052249998,-0.4500375,-0.2239875
1680001709901,1181698255729033,0.0402875,-0.4390375,-0.2189
1680001709903,1181698258231264,0.0312125,-0.427075,-0.216975
1680001709906,1181698260733418,0.0242,-0.41799998,-0.21395
1680001709908,1181698263235494,0.015262499,-0.40507498,-0.20487499
1680001709912,1181698265737658,0.010175,-0.3889875,-0.199925
1680001709914,1181698268239889,0.0033,-0.3760625,-0.194975
1680001709916,1181698270742043,-0.00275,-0.36107498,-0.187
1680001709919,1181698273244197,-0.0088,-0.3400375,-0.1788875
1680001709921,1181698275746327,-0.014712499,-0.326975,-0.1739375
1680001709924,1181698278248481,-0.0177375,-0.311025,-0.1689875
1680001709928,1181698280750634,-0.0207625,-0.29205,-0.160875
1680001709934,1181698283253019,-0.0257125,-0.27101249,-0.155925
1680001709934,1181698285755198,-0.02475,-0.253,-0.14795
1680001709935,1181698288257352,-0.0297,-0.2330625,-0.1419
1680001709936,1181698290759506,-0.0308,-0.2099625,-0.1348875
1680001709938,1181698293261659,-0.0317625,-0.1920875,-0.1249875
1680001709940,1181698295763572,-0.0308,-0.172975,-0.1189375
1680001709943,1181698298265957,-0.0317625,-0.1530375,-0.11
1680001709946,1181698300768111,-0.0317625,-0.1329625,-0.100925
1680001709949,1181698303270342,-0.0297,-0.1170125,-0.0939125
1680001709952,1181698305772429,-0.027775,-0.098037496,-0.083875
1680001709953,1181698308274583,-0.0287375,-0.080025,-0.072875
1680001709955,1181698310776736,-0.022824999,-0.062975,-0.064899996
1680001709958,1181698313278890,-0.0158125,-0.0479875,-0.0559625
1680001709961,1181698315781121,-0.016775,-0.0339625,-0.044
1680001709963,1181698318283275,-0.0127875,-0.0149875,-0.0369875
1680001709967,1181698320785429,-0.010725,-0.003025,-0.028875
1680001709968,1181698323287583,-0.0097624995,0.007975,-0.018975
1680001709971,1181698325789736,-0.0067375,0.022,-0.011
1680001709974,1181698328291890,-0.00275,0.0339625,-0.0039875
1680001709976,1181698330794044,0.0012375,0.0430375,0.0020625
1680001709978,1181698333296429,0.005225,0.0499125,0.0070125
1680001709980,1181698335798583,0.010175,0.056925,0.013062499
1680001709983,1181698338300755,0.0132,0.0639375,0.015125
1680001709987,1181698340802909,0.0182875,0.07095,0.0210375
1680001709988,1181698343304832,0.021175,0.0669625,0.025024999
1680001709991,1181698345806986,0.0242,0.0699875,0.0270875
1680001709993,1181698348309457,0.0262625,0.073975,0.025024999
1680001709997,1181698350811611,0.033275,0.0719125,0.02805
1680001709999,1181698353313688,0.0363,0.0730125,0.0290125
1680001710001,1181698355815841,0.038225,0.0719125,0.0270875
1680001710003,1181698358317995,0.043175,0.0650375,0.025024999
1680001710007,1181698360820164,0.0512875,0.066,0.0210375
1680001710008,1181698363322395,0.0532125,0.0639375,0.0191125
1680001710011,1181698365824549,0.0572,0.0620125,0.01705
1680001710013,1181698368326703,0.0642125,0.056925,0.015125
1680001710016,1181698370828870,0.0682,0.0559625,0.0121
1680001710018,1181698373331024,0.0721875,0.0529375,0.0081124995
1680001710021,1181698375833178,0.07425,0.044,0.0011
1680001710024,1181698378335327,0.0831875,0.03795,-0.0028875
1680001710026,1181698380837712,0.0862125,0.036025,-0.006875
1680001710028,1181698383339865,0.0902,0.034925,-0.0119624995
1680001710031,1181698385842019,0.0941875,0.029975,-0.017875
1680001710033,1181698388344173,0.0972125,0.0279125,-0.022
1680001710036,1181698390846096,0.1023,0.0229625,-0.02695
1680001710038,1181698393348250,0.1082125,0.0169125,-0.0319
1680001710041,1181698395850712,0.1082125,0.0149875,-0.0358875
1680001710043,1181698398352865,0.1082125,0.012925,-0.040975
1680001710046,1181698400854928,0.1142625,0.011,-0.0449625
1680001710048,1181698403357082,0.1161875,0.0070125,-0.0499125
1680001710051,1181698405859236,0.11825,0.007975,-0.0539
1680001710054,1181698408361467,0.120175,9.625E-4,-0.056925
1680001710055,1181698410863544,0.1232,-0.0,-0.0578875
1680001710058,1181698413365746,0.1271875,-0.0020625,-0.064899996
1680001710062,1181698415867899,0.1271875,-0.0039875,-0.066
1680001710064,1181698418370053,0.1271875,-0.003025,-0.07095
1680001710066,1181698420872207,0.1282875,-0.0070125,-0.072875
1680001710068,1181698423374351,0.12925,-0.0100375,-0.073975
1680001710073,1181698425876505,0.12925,-0.0100375,-0.0759
1680001710074,1181698428378889,0.1282875,-0.0100375,-0.078925
1680001710076,1181698430881043,0.1282875,-0.009075,-0.0829125
1680001710078,1181698433383197,0.1302125,-0.0121,-0.0829125
1680001710081,1181698435885351,0.131175,-0.0100375,-0.086899996
1680001710083,1181698438387274,0.1271875,-0.007975,-0.088
1680001710087,1181698440889659,0.12925,-0.009075,-0.084975
1680001710088,1181698443391919,0.1271875,-0.0121,-0.0859375
1680001710092,1181698445894072,0.1271875,-0.0070125,-0.0829125
1680001710093,1181698448396149,0.1241625,-0.003025,-0.0809875
1680001710098,1181698450898303,0.1232,-0.0011,-0.0829125
1680001710100,1181698453400442,0.1241625,-0.0,-0.084975
1680001710103,1181698455902673,0.122237496,-0.0,-0.078925
1680001710105,1181698458404750,0.121275,0.00495,-0.0779625
1680001710108,1181698460906980,0.1172875,0.0070125,-0.0749375
1680001710109,1181698463409134,0.1161875,0.011,-0.073975
1680001710111,1181698465911283,0.1131625,0.0149875,-0.0719125
1680001710113,1181698468413437,0.1122,0.012925,-0.0699875
1680001710116,1181698470915591,0.1082125,0.0149875,-0.064899996
1680001710119,1181698473417745,0.104225,0.018975,-0.0609125
1680001710121,1181698475920138,0.1032625,0.0209,-0.056925
1680001710124,1181698478422292,0.100237496,0.0209,-0.055
1680001710127,1181698480924446,0.09625,0.0279125,-0.051975
1680001710129,1181698483426600,0.0902,0.0309375,-0.04895
1680001710131,1181698485928509,0.08525,0.0319,-0.044
1680001710133,1181698488430894,0.0831875,0.033,-0.039875
1680001710136,1181698490933047,0.0792,0.0389125,-0.03795
1680001710139,1181698493435278,0.0782375,0.0429,-0.034925
1680001710143,1181698495937369,0.07425,0.0429,-0.028875
1680001710144,1181698498439523,0.0732875,0.045925,-0.0248875
1680001710146,1181698500941677,0.0721875,0.04895,-0.023924999
1680001710149,1181698503443908,0.0702625,0.0510125,-0.022
1680001710151,1181698505945971,0.0682,0.055,-0.018975
1680001710154,1181698508448201,0.066275,0.0559625,-0.012925
1680001710156,1181698510950355,0.066275,0.055,-0.012925
1680001710159,1181698513452509,0.0622875,0.0559625,-0.011
1680001710161,1181698515954663,0.060225,0.058025,-0.007975
1680001710163,1181698518456807,0.055275,0.05995,-0.006875
1680001710167,1181698520958961,0.0532125,0.055,-0.00495
1680001710168,1181698523461114,0.0512875,0.055,-0.00495
1680001710171,1181698525963499,0.0482625,0.058025,-0.00495
1680001710176,1181698528465639,0.0482625,0.055,-0.001925
1680001710177,1181698530967793,0.044275,0.0529375,-0.001925
1680001710179,1181698533469947,0.0422125,0.055,-9.625E-4
1680001710182,1181698535972101,0.043175,0.0539,-9.625E-4
1680001710185,1181698538474254,0.043175,0.0479875,-0.001925
1680001710188,1181698540976466,0.0402875,0.0449625,0.0011
1680001710189,1181698543478543,0.038225,0.0429,0.0
1680001710191,1181698545980697,0.038225,0.0400125,-9.625E-4
1680001710193,1181698548482851,0.0391875,0.034925,-0.0028875
1680001710197,1181698550985067,0.0391875,0.0339625,-0.0028875
1680001710200,1181698553487220,0.0361625,0.029975,-0.0039875
1680001710201,1181698555989374,0.0372625,0.025024999,-0.0039875
1680001710204,1181698558491528,0.0342375,0.023924999,-0.0039875
1680001710211,1181698560993682,0.0361625,0.0169125,-0.0059125
1680001710211,1181698563495836,0.0352,0.01595,-0.007975
1680001710212,1181698565998220,0.0312125,0.01595,-0.011
1680001710214,1181698568500374,0.0312125,0.0099,-0.0119624995
1680001710217,1181698571002528,0.033275,0.00495,-0.0119624995
1680001710219,1181698573504682,0.0312125,-0.0,-0.0149875
1680001710221,1181698576006836,0.03025,-0.0050875,-0.0169125
1680001710224,1181698578508759,0.0292875,-0.0100375,-0.018975
1680001710225,1181698581011144,0.0292875,-0.013062499,-0.0199375
1680001710228,1181698583513374,0.0312125,-0.01705,-0.0199375
1680001710231,1181698586015480,0.033275,-0.0210375,-0.023924999
1680001710233,1181698588517634,0.033275,-0.0240625,-0.02695
1680001710236,1181698591019788,0.03025,-0.031075,-0.0279125
1680001710238,1181698593521942,0.03025,-0.0320375,-0.0279125
1680001710241,1181698596024096,0.0312125,-0.0341,-0.0319
1680001710243,1181698598526326,0.033275,-0.044,-0.033
1680001710246,1181698601028480,0.033275,-0.0451,-0.034925
1680001710249,1181698603530629,0.0281875,-0.0460625,-0.0358875
1680001710252,1181698606032783,0.027224999,-0.050049998,-0.034925
1680001710254,1181698608534937,0.0292875,-0.051975,-0.0369875
1680001710256,1181698611037091,0.0281875,-0.0510125,-0.0358875
1680001710258,1181698613539245,0.0242,-0.0510125,-0.0389125
1680001710261,1181698616041638,0.022275,-0.051975,-0.03795
1680001710263,1181698618543792,0.0251625,-0.053075,-0.0389125
1680001710265,1181698621045946,0.022275,-0.0570625,-0.039875
1680001710268,1181698623548100,0.0202125,-0.062975,-0.0389125
1680001710271,1181698626050039,0.0171875,-0.0620125,-0.03795
1680001710273,1181698628552423,0.0171875,-0.061049998,-0.034925
1680001710276,1181698631054654,0.0171875,-0.0600875,-0.034925
1680001710278,1181698633556731,0.014162499,-0.0600875,-0.034925
1680001710281,1181698636058890,0.015262499,-0.0620125,-0.0369875
1680001710283,1181698638561044,0.0122375,-0.0620125,-0.0358875
1680001710288,1181698641063275,0.0072875,-0.0589875,-0.033
1680001710290,1181698643565332,0.005225,-0.064075,-0.0319
1680001710293,1181698646067485,0.0042625,-0.061049998,-0.028875
1680001710298,1181698648569716,0.0012375,-0.0600875,-0.029975
1680001710298,1181698651071870,0.0012375,-0.0570625,-0.028875
1680001710300,1181698653574024,-0.0017875,-0.0620125,-0.028875
1680001710302,1181698656076193,-0.00275,-0.0620125,-0.02695
1680001710304,1181698658578347,-0.00275,-0.061049998,-0.0259875
1680001710305,1181698661080500,-0.0088,-0.058025,-0.0248875
1680001710308,1181698663582885,-0.0088,-0.0589875,-0.0229625
1680001710311,1181698666085039,-0.0097624995,-0.0620125,-0.0209
1680001710315,1181698668587174,-0.0078375,-0.0600875,-0.022
1680001710316,1181698671089328,-0.0097624995,-0.058025,-0.017875
1680001710319,1181698673591481,-0.0088,-0.062975,-0.0169125
1680001710322,1181698676093635,-0.0088,-0.0620125,-0.0169125
1680001710325,1181698678595856,-0.0067375,-0.062975,-0.017875
1680001710327,1181698681097933,-0.0067375,-0.064075,-0.0169125
1680001710330,1181698683600087,-0.0088,-0.061049998,-0.01595
1680001710332,1181698686102241,-0.0048125,-0.064075,-0.018975
1680001710334,1181698688604471,-0.0037125,-0.062975,-0.017875
1680001710335,1181698691106577,-0.0048125,-0.062975,-0.012925
1680001710338,1181698693608731,-0.0067375,-0.064075,-0.0199375
1680001710341,1181698696110962,-0.0078375,-0.064075,-0.0229625
1680001710344,1181698698613116,-0.0097624995,-0.066,-0.0209
1680001710345,1181698701115303,-0.011825,-0.069025,-0.0199375
1680001710348,1181698703617457,-0.014712499,-0.0699875,-0.022
1680001710351,1181698706119610,-0.0158125,-0.0680625,-0.022
1680001710353,1181698708621764,-0.0177375,-0.0680625,-0.022
1680001710356,1181698711124149,-0.0188375,-0.0710875,-0.018975
1680001710358,1181698713626303,-0.0188375,-0.0699875,-0.0209
1680001710362,1181698716128457,-0.0207625,-0.07205,-0.0199375
1680001710364,1181698718630610,-0.0207625,-0.073975,-0.0199375
1680001710367,1181698721132783,-0.0207625,-0.0760375,-0.018975
1680001710369,1181698723634937,-0.0188375,-0.073975,-0.0169125
1680001710371,1181698726137091,-0.0188375,-0.07205,-0.01595
1680001710373,1181698728639322,-0.021724999,-0.0710875,-0.01595
1680001710376,1181698731141399,-0.022824999,-0.07205,-0.017875
1680001710378,1181698733643553,-0.0237875,-0.07205,-0.01595
1680001710381,1181698736145783,-0.022824999,-0.0760375,-0.0149875
1680001710383,1181698738647937,-0.021724999,-0.0760375,-0.0149875
1680001710386,1181698741150014,-0.022824999,-0.07205,-0.0169125
1680001710388,1181698743652260,-0.0207625,-0.073975,-0.0149875
1680001710391,1181698746154414,-0.0207625,-0.0699875,-0.0149875
1680001710393,1181698748656568,-0.0198,-0.069025,-0.012925
1680001710396,1181698751158721,-0.0257125,-0.0680625,-0.012925
1680001710399,1181698753660860,-0.0237875,-0.07205,-0.0149875
1680001710402,1181698756163014,-0.0237875,-0.069025,-0.012925
1680001710404,1181698758665399,-0.0257125,-0.0699875,-0.011
1680001710408,1181698761167553,-0.0237875,-0.073975,-0.006875
1680001710409,1181698763669707,-0.0287375,-0.069025,-0.0099
1680001710412,1181698766171860,-0.0298375,-0.0671,-0.0089375
1680001710414,1181698768674014,-0.0308,-0.0671,-0.006875
1680001710416,1181698771176168,-0.0308,-0.0650375,-0.0059125
1680001710418,1181698773678322,-0.033825,-0.066,-0.0039875
1680001710421,1181698776180558,-0.0308,-0.066,-0.001925
1680001710423,1181698778682635,-0.0298375,-0.0671,-0.0039875
1680001710426,1181698781184865,-0.03575,-0.066,-0.001925
1680001710429,1181698783687019,-0.0378125,-0.062975,-9.625E-4
1680001710431,1181698786189183,-0.0367125,-0.061049998,-9.625E-4
1680001710433,1181698788691260,-0.03575,-0.0620125,-9.625E-4
1680001710438,1181698791193491,-0.0367125,-0.0671,0.0011
1680001710441,1181698793695634,-0.0378125,-0.0650375,0.004125
1680001710442,1181698796197788,-0.0367125,-0.0589875,0.0020625
1680001710444,1181698798699941,-0.0347875,-0.0589875,0.003025
1680001710448,1181698801202095,-0.038775,-0.0589875,0.00605
1680001710449,1181698803704249,-0.0378125,-0.055,0.0050875
1680001710452,1181698806206389,-0.0367125,-0.0570625,0.0070125
1680001710453,1181698808708774,-0.0347875,-0.058025,0.009075
1680001710457,1181698811210927,-0.0367125,-0.0540375,0.0070125
1680001710459,1181698813713081,-0.0317625,-0.053075,0.0070125
1680001710461,1181698816215244,-0.0298375,-0.0540375,0.0070125
1680001710464,1181698818717398,-0.0317625,-0.051975,0.0100375
1680001710466,1181698821219552,-0.0298375,-0.0490875,0.0081124995
1680001710469,1181698823721783,-0.027775,-0.050049998,0.009075
1680001710471,1181698826223846,-0.0268125,-0.050049998,0.009075
1680001710475,1181698828725999,-0.0268125,-0.0451,0.0081124995
1680001710476,1181698831228153,-0.022824999,-0.0451,0.0100375
1680001710479,1181698833730384,-0.0257125,-0.044,0.0100375
1680001710481,1181698836232538,-0.0237875,-0.0460625,0.0081124995
1680001710483,1181698838734692,-0.0207625,-0.0460625,0.0100375
1680001710487,1181698841236846,-0.021724999,-0.044,0.0121
1680001710489,1181698843738999,-0.0198,-0.0430375,0.011
1680001710492,1181698846241162,-0.0207625,-0.0451,0.013062499
1680001710494,1181698848743316,-0.0177375,-0.0460625,0.0160875
1680001710496,1181698851245701,-0.0188375,-0.044,0.01705
1680001710499,1181698853747855,-0.0177375,-0.0479875,0.015125
1680001710502,1181698856249759,-0.0158125,-0.050049998,0.015125
1680001710503,1181698858752143,-0.016775,-0.0479875,0.020075
1680001710505,1181698861254297,-0.0188375,-0.0490875,0.0210375
1680001710508,1181698863756220,-0.0207625,-0.0490875,0.020075
1680001710513,1181698866258581,-0.0188375,-0.050049998,0.022
1680001710514,1181698868760735,-0.0198,-0.050049998,0.022
1680001710516,1181698871262965,-0.0188375,-0.051975,0.0240625
1680001710519,1181698873765042,-0.016775,-0.0490875,0.025024999
1680001710521,1181698876267196,-0.016775,-0.051975,0.0290125
1680001710525,1181698878769350,-0.0198,-0.0570625,0.02805
1680001710527,1181698881271581,-0.0198,-0.055,0.0240625
1680001710529,1181698883773735,-0.0188375,-0.0570625,0.026124999
1680001710532,1181698886275889,-0.0177375,-0.058025,0.0270875
1680001710534,1181698888778052,-0.0177375,-0.064075,0.026124999
1680001710536,1181698891280206,-0.0177375,-0.0671,0.026124999
1680001710541,1181698893782360,-0.0177375,-0.0650375,0.0240625
1680001710542,1181698896284514,-0.0188375,-0.0680625,0.0240625
1680001710544,1181698898786894,-0.0177375,-0.069025,0.0231
1680001710546,1181698901289047,-0.0188375,-0.069025,0.0231
1680001710551,1181698903790971,-0.0158125,-0.0699875,0.022
1680001710554,1181698906293355,-0.01375,-0.0699875,0.022
1680001710558,1181698908795509,-0.014712499,-0.073975,0.020075
1680001710558,1181698911297432,-0.01375,-0.0779625,0.020075
1680001710559,1181698913799817,-0.014712499,-0.0779625,0.015125
1680001710561,1181698916302047,-0.01375,-0.07205,0.015125
1680001710563,1181698918804201,-0.0158125,-0.07205,0.020075
1680001710567,1181698921306292,-0.01375,-0.077,0.01705
1680001710569,1181698923808446,-0.0127875,-0.0760375,0.01705
1680001710571,1181698926310600,-0.010725,-0.0760375,0.0160875
1680001710573,1181698928812754,-0.0127875,-0.0760375,0.015125
1680001710575,1181698931314985,-0.010725,-0.07205,0.0160875
1680001710580,1181698933817134,-0.0097624995,-0.07205,0.01705
1680001710581,1181698936319288,-0.011825,-0.0779625,0.015125
1680001710584,1181698938821442,-0.011825,-0.073975,0.015125
1680001710588,1181698941323596,-0.0097624995,-0.07205,0.015125
1680001710592,1181698943825716,-0.0097624995,-0.07205,0.0160875
1680001710592,1181698946328100,-0.0127875,-0.069025,0.0160875
1680001710594,1181698948830254,-0.010725,-0.0710875,0.015125
1680001710596,1181698951332408,-0.010725,-0.0680625,0.014025
1680001710601,1181698953834538,-0.005775,-0.069025,0.015125
1680001710602,1181698956336692,-0.010725,-0.0680625,0.015125
1680001710603,1181698958838846,-0.0127875,-0.0680625,0.014025
1680001710608,1181698961341000,-0.01375,-0.066,0.0160875
1680001710610,1181698963843230,-0.011825,-0.066,0.0160875
1680001710611,1181698966345394,-0.010725,-0.066,0.015125
1680001710613,1181698968847471,-0.011825,-0.066,0.0160875
1680001710616,1181698971349625,-0.0127875,-0.0669625,0.0160875
1680001710620,1181698973851779,-0.01375,-0.0650375,0.0191125
1680001710621,1181698976353933,-0.011825,-0.064075,0.01705
1680001710624,1181698978856163,-0.0177375,-0.0680625,0.0210375
1680001710626,1181698981358317,-0.0177375,-0.0680625,0.01705
1680001710630,1181698983860471,-0.01375,-0.0680625,0.01705
1680001710631,1181698986362625,-0.014712499,-0.0680625,0.01705
1680001710633,1181698988864779,-0.016775,-0.0699875,0.014025
1680001710636,1181698991366933,-0.0158125,-0.0699875,0.0121
1680001710640,1181698993869317,-0.014712499,-0.0699875,0.013062499
1680001710641,1181698996371471,-0.01375,-0.0710875,0.0121
1680001710643,1181698998873625,-0.0127875,-0.0710875,0.014025
1680001710646,1181699001375779,-0.011825,-0.0760375,0.0121
1680001710649,1181699003877933,-0.0127875,-0.07205,0.014025
1680001710651,1181699006380087,-0.014712499,-0.0699875,0.015125
1680001710653,1181699008882240,-0.0177375,-0.073975,0.011
1680001710656,1181699011384476,-0.014712499,-0.0699875,0.009075
1680001710659,1181699013886630,-0.0177375,-0.0710875,0.0100375
1680001710662,1181699016388707,-0.011825,-0.075075,0.0121
1680001710664,1181699018890875,-0.0127875,-0.073975,0.011
1680001710665,1181699021393029,-0.014712499,-0.07205,0.011
1680001710669,1181699023895183,-0.0158125,-0.07205,0.0100375
1680001710671,1181699026397413,-0.0177375,-0.0699875,0.009075
1680001710674,1181699028899567,-0.0158125,-0.069025,0.0081124995
1680001710676,1181699031401736,-0.016775,-0.0680625,0.00605
1680001710680,1181699033903890,-0.016775,-0.0680625,0.004125
1680001710681,1181699036406044,-0.0177375,-0.066,0.0050875
1680001710683,1181699038908198,-0.0158125,-0.066,0.00605
1680001710687,1181699041410370,-0.016775,-0.0669625,0.003025
1680001710689,1181699043912755,-0.0177375,-0.0650375,0.003025
1680001710691,1181699046414909,-0.0198,-0.0669625,0.004125
1680001710694,1181699048917063,-0.016775,-0.0589875,0.004125
1680001710696,1181699051419217,-0.016775,-0.058025,0.0
1680001710700,1181699053921371,-0.0177375,-0.0589875,0.0020625
1680001710702,1181699056423294,-0.0177375,-0.058025,0.0011
1680001710704,1181699058925755,-0.0158125,-0.0570625,-0.001925
1680001710706,1181699061427909,-0.014712499,-0.058025,-9.625E-4
1680001710710,1181699063929986,-0.0158125,-0.0490875,-9.625E-4
1680001710711,1181699066432116,-0.0158125,-0.0490875,-0.001925
1680001710713,1181699068934270,-0.014712499,-0.0490875,-0.001925
1680001710716,1181699071436423,-0.011825,-0.0510125,-0.001925
1680001710719,1181699073938654,-0.010725,-0.0460625,-0.001925
1680001710721,1181699076440822,-0.0097624995,-0.0449625,-9.625E-4
1680001710723,1181699078942976,-0.0127875,-0.040975,-0.0028875
1680001710727,1181699081445130,-0.010725,-0.042075,-0.00495
1680001710729,1181699083947284,-0.0077,-0.042075,-0.00495
1680001710732,1181699086449419,-0.0097624995,-0.036025,-0.00495
1680001710733,1181699088951572,-0.0097624995,-0.0350625,-0.00495
1680001710737,1181699091453957,-0.0077,-0.0369875,-0.0059125
1680001710740,1181699093956111,-0.0077,-0.036025,-0.007975
1680001710741,1181699096458265,-0.0088,-0.0339625,-0.007975
1680001710743,1181699098960419,-0.0077,-0.0350625,-0.007975
1680001710746,1181699101462572,-0.0077,-0.0339625,-0.0089375
1680001710749,1181699103964726,-0.0077,-0.033,-0.011
1680001710751,1181699106466957,-0.0067375,-0.0339625,-0.011
1680001710753,1181699108969039,-0.0067375,-0.0339625,-0.012925
1680001710756,1181699111471193,-0.0067375,-0.033,-0.012925
1680001710759,1181699113973347,-0.0077,-0.031075,-0.01595
1680001710761,1181699116475808,-0.0067375,-0.031075,-0.0149875
1680001710763,1181699118977764,-0.00275,-0.0339625,-0.0149875
1680001710767,1181699121479918,-0.0048125,-0.0350625,-0.0149875
1680001710769,1181699123982072,-0.0048125,-0.0350625,-0.0149875
1680001710772,1181699126484226,-0.0088,-0.033,-0.0169125
1680001710775,1181699128986395,-0.005775,-0.0339625,-0.01595
1680001710776,1181699131488549,-0.0067375,-0.0339625,-0.0149875
1680001710780,1181699133990933,-0.0067375,-0.0350625,-0.0119624995
1680001710783,1181699136493087,-0.005775,-0.0369875,-0.01595
1680001710784,1181699138995226,-0.0088,-0.0369875,-0.01595
1680001710786,1181699141497380,-0.011825,-0.0350625,-0.012925
1680001710789,1181699143999534,-0.011825,-0.033,-0.01595
1680001710794,1181699146501687,-0.0097624995,-0.033,-0.0099
1680001710796,1181699149003913,-0.010725,-0.036025,-0.011
1680001710798,1181699151506067,-0.01375,-0.039049998,-0.011
1680001710801,1181699154008221,-0.011825,-0.0350625,-0.012925
1680001710801,1181699156510298,-0.011825,-0.0369875,-0.012925
1680001710803,1181699159012452,-0.0127875,-0.040975,-0.0099
1680001710807,1181699161514611,-0.01375,-0.0369875,-0.012925
1680001710819,1181699164016841,-0.01375,-0.0339625,-0.0119624995
1680001710820,1181699166518995,-0.010725,-0.0369875,-0.0089375
1680001710821,1181699169021153,-0.010725,-0.039049998,-0.0099
1680001710822,1181699171841768,-0.01375,-0.036025,-0.011
1680001710824,1181699174025461,-0.0127875,-0.039049998,-0.0089375
1680001710825,1181699176527615,-0.0097624995,-0.039049998,-0.0099
1680001710826,1181699179029768,-0.011825,-0.0380875,-0.007975
1680001710827,1181699181532139,-0.0127875,-0.036025,-0.0089375
1680001710830,1181699184034293,-0.010725,-0.0369875,-0.0119624995
1680001710832,1181699186536447,-0.0127875,-0.033,-0.0119624995
1680001710833,1181699189038601,-0.0127875,-0.036025,-0.006875
1680001710836,1181699191540735,-0.0127875,-0.0339625,-0.007975
1680001710840,1181699194042889,-0.01375,-0.033,-0.0119624995
1680001710841,1181699196545120,-0.0097624995,-0.0350625,-0.0089375
1680001710844,1181699199047274,-0.0127875,-0.0320375,-0.0099
1680001710847,1181699201549418,-0.0077,-0.033,-0.011
1680001710852,1181699204051495,-0.0097624995,-0.036025,-0.011
1680001710853,1181699206553649,-0.010725,-0.0320375,-0.0099
1680001710855,1181699209055879,-0.0097624995,-0.0320375,-0.0099
1680001710856,1181699211558033,-0.0088,-0.029975,-0.0119624995
1680001710860,1181699214060187,-0.0067375,-0.031075,-0.0099
1680001710861,1181699216562341,-0.005775,-0.0339625,-0.0119624995
1680001710864,1181699219064495,-0.005775,-0.029975,-0.011
1680001710866,1181699221566649,-0.0067375,-0.0259875,-0.0099
1680001710870,1181699224068826,-0.0088,-0.0290125,-0.011
1680001710871,1181699226570980,-0.0088,-0.031075,-0.0119624995
1680001710873,1181699229073365,-0.0037125,-0.02805,-0.0119624995
1680001710876,1181699231575519,-0.0017875,-0.0270875,-0.012925
1680001710880,1181699234077706,-0.0048125,-0.0210375,-0.011
1680001710881,1181699236579859,-0.005775,-0.0259875,-0.011
1680001710884,1181699239082013,-0.0017875,-0.0290125,-0.0099
1680001710887,1181699241584167,-0.0048125,-0.029975,-0.0119624995
1680001710890,1181699244086326,-0.0037125,-0.0270875,-0.012925
1680001710892,1181699246588557,2.75E-4,-0.0270875,-0.011
1680001710894,1181699249090711,-0.00275,-0.022,-0.011
1680001710896,1181699251592788,-0.0017875,-0.022,-0.011
1680001710900,1181699254094941,0.0012375,-0.025024999,-0.011
1680001710901,1181699256597182,0.0012375,-0.022,-0.0099
1680001710904,1181699259099336,0.0022,-0.0210375,-0.0099
1680001710906,1181699261601490,0.0022,-0.0240625,-0.012925
1680001710910,1181699264103644,0.0022,-0.025024999,-0.0119624995
1680001710911,1181699266605783,0.0042625,-0.0210375,-0.012925
1680001710913,1181699269108167,0.0072875,-0.022,-0.011
1680001710916,1181699271610090,0.0072875,-0.025024999,-0.011
1680001710919,1181699274112244,0.0072875,-0.025024999,-0.011
1680001710921,1181699276614639,0.00825,-0.0210375,-0.012925
1680001710925,1181699279116793,0.0092124995,-0.022,-0.0089375
1680001710927,1181699281618947,0.011275,-0.02805,-0.0099
1680001710930,1181699284121100,0.0092124995,-0.0270875,-0.0119624995
1680001710932,1181699286623254,0.011275,-0.0240625,-0.0089375
1680001710933,1181699289125408,0.011275,-0.0240625,-0.006875
1680001710936,1181699291627562,0.0122375,-0.020075,-0.0089375
1680001710941,1181699294129793,0.011275,-0.020075,-0.011
1680001710942,1181699296631937,0.0132,-0.022,-0.0099
1680001710944,1181699299134090,0.015262499,-0.025024999,-0.007975
1680001710946,1181699301636244,0.0092124995,-0.0210375,-0.006875
1680001710950,1181699304138398,0.0122375,-0.020075,-0.0089375
1680001710951,1181699306640577,0.015262499,-0.0259875,-0.0089375
1680001710954,1181699309142731,0.0132,-0.022,-0.006875
1680001710956,1181699311644885,0.00825,-0.018975,-0.006875
1680001710959,1181699314147269,0.011275,-0.020075,-0.00495
1680001710962,1181699316649443,0.0092124995,-0.022,-0.0059125
1680001710965,1181699319151366,0.0061875,-0.022,-0.0059125
1680001710967,1181699321653520,0.0122375,-0.0210375,-0.00495
1680001710969,1181699324155674,0.0132,-0.022,-0.006875
1680001710971,1181699326658059,0.010175,-0.025024999,-0.00495
1680001710974,1181699329160192,0.0072875,-0.0210375,-0.00495
1680001710976,1181699331662346,0.0061875,-0.0210375,-0.001925
1680001710979,1181699334164500,0.0072875,-0.01705,-0.001925
1680001710981,1181699336666654,0.0033,-0.01705,-0.0039875
1680001710983,1181699339168813,0.0072875,-0.0149875,-9.625E-4
1680001710986,1181699341671044,0.005225,-0.0160875,0.0
1680001710989,1181699344173197,0.0033,-0.022,-9.625E-4
1680001710992,1181699346675351,0.0042625,-0.018975,0.0
1680001710994,1181699349177515,0.0042625,-0.018975,0.0
1680001710996,1181699351679669,0.0022,-0.025024999,0.0020625
1680001711000,1181699354181823,0.0033,-0.0160875,0.0011
1680001711002,1181699356683900,0.0012375,-0.0180125,0.0020625
1680001711004,1181699359186361,0.0012375,-0.022,0.0011
1680001711007,1181699361688515,2.75E-4,-0.0210375,0.0070125
1680001711009,1181699364190669,-0.0017875,-0.022,0.009075
1680001711011,1181699366692592,-0.0017875,-0.0240625,0.00605
1680001711013,1181699369194746,-0.0048125,-0.0259875,0.003025
1680001711016,1181699371696881,-0.0017875,-0.0210375,0.0081124995
1680001711019,1181699374199265,-0.0048125,-0.020075,0.009075
1680001711021,1181699376701419,-0.0037125,-0.018975,0.011
1680001711025,1181699379203573,-0.00275,-0.0210375,0.0121
1680001711026,1181699381705717,-0.0048125,-0.0210375,0.011
1680001711029,1181699384207871,-0.005775,-0.0210375,0.0121
1680001711031,1181699386710025,-0.005775,-0.0240625,0.014025
1680001711033,1181699389212179,-0.0048125,-0.0210375,0.014025
1680001711038,1181699391714399,-0.0067375,-0.0210375,0.013062499
1680001711041,1181699394216553,-0.0077,-0.025024999,0.013062499
1680001711042,1181699396718630,-0.0067375,-0.0270875,0.015125
1680001711044,1181699399220861,-0.0077,-0.0290125,0.014025
1680001711046,1181699401723015,-0.005775,-0.0290125,0.0160875
1680001711049,1181699404225136,-0.005775,-0.031075,0.0160875
1680001711051,1181699406727289,-0.005775,-0.0320375,0.014025
1680001711054,1181699409229443,-0.0048125,-0.033,0.0121
1680001711058,1181699411731597,-0.0037125,-0.0339625,0.0121
1680001711060,1181699414233731,2.75E-4,-0.033,0.011
1680001711061,1181699416736116,-0.0017875,-0.0339625,0.0121
1680001711064,1181699419238269,-0.0017875,-0.0369875,0.0100375
1680001711066,1181699421740423,0.0022,-0.0369875,0.0100375
1680001711069,1181699424242577,0.0042625,-0.039049998,0.0100375
1680001711071,1181699426744736,0.005225,-0.044,0.011
1680001711076,1181699429246890,0.0031625,-0.0460625,0.0100375
1680001711077,1181699431749121,0.0031625,-0.0490875,0.0070125
1680001711079,1181699434251198,0.005225,-0.0479875,0.00605
1680001711081,1181699436753375,0.0042625,-0.0460625,0.003025
1680001711085,1181699439255606,0.0031625,-0.0479875,0.00605
1680001711086,1181699441757760,0.0012375,-0.050049998,0.003025
1680001711090,1181699444259837,2.75E-4,-0.0510125,-9.625E-4
1680001711092,1181699446761977,-0.0017875,-0.0510125,0.0011
1680001711094,1181699449264208,2.75E-4,-0.051975,0.0011
1680001711097,1181699451766361,-0.005775,-0.0540375,0.0
1680001711100,1181699454268515,-0.0078375,-0.058025,-0.001925
1680001711102,1181699456770654,-0.0088,-0.053075,-0.001925
1680001711104,1181699459272808,-0.01375,-0.0540375,0.0
1680001711107,1181699461774962,-0.01375,-0.055,0.0
1680001711109,1181699464277346,-0.0127875,-0.058025,0.0
1680001711113,1181699466779505,-0.0127875,-0.0600875,-0.001925
1680001711115,1181699469281659,-0.0198,-0.058025,0.0
1680001711117,1181699471783813,-0.0188375,-0.055,0.003025
1680001711120,1181699474285967,-0.0177375,-0.055,0.003025
1680001711122,1181699476788121,-0.0207625,-0.061049998,0.0011
1680001711125,1181699479290265,-0.0188375,-0.0600875,0.004125
1680001711127,1181699481792418,-0.0198,-0.061049998,0.0020625
1680001711129,1181699484294572,-0.0188375,-0.061049998,0.0020625
1680001711132,1181699486796803,-0.0198,-0.064075,0.0011
1680001711134,1181699489298957,-0.0198,-0.0620125,0.0011
1680001711136,1181699491801020,-0.0177375,-0.066,-0.0028875
1680001711141,1181699494303174,-0.0198,-0.066,-0.001925
1680001711142,1181699496805404,-0.0177375,-0.0699875,-0.0028875
1680001711144,1181699499307789,-0.0198,-0.0699875,-0.0039875
1680001711147,1181699501809712,-0.0198,-0.069025,-0.0039875
1680001711151,1181699504311866,-0.0237875,-0.0680625,-0.0028875
1680001711152,1181699506814020,-0.021724999,-0.0669625,-0.0028875
1680001711154,1181699509316174,-0.0207625,-0.069025,-0.0028875
1680001711156,1181699511818558,-0.0198,-0.0699875,-0.001925
1680001711160,1181699514320717,-0.0207625,-0.0699875,-0.001925
1680001711161,1181699516822871,-0.0198,-0.069025,-0.0039875
1680001711165,1181699519325025,-0.0198,-0.0680625,-0.001925
1680001711167,1181699521827169,-0.0177375,-0.0669625,0.0
1680001711169,1181699524329323,-0.0177375,-0.0680625,0.0011
1680001711171,1181699526831476,-0.016775,-0.0669625,0.0
1680001711174,1181699529333630,-0.01375,-0.0680625,0.0011
1680001711178,1181699531835861,-0.0207625,-0.0650375,0.0
1680001711183,1181699534338005,-0.021724999,-0.0620125,0.0020625
1680001711183,1181699536840159,-0.0188375,-0.0600875,0.0020625
1680001711184,1181699539342236,-0.0198,-0.0570625,0.0020625
1680001711188,1181699541844390,-0.021724999,-0.0620125,0.003025
1680001711191,1181699544346625,-0.0207625,-0.058025,0.003025
1680001711192,1181699546849010,-0.0188375,-0.051975,0.003025
1680001711194,1181699549350933,-0.0177375,-0.053075,0.004125
1680001711196,1181699551853087,-0.0198,-0.0510125,0.004125
1680001711200,1181699554355246,-0.0198,-0.0460625,0.003025
1680001711202,1181699556857400,-0.0158125,-0.047025,0.0011
1680001711205,1181699559359553,-0.0177375,-0.0449625,0.003025
1680001711207,1181699561861938,-0.0158125,-0.039049998,0.0011
1680001711209,1181699564364092,-0.0177375,-0.0369875,0.0020625
1680001711211,1181699566866241,-0.016775,-0.0350625,0.0
1680001711214,1181699569368395,-0.0198,-0.036025,0.004125
1680001711217,1181699571870549,-0.0177375,-0.036025,0.0011
1680001711220,1181699574372712,-0.0158125,-0.0290125,-9.625E-4
1680001711221,1181699576874943,-0.014712499,-0.0270875,0.0020625
1680001711225,1181699579377097,-0.01375,-0.0240625,0.0020625
1680001711227,1181699581879251,-0.014712499,-0.0259875,0.00605
1680001711232,1181699584381419,-0.0127875,-0.0240625,0.00605
1680001711232,1181699586883496,-0.010725,-0.0160875,0.0050875
1680001711234,1181699589385649,-0.0127875,-0.01705,0.00605
1680001711236,1181699591887880,-0.01375,-0.0160875,0.004125
1680001711240,1181699594390265,-0.0127875,-0.01705,0.0070125
1680001711241,1181699596892197,-0.011825,-0.013062499,0.009075
1680001711245,1181699599394351,-0.0097624995,-0.013062499,0.009075
1680001711246,1181699601896505,-0.0067375,-0.0149875,0.0081124995
1680001711250,1181699604398659,-0.0037125,-0.0119624995,0.0081124995
1680001711252,1181699606900784,-0.0017875,-0.011,0.0100375
1680001711254,1181699609403169,-0.00275,-0.011,0.0121
1680001711257,1181699611905323,2.75E-4,-0.011,0.013062499
1680001711260,1181699614407477,-0.0017875,-0.0119624995,0.009075
1680001711263,1181699616909635,-0.0017875,-0.013062499,0.009075
1680001711265,1181699619411788,2.75E-4,-0.0100375,0.0121
1680001711266,1181699621913942,-0.00275,-0.0100375,0.0100375
1680001711270,1181699624416173,-0.00275,-0.011,0.0100375
1680001711272,1181699626918327,-0.0017875,-0.0100375,0.009075
1680001711274,1181699629420496,-0.0037125,-0.013062499,0.009075
1680001711276,1181699631922650,-0.00275,-0.0119624995,0.0100375
1680001711280,1181699634424727,-0.0017875,-0.011,0.011
1680001711281,1181699636926880,-0.0037125,-0.014025,0.0081124995
1680001711285,1181699639429106,-0.0037125,-0.014025,0.009075
1680001711286,1181699641931491,2.75E-4,-0.01705,0.00605
1680001711290,1181699644433414,0.0022,-0.0180125,0.00605
1680001711292,1181699646935568,-0.0017875,-0.018975,0.0081124995
1680001711294,1181699649437717,0.0012375,-0.018975,0.0070125
1680001711297,1181699651939870,2.75E-4,-0.0210375,0.0070125
1680001711301,1181699654442024,0.0022,-0.020075,0.0070125
1680001711303,1181699656944409,0.0031625,-0.02805,0.004125
1680001711305,1181699659446573,0.0012375,-0.022,0.00605
1680001711308,1181699661948727,-0.0017875,-0.0240625,0.00605
1680001711310,1181699664450880,2.75E-4,-0.0259875,0.00605
1680001711312,1181699666953034,0.0012375,-0.0259875,0.0050875
1680001711314,1181699669455188,0.0042625,-0.0290125,0.004125
1680001711317,1181699671957419,0.0042625,-0.031075,0.0020625
1680001711321,1181699674459573,0.0042625,-0.029975,0.004125
1680001711325,1181699676961650,0.005225,-0.031075,0.003025
1680001711326,1181699679463804,0.0042625,-0.0290125,0.0020625
1680001711327,1181699681965966,0.0072875,-0.02805,0.003025
1680001711330,1181699684468428,0.0061875,-0.029975,0.003025
1680001711331,1181699686970351,0.0061875,-0.0290125,0.0020625
1680001711334,1181699689472505,0.0072875,-0.02805,0.0011
1680001711338,1181699691974669,0.0061875,-0.029975,0.0
1680001711343,1181699694476823,0.005225,-0.0339625,0.0
1680001711343,1181699696978976,0.0072875,-0.0350625,0.0
1680001711344,1181699699481361,0.005225,-0.0339625,-9.625E-4
1680001711347,1181699701983515,0.0072875,-0.0320375,0.0
1680001711350,1181699704485664,0.0092124995,-0.033,-0.001925
1680001711352,1181699706987818,0.0061875,-0.0350625,-0.001925
1680001711354,1181699709489971,0.005225,-0.0369875,-0.001925
1680001711358,1181699711992125,0.0061875,-0.0339625,-0.00495
1680001711360,1181699714494370,0.005225,-0.0380875,-0.006875
1680001711361,1181699716996447,0.005225,-0.042075,-0.007975
1680001711365,1181699719498678,0.005225,-0.0369875,-0.0059125
1680001711367,1181699722000832,0.005225,-0.0449625,-0.006875
1680001711370,1181699724502895,0.0042625,-0.044,-0.007975
1680001711371,1181699727005048,0.0072875,-0.044,-0.007975
1680001711376,1181699729507202,0.00825,-0.0479875,-0.006875
1680001711377,1181699732009664,0.010175,-0.0479875,-0.0089375
1680001711380,1181699734511592,0.0072875,-0.050049998,-0.0119624995
1680001711381,1181699737013746,0.011275,-0.0510125,-0.012925
1680001711384,1181699739515900,0.0122375,-0.053075,-0.0149875
1680001711387,1181699742018053,0.011275,-0.058025,-0.0119624995
1680001711390,1181699744520207,0.0122375,-0.0600875,-0.0149875
1680001711392,1181699747022592,0.0122375,-0.061049998,-0.0169125
1680001711395,1181699749524746,0.0122375,-0.0650375,-0.017875
1680001711396,1181699752026900,0.011275,-0.0650375,-0.018975
1680001711400,1181699754529053,0.011275,-0.064075,-0.0199375
1680001711401,1181699757031207,0.011275,-0.0669625,-0.0199375
1680001711405,1181699759533361,0.0061875,-0.0680625,-0.0169125
1680001711407,1181699762035515,0.005225,-0.069025,-0.018975
1680001711410,1181699764537746,0.010175,-0.0699875,-0.0209
1680001711413,1181699767039876,0.0092124995,-0.0699875,-0.0199375
1680001711415,1181699769542030,0.0031625,-0.07205,-0.018975
1680001711416,1181699772044106,0.0042625,-0.075075,-0.0209
1680001711421,1181699774546260,0.005225,-0.077,-0.0169125
1680001711422,1181699777048500,0.0072875,-0.0760375,-0.0199375
1680001711424,1181699779550885,0.0072875,-0.080025,-0.0199375
1680001711427,1181699782052808,0.0072875,-0.077,-0.022
1680001711430,1181699784554962,0.005225,-0.0760375,-0.023924999
1680001711431,1181699787057130,0.0061875,-0.0779625,-0.0229625
1680001711434,1181699789559284,0.0061875,-0.0779625,-0.023924999
1680001711437,1181699792061438,0.0012375,-0.080025,-0.023924999
1680001711441,1181699794563823,0.0022,-0.0790625,-0.0229625
1680001711442,1181699797065977,0.0031625,-0.077,-0.0248875
1680001711445,1181699799568131,-0.0017875,-0.075075,-0.02695
1680001711447,1181699802070284,0.0022,-0.075075,-0.028875
1680001711451,1181699804572438,-0.0017875,-0.0760375,-0.0259875
1680001711453,1181699807074592,-0.00275,-0.07205,-0.0279125
1680001711454,1181699809576746,-0.00275,-0.073975,-0.0279125
1680001711457,1181699812078977,-0.0037125,-0.0699875,-0.0259875
1680001711460,1181699814581131,-0.00275,-0.0710875,-0.02695
1680001711462,1181699817083284,2.75E-4,-0.0699875,-0.028875
1680001711465,1181699819585442,-0.00275,-0.0710875,-0.029975
1680001711467,1181699822087519,-0.0048125,-0.0710875,-0.0279125
1680001711470,1181699824589750,-0.0067375,-0.0650375,-0.0319
1680001711471,1181699827092135,-0.005775,-0.0669625,-0.029975
1680001711474,1181699829594063,-0.0067375,-0.069025,-0.0279125
1680001711477,1181699832096217,-0.00275,-0.066,-0.028875
1680001711480,1181699834598370,-0.00275,-0.0650375,-0.0279125
1680001711482,1181699837100524,-0.0067375,-0.0600875,-0.029975
1680001711485,1181699839602707,-0.005775,-0.0589875,-0.02695
1680001711488,1181699842104861,-0.0067375,-0.0620125,-0.0279125
1680001711491,1181699844607246,-0.0067375,-0.0589875,-0.0279125
1680001711492,1181699847109399,-0.0048125,-0.0600875,-0.029975
1680001711495,1181699849611553,-0.0088,-0.061049998,-0.028875
1680001711497,1181699852113697,-0.0088,-0.0600875,-0.028875
1680001711500,1181699854615851,-0.0078375,-0.0589875,-0.0279125
1680001711502,1181699857118005,-0.0078375,-0.058025,-0.028875
1680001711504,1181699859620236,-0.005775,-0.0600875,-0.028875
1680001711507,1181699862122375,-0.0078375,-0.0650375,-0.02695
1680001711510,1181699864624529,-0.0067375,-0.0620125,-0.028875
1680001711512,1181699867126683,-0.0067375,-0.061049998,-0.0279125
1680001711514,1181699869628760,-0.0048125,-0.061049998,-0.028875
1680001711517,1181699872131015,-0.0088,-0.0600875,-0.0279125
1680001711519,1181699874633169,-0.0067375,-0.0600875,-0.0279125
1680001711522,1181699877135553,-0.0048125,-0.0620125,-0.029975
1680001711526,1181699879637476,-0.0067375,-0.0650375,-0.0279125
1680001711528,1181699882139625,-0.0088,-0.064075,-0.02695
1680001711530,1181699884641779,-0.0078375,-0.064075,-0.028875
1680001711532,1181699887143933,-0.0067375,-0.0669625,-0.028875
1680001711534,1181699889646087,-0.0088,-0.0699875,-0.02695
1680001711537,1181699892148471,-0.0078375,-0.0680625,-0.028875
1680001711540,1181699894650620,-0.010725,-0.0710875,-0.0279125
1680001711542,1181699897152774,-0.011825,-0.0760375,-0.028875
1680001711544,1181699899654928,-0.0097624995,-0.0760375,-0.02695
1680001711546,1181699902157082,-0.0088,-0.0790625,-0.0259875
1680001711550,1181699904659251,-0.014712499,-0.080025,-0.02695
1680001711552,1181699907161481,-0.014712499,-0.08305,-0.0279125
1680001711554,1181699909663635,-0.010725,-0.084975,-0.02695
1680001711557,1181699912165789,-0.011825,-0.087037496,-0.0259875
1680001711560,1181699914667933,-0.01375,-0.09405,-0.0259875
1680001711563,1181699917170010,-0.0127875,-0.0999625,-0.023924999
1680001711565,1181699919672241,-0.014712499,-0.0999625,-0.0248875
1680001711567,1181699922174395,-0.0127875,-0.1029875,-0.0248875
1680001711570,1181699924676784,-0.011825,-0.109037496,-0.023924999
1680001711572,1181699927178707,-0.014712499,-0.1109625,-0.0248875
1680001711574,1181699929680861,-0.0127875,-0.1139875,-0.02695
1680001711577,1181699932183015,-0.011825,-0.113025,-0.0259875
1680001711580,1181699934685169,-0.010725,-0.119075,-0.0248875
1680001711582,1181699937187332,-0.010725,-0.121,-0.0248875
1680001711584,1181699939689716,-0.0067375,-0.12705,-0.02695
1680001711588,1181699942191870,-0.005775,-0.1280125,-0.0248875
1680001711592,1181699944694024,-0.0088,-0.128975,-0.0259875
1680001711593,1181699947196169,-0.0067375,-0.130075,-0.0259875
1680001711595,1181699949698323,-0.005775,-0.1329625,-0.0248875
1680001711597,1181699952200553,-0.00275,-0.1329625,-0.0209
1680001711601,1181699954702611,-0.005775,-0.130075,-0.0199375
1680001711603,1181699957204765,-0.0048125,-0.1340625,-0.0209
1680001711608,1181699959706919,-0.005775,-0.1359875,-0.017875
1680001711608,1181699962209073,-0.0048125,-0.1329625,-0.017875
1680001711611,1181699964711227,2.75E-4,-0.135025,-0.01595
1680001711613,1181699967213453,0.0012375,-0.1359875,-0.01595
1680001711616,1181699969715606,-0.0017875,-0.1340625,-0.01595
1680001711617,1181699972217760,-0.00275,-0.1370875,-0.011
1680001711621,1181699974719914,0.0012375,-0.1439625,-0.0099
1680001711622,1181699977222068,0.0012375,-0.1439625,-0.011
1680001711624,1181699979724222,0.0012375,-0.1420375,-0.011
1680001711626,1181699982226606,0.0042625,-0.139975,-0.0089375
1680001711629,1181699984728760,-0.0017875,-0.143,-0.006875
1680001711632,1181699987230914,-0.00275,-0.1420375,-0.0059125
1680001711635,1181699989733052,0.0012375,-0.146025,-0.0028875
1680001711638,1181699992234975,2.75E-4,-0.141075,0.0011
1680001711640,1181699994737129,2.75E-4,-0.1359875,0.0020625
1680001711642,1181699997239298,-0.0017875,-0.1359875,0.004125
1680001711645,1181699999741759,-0.00275,-0.139975,0.0050875
1680001711647,1181700002243836,-0.0048125,-0.1359875,0.0100375
1680001711652,1181700004745990,-0.0017875,-0.1329625,0.0121
1680001711652,1181700007248144,2.75E-4,-0.132,0.0100375
1680001711655,1181700009750269,2.75E-4,-0.128975,0.0160875
1680001711657,1181700012252423,0.0022,-0.1310375,0.01705
1680001711660,1181700014754653,0.0022,-0.1260875,0.01705
1680001711662,1181700017256807,0.0042625,-0.1219625,0.020075
1680001711665,1181700019758956,0.0072875,-0.124025,0.0270875
1680001711667,1181700022261110,0.00825,-0.117975,0.0290125
1680001711670,1181700024763264,0.0092124995,-0.11605,0.031075
1680001711672,1181700027265418,0.010175,-0.113025,0.033
1680001711676,1181700029767797,0.011275,-0.11,0.036025
1680001711677,1181700032269951,0.0122375,-0.1029875,0.039049998
1680001711680,1181700034772105,0.0132,-0.1010625,0.0411125
1680001711682,1181700037274259,0.0122375,-0.099,0.042075
1680001711685,1181700039776418,0.0143,-0.091025,0.0451
1680001711687,1181700042278341,0.015262499,-0.088,0.0490875
1680001711690,1181700044780495,0.01925,-0.0820875,0.0521125
1680001711692,1181700047282956,0.021175,-0.0820875,0.055
1680001711695,1181700049785110,0.01925,-0.0779625,0.0570625
1680001711697,1181700052287177,0.021175,-0.073975,0.059125
1680001711700,1181700054789331,0.0253,-0.0699875,0.0620125
1680001711703,1181700057291485,0.027224999,-0.064075,0.064075
1680001711705,1181700059793639,0.0281875,-0.058025,0.066
1680001711708,1181700062295865,0.0281875,-0.0570625,0.066
1680001711710,1181700064798019,0.0312125,-0.0490875,0.069025
1680001711713,1181700067300173,0.033275,-0.0449625,0.07205
