system_ts_ms, sensor_ts_ns, accX, accY, accZ
1680011038083,1191026424633129,2.52705,5.406,7.9200006
1680011038084,1191026427135273,2.52195,5.43795,7.8790503
1680011038085,1191026429637658,2.5170002,5.45205,7.8889503
1680011038085,1191026432139889,2.59605,5.4619503,8.017051
1680011038086,1191026434642043,2.52705,5.4640503,7.9579506
1680011038087,1191026437144196,2.532,5.53095,8.016001
1680011038087,1191026439646571,2.6179502,5.4760504,7.9819503
1680011038088,1191026442148725,2.493,5.50005,7.9129505
1680011038090,1191026444650956,2.5170002,5.4469504,7.9849505
1680011038107,1191026447153110,2.5170002,5.44995,8.00895
1680011038108,1191026449655499,2.48895,5.5090504,7.9939504
1680011038108,1191026452157653,2.4739501,5.4970503,7.932
1680011038109,1191026454659807,2.53905,5.55,8.137051
1680011038109,1191026457161961,2.5459502,5.53095,8.049001
1680011038110,1191026459664422,2.50095,5.4970503,8.005051
1680011038110,1191026462166576,2.532,5.47095,8.059051
1680011038111,1191026464668730,2.604,5.48295,8.089951
1680011038115,1191026467170961,2.565,5.39895,8.121
1680011038116,1191026469673086,2.60595,5.3920503,8.06805
1680011038117,1191026472175240,2.5770001,5.44005,8.161051
1680011038119,1191026474677393,2.6200502,5.565,8.16705
1680011038121,1191026477179855,2.6850002,5.466,8.248051
1680011038124,1191026479681995,2.63505,5.36805,8.217
1680011038126,1191026482184379,2.6830502,5.4970503,8.095051
1680011038132,1191026484686533,2.661,5.418,8.2890005
1680011038133,1191026487188687,2.5819502,5.45895,8.104051
1680011038135,1191026489690836,2.604,5.4690003,8.089951
1680011038137,1191026492193067,2.6250002,5.42595,8.21205
1680011038139,1191026494695451,2.673,5.4139504,8.158951
1680011038142,1191026497197605,2.6490002,5.3920503,8.148001
1680011038144,1191026499699759,2.5510502,5.3149505,8.035951
1680011038150,1191026502201917,2.505,5.33895,8.134951
1680011038150,1191026504704148,2.592,5.32305,8.052
1680011038152,1191026507206532,2.59905,5.4139504,8.187
1680011038154,1191026509708763,2.5129502,5.26305,8.17905
1680011038157,1191026512210917,2.6130002,5.361,8.167951
1680011038160,1191026514713062,2.565,5.36805,8.125951
1680011038165,1191026517215216,2.6200502,5.385,8.109
1680011038166,1191026519717600,2.5890002,5.2909503,8.101951
1680011038166,1191026522219831,2.6200502,5.3029504,8.205
1680011038171,1191026524721975,2.57505,5.4900002,7.9819503
1680011038173,1191026527224359,2.6749501,5.3920503,8.04
1680011038175,1191026529726513,2.70705,5.43795,8.04195
1680011038177,1191026532228667,2.57505,5.34705,8.121
1680011038182,1191026534730812,2.673,5.42595,8.109
1680011038182,1191026537233274,2.661,5.47305,8.017051
1680011038184,1191026539735427,2.66805,5.42805,7.9800005
1680011038187,1191026542237581,2.63205,5.361,8.05395
1680011038189,1191026544739720,2.6590502,5.445,8.052
1680011038192,1191026547241951,2.7810001,5.478,8.0449505
1680011038194,1191026549744105,2.6110501,5.4970503,8.19795
1680011038198,1191026552246259,2.7280502,5.5600505,8.137051
1680011038199,1191026554748691,2.604,5.466,8.142
1680011038202,1191026557250845,2.6250002,5.5210505,8.04705
1680011038204,1191026559752999,2.57205,5.4640503,8.085
1680011038207,1191026562255153,2.59605,5.57595,8.029051
1680011038211,1191026564757499,2.5150502,5.4900002,8.073
1680011038217,1191026567259653,2.6110501,5.5090504,8.085
1680011038217,1191026569761884,2.4409502,5.478,8.061001
1680011038217,1191026572264269,2.5410001,5.44995,7.9200006
1680011038220,1191026574766422,2.46,5.48505,8.125951
1680011038222,1191026577268571,2.5480502,5.4300003,8.023951
1680011038225,1191026579770725,2.532,5.45895,8.13
1680011038227,1191026582272956,2.5890002,5.43795,8.06595
1680011038231,1191026584775341,2.5770001,5.4300003,8.18595
1680011038232,1191026587277528,2.66295,5.466,8.187
1680011038234,1191026589779682,2.6560502,5.4139504,8.193001
1680011038236,1191026592281913,2.5800002,5.43795,7.9890003
1680011038239,1191026594784067,2.66805,5.5360503,8.076
1680011038242,1191026597286451,2.5890002,5.4640503,8.02305
1680011038244,1191026599788619,2.63205,5.4760504,8.06595
1680011038249,1191026602290850,2.6560502,5.47305,8.01
1680011038251,1191026604793004,2.66295,5.4469504,8.04
1680011038252,1191026607295158,2.6749501,5.47305,8.112
1680011038254,1191026609797566,2.6110501,5.47305,7.965
1680011038257,1191026612299720,2.5200002,5.4760504,8.017051
1680011038259,1191026614801874,2.6250002,5.4040504,7.9729505
1680011038267,1191026617304105,2.628,5.42805,8.002951
1680011038268,1191026619806490,2.57205,5.4540005,7.977
1680011038269,1191026622308653,2.57205,5.4210005,8.016001
1680011038270,1191026624810884,2.52495,5.4160504,7.9849505
1680011038272,1191026627313038,2.6110501,5.37795,7.9870505
1680011038274,1191026629815192,2.601,5.47305,8.071051
1680011038277,1191026632317590,2.5819502,5.3419504,7.8510003
1680011038283,1191026634819821,2.6179502,5.3710504,7.9459505
1680011038285,1191026637321975,2.5840502,5.4469504,7.96995
1680011038286,1191026639824124,2.46705,5.3869505,8.04195
1680011038288,1191026642326278,2.532,5.4619503,8.061001
1680011038290,1191026644828662,2.59605,5.44005,8.11905
1680011038292,1191026647330893,2.59905,5.35395,8.00895
1680011038294,1191026649833047,2.5530002,5.4090004,8.161051
1680011038299,1191026652335187,2.592,5.433,8.076
1680011038300,1191026654837572,2.63205,5.42805,8.13
1680011038301,1191026657339802,2.59605,5.5020003,8.05395
1680011038304,1191026659841956,2.6110501,5.42595,8.035951
1680011038307,1191026662344100,2.6419501,5.4760504,8.113951
1680011038309,1191026664846254,2.6110501,5.4810004,8.133
1680011038316,1191026667348639,2.6560502,5.4469504,8.061001
1680011038317,1191026669850792,2.63505,5.4540005,8.029051
1680011038318,1191026672352999,2.7499502,5.54505,8.17395
1680011038319,1191026674855153,2.6800501,5.5290003,8.163
1680011038323,1191026677357538,2.7499502,5.517,8.1
1680011038325,1191026679859691,2.6509502,5.55,8.016001
1680011038327,1191026682361941,2.6419501,5.5290003,8.097
1680011038333,1191026684864095,2.661,5.47305,8.182051
1680011038333,1191026687366480,2.7589502,5.47305,8.092051
1680011038334,1191026689868634,2.66295,5.4300003,8.113951
1680011038337,1191026692370864,2.73495,5.493,8.064
1680011038339,1191026694873009,2.70405,5.517,8.06805
1680011038341,1191026697375163,2.74005,5.48295,8.05395
1680011038344,1191026699877317,2.7139502,5.53305,8.001
1680011038350,1191026702379702,2.73495,5.4469504,8.03505
1680011038352,1191026704881937,2.70705,5.52405,8.076
1680011038354,1191026707384091,2.7210002,5.4619503,8.073
1680011038355,1191026709886476,2.66805,5.4210005,8.04705
1680011038357,1191026712388630,2.6749501,5.5020003,8.076
1680011038361,1191026714890763,2.63895,5.4900002,8.001
1680011038365,1191026717392917,2.62995,5.5690503,8.03295
1680011038366,1191026719895379,2.6230502,5.4469504,7.9080005
1680011038367,1191026722397533,2.57505,5.5260005,7.9990506
1680011038370,1191026724899687,2.5459502,5.44005,7.9630504
1680011038372,1191026727401932,2.604,5.36595,7.8580503
1680011038375,1191026729904086,2.53905,5.41095,8.0449505
1680011038377,1191026732406240,2.5459502,5.4090004,7.977
1680011038382,1191026734908625,2.6179502,5.4469504,8.14005
1680011038382,1191026737410869,2.5560002,5.4019504,8.0119505
1680011038384,1191026739913023,2.56005,5.4160504,8.155951
1680011038387,1191026742415177,2.529,5.3869505,7.965
1680011038390,1191026744917331,2.568,5.4160504,8.02305
1680011038392,1191026747419741,2.63205,5.4420004,7.93695
1680011038394,1191026749921971,2.66805,5.4900002,7.90605
1680011038399,1191026752424125,2.53905,5.5260005,8.08005
1680011038401,1191026754926510,2.637,5.4229503,8.04
1680011038403,1191026757428630,2.6560502,5.3509502,8.03505
1680011038405,1191026759930784,2.6800501,5.433,8.071051
1680011038407,1191026762432937,2.60805,5.3869505,8.112
1680011038410,1191026764935399,2.59605,5.4349504,8.023951
1680011038412,1191026767437553,2.6920502,5.4640503,8.13
1680011038414,1191026769939765,2.6200502,5.47305,8.064
1680011038417,1191026772441842,2.697,5.4810004,8.04705
1680011038420,1191026774944072,2.6920502,5.4619503,8.11905
1680011038422,1191026777446226,2.67105,5.42805,8.112
1680011038425,1191026779948370,2.709,5.4300003,8.052
1680011038427,1191026782450832,2.70705,5.466,8.059051
1680011038430,1191026784952985,2.73795,5.3970003,7.977
1680011038433,1191026787455139,2.7450001,5.4540005,7.9849505
1680011038437,1191026789957293,2.73795,5.5410004,8.02095
1680011038439,1191026792459678,2.6230502,5.42595,7.9890003
1680011038441,1191026794961832,2.769,5.3970003,8.029051
1680011038443,1191026797464293,2.73495,5.42805,7.9560003
1680011038444,1191026799966216,2.7499502,5.3970003,8.04
1680011038446,1191026802468596,2.77395,5.466,8.059051
1680011038450,1191026804970750,2.7160501,5.4229503,8.18595
1680011038452,1191026807472980,2.838,5.433,8.03295
1680011038454,1191026809975134,2.778,5.4760504,8.0779505
1680011038457,1191026812477553,2.81205,5.4040504,8.03295
1680011038460,1191026814979707,2.83095,5.373,8.10705
1680011038462,1191026817481938,2.73495,5.3920503,8.04195
1680011038464,1191026819984091,2.8620002,5.4040504,8.016001
1680011038467,1191026822486245,2.8860002,5.373,8.05395
1680011038470,1191026824988644,2.7280502,5.43795,8.04195
1680011038474,1191026827490875,2.8980002,5.433,8.02095
1680011038476,1191026829993029,2.83095,5.3509502,7.932
1680011038479,1191026832495197,2.913,5.394,8.02095
1680011038480,1191026834997582,2.77395,5.433,8.061001
1680011038482,1191026837499736,2.8860002,5.406,7.9420505
1680011038484,1191026840001890,2.7900002,5.4160504,8.016001
1680011038487,1191026842504044,2.8170002,5.41095,7.9849505
1680011038490,1191026845006505,2.8219502,5.36805,8.023951
1680011038492,1191026847508659,2.778,5.4469504,7.9510503
1680011038494,1191026850010813,2.802,5.3320503,8.097
1680011038497,1191026852513044,2.8650002,5.361,8.03295
1680011038499,1191026855015211,2.74005,5.3629503,8.00895
1680011038502,1191026857517365,2.7900002,5.2909503,8.017051
1680011038504,1191026860019750,2.6920502,5.3200502,7.9099503
1680011038507,1191026862521981,2.7499502,5.32305,7.9510503
1680011038512,1191026865024116,2.7190502,5.23605,8.028001
1680011038514,1191026867526269,2.6899502,5.29395,7.9870505
1680011038516,1191026870028423,2.73795,5.361,7.9819503
1680011038518,1191026872530808,2.7190502,5.2390504,7.9750504
1680011038521,1191026875033039,2.6830502,5.2990503,7.8600006
1680011038522,1191026877535197,2.6830502,5.256,8.05395
1680011038525,1191026880037582,2.77605,5.2909503,7.965
1680011038527,1191026882539736,2.661,5.313,8.001
1680011038530,1191026885041890,2.66805,5.2510505,8.089951
1680011038532,1191026887544044,2.73495,5.22405,8.0119505
1680011038535,1191026890046524,2.6920502,5.29395,8.071051
1680011038537,1191026892548678,2.6490002,5.22195,8.1
1680011038540,1191026895050832,2.6250002,5.2699504,7.9510503
1680011038542,1191026897553063,2.6869502,5.3110504,8.073
1680011038544,1191026900055217,2.73795,5.2170005,8.097
1680011038550,1191026902557351,2.7280502,5.2440004,7.932
1680011038551,1191026905059736,2.66295,5.30595,8.023951
1680011038555,1191026907561967,2.6539502,5.2050004,8.001
1680011038556,1191026910064121,2.6830502,5.26305,8.005051
1680011038558,1191026912566274,2.6800501,5.3509502,7.9180503
1680011038560,1191026915068447,2.6490002,5.34705,7.9180503
1680011038562,1191026917570832,2.70195,5.34705,7.9870505
1680011038564,1191026920072986,2.778,5.3509502,7.9849505
1680011038567,1191026922575447,2.6490002,5.27505,8.076
1680011038570,1191026925077591,2.7190502,5.2600503,8.0449505
1680011038573,1191026927579745,2.79795,5.3560505,7.965
1680011038574,1191026930081899,2.7450001,5.3200502,8.005051
1680011038577,1191026932584130,2.6749501,5.2510505,8.04195
1680011038580,1191026935086317,2.7930002,5.3560505,8.06595
1680011038582,1191026937588701,2.6850002,5.41095,8.052
1680011038587,1191026940090855,2.66595,5.23395,8.03295
1680011038588,1191026942593009,2.6539502,5.3590503,8.016001
1680011038590,1191026945095250,2.7589502,5.35395,8.109
1680011038593,1191026947597403,2.77395,5.4619503,8.023951
1680011038594,1191026950099788,2.7880502,5.34705,7.977
1680011038597,1191026952602019,2.7450001,5.4210005,8.181001
1680011038600,1191026955104173,2.7570002,5.4420004,7.965
1680011038601,1191026957606322,2.7139502,5.4210005,7.9680004
1680011038604,1191026960108706,2.7589502,5.4229503,8.08005
1680011038607,1191026962610860,2.7859502,5.4300003,7.9819503
1680011038610,1191026965113014,2.766,5.42595,8.064
1680011038612,1191026967615475,2.733,5.4619503,7.9579506
1680011038615,1191026970117629,2.7810001,5.418,8.02305
1680011038617,1191026972619783,2.8219502,5.493,7.9870505
1680011038621,1191026975121937,2.87205,5.33895,7.99695
1680011038624,1191026977624158,2.8260002,5.4540005,7.9750504
1680011038626,1191026980126312,2.8189502,5.4139504,8.023951
1680011038628,1191026982628696,2.83095,5.44005,7.9849505
1680011038631,1191026985130850,2.80695,5.4420004,7.89795
1680011038634,1191026987633081,2.84505,5.5140004,7.9489503
1680011038637,1191026990135235,2.874,5.50005,7.9819503
1680011038638,1191026992637389,2.8330503,5.53305,7.9150505
1680011038640,1191026995139773,2.7949502,5.57205,7.9009504
1680011038642,1191026997641927,2.77095,5.44005,7.9990506
1680011038644,1191027000144158,2.77395,5.4760504,8.05605
1680011038647,1191027002646312,2.802,5.4900002,7.9099503
1680011038650,1191027005148466,2.7930002,5.5189505,7.93695
1680011038652,1191027007650850,2.77605,5.5740004,7.872
1680011038654,1191027010153081,2.73495,5.44005,8.00895
1680011038658,1191027012655235,2.733,5.406,8.002951
1680011038662,1191027015157389,2.6850002,5.44005,7.9080005
1680011038663,1191027017659773,2.69895,5.5069504,7.8889503
1680011038665,1191027020161946,2.7280502,5.53305,7.86705
1680011038667,1191027022664177,2.6800501,5.5260005,7.9680004
1680011038671,1191027025166331,2.637,5.48295,8.03295
1680011038674,1191027027668715,2.6230502,5.5620003,8.061001
1680011038675,1191027030170869,2.6490002,5.493,7.9579506
1680011038678,1191027032673023,2.6179502,5.5189505,7.9939504
1680011038681,1191027035175254,2.63895,5.5960503,7.89795
1680011038682,1191027037677408,2.628,5.5690503,7.9200006
1680011038685,1191027040179792,2.53905,5.5360503,7.8859506
1680011038687,1191027042681970,2.59905,5.517,7.965
1680011038690,1191027045184201,2.5870502,5.5860004,7.8409505
1680011038692,1191027047686355,2.5560002,5.53095,7.8480005
1680011038700,1191027050188739,2.5530002,5.58795,7.9560003
1680011038700,1191027052690678,2.601,5.61,7.8700504
1680011038701,1191027055193139,2.42895,5.622,7.932
1680011038703,1191027057695293,2.52495,5.5960503,7.8739505
1680011038705,1191027060197678,2.565,5.57205,7.80495
1680011038707,1191027062699811,2.56005,5.7010503,7.8619504
1680011038710,1191027065201965,2.5170002,5.6989503,7.8700504
1680011038713,1191027067704119,2.50305,5.6460004,7.8769503
1680011038714,1191027070206581,2.5840502,5.682,7.9750504
1680011038718,1191027072708763,2.52705,5.66295,7.8960004
1680011038721,1191027075210917,2.66595,5.67705,7.977
1680011038723,1191027077713148,2.5560002,5.6530504,7.977
1680011038725,1191027080215288,2.5800002,5.64795,7.9150505
1680011038728,1191027082717442,2.6920502,5.6650505,7.9750504
1680011038730,1191027085219596,2.661,5.7180004,7.93905
1680011038732,1191027087722057,2.57205,5.5620003,7.8889503
1680011038736,1191027090224231,2.5770001,5.6670003,7.9440002
1680011038739,1191027092726385,2.592,5.5909505,8.04
1680011038741,1191027095228539,2.66595,5.5789504,7.8820505
1680011038742,1191027097730923,2.5890002,5.622,8.04
1680011038744,1191027100233077,2.7229502,5.5069504,7.9150505
1680011038747,1191027102735289,2.6749501,5.5740004,7.965
1680011038750,1191027105237674,2.66295,5.60505,8.016001
1680011038754,1191027107739827,2.6110501,5.5530005,8.083051
1680011038755,1191027110241981,2.67105,5.57595,8.029051
1680011038759,1191027112744111,2.697,5.63205,8.092051
1680011038761,1191027115246342,2.63205,5.598,8.061001
1680011038762,1191027117748727,2.6800501,5.60505,8.06595
1680011038764,1191027120250880,2.6539502,5.5909505,8.029051
1680011038767,1191027122753111,2.70405,5.7130504,8.155951
1680011038772,1191027125255274,2.766,5.6530504,8.0119505
1680011038774,1191027127757428,2.7450001,5.5810504,8.059051
1680011038775,1191027130259582,2.6250002,5.6119504,8.071051
1680011038778,1191027132762043,2.6899502,5.6670003,8.01
1680011038780,1191027135264192,2.697,5.6790004,8.06805
1680011038782,1191027137766346,2.709,5.60505,7.99695
1680011038784,1191027140268500,2.7210002,5.6530504,8.03505
1680011038788,1191027142770884,2.73105,5.7180004,8.08005
1680011038790,1191027145273019,2.742,5.6239505,8.101951
1680011038793,1191027147775173,2.8189502,5.60295,8.101951
1680011038796,1191027150277635,2.70705,5.6580005,8.158951
1680011038798,1191027152779789,2.7499502,5.61705,8.073
1680011038801,1191027155281942,2.7859502,5.7250504,8.1
1680011038804,1191027157784096,2.7280502,5.7109504,8.059051
1680011038805,1191027160286327,2.7640502,5.68695,8.089951
1680011038807,1191027162788481,2.8140001,5.7180004,8.049001
1680011038812,1191027165290861,2.7160501,5.7300005,8.128051
1680011038815,1191027167793014,2.7540002,5.7319503,8.205
1680011038815,1191027170295245,2.7229502,5.7390003,8.20005
1680011038817,1191027172797399,2.80005,5.742,8.052
1680011038820,1191027175299784,2.76195,5.7970505,8.158951
1680011038822,1191027177801923,2.7450001,5.754,8.161051
1680011038826,1191027180304154,2.73495,5.682,8.128051
1680011038828,1191027182806308,2.7280502,5.68905,8.148001
1680011038830,1191027185308693,2.6590502,5.79195,8.092051
1680011038834,1191027187810799,2.6470501,5.682,8.187
1680011038835,1191027190312952,2.63205,5.78205,8.01
1680011038838,1191027192815183,2.66295,5.7180004,8.1
1680011038840,1191027195317337,2.673,5.73705,8.101951
1680011038842,1191027197819722,2.52195,5.6959505,8.137051
1680011038844,1191027200321876,2.57505,5.73705,8.19495
1680011038849,1191027202824106,2.4739501,5.7130504,8.2240505
1680011038851,1191027205326183,2.5440001,5.6790004,8.122951
1680011038855,1191027207828414,2.45295,5.6239505,8.113951
1680011038855,1191027210330808,2.4790502,5.5860004,8.109
1680011038858,1191027212833038,2.4480002,5.5909505,8.116051
1680011038860,1191027215335192,2.4139502,5.64795,8.064
1680011038862,1191027217837346,2.5099502,5.63595,8.02095
1680011038865,1191027220339500,2.43105,5.61705,8.149051
1680011038867,1191027222841871,2.3689501,5.6290503,7.96995
1680011038871,1191027225344024,2.24895,5.53305,8.101951
1680011038874,1191027227846255,2.42595,5.6290503,7.977
1680011038875,1191027230348640,2.32605,5.60295,8.073
1680011038878,1191027232850813,2.4019501,5.598,7.9680004
1680011038880,1191027235352967,2.259,5.598,7.9890003
1680011038882,1191027237855120,2.29905,5.6290503,7.977
1680011038887,1191027240357313,2.32605,5.53305,8.04195
1680011038889,1191027242859698,2.3160002,5.57595,7.9800005
1680011038892,1191027245361852,2.4049501,5.52405,8.017051
1680011038893,1191027247864006,2.3430002,5.61,7.9849505
1680011038895,1191027250366236,2.36595,5.55705,7.9920006
1680011038898,1191027252868380,2.4,5.5360503,7.9750504
1680011038900,1191027255370534,2.3140502,5.5860004,7.9560003
1680011038902,1191027257872996,2.46705,5.5410004,8.052
1680011038905,1191027260375149,2.3710501,5.5999503,8.052
1680011038907,1191027262877303,2.3710501,5.5810504,7.932
1680011038910,1191027265379452,2.36205,5.6340003,7.9219503
1680011038913,1191027267881837,2.4739501,5.565,8.076
1680011038915,1191027270383991,2.53695,5.5909505,8.016001
1680011038918,1191027272886221,2.4409502,5.52405,8.089951
1680011038922,1191027275388606,2.4840002,5.5260005,8.10705
1680011038926,1191027277890760,2.496,5.5909505,8.05605
1680011038926,1191027280392914,2.4790502,5.57595,8.154
1680011038928,1191027282895068,2.52495,5.5600505,7.9939504
1680011038932,1191027285397336,2.56005,5.5600505,7.9870505
1680011038935,1191027287899490,2.5200002,5.64795,8.0119505
1680011038935,1191027290401952,2.55795,5.63595,7.9009504
1680011038937,1191027292904029,2.52195,5.5210505,8.01
1680011038941,1191027295406255,2.5890002,5.61,8.083051
1680011038943,1191027297908409,2.52495,5.5960503,8.052
1680011038945,1191027300410794,2.52195,5.52405,8.017051
1680011038947,1191027302912717,2.56305,5.6509504,7.9819503
1680011038950,1191027305415178,2.592,5.6940002,8.10705
1680011038953,1191027307917312,2.5200002,5.60505,8.03295
1680011038955,1191027310419466,2.565,5.7010503,8.10705
1680011038958,1191027312921851,2.52495,5.54295,8.061001
1680011038962,1191027315424005,2.5080001,5.5480504,8.06805
1680011038963,1191027317926179,2.53905,5.61495,7.9300504
1680011038966,1191027320428409,2.529,5.6290503,8.035951
1680011038969,1191027322930794,2.50305,5.68695,8.083051
1680011038970,1191027325432948,2.53905,5.6269503,8.03295
1680011038973,1191027327935179,2.5200002,5.622,7.99695
1680011038975,1191027330437322,2.604,5.5860004,8.061001
1680011038978,1191027332939476,2.6200502,5.5530005,8.02305
1680011038980,1191027335441861,2.5560002,5.6509504,7.8769503
1680011038982,1191027337944092,2.5200002,5.6839504,8.016001
1680011038985,1191027340446245,2.43105,5.57205,7.977
1680011038988,1191027342948399,2.50305,5.4810004,7.96995
1680011038991,1191027345450784,2.5480502,5.5480504,8.023951
1680011038995,1191027347952947,2.5560002,5.54295,8.0119505
1680011038995,1191027350455101,2.532,5.4810004,7.9680004
1680011039000,1191027352957331,2.5560002,5.4619503,7.977
1680011039002,1191027355459485,2.5510502,5.5620003,8.06595
1680011039004,1191027357961870,2.4409502,5.5020003,8.073
1680011039006,1191027360464053,2.5080001,5.466,8.03295
1680011039007,1191027362966284,2.49795,5.51205,7.9819503
1680011039010,1191027365468437,2.5440001,5.53095,7.9459505
1680011039012,1191027367970591,2.4739501,5.406,8.04195
1680011039015,1191027370472976,2.56305,5.418,7.9420505
1680011039018,1191027372975082,2.529,5.4540005,7.977
1680011039021,1191027375477236,2.4840002,5.44005,8.061001
1680011039022,1191027377979466,2.5150502,5.445,8.0779505
1680011039025,1191027380481851,2.5099502,5.4690003,7.8739505
1680011039028,1191027382984015,2.5530002,5.394,8.028001
1680011039031,1191027385486246,2.49105,5.3419504,8.03295
1680011039034,1191027387988323,2.505,5.37795,8.023951
1680011039038,1191027390490553,2.4070501,5.3920503,8.03505
1680011039040,1191027392992928,2.4480002,5.36595,7.9680004
1680011039042,1191027395636389,2.5510502,5.4760504,7.9920006
1680011039043,1191027397997313,2.4120002,5.29605,7.872
1680011039046,1191027400499466,2.42895,5.394,7.9270506
1680011039047,1191027403001620,2.4859502,5.4420004,8.0119505
1680011039050,1191027405503995,2.52705,5.2909503,7.93905
1680011039052,1191027408006226,2.42895,5.4019504,7.9300504
1680011039055,1191027410508380,2.5080001,5.4640503,7.9300504
1680011039058,1191027413010764,2.532,5.42595,7.9489503
1680011039060,1191027415512735,2.469,5.373,7.9150505
1680011039062,1191027418015120,2.4810002,5.4619503,7.9180503
1680011039065,1191027420517274,2.57205,5.3920503,7.9540505
1680011039068,1191027423019735,2.42895,5.3560505,7.99695
1680011039070,1191027425521923,2.53395,5.313,7.9540505
1680011039075,1191027428024077,2.50305,5.41095,8.02305
1680011039077,1191027430526231,2.5200002,5.3419504,7.9849505
1680011039079,1191027433028452,2.45295,5.4540005,8.005051
1680011039081,1191027435530605,2.457,5.385,8.0119505
1680011039083,1191027438032990,2.5129502,5.2990503,7.9560003
1680011039085,1191027440535221,2.5480502,5.3320503,8.088
1680011039088,1191027443037375,2.57505,5.2990503,8.04705
1680011039090,1191027445539534,2.4769502,5.3370004,8.03505
1680011039092,1191027448041687,2.52195,5.256,8.03505
1680011039095,1191027450544072,2.505,5.3149505,7.9459505
1680011039098,1191027453046226,2.5170002,5.1480002,8.02305
1680011039100,1191027455548467,2.5459502,5.34705,7.9339504
1680011039102,1191027458050620,2.4859502,5.169,7.9630504
1680011039105,1191027460553005,2.59605,5.2530003,8.04705
1680011039108,1191027463055159,2.5170002,5.24805,7.9920006
1680011039112,1191027465557327,2.60805,5.3629503,8.029051
1680011039116,1191027468059481,2.601,5.229,8.03295
1680011039117,1191027470561942,2.66805,5.2390504,7.9680004
1680011039118,1191027473064096,2.6179502,5.3149505,8.092051
1680011039121,1191027475566250,2.5770001,5.1790504,8.03505
1680011039125,1191027478068510,2.6160002,5.229,8.001
1680011039126,1191027480570664,2.592,5.24595,8.104051
1680011039128,1191027483072817,2.5819502,5.181,8.1
1680011039130,1191027485575202,2.6160002,5.26305,8.128051
1680011039132,1191027488077433,2.6920502,5.30595,8.00895
1680011039135,1191027490579577,2.6179502,5.313,8.158951
1680011039137,1191027493081730,2.6250002,5.32305,7.9939504
1680011039141,1191027495584115,2.6920502,5.4019504,8.00895
1680011039143,1191027498086269,2.697,5.53305,7.9729505
1680011039145,1191027500588519,2.6490002,5.4210005,7.9750504
1680011039149,1191027503090673,2.5890002,5.4900002,8.02305
1680011039151,1191027505593057,2.57205,5.57205,8.04705
1680011039155,1191027508095211,2.62995,5.5020003,7.9200006
1680011039156,1191027510597433,2.5890002,5.598,7.93695
1680011039159,1191027513099510,2.697,5.6959505,8.03295
1680011039160,1191027515601971,2.6419501,5.65605,8.149051
1680011039162,1191027518104125,2.6590502,5.6509504,8.0119505
1680011039165,1191027520606356,2.697,5.6460004,8.059051
1680011039168,1191027523108528,2.60595,5.7439504,7.9630504
1680011039171,1191027525610682,2.6539502,5.74695,7.9440002
1680011039172,1191027528112835,2.5840502,5.7439504,8.04705
1680011039175,1191027530614989,2.6490002,5.6959505,8.08005
1680011039178,1191027533117461,2.6250002,5.7439504,7.9579506
1680011039180,1191027535619615,2.57505,5.74905,8.02305
1680011039182,1191027538121999,2.601,5.7510004,7.9680004
1680011039188,1191027540623922,2.57505,5.79195,8.029051
1680011039190,1191027543126331,2.60595,5.7229505,8.005051
1680011039191,1191027545628485,2.6470501,5.742,7.9099503
1680011039195,1191027548130946,2.604,5.7130504,7.9440002
1680011039196,1191027550633100,2.6130002,5.7990003,7.932
1680011039198,1191027553135254,2.60595,5.67495,7.965
1680011039200,1191027555637393,2.60595,5.75895,8.01
1680011039204,1191027558139624,2.5800002,5.7109504,8.002951
1680011039205,1191027560641778,2.56005,5.6959505,7.8700504
1680011039208,1191027563144162,2.55795,5.7390003,7.9420505
1680011039211,1191027565646302,2.592,5.6670003,8.03295
1680011039212,1191027568148533,2.592,5.7660003,7.9680004
1680011039215,1191027570650687,2.5440001,5.6650505,8.1
1680011039218,1191027573152841,2.6490002,5.6839504,7.839
1680011039221,1191027575655239,2.57205,5.5740004,7.8960004
1680011039224,1191027578157470,2.5099502,5.71995,8.005051
1680011039226,1191027580659624,2.56305,5.7060003,7.8960004
1680011039229,1191027583161778,2.6110501,5.64405,7.932
1680011039232,1191027585664157,2.59605,5.6340003,7.9890003
1680011039234,1191027588166311,2.59605,5.6410503,8.00895
1680011039236,1191027590668465,2.5819502,5.64795,8.01
1680011039238,1191027593170696,2.63205,5.6650505,7.8769503
1680011039240,1191027595673080,2.604,5.6580005,7.9300504
1680011039243,1191027598175220,2.6250002,5.5960503,8.005051
1680011039246,1191027600677374,2.6560502,5.6910005,7.83405
1680011039248,1191027603179605,2.66595,5.67,7.9150505
1680011039251,1191027605681759,2.6779501,5.715,7.9630504
1680011039254,1191027608183913,2.601,5.6239505,8.005051
1680011039255,1191027610686297,2.5200002,5.6340003,7.8910503
1680011039258,1191027613188528,2.57205,5.61495,7.8619504
1680011039262,1191027615690682,2.5890002,5.6670003,7.965
1680011039264,1191027618192822,2.604,5.5669503,7.9849505
1680011039266,1191027620694976,2.637,5.6989503,7.9680004
1680011039268,1191027623197360,2.73105,5.6599503,7.93905
1680011039271,1191027625699591,2.5800002,5.58795,7.9819503
1680011039274,1191027628201745,2.6539502,5.6599503,8.03295
1680011039277,1191027630704110,2.48895,5.61,7.965
1680011039278,1191027633206264,2.6200502,5.66295,7.9219503
1680011039281,1191027635708418,2.59605,5.5530005,8.00895
1680011039283,1191027638210572,2.5150502,5.71995,8.001
1680011039287,1191027640713020,2.5510502,5.67,7.9920006
1680011039288,1191027643215173,2.6250002,5.6340003,7.9219503
1680011039293,1191027645717327,2.5890002,5.64405,7.965
1680011039293,1191027648219481,2.53395,5.6670003,7.932
1680011039295,1191027650721707,2.59395,5.7010503,8.029051
1680011039301,1191027653223861,2.5150502,5.6460004,7.9680004
1680011039302,1191027655726245,2.56305,5.61705,8.059051
1680011039304,1191027658228476,2.56005,5.61705,7.9680004
1680011039306,1191027660730625,2.628,5.64405,7.9939504
1680011039308,1191027663232779,2.5560002,5.622,8.029051
1680011039312,1191027665734933,2.55795,5.5410004,8.017051
1680011039314,1191027668237317,2.52195,5.5930505,8.04
1680011039316,1191027670739471,2.5510502,5.54295,7.9609504
1680011039319,1191027673241909,2.5459502,5.63595,8.145
1680011039327,1191027675743832,2.4790502,5.53305,8.0119505
1680011039327,1191027678246216,2.4409502,5.53095,8.05395
1680011039327,1191027680748370,2.56005,5.5690503,7.9099503
1680011039328,1191027683250611,2.424,5.5020003,7.9750504
1680011039330,1191027685752765,2.436,5.6269503,7.8960004
1680011039333,1191027688255149,2.4480002,5.57205,7.9819503
1680011039337,1191027690757303,2.39805,5.5090504,8.097
1680011039339,1191027693259428,2.4120002,5.55495,8.028001
1680011039342,1191027695761659,2.4100502,5.565,8.028001
1680011039343,1191027698264044,2.42895,5.5410004,7.93695
1680011039345,1191027700766197,2.319,5.5690503,8.121
1680011039348,1191027703268351,2.4,5.5360503,8.028001
1680011039351,1191027705770529,2.36595,5.54295,8.1
1680011039354,1191027708272683,2.38995,5.61495,8.03295
1680011039355,1191027710774837,2.35695,5.505,7.99695
1680011039358,1191027713277298,2.30205,5.54505,8.02095
1680011039361,1191027715779452,2.3809502,5.5020003,7.9680004
1680011039362,1191027718281625,2.331,5.4760504,7.9560003
1680011039367,1191027720783779,2.3430002,5.5090504,7.9939504
1680011039369,1191027723286163,2.33295,5.48295,8.073
1680011039371,1191027725788303,2.3089502,5.505,7.9420505
1680011039375,1191027728290534,2.3860502,5.64405,7.9750504
1680011039376,1191027730792919,2.3470502,5.505,7.8550506
1680011039379,1191027733295073,2.4430501,5.5360503,8.0119505
1680011039381,1191027735797226,2.3089502,5.4570003,7.977
1680011039383,1191027738299404,2.3830502,5.4469504,7.9009504
1680011039387,1191027740801635,2.48895,5.4540005,7.9560003
1680011039389,1191027743304020,2.4450002,5.466,8.01
1680011039393,1191027745806184,2.46,5.4570003,8.04195
1680011039396,1191027748308337,2.5080001,5.517,7.80705
1680011039396,1191027750810568,2.565,5.4810004,7.93905
1680011039399,1191027753312722,2.6110501,5.493,7.9729505
1680011039401,1191027755814876,2.5080001,5.48295,8.00895
1680011039404,1191027758317015,2.56005,5.4210005,7.9540505
1680011039406,1191027760819476,2.565,5.53305,8.06595
1680011039409,1191027763321630,2.4720001,5.4949503,7.9270506
1680011039412,1191027765823784,2.5150502,5.4469504,7.977
1680011039414,1191027768326179,2.55795,5.41095,7.9150505
1680011039416,1191027770828332,2.5150502,5.37795,8.083051
1680011039419,1191027773330486,2.59905,5.42805,7.93905
1680011039421,1191027775832717,2.6230502,5.3920503,8.04195
1680011039423,1191027778335102,2.60595,5.4019504,7.9750504
1680011039426,1191027780837265,2.628,5.4040504,7.9870505
1680011039428,1191027783339495,2.6850002,5.4690003,8.001
1680011039431,1191027785841572,2.62995,5.37795,8.128051
1680011039434,1191027788343803,2.73105,5.45895,7.99695
1680011039435,1191027790846203,2.6899502,5.42805,8.02095
1680011039438,1191027793348433,2.63505,5.3920503,7.9920006
1680011039441,1191027795850510,2.63895,5.4949503,8.017051
1680011039442,1191027798352741,2.6800501,5.4540005,7.9680004
1680011039445,1191027800854895,2.7229502,5.4210005,8.00895
1680011039450,1191027803357068,2.7229502,5.4880505,7.9099503
1680011039452,1191027805859529,2.70705,5.4300003,8.03505
1680011039454,1191027808361683,2.7280502,5.5690503,7.9750504
1680011039456,1191027810864068,2.7900002,5.54505,8.01
1680011039459,1191027813365991,2.7499502,5.54295,8.145
1680011039461,1191027815868289,2.8960502,5.45205,7.977
1680011039463,1191027818370442,2.7949502,5.5189505,8.083051
1680011039465,1191027820872673,2.778,5.5740004,7.9849505
1680011039470,1191027823374827,2.7829502,5.55,8.158951
1680011039471,1191027825877212,2.79795,5.58405,8.085
1680011039474,1191027828379366,2.7589502,5.493,7.9800005
1680011039476,1191027830881596,2.70405,5.5620003,8.104051
1680011039479,1191027833383750,2.742,5.58795,8.03505
1680011039481,1191027835885909,2.8189502,5.50005,7.9560003
1680011039483,1191027838388294,2.7210002,5.58795,8.0119505
1680011039488,1191027840890524,2.7570002,5.6269503,8.0449505
1680011039490,1191027843392678,2.70705,5.5930505,8.125951
1680011039492,1191027845894842,2.6830502,5.54505,8.16705
1680011039494,1191027848397227,2.661,5.5410004,8.023951
1680011039496,1191027850899381,2.6590502,5.5600505,8.191051
1680011039499,1191027853401611,2.59605,5.44005,8.071051
1680011039501,1191027855903765,2.6539502,5.47305,8.0119505
1680011039503,1191027858406130,2.63505,5.52405,8.104051
1680011039506,1191027860908284,2.6560502,5.45205,8.03505
1680011039511,1191027863410438,2.59395,5.4810004,8.002951
1680011039511,1191027865912668,2.63505,5.5260005,8.017051
1680011039515,1191027868415044,2.53695,5.4540005,8.083051
1680011039516,1191027870917198,2.6779501,5.4139504,8.00895
1680011039519,1191027873419352,2.62995,5.43795,7.96995
1680011039521,1191027875921582,2.5510502,5.44995,8.016001
1680011039524,1191027878423736,2.59605,5.373,8.0119505
1680011039526,1191027880925957,2.63505,5.3899503,8.005051
1680011039531,1191027883428342,2.45295,5.3250003,7.9870505
1680011039532,1191027885930572,2.5510502,5.466,7.9510503
1680011039535,1191027888432726,2.56305,5.4640503,8.001
1680011039539,1191027890934851,2.532,5.3869505,7.8790503
1680011039539,1191027893437236,2.4499502,5.47305,8.005051
1680011039541,1191027895939390,2.5510502,5.5189505,7.9129505
1680011039543,1191027898441544,2.568,5.4900002,7.9510503
1680011039546,1191027900943774,2.4790502,5.418,7.8960004
1680011039549,1191027903446174,2.46195,5.4210005,7.8910503
1680011039551,1191027905948328,2.52495,5.4469504,8.03505
1680011039554,1191027908450482,2.4859502,5.43795,7.8240004
1680011039556,1191027910952615,2.4790502,5.418,7.8529506
1680011039559,1191027913454846,2.4769502,5.478,8.017051
1680011039564,1191027915957231,2.50305,5.44995,7.8910503
1680011039565,1191027918459385,2.436,5.44005,7.9540505
1680011039566,1191027920961525,2.4810002,5.44995,7.8840003
1680011039568,1191027923463755,2.5080001,5.4469504,7.9729505
1680011039570,1191027925965909,2.4120002,5.55,7.8739505
1680011039573,1191027928468063,2.4139502,5.466,7.9849505
1680011039575,1191027930970525,2.4120002,5.48295,7.8600006
1680011039579,1191027933472673,2.39505,5.45205,7.9890003
1680011039581,1191027935974827,2.4720001,5.41095,7.965
1680011039583,1191027938476981,2.38995,5.478,7.86705
1680011039585,1191027940979366,2.46705,5.4619503,7.8859506
1680011039589,1191027943481520,2.4139502,5.48295,7.932
1680011039591,1191027945983971,2.4169502,5.466,8.002951
1680011039593,1191027948485894,2.3740501,5.43795,7.9579506
1680011039595,1191027950988279,2.3830502,5.5530005,7.9080005
1680011039601,1191027953490403,2.4139502,5.517,7.932
1680011039602,1191027955992633,2.3860502,5.4210005,7.9030504
1680011039604,1191027958494787,2.364,5.4970503,7.9420505
1680011039606,1191027960997172,2.4450002,5.4900002,7.93695
1680011039609,1191027963499326,2.469,5.48505,7.9560003
1680011039611,1191027966001480,2.4550502,5.5189505,7.8220506
1680011039613,1191027968503710,2.53695,5.466,7.9990506
1680011039615,1191027971005864,2.50305,5.51205,7.99695
1680011039620,1191027973508018,2.4409502,5.5140004,7.89795
1680011039621,1191027976010144,2.469,5.4570003,7.9849505
1680011039624,1191027978512606,2.5530002,5.538,8.125951
1680011039629,1191027981014759,2.42895,5.5620003,8.092051
1680011039630,1191027983517144,2.5080001,5.4229503,8.017051
1680011039633,1191027986019384,2.53695,5.5410004,7.9870505
1680011039635,1191027988521538,2.6160002,5.4949503,8.059051
1680011039638,1191027991023692,2.5410001,5.5020003,8.029051
1680011039640,1191027993526153,2.5819502,5.60295,7.9870505
1680011039643,1191027996050230,2.6440501,5.51205,8.03295
1680011039644,1191027998530461,2.5459502,5.53305,7.9630504
1680011039646,1191028001032615,2.57505,5.5740004,8.016001
1680011039649,1191028003534845,2.70405,5.4949503,7.9249506
1680011039651,1191028006036999,2.5459502,5.4970503,8.064
1680011039654,1191028008539394,2.46195,5.57595,8.158951
1680011039655,1191028011041625,2.661,5.55495,8.052
1680011039659,1191028013543702,2.63895,5.5480504,8.028001
1680011039660,1191028016045932,2.56005,5.55,8.122951
1680011039663,1191028018548086,2.6779501,5.6580005,8.002951
1680011039665,1191028021050475,2.6250002,5.5740004,8.04705
1680011039669,1191028023552706,2.6560502,5.50005,7.9489503
1680011039671,1191028026054860,2.5890002,5.565,8.092051
1680011039675,1191028028557047,2.6560502,5.5740004,8.016001
1680011039677,1191028031059432,2.5890002,5.5189505,8.11905
1680011039679,1191028033561586,2.63895,5.4810004,8.11905
1680011039681,1191028036063740,2.604,5.4760504,7.9630504
1680011039683,1191028038565970,2.5890002,5.55495,8.00895
1680011039685,1191028041068148,2.6110501,5.50005,8.035951
1680011039689,1191028043570302,2.57205,5.5290003,8.112
1680011039691,1191028046072687,2.59395,5.48295,8.064
1680011039693,1191028048574841,2.6110501,5.505,8.052
1680011039696,1191028051077302,2.5840502,5.5189505,8.064
1680011039699,1191028053579220,2.55795,5.44005,8.03295
1680011039701,1191028056081605,2.5440001,5.5189505,8.071051
1680011039703,1191028058583759,2.53695,5.5360503,7.9890003
1680011039706,1191028061085990,2.56005,5.45205,7.96995
1680011039709,1191028063588157,2.5560002,5.4540005,8.01
1680011039713,1191028066090542,2.46495,5.5090504,8.016001
1680011039715,1191028068592696,2.4769502,5.5090504,7.9849505
1680011039717,1191028071094850,2.46,5.4640503,8.005051
1680011039719,1191028073597080,2.628,5.493,8.03295
1680011039721,1191028076099234,2.52195,5.41095,8.023951
1680011039724,1191028078601619,2.50095,5.4810004,8.049001
1680011039726,1191028081103850,2.5099502,5.60295,7.9030504
1680011039729,1191028083606014,2.496,5.517,7.8289504
1680011039731,1191028086108167,2.43405,5.53095,7.9219503
1680011039733,1191028088610552,2.4720001,5.6080503,7.93695
1680011039735,1191028091112706,2.49795,5.52405,7.9680004
1680011039739,1191028093614841,2.532,5.58405,7.9939504
1680011039741,1191028096117072,2.50095,5.53095,8.112
1680011039743,1191028098619456,2.4810002,5.493,8.076
1680011039745,1191028101121610,2.4409502,5.5620003,8.104051
1680011039750,1191028103623769,2.48895,5.5189505,8.03295
1680011039752,1191028106126000,2.4499502,5.54505,8.005051
1680011039754,1191028108628153,2.5080001,5.5260005,7.9819503
1680011039757,1191028111130538,2.46495,5.5290003,8.03295
1680011039759,1191028113632692,2.50095,5.5620003,7.9990506
1680011039761,1191028116134903,2.5440001,5.4970503,8.073
1680011039762,1191028118636980,2.5459502,5.5669503,8.002951
1680011039765,1191028121139210,2.5890002,5.57205,7.9990506
1680011039769,1191028123641364,2.5510502,5.57205,7.9870505
1680011039771,1191028126143749,2.52495,5.51205,7.965
1680011039773,1191028128646001,2.5440001,5.67705,8.04195
1680011039775,1191028131148155,2.5200002,5.5860004,7.9920006
1680011039779,1191028133650539,2.5560002,5.5669503,8.071051
1680011039780,1191028136152693,2.5170002,5.6080503,7.9819503
1680011039783,1191028138654832,2.565,5.5909505,8.035951
1680011039787,1191028141156986,2.6130002,5.61705,8.03295
1680011039790,1191028143659447,2.59605,5.4949503,7.9729505
1680011039792,1191028146161601,2.5819502,5.4690003,8.101951
1680011039794,1191028148663755,2.6850002,5.5020003,7.8840003
1680011039796,1191028151165909,2.6160002,5.5020003,7.9750504
1680011039801,1191028153668140,2.63895,5.5530005,7.83405
1680011039801,1191028156170293,2.6850002,5.5090504,7.99695
1680011039803,1191028158672678,2.6230502,5.55495,7.9459505
1680011039806,1191028161174818,2.6110501,5.54505,7.9009504
1680011039809,1191028163677049,2.6250002,5.52405,7.8790503
1680011039812,1191028166179203,2.5560002,5.50005,7.9009504
1680011039813,1191028168681356,2.57505,5.4760504,7.96995
1680011039817,1191028171183741,2.5800002,5.4970503,7.872
1680011039819,1191028173685972,2.60595,5.4469504,7.9009504
1680011039821,1191028176188126,2.56005,5.505,7.7710505
1680011039825,1191028178690279,2.5410001,5.598,8.0119505
1680011039827,1191028181192673,2.55795,5.4469504,7.9680004
1680011039830,1191028183694827,2.5819502,5.55705,8.0119505
1680011039833,1191028186196981,2.4790502,5.538,7.8529506
1680011039835,1191028188699212,2.505,5.5260005,8.016001
1680011039837,1191028191201596,2.50305,5.52405,7.8820505
1680011039840,1191028193703750,2.5440001,5.5860004,7.9819503
1680011039842,1191028196205904,2.60805,5.53095,7.8790503
1680011039844,1191028198708135,2.565,5.53095,7.9579506
1680011039846,1191028201210289,2.5840502,5.598,8.005051
1680011039849,1191028203712437,2.52705,5.5740004,7.8790503
1680011039851,1191028206214822,2.5510502,5.4970503,7.8529506
1680011039853,1191028208717053,2.57505,5.6239505,7.93905
1680011039856,1191028211219207,2.55795,5.622,7.9849505
1680011039859,1191028213721356,2.57205,5.5290003,8.0119505
1680011039863,1191028216223510,2.53395,5.57205,7.9080005
1680011039864,1191028218725895,2.4409502,5.5740004,8.00895
1680011039866,1191028221228126,2.5129502,5.4640503,8.017051
1680011039869,1191028223730510,2.5099502,5.51205,8.001
1680011039871,1191028226232428,2.53395,5.5669503,8.03505
1680011039874,1191028228734813,2.49105,5.4880505,7.977
1680011039876,1191028231236967,2.50305,5.53305,7.9339504
1680011039879,1191028233739121,2.55795,5.5810504,7.9680004
1680011039881,1191028236241591,2.52495,5.5600505,7.9750504
1680011039883,1191028238743745,2.53905,5.5960503,8.002951
1680011039886,1191028241245899,2.5129502,5.64405,8.023951
1680011039889,1191028243748053,2.50095,5.54295,7.977
1680011039891,1191028246250275,2.59905,5.4900002,7.9030504
1680011039894,1191028248752429,2.52495,5.55495,8.029051
1680011039896,1191028251254890,2.5870502,5.5360503,7.86705
1680011039900,1191028253757048,2.4769502,5.5620003,7.93695
1680011039903,1191028256259202,2.5170002,5.53305,7.9270506
1680011039904,1191028258761356,2.496,5.598,7.977
1680011039906,1191028261263740,2.601,5.60295,7.9800005
1680011039909,1191028263765894,2.52495,5.6410503,7.9750504
1680011039911,1191028266268068,2.57205,5.54505,7.9939504
1680011039914,1191028268770299,2.4720001,5.61705,7.977
1680011039915,1191028271272683,2.46195,5.6910005,7.9680004
1680011039919,1191028273774837,2.60595,5.6200504,7.8820505
1680011039921,1191028276276995,2.49795,5.6509504,7.89795
1680011039923,1191028278779226,2.5099502,5.6599503,7.977
1680011039926,1191028281281303,2.5150502,5.5999503,7.93905
1680011039930,1191028283783764,2.56305,5.6080503,7.90605
1680011039931,1191028286285918,2.5129502,5.64405,7.9459505
1680011039933,1191028288788164,2.59395,5.6389503,7.9129505
1680011039937,1191028291290318,2.49105,5.64405,7.86495
1680011039940,1191028293792472,2.60805,5.5669503,7.9540505
1680011039942,1191028296294595,2.469,5.61,7.9180503
1680011039943,1191028298797057,2.56305,5.6530504,7.9440002
1680011039950,1191028301299211,2.56995,5.61705,7.932
1680011039950,1191028303801365,2.52195,5.64795,7.93905
1680011039951,1191028306303749,2.5890002,5.66295,8.029051
1680011039955,1191028308805912,2.74005,5.6650505,7.9680004
1680011039956,1191028311308066,2.67105,5.65605,8.04195
1680011039959,1191028313810297,2.66595,5.7060003,7.9990506
1680011039961,1191028316312681,2.66805,5.6599503,8.03295
1680011039963,1191028318814835,2.6899502,5.703,8.016001
1680011039966,1191028321316990,2.73495,5.58795,8.0779505
1680011039969,1191028323819144,2.661,5.8180504,7.9990506
1680011039971,1191028326321375,2.7469501,5.67,8.0119505
1680011039975,1191028328823759,2.69895,5.60505,7.9009504
1680011039976,1191028331325932,2.70405,5.7010503,7.9420505
1680011039979,1191028333828086,2.80695,5.67495,8.04
1680011039981,1191028336330317,2.7930002,5.61,8.101951
1680011039983,1191028338832471,2.742,5.60505,7.965
1680011039986,1191028341334625,2.709,5.68695,8.04195
1680011039990,1191028343837013,2.7210002,5.61705,8.05395
1680011039991,1191028346339244,2.6509502,5.6239505,7.93695
1680011039995,1191028348841398,2.6920502,5.68695,8.06805
1680011039996,1191028351343552,2.6749501,5.67,8.04195
1680011039999,1191028353845941,2.7229502,5.55495,8.03505
1680011040001,1191028356348095,2.59605,5.6340003,8.125951
1680011040004,1191028358850249,2.63205,5.6080503,8.116051
1680011040006,1191028361352480,2.592,5.6200504,8.002951
1680011040009,1191028363854864,2.6470501,5.7250504,8.116051
1680011040012,1191028366357023,2.59605,5.6340003,8.023951
1680011040014,1191028368859177,2.5480502,5.5860004,8.017051
1680011040016,1191028371361408,2.6250002,5.6239505,8.083051
1680011040019,1191028373863562,2.5890002,5.58405,7.9339504
1680011040021,1191028376365941,2.6130002,5.5999503,7.9489503
1680011040024,1191028378868095,2.568,5.7130504,7.9459505
1680011040026,1191028381370326,2.57505,5.7109504,8.088
1680011040029,1191028383872480,2.565,5.7250504,8.01
1680011040031,1191028386374850,2.457,5.6509504,7.9489503
1680011040034,1191028388877004,2.46495,5.6269503,8.035951
1680011040036,1191028391379158,2.469,5.6460004,8.061001
1680011040039,1191028393881389,2.4499502,5.6959505,7.9459505
1680011040041,1191028396383538,2.38995,5.7109504,7.8960004
1680011040043,1191028398885692,2.39805,5.727,7.9849505
1680011040046,1191028401388076,2.38995,5.61,7.9729505
1680011040051,1191028403890307,2.4139502,5.6910005,7.9510503
1680011040052,1191028406392437,2.35395,5.6580005,8.002951
1680011040054,1191028408894822,2.3500502,5.703,7.86705
1680011040056,1191028411396745,2.35395,5.6599503,7.9920006
1680011040059,1191028413899129,2.45295,5.58795,7.9849505
1680011040061,1191028416401369,2.3430002,5.6509504,8.017051
1680011040063,1191028418903754,2.331,5.7109504,7.9849505
1680011040066,1191028421405907,2.256,5.6839504,8.017051
1680011040071,1191028423908061,2.2800002,5.6650505,8.03295
1680011040072,1191028426410206,2.39505,5.7660003,8.023951
1680011040074,1191028428912437,2.3500502,5.6940002,7.9420505
1680011040076,1191028431414591,2.32305,5.727,8.02095
1680011040079,1191028433916975,2.3830502,5.6580005,8.005051
1680011040081,1191028436419206,2.3089502,5.6200504,7.9990506
1680011040083,1191028438921283,2.3710501,5.60295,7.977
1680011040088,1191028441423514,2.38995,5.5810504,7.8840003
1680011040090,1191028443925668,2.3860502,5.5960503,7.9249506
1680011040092,1191028446428052,2.42895,5.63205,8.017051
1680011040094,1191028448930283,2.4139502,5.622,8.029051
1680011040096,1191028451432437,2.4190502,5.61705,7.9819503
1680011040099,1191028453934591,2.43405,5.5690503,7.9009504
1680011040101,1191028456436975,2.46195,5.55495,8.0119505
1680011040105,1191028458939119,2.4859502,5.6719503,7.9339504
1680011040106,1191028461441273,2.43105,5.6080503,7.9849505
1680011040109,1191028463943504,2.5080001,5.71995,7.8790503
1680011040111,1191028466445889,2.5480502,5.6940002,8.05605
1680011040114,1191028468948042,2.55795,5.6839504,8.112
1680011040116,1191028471450186,2.592,5.61495,7.9729505
1680011040118,1191028473952417,2.5890002,5.622,8.00895
1680011040121,1191028476454571,2.6850002,5.6959505,7.9300504
1680011040125,1191028478956956,2.60595,5.7130504,7.9870505
1680011040127,1191028481459109,2.5890002,5.7300005,8.00895
1680011040130,1191028483961340,2.5770001,5.6340003,8.0119505
1680011040132,1191028486463494,2.60595,5.6599503,7.9990506
1680011040135,1191028488965648,2.6470501,5.6290503,8.071051
1680011040138,1191028491467802,2.63505,5.5960503,7.9680004
1680011040140,1191028493970268,2.57205,5.61495,8.03505
1680011040141,1191028496472422,2.73105,5.57205,8.035951
1680011040143,1191028498974576,2.7570002,5.57595,8.029051
1680011040147,1191028501476961,2.592,5.6790004,8.01
1680011040150,1191028503979124,2.69895,5.7109504,8.03295
1680011040152,1191028506481278,2.7210002,5.52405,7.8550506
1680011040156,1191028508983432,2.6800501,5.64405,8.005051
1680011040157,1191028511485894,2.6179502,5.61495,7.9560003
1680011040159,1191028513988048,2.6179502,5.68695,7.99695
1680011040163,1191028516490177,2.6440501,5.66295,7.9339504
1680011040164,1191028518992331,2.6539502,5.6670003,7.9099503
1680011040166,1191028521494562,2.6560502,5.6080503,8.05395
1680011040169,1191028523996716,2.6490002,5.70795,7.99695
1680011040171,1191028526499080,2.66295,5.63205,7.8820505
1680011040174,1191028529001311,2.60805,5.598,7.8600006
1680011040176,1191028531503465,2.592,5.6119504,7.8169503
1680011040179,1191028534005619,2.565,5.63205,7.9009504
1680011040181,1191028536507769,2.48895,5.598,7.90605
1680011040183,1191028539010153,2.4049501,5.5090504,7.9150505
1680011040186,1191028541512384,2.49105,5.58795,8.00895
1680011040189,1191028544014538,2.39805,5.6599503,7.8790503
1680011040192,1191028546516677,2.469,5.54295,7.9129505
1680011040195,1191028549019062,2.50305,5.622,7.8510003
1680011040196,1191028551521215,2.4019501,5.5620003,7.9849505
1680011040200,1191028554023388,2.319,5.55705,7.8120003
1680011040202,1191028556525850,2.292,5.51205,8.001
1680011040204,1191028559028004,2.3500502,5.61495,7.8820505
1680011040206,1191028561530157,2.25195,5.60295,7.8889503
1680011040210,1191028564032311,2.2399502,5.51205,7.8289504
1680011040211,1191028566534533,2.127,5.5810504,7.9030504
1680011040213,1191028569036687,2.232,5.68695,7.89795
1680011040216,1191028571538841,2.2369502,5.5360503,7.9249506
1680011040219,1191028574041225,2.21295,5.5789504,7.8820505
1680011040221,1191028576543456,2.331,5.5090504,7.8769503
1680011040224,1191028579045619,2.33505,5.5690503,7.8889503
1680011040226,1191028581548004,2.26305,5.55495,7.9099503
1680011040229,1191028584049927,2.21805,5.47305,7.90605
1680011040231,1191028586552311,2.23005,5.51205,7.8510003
1680011040234,1191028589054542,2.26095,5.61705,7.8940506
1680011040238,1191028591556927,2.19405,5.4970503,7.8430505
1680011040241,1191028594058850,2.28495,5.6239505,7.7860503
1680011040242,1191028596561234,2.3110502,5.5360503,7.8190503
1680011040244,1191028599063388,2.23005,5.5360503,7.76205
1680011040246,1191028601565557,2.3110502,5.5260005,7.8600006
1680011040249,1191028604068019,2.3760002,5.58405,7.8169503
1680011040251,1191028606570173,2.469,5.5860004,7.90605
1680011040254,1191028609072326,2.36205,5.53095,7.9099503
1680011040256,1191028611574475,2.388,5.4619503,7.9200006
1680011040261,1191028614076706,2.4139502,5.48505,7.89795
1680011040261,1191028616578860,2.4790502,5.5620003,7.9420505
1680011040263,1191028619081321,2.49105,5.63205,7.9630504
1680011040266,1191028621583384,2.5800002,5.5189505,8.181001
1680011040269,1191028624085615,2.5459502,5.5260005,8.001
1680011040271,1191028626587769,2.5800002,5.5909505,7.9099503
1680011040275,1191028629090154,2.604,5.5260005,8.016001
1680011040277,1191028631592302,2.50095,5.57595,8.085
1680011040280,1191028634094533,2.6470501,5.54295,7.8600006
1680011040282,1191028636596687,2.63205,5.5480504,8.02305
1680011040283,1191028639099072,2.6230502,5.57595,8.00895
1680011040286,1191028641601226,2.7280502,5.57205,7.8769503
1680011040289,1191028644103403,2.70195,5.5960503,7.9729505
1680011040291,1191028646605634,2.67105,5.5669503,8.002951
1680011040294,1191028649107788,2.6920502,5.53095,7.9680004
1680011040296,1191028651610173,2.7499502,5.6200504,8.001
1680011040299,1191028654112346,2.7280502,5.61,8.01
1680011040301,1191028656614576,2.76195,5.54505,8.04705
1680011040304,1191028659116730,2.6490002,5.6080503,8.029051
1680011040306,1191028661618884,2.6899502,5.6080503,8.052
1680011040309,1191028664121047,2.6850002,5.5189505,8.0119505
1680011040313,1191028666623508,2.601,5.64795,7.9990506
1680011040315,1191028669125662,2.70195,5.5789504,8.059051
1680011040317,1191028671627816,2.6850002,5.6460004,8.1
1680011040321,1191028674129942,2.709,5.5789504,8.061001
1680011040322,1191028676632327,2.60595,5.5810504,7.9729505
1680011040324,1191028679134480,2.56005,5.6269503,8.005051
1680011040326,1191028681636711,2.5890002,5.54505,7.9270506
1680011040330,1191028684139115,2.493,5.517,7.8889503
1680011040331,1191028686641269,2.57205,5.517,8.05395
1680011040334,1191028689143423,2.53695,5.6200504,8.04195
1680011040336,1191028691645576,2.5129502,5.5740004,7.965
1680011040339,1191028694147807,2.532,5.6650505,7.96995
1680011040341,1191028696650192,2.529,5.5909505,7.8700504
1680011040344,1191028699152346,2.4859502,5.5669503,7.9300504
1680011040346,1191028701654500,2.4769502,5.63595,7.9510503
1680011040351,1191028704156715,2.43105,5.5930505,7.9129505
1680011040353,1191028706658869,2.4,5.6200504,7.9750504
1680011040355,1191028709161023,2.52495,5.60505,7.9150505
1680011040357,1191028711663408,2.5080001,5.598,7.9200006
1680011040360,1191028714165638,2.42205,5.6239505,7.9560003
1680011040362,1191028716667812,2.4499502,5.598,7.9870505
1680011040364,1191028719169966,2.52195,5.6119504,8.02095
1680011040367,1191028721672351,2.4840002,5.6959505,7.9680004
1680011040371,1191028724174505,2.4840002,5.6790004,8.028001
1680011040372,1191028726676658,2.4840002,5.58795,7.9270506
1680011040374,1191028729178889,2.5440001,5.5810504,8.02305
1680011040376,1191028731681274,2.4169502,5.6670003,8.029051
1680011040379,1191028734183428,2.5129502,5.598,8.02305
1680011040381,1191028736685351,2.48895,5.7010503,7.9920006
1680011040384,1191028739187816,2.5200002,5.6389503,8.104051
1680011040389,1191028741689970,2.5080001,5.6340003,8.04705
1680011040390,1191028744192355,2.57505,5.5530005,8.03505
1680011040392,1191028746694509,2.59905,5.598,7.9560003
1680011040395,1191028749196672,2.5510502,5.61,8.04
1680011040397,1191028751698826,2.6179502,5.58795,7.93695
1680011040399,1191028754201288,2.6470501,5.67,8.089951
1680011040402,1191028756703442,2.5800002,5.6580005,7.93905
1680011040404,1191028759205596,2.5819502,5.6670003,8.017051
1680011040406,1191028761707840,2.62995,5.5260005,8.02095
1680011040409,1191028764209994,2.697,5.6269503,7.9579506
1680011040411,1191028766712148,2.6179502,5.60295,8.059051
1680011040414,1191028769214533,2.604,5.5620003,7.9729505
1680011040416,1191028771716773,2.66805,5.6080503,8.03505
1680011040419,1191028774218927,2.6800501,5.61495,7.99695
1680011040421,1191028776721081,2.59905,5.5290003,7.99695
1680011040425,1191028779223235,2.661,5.64405,8.03295
1680011040427,1191028781725620,2.6850002,5.67,7.9249506
1680011040430,1191028784227850,2.63895,5.6509504,8.052
1680011040432,1191028786730004,2.57505,5.5620003,7.9939504
1680011040435,1191028789232389,2.6509502,5.5789504,8.0119505
1680011040437,1191028791734543,2.63505,5.58795,8.016001
1680011040439,1191028794236726,2.67105,5.598,8.02095
1680011040441,1191028796738879,2.6850002,5.5909505,7.9270506
1680011040444,1191028799241110,2.67105,5.61495,7.8790503
1680011040446,1191028801743495,2.63205,5.60505,7.9420505
1680011040449,1191028804245663,2.604,5.55495,7.9099503
1680011040451,1191028806747817,2.568,5.5290003,7.8960004
1680011040454,1191028809250047,2.57505,5.5189505,7.8619504
1680011040456,1191028811752201,2.5560002,5.6269503,7.8739505
1680011040459,1191028814254350,2.57505,5.6340003,7.9750504
1680011040463,1191028816756735,2.532,5.57595,7.96995
1680011040464,1191028819258965,2.53905,5.66295,7.9270506
1680011040466,1191028821761119,2.59905,5.7010503,7.8910503
1680011040469,1191028824263273,2.493,5.67705,7.9249506
1680011040471,1191028826765413,2.604,5.68905,7.77405
1680011040474,1191028829267798,2.5560002,5.5410004,7.9729505
1680011040476,1191028831770028,2.56305,5.58795,7.9420505
1680011040479,1191028834272182,2.5080001,5.54505,7.93695
1680011040481,1191028836774562,2.5099502,5.63205,7.9459505
1680011040484,1191028839276716,2.4859502,5.5999503,7.9030504
1680011040486,1191028841778870,2.532,5.6580005,7.9560003
1680011040489,1191028844281023,2.45295,5.565,8.04
1680011040491,1191028846783485,2.56995,5.6910005,7.93905
1680011040494,1191028849285639,2.5480502,5.60505,8.016001
1680011040496,1191028851787793,2.4859502,5.64795,7.9729505
1680011040501,1191028854289932,2.4790502,5.6790004,7.9129505
1680011040503,1191028856792163,2.5170002,5.60505,7.9200006
1680011040505,1191028859294317,2.50095,5.5620003,7.9560003
1680011040507,1191028861796702,2.568,5.6290503,8.064
1680011040509,1191028864298856,2.5530002,5.703,8.059051
1680011040511,1191028866801085,2.53905,5.6239505,8.049001
1680011040515,1191028869303239,2.5530002,5.63205,7.9870505
1680011040517,1191028871805393,2.6160002,5.60295,8.20695
1680011040519,1191028874307778,2.6130002,5.5909505,8.04
1680011040522,1191028876809956,2.5099502,5.63205,8.073
1680011040524,1191028879312186,2.59905,5.5290003,8.029051
1680011040527,1191028881814340,2.56005,5.5999503,7.9150505
1680011040530,1191028884316725,2.59395,5.6340003,7.9680004
1680011040531,1191028886818879,2.52195,5.5960503,7.9630504
1680011040534,1191028889321028,2.5530002,5.5360503,7.8529506
1680011040538,1191028891823259,2.52705,5.6410503,8.029051
1680011040540,1191028894325644,2.49795,5.5480504,7.9099503
1680011040542,1191028896827798,2.56005,5.60295,8.02095
1680011040544,1191028899329952,2.5840502,5.5960503,7.9270506
1680011040547,1191028901832182,2.529,5.61495,7.8510003
1680011040549,1191028904334336,2.57505,5.5810504,7.9080005
1680011040552,1191028906836490,2.63205,5.6340003,7.9540505
1680011040555,1191028909338855,2.5819502,5.5090504,7.9890003
1680011040556,1191028911841085,2.6800501,5.63595,7.8940506
1680011040559,1191028914343239,2.56995,5.5360503,7.8820505
1680011040562,1191028916845393,2.601,5.4640503,7.9680004
1680011040564,1191028919347547,2.6179502,5.61705,7.8220506
1680011040567,1191028921849932,2.604,5.5690503,7.9200006
1680011040569,1191028924352162,2.57505,5.505,8.002951
1680011040580,1191028926854547,2.56305,5.493,7.9080005
1680011040581,1191028929356658,2.66295,5.5620003,7.9270506
1680011040581,1191028931858812,2.568,5.60295,7.99695
1680011040582,1191028934360966,2.6749501,5.5690503,7.9920006
1680011040582,1191028936863119,2.5530002,5.44005,7.9080005
1680011040584,1191028939365581,2.6779501,5.47095,7.8550506
1680011040587,1191028941867725,2.5410001,5.5810504,7.8220506
1680011040590,1191028944369879,2.6130002,5.60505,7.86495
1680011040591,1191028946872033,2.5770001,5.6290503,7.8700504
1680011040595,1191028949374263,2.52705,5.598,7.8430505
1680011040597,1191028951876422,2.6230502,5.51205,7.8220506
1680011040599,1191028954378807,2.63205,5.4469504,7.9339504
1680011040601,1191028956880961,2.63205,5.5140004,7.9339504
1680011040604,1191028959383191,2.59395,5.50005,7.7809505
1680011040606,1191028961885345,2.604,5.5690503,7.8910503
1680011040610,1191028964387711,2.493,5.6269503,7.8600006
1680011040613,1191028966889865,2.6200502,5.64405,7.8190503
1680011040615,1191028969392019,2.59395,5.58405,7.8600006
1680011040617,1191028971894263,2.5150502,5.5260005,7.8739505
1680011040620,1191028974396648,2.568,5.6670003,7.8480005
1680011040622,1191028976898802,2.5099502,5.58795,7.8739505
1680011040624,1191028979400956,2.5200002,5.53305,7.9510503
1680011040627,1191028981903110,2.59905,5.61705,7.8790503
1680011040630,1191028984405279,2.5440001,5.5260005,7.9080005
1680011040632,1191028986907741,2.57205,5.53095,8.073
1680011040635,1191028989409895,2.4810002,5.57205,8.001
1680011040638,1191028991912116,2.5440001,5.5140004,7.9300504
1680011040640,1191028994414193,2.601,5.5620003,7.872
1680011040643,1191028996916423,2.53395,5.598,8.02305
1680011040644,1191028999418577,2.5510502,5.61495,8.03295
1680011040646,1191029001921039,2.6470501,5.55495,7.93905
1680011040651,1191029004423183,2.56005,5.5909505,8.02305
1680011040654,1191029006925336,2.50095,5.63205,7.9750504
1680011040656,1191029009427490,2.5890002,5.5410004,8.016001
1680011040657,1191029011929875,2.50095,5.5530005,8.023951
1680011040659,1191029014432029,2.56305,5.5189505,8.016001
1680011040661,1191029016934183,2.532,5.6239505,8.113951
1680011040664,1191029019436413,2.6130002,5.6269503,8.002951
1680011040666,1191029021938798,2.50305,5.5860004,8.089951
1680011040669,1191029024440976,2.55795,5.5909505,8.11905
1680011040672,1191029026943130,2.55795,5.598,7.9939504
1680011040677,1191029029445360,2.5410001,5.57205,8.0449505
1680011040677,1191029031947514,2.496,5.5530005,7.9630504
1680011040680,1191029034449890,2.5459502,5.493,8.08005
1680011040682,1191029036952044,2.59605,5.5740004,8.073
1680011040684,1191029039454275,2.62995,5.6119504,8.02305
1680011040689,1191029041956428,2.4720001,5.5930505,7.9680004
1680011040691,1191029044458558,2.49105,5.7130504,7.9099503
1680011040692,1191029046960712,2.52495,5.6719503,7.86495
1680011040694,1191029049463174,2.5480502,5.6119504,7.9200006
1680011040696,1191029051965327,2.50095,5.60505,7.9800005
1680011040699,1191029054467481,2.52495,5.5909505,7.8910503
1680011040701,1191029056969635,2.43105,5.54295,7.965
1680011040704,1191029059472020,2.53695,5.63205,7.965
1680011040707,1191029061974174,2.505,5.6290503,7.9560003
1680011040709,1191029064476404,2.505,5.48295,7.9420505
1680011040711,1191029066978789,2.63505,5.6959505,7.8820505
1680011040715,1191029069480943,2.50305,5.6790004,7.9510503
1680011040717,1191029071983097,2.532,5.55495,7.83405
1680011040719,1191029074485251,2.529,5.5210505,7.8510003
1680011040722,1191029076987505,2.57505,5.5600505,7.8409505
1680011040726,1191029079489890,2.49795,5.6719503,7.9200006
1680011040728,1191029081992044,2.5459502,5.5480504,8.016001
1680011040731,1191029084494198,2.6179502,5.60295,7.8790503
1680011040733,1191029086996352,2.53395,5.6119504,7.89795
1680011040735,1191029089498813,2.6130002,5.5290003,7.9099503
1680011040737,1191029092000967,2.5480502,5.6389503,7.9030504
1680011040740,1191029094503121,2.592,5.5620003,7.8480005
1680011040742,1191029097005275,2.5800002,5.538,7.8619504
1680011040744,1191029099507537,2.5530002,5.538,7.965
1680011040746,1191029102009691,2.57205,5.64405,7.8529506
1680011040749,1191029104511845,2.52495,5.57205,7.9030504
1680011040752,1191029107014307,2.628,5.6650505,7.9270506
1680011040755,1191029109516461,2.5200002,5.61,7.9080005
1680011040756,1191029112018614,2.604,5.58795,7.9099503
1680011040759,1191029114520768,2.57205,5.6239505,7.8600006
1680011040763,1191029117023153,2.496,5.6719503,7.9560003
1680011040765,1191029119525303,2.59605,5.5960503,7.9150505
1680011040767,1191029122027534,2.637,5.63205,7.8790503
1680011040770,1191029124529687,2.6470501,5.61495,8.023951
1680011040772,1191029127032072,2.63205,5.622,8.04705
1680011040774,1191029129534226,2.52195,5.5020003,7.9420505
1680011040776,1191029132036461,2.6160002,5.5930505,8.0779505
1680011040779,1191029134538538,2.637,5.5290003,8.029051
1680011040781,1191029137040999,2.6200502,5.5189505,8.005051
1680011040784,1191029139543153,2.5480502,5.6239505,7.8550506
1680011040788,1191029142045270,2.5530002,5.5789504,8.06595
1680011040790,1191029144547501,2.568,5.6269503,8.116051
1680011040792,1191029147049654,2.5840502,5.5069504,8.059051
1680011040794,1191029149551808,2.5530002,5.61705,7.9729505
1680011040796,1191029152054193,2.601,5.6389503,8.04
1680011040804,1191029154556418,2.53695,5.6509504,7.9800005
1680011040805,1191029157058572,2.63895,5.5960503,7.9939504
1680011040807,1191029159560725,2.6539502,5.5290003,8.04705
1680011040809,1191029162062889,2.496,5.622,8.023951
1680011040810,1191029164565274,2.5890002,5.6460004,7.9270506
1680011040812,1191029167067505,2.62995,5.67495,7.90605
1680011040816,1191029169569889,2.6110501,5.63595,8.073
1680011040817,1191029172071821,2.4550502,5.5930505,7.93695
1680011040821,1191029174574206,2.604,5.5410004,8.11905
1680011040822,1191029177076360,2.48895,5.54505,7.9609504
1680011040824,1191029179578591,2.52195,5.6790004,7.8889503
1680011040827,1191029182080744,2.4480002,5.61,7.9990506
1680011040830,1191029184583124,2.4499502,5.6410503,7.8529506
1680011040833,1191029187085278,2.52195,5.6410503,7.8910503
1680011040834,1191029189587509,2.5080001,5.67495,7.9270506
1680011040838,1191029192089639,2.52495,5.598,7.8889503
1680011040841,1191029194591792,2.4120002,5.57595,7.9200006
1680011040842,1191029197094177,2.43105,5.67495,8.017051
1680011040845,1191029199596408,2.4810002,5.5530005,7.9990506
1680011040847,1191029202098562,2.53395,5.6910005,7.9270506
1680011040850,1191029204600730,2.5099502,5.6580005,7.8940506
1680011040852,1191029207103115,2.5099502,5.598,7.9579506
1680011040854,1191029209605038,2.5099502,5.622,7.9489503
1680011040857,1191029212107423,2.568,5.538,7.86705
1680011040859,1191029214609678,2.50095,5.5620003,7.827
1680011040862,1191029217112062,2.59905,5.47095,7.8409505
1680011040864,1191029219614216,2.4859502,5.6080503,7.9080005
1680011040867,1191029222116370,2.52495,5.55495,7.86495
1680011040871,1191029224618509,2.5200002,5.5690503,7.79505
1680011040872,1191029227120740,2.5819502,5.60505,7.86495
1680011040876,1191029229623124,2.5840502,5.6460004,7.9180503
1680011040878,1191029232125278,2.4859502,5.5530005,7.9540505
1680011040880,1191029234627398,2.52495,5.54505,7.8580503
1680011040882,1191029237129629,2.4550502,5.54295,7.8700504
1680011040884,1191029239631782,2.5510502,5.5860004,7.8550506
1680011040888,1191029242133936,2.57505,5.5620003,7.8480005
1680011040890,1191029244636321,2.55795,5.64405,7.8619504
1680011040892,1191029247138520,2.56305,5.55,8.03295
1680011040894,1191029249640674,2.55795,5.5690503,7.9080005
1680011040896,1191029252142827,2.5530002,5.5360503,7.8430505
1680011040899,1191029254645212,2.56305,5.58795,7.86705
1680011040901,1191029257147366,2.59605,5.466,7.9609504
1680011040904,1191029259649510,2.5890002,5.58795,7.9219503
1680011040906,1191029262151741,2.6200502,5.5069504,7.9920006
1680011040909,1191029264654125,2.6539502,5.5669503,7.9219503
1680011040914,1191029267156279,2.57205,5.60295,7.9890003
1680011040917,1191029269658433,2.70405,5.4949503,7.9200006
1680011040919,1191029272160587,2.6179502,5.5930505,7.8480005
1680011040921,1191029274662817,2.6509502,5.61,7.9849505
1680011040923,1191029277250817,2.6509502,5.622,8.0119505
1680011040925,1191029279667327,2.69895,5.5960503,8.002951
1680011040927,1191029282169558,2.5800002,5.7180004,8.073
1680011040931,1191029284671712,2.6179502,5.5789504,7.9579506
1680011040932,1191029287173865,2.5800002,5.703,7.9680004
1680011040935,1191029289676019,2.6130002,5.5690503,7.9300504
1680011040937,1191029292178481,2.59905,5.57205,7.8889503
1680011040940,1191029294680635,2.5890002,5.55495,7.96995
1680011040942,1191029297182789,2.5480502,5.61705,8.028001
1680011040945,1191029299684937,2.604,5.6269503,7.9080005
1680011040948,1191029302187322,2.5870502,5.60505,7.96995
1680011040951,1191029304689476,2.63505,5.68695,8.023951
1680011040954,1191029307191707,2.6179502,5.58795,7.977
1680011040955,1191029309694120,2.6179502,5.58795,8.03505
1680011040957,1191029312196274,2.568,5.6389503,8.02305
1680011040960,1191029314698428,2.6130002,5.6389503,7.9219503
1680011040962,1191029317200582,2.59905,5.6509504,7.9099503
1680011040964,1191029319702813,2.5459502,5.63205,7.9680004
1680011040967,1191029322204985,2.6490002,5.6340003,7.8820505
1680011040971,1191029324707370,2.63205,5.5960503,7.8739505
1680011040973,1191029327209524,2.53905,5.6080503,7.90605
1680011040974,1191029329711755,2.628,5.58795,7.7910004
1680011040977,1191029332213895,2.52705,5.6959505,7.89795
1680011040980,1191029334716048,2.5819502,5.63205,8.00895
1680011040982,1191029337218202,2.6130002,5.6239505,7.9819503
1680011040985,1191029339720664,2.63505,5.6719503,7.7479506
1680011040988,1191029342222818,2.604,5.5740004,8.0119505
1680011040991,1191029344724972,2.6419501,5.5860004,8.002951
1680011040993,1191029347227356,2.62995,5.565,7.9680004
1680011040995,1191029349729510,2.5840502,5.5260005,7.8790503
1680011040997,1191029352231664,2.59395,5.6530504,7.9939504
1680011041000,1191029354733919,2.56005,5.53305,7.8460503
1680011041003,1191029357236303,2.53395,5.6239505,7.7260504
1680011041005,1191029359738457,2.604,5.5189505,7.86705
1680011041007,1191029362240611,2.601,5.6460004,7.9609504
1680011041010,1191029364742765,2.50305,5.6580005,7.8169503
1680011041012,1191029367244996,2.637,5.5620003,7.9579506
1680011041014,1191029369747380,2.604,5.538,7.839
1680011041017,1191029372249534,2.5459502,5.598,7.9080005
1680011041021,1191029374751683,2.55795,5.5789504,7.8700504
1680011041023,1191029377253914,2.5870502,5.58795,7.8460503
1680011041026,1191029379756068,2.56305,5.622,7.965
1680011041029,1191029382258221,2.52705,5.67,7.8889503
1680011041031,1191029384760669,2.5440001,5.5260005,7.8790503
1680011041035,1191029387262823,2.4720001,5.6239505,7.8840003
1680011041037,1191029389764977,2.4430501,5.6340003,7.9030504
1680011041040,1191029392267135,2.46705,5.63205,7.8859506
1680011041042,1191029394769520,2.46,5.5860004,8.03505
1680011041043,1191029397271674,2.4430501,5.54505,7.86705
1680011041045,1191029399773828,2.4430501,5.6509504,7.9560003
1680011041047,1191029402276059,2.4859502,5.65605,7.86705
1680011041051,1191029404778481,2.4859502,5.5740004,7.9459505
1680011041053,1191029407280635,2.4840002,5.622,7.9800005
1680011041055,1191029409782866,2.53695,5.6119504,7.8619504
1680011041057,1191029412284943,2.56305,5.6389503,8.016001
1680011041060,1191029414787174,2.4720001,5.5960503,7.8910503
1680011041063,1191029417289596,2.4859502,5.67495,8.001
1680011041065,1191029419791750,2.5530002,5.6580005,7.8430505
1680011041067,1191029422293904,2.4859502,5.67,7.9750504
1680011041070,1191029424796058,2.5129502,5.58405,7.83405
1680011041073,1191029427298519,2.5200002,5.66295,7.9180503
1680011041074,1191029429800688,2.4810002,5.5810504,7.8790503
1680011041077,1191029432302842,2.529,5.6989503,7.8550506
1680011041080,1191029434805073,2.529,5.6340003,7.8220506
1680011041082,1191029437307227,2.5800002,5.6410503,7.9750504
1680011041085,1191029439809370,2.4859502,5.61495,7.9339504
1680011041087,1191029442311755,2.53695,5.5930505,7.9560003
1680011041090,1191029444813986,2.56305,5.6530504,7.9099503
1680011041092,1191029447316140,2.5480502,5.598,8.00895
1680011041095,1191029449818294,2.5530002,5.7010503,7.8409505
1680011041097,1191029452320471,2.57505,5.6119504,7.8220506
1680011041101,1191029454822856,2.52705,5.6719503,7.8859506
1680011041104,1191029457325087,2.53905,5.58795,7.8940506
1680011041105,1191029459827241,2.493,5.6080503,7.9560003
1680011041107,1191029462329394,2.5480502,5.6670003,7.89795
1680011041110,1191029464831779,2.52705,5.6989503,7.8030005
1680011041113,1191029467333933,2.604,5.63205,7.8790503
1680011041115,1191029469836087,2.57205,5.6080503,7.8430505
1680011041117,1191029472338553,2.5480502,5.6910005,7.9300504
1680011041121,1191029474840707,2.5530002,5.64405,7.8820505
1680011041123,1191029477342861,2.57505,5.7390003,7.8409505
1680011041126,1191029479845015,2.52195,5.6119504,7.9030504
1680011041128,1191029482347251,2.601,5.6389503,7.9080005
1680011041130,1191029484849405,2.469,5.64795,7.8430505
1680011041132,1191029487351558,2.565,5.6719503,7.8409505
1680011041135,1191029489853943,2.4720001,5.61495,7.9009504
1680011041139,1191029492356144,2.6110501,5.64405,8.017051
1680011041141,1191029494858298,2.6230502,5.7250504,7.9219503
1680011041143,1191029497360451,2.63895,5.6959505,7.8840003
1680011041145,1191029499862605,2.5480502,5.6389503,7.8480005
1680011041147,1191029502364990,2.62995,5.66295,7.7400002
1680011041150,1191029504867230,2.6509502,5.6410503,7.8529506
1680011041153,1191029507369384,2.6850002,5.6239505,7.8120003
1680011041155,1191029509871768,2.6779501,5.6959505,7.8889503
1680011041157,1191029512373922,2.63505,5.6290503,7.977
1680011041160,1191029514876076,2.6230502,5.57205,7.8960004
1680011041162,1191029517378226,2.661,5.5960503,7.8769503
1680011041165,1191029519880687,2.7139502,5.6200504,8.016001
1680011041167,1191029522382841,2.661,5.67,7.8
1680011041171,1191029524884990,2.7589502,5.5789504,7.9510503
1680011041172,1191029527387144,2.742,5.63205,7.83405
1680011041176,1191029529889375,2.7880502,5.598,7.9099503
1680011041178,1191029532391528,2.77605,5.63205,7.8480005
1680011041181,1191029534893913,2.7280502,5.5860004,7.8360004
1680011041183,1191029537396062,2.766,5.6119504,8.002951
1680011041185,1191029539898293,2.769,5.5960503,7.9560003
1680011041188,1191029542400447,2.77605,5.6580005,7.9200006
1680011041190,1191029544902600,2.7139502,5.54505,7.83405
1680011041193,1191029547404975,2.742,5.67705,7.8940506
1680011041195,1191029549907129,2.7640502,5.7780004,7.8790503
1680011041204,1191029552409360,2.802,5.7250504,7.8289504
1680011041205,1191029554911514,2.6850002,5.6460004,7.8940506
1680011041205,1191029557413898,2.7210002,5.60505,7.8580503
1680011041205,1191029559916038,2.7190502,5.6290503,7.8100505
1680011041207,1191029562418192,2.70705,5.6119504,7.7910004
1680011041210,1191029564920346,2.6899502,5.6530504,7.8289504
1680011041213,1191029567422807,2.6200502,5.65605,7.839
1680011041215,1191029569924956,2.66805,5.61495,7.8100505
1680011041217,1191029572427187,2.69895,5.6580005,7.9009504
1680011041220,1191029574929264,2.6490002,5.6410503,7.827
1680011041222,1191029577431495,2.628,5.682,7.8480005
1680011041225,1191029579933648,2.59605,5.64405,7.9219503
1680011041227,1191029582436091,2.5099502,5.703,7.8100505
1680011041230,1191029584938245,2.50305,5.7010503,7.8220506
1680011041233,1191029587440399,2.5099502,5.6509504,7.7880006
1680011041235,1191029589942557,2.46705,5.67,7.86495
1680011041238,1191029592444710,2.5459502,5.7390003,7.8409505
1680011041240,1191029594947095,2.4409502,5.7130504,7.80495
1680011041242,1191029597449326,2.45295,5.67705,7.7910004
1680011041244,1191029599951480,2.4430501,5.64405,7.872
1680011041247,1191029602453639,2.4450002,5.6080503,7.8739505
1680011041251,1191029604956023,2.4409502,5.7180004,7.839
1680011041253,1191029607458177,2.4450002,5.71995,7.86495
1680011041255,1191029609960408,2.3500502,5.6790004,7.8859506
1680011041257,1191029612462562,2.39805,5.7010503,7.8409505
1680011041260,1191029614964937,2.39295,5.682,7.8240004
1680011041262,1191029617467091,2.4430501,5.68695,7.8580503
1680011041264,1191029619969322,2.4120002,5.65605,7.7550006
1680011041267,1191029622471476,2.457,5.6670003,7.8289504
1680011041271,1191029624973615,2.3760002,5.622,7.69995
1680011041273,1191029627475768,2.4100502,5.5690503,7.7790003
1680011041278,1191029629978230,2.35395,5.6509504,7.767
1680011041278,1191029632480384,2.4070501,5.7109504,7.7640004
1680011041280,1191029634982529,2.364,5.63205,7.839
1680011041282,1191029637484683,2.4070501,5.5999503,7.79505
1680011041284,1191029639986836,2.3830502,5.6959505,7.8150005
1680011041289,1191029642489221,2.4,5.65605,7.7710505
1680011041291,1191029644991452,2.49105,5.67495,7.7380505
1680011041293,1191029647493836,2.32305,5.727,7.7790003
1680011041295,1191029649995759,2.46,5.7229505,7.7710505
1680011041297,1191029652498144,2.4070501,5.6959505,7.7640004
1680011041300,1191029655000302,2.39295,5.74905,7.7089505
1680011041302,1191029657502533,2.3760002,5.78205,7.6800003
1680011041305,1191029660004917,2.388,5.754,7.7239504
1680011041307,1191029662507071,2.4480002,5.8159504,7.6330504
1680011041310,1191029665009255,2.46,5.7319503,7.6590004
1680011041313,1191029667511486,2.53905,5.7229505,7.6489506
1680011041315,1191029670013640,2.5440001,5.75895,7.6519504
1680011041317,1191029672515794,2.5440001,5.75895,7.7910004
1680011041320,1191029675018173,2.4379501,5.77995,7.7380505
1680011041322,1191029677520404,2.5819502,5.68695,7.6780505
1680011041326,1191029680022558,2.56305,5.7660003,7.6590004
1680011041328,1191029682524712,2.568,5.75895,7.7160006
1680011041331,1191029685027082,2.5459502,5.7319503,7.6399503
1680011041333,1191029687529005,2.5530002,5.8279505,7.5799503
1680011041335,1191029690031390,2.7280502,5.8060503,7.563
1680011041337,1191029692533621,2.6749501,5.727,7.6180506
1680011041340,1191029695036005,2.6440501,5.68695,7.5919504
1680011041342,1191029697537928,2.67105,5.63595,7.6920004
1680011041344,1191029700040313,2.7139502,5.76795,7.7569504
1680011041347,1191029702542467,2.7520502,5.7010503,7.7070003
1680011041350,1191029705044698,2.76195,5.67705,7.7520003
1680011041354,1191029707547110,2.7160501,5.727,7.7689505
1680011041355,1191029710049264,2.73495,5.7390003,7.76205
1680011041357,1191029712551418,2.7280502,5.682,7.6590004
1680011041360,1191029715053649,2.74005,5.703,7.76205
1680011041363,1191029717555827,2.67105,5.682,7.5919504
1680011041367,1191029720057980,2.7930002,5.6389503,7.80495
1680011041369,1191029722560365,2.8240502,5.6940002,7.68795
1680011041372,1191029725062596,2.6950502,5.73705,7.7790003
1680011041373,1191029727564750,2.7859502,5.703,7.6800003
1680011041374,1191029730066789,2.86905,5.6389503,7.7239504
1680011041377,1191029732569173,2.8219502,5.7109504,7.8169503
1680011041380,1191029735071327,2.766,5.682,7.83405
1680011041382,1191029737573558,2.766,5.6940002,7.6420503
1680011041385,1191029740075707,2.7880502,5.7130504,7.6710005
1680011041388,1191029742578091,2.769,5.7060003,7.79295
1680011041390,1191029745080245,2.7949502,5.74905,7.80495
1680011041393,1191029747582399,2.8140001,5.715,7.6039505
1680011041395,1191029750084568,2.70705,5.8279505,7.66095
1680011041399,1191029752587029,2.80995,5.73495,7.7070003
1680011041405,1191029755089183,2.70705,5.7990003,7.66095
1680011041405,1191029757591337,2.697,5.7970505,7.6710005
1680011041408,1191029760093558,2.6899502,5.775,7.6420503
1680011041409,1191029762595712,2.63505,5.8279505,7.7449503
1680011041411,1191029765097866,2.63205,5.8350005,7.6759505
1680011041413,1191029767600250,2.628,5.79405,7.5799503
1680011041415,1191029770102404,2.56005,5.92605,7.5079503
1680011041417,1191029772604596,2.59395,5.80905,7.45095
1680011041421,1191029775106750,2.5560002,5.907,7.5370502
1680011041422,1191029777608904,2.5770001,5.8380003,7.6729503
1680011041425,1191029780111288,2.6230502,5.8830004,7.59705
1680011041427,1191029782613529,2.63505,5.9209504,7.5940504
1680011041431,1191029785115683,2.697,6.0529504,7.6920004
1680011041435,1191029787617837,2.5870502,5.9599504,7.7550006
1680011041437,1191029790119990,2.6419501,5.9050503,7.7500505
1680011041440,1191029792622404,2.6419501,5.9500504,7.7089505
1680011041443,1191029795123519,2.661,5.9689503,7.6159506
1680011041443,1191029797624636,2.661,5.9209504,7.7500505
1680011041446,1191029800128943,2.57505,5.9359503,7.728
1680011041447,1191029802631327,2.83095,5.964,7.7550006
1680011041450,1191029805133481,2.6539502,5.98605,7.7760005
1680011041452,1191029807635635,2.7810001,6.0220504,7.8150005
1680011041456,1191029810138096,2.7259502,5.9380503,7.7760005
1680011041457,1191029812640250,2.7469501,5.91405,7.80705
1680011041460,1191029815142404,2.7930002,6.0670505,7.7310004
1680011041465,1191029817644572,2.805,5.907,7.8240004
1680011041466,1191029820146803,2.80995,5.9689503,7.8580503
1680011041468,1191029822648957,2.83095,5.9929504,7.79295
1680011041472,1191029825151312,2.877,5.9760003,7.7520003
1680011041473,1191029827653466,2.8650002,5.979,7.623
1680011041476,1191029830155697,2.8219502,6.0199504,7.6660504
1680011041478,1191029832657851,2.874,5.95695,7.7140503
1680011041480,1191029835159996,2.9680502,5.98395,7.6800003
1680011041482,1191029837662149,2.9220002,6.0360003,7.8190503
1680011041484,1191029840164611,2.9890501,6.0319505,7.69995
1680011041487,1191029842666765,2.97195,5.9760003,7.6249504
1680011041490,1191029845168919,2.9340003,6.0049505,7.8030005
1680011041492,1191029847671322,2.97495,6.063,7.5820503
1680011041495,1191029850173476,2.8890002,6.09105,7.6540504
1680011041497,1191029852675630,2.9340003,6.1060505,7.7760005
1680011041500,1191029855177784,2.90505,6.04395,7.7380505
1680011041502,1191029857680245,2.8840501,6.051,7.6710005
1680011041505,1191029860182423,2.94105,6.05805,7.6849504
1680011041507,1191029862684577,3.0010502,6.0600004,7.6780505
1680011041510,1191029865186731,3.01095,6.0390005,7.6039505
1680011041514,1191029867688972,2.9920502,6.08895,7.5799503
1680011041517,1191029870191126,2.93895,6.0870004,7.7569504
1680011041518,1191029872693587,2.9580002,6.111,7.6450505
1680011041522,1191029875195664,2.7930002,6.1320004,7.7040005
1680011041523,1191029877697895,2.83095,6.05805,7.728
1680011041525,1191029880200025,2.83605,6.144,7.73295
1680011041528,1191029882702409,2.901,6.08895,7.7359505
1680011041533,1191029885204332,2.8170002,6.04605,7.6519504
1680011041535,1191029887706794,2.7949502,6.09105,7.7520003
1680011041537,1191029890208948,2.7810001,6.0049505,7.7089505
1680011041539,1191029892711317,2.7469501,6.0720005,7.6399503
1680011041541,1191029895213471,2.742,6.0529504,7.7160006
1680011041542,1191029897715625,2.74005,6.09105,7.80495
1680011041545,1191029900217779,2.70405,6.1009502,7.6710005
1680011041547,1191029902720390,2.67105,6.10305,7.58895
1680011041553,1191029905222543,2.63505,6.22305,7.6009502
1680011041555,1191029907724697,2.6950502,6.1459503,7.7500505
1680011041557,1191029910226861,2.7520502,6.111,7.6470003
1680011041559,1191029912729015,2.70705,6.1699505,7.7209506
1680011041561,1191029915231246,2.6110501,6.1129503,7.6800003
1680011041563,1191029917733630,2.62995,6.1969504,7.5850506
1680011041565,1191029920235861,2.6800501,6.2419505,7.5660005
1680011041567,1191029922737938,2.661,6.1920004,7.5540004
1680011041571,1191029925240169,2.697,6.2400002,7.6849504
1680011041573,1191029927742323,2.6920502,6.18195,7.7089505
1680011041575,1191029930244707,2.6130002,6.1990504,7.6590004
1680011041577,1191029932746861,2.7280502,6.16095,7.66095
1680011041580,1191029935249092,2.6470501,6.1699505,7.7310004
1680011041582,1191029937751246,2.66805,6.10305,7.7400002
1680011041585,1191029940253630,2.6419501,6.19395,7.79295
1680011041589,1191029942755784,2.7810001,6.1459503,7.7880006
1680011041591,1191029945257938,2.7259502,6.168,7.7500505
1680011041596,1191029947760092,2.7570002,6.18195,7.7569504
1680011041598,1191029950262553,2.73795,6.15105,7.69995
1680011041600,1191029952764707,2.733,6.15105,7.6710005
1680011041602,1191029955266846,2.7109501,6.1990504,7.58895
1680011041604,1191029957769077,2.7280502,6.19005,7.6759505
1680011041605,1191029960271154,2.7880502,6.19005,7.63005
1680011041607,1191029962773385,2.673,6.2520003,7.62795
1680011041610,1191029965275740,2.8240502,6.144,7.668
1680011041612,1191029967777971,2.7210002,6.1420503,7.7089505
1680011041615,1191029970280125,2.81205,6.1750503,7.70205
1680011041617,1191029972782279,2.8189502,6.16095,7.80705
1680011041621,1191029975284433,2.8170002,6.07695,7.7500505
1680011041622,1191029977786827,2.7589502,6.1009502,7.79505
1680011041626,1191029980289058,2.77095,6.1390505,7.8289504
1680011041630,1191029982791212,2.7880502,6.0820503,7.7569504
1680011041632,1191029985293352,2.8140001,6.135,7.6660504
1680011041634,1191029987795736,2.73105,6.1420503,7.6900506
1680011041636,1191029990297890,2.88105,6.1129503,7.7089505
1680011041638,1191029992800044,2.874,6.1800003,7.5270004
1680011041640,1191029995302275,2.90505,6.051,7.5370502
1680011041642,1191029997804683,2.8530002,6.10305,7.6470003
1680011041644,1191030000306837,2.8600502,6.1320004,7.6450505
1680011041647,1191030002808991,2.94105,6.144,7.6210504
1680011041650,1191030005311222,2.84505,6.1369505,7.5439506
1680011041652,1191030007813283,2.84505,6.1080003,7.73295
1680011041655,1191030010315514,2.8189502,6.123,7.6330504
1680011041658,1191030012817898,2.8260002,6.1009502,7.5540004
1680011041660,1191030015320129,2.9200501,6.1729503,7.6729503
1680011041664,1191030017822259,2.7450001,6.09105,7.6159506
1680011041666,1191030020324413,2.8140001,6.1849504,7.5510006
1680011041668,1191030022826567,2.8240502,6.1129503,7.4790006
1680011041671,1191030025328951,2.8620002,6.1420503,7.5769506
1680011041673,1191030027831182,2.7949502,6.02895,7.5199504
1680011041675,1191030030333331,2.84505,6.02895,7.6780505
1680011041679,1191030032835715,2.733,6.07695,7.6540504
1680011041682,1191030035337869,2.8500001,6.1200004,7.6590004
1680011041683,1191030037840023,2.77095,6.0990005,7.6060505
1680011041685,1191030040342177,2.766,6.07695,7.6519504
1680011041688,1191030042844630,2.7810001,6.1150503,7.6540504
1680011041690,1191030045346783,2.802,6.07905,7.5370502
1680011041692,1191030047848937,2.76195,6.1660504,7.6039505
1680011041695,1191030050351091,2.697,6.11805,7.7380505
1680011041698,1191030052853336,2.7640502,6.096,7.6129503
1680011041702,1191030055355490,2.7589502,6.0340505,7.6090503
1680011041705,1191030057857874,2.8240502,6.1009502,7.5850506
1680011041707,1191030060360033,2.7450001,6.063,7.5420003
1680011041709,1191030062862264,2.7259502,6.012,7.5730505
1680011041711,1191030065364418,2.77095,6.0390005,7.53
1680011041713,1191030067866572,2.6850002,6.0820503,7.5319505
1680011041715,1191030070368956,2.6920502,6.0220504,7.6210504
1680011041718,1191030072871100,2.66295,5.9380503,7.49805
1680011041720,1191030075373331,2.6950502,6.0000005,7.4790006
1680011041723,1191030077875485,2.5870502,5.9599504,7.4770503
1680011041725,1191030080377869,2.697,5.8969502,7.5340505
1680011041728,1191030082880028,2.70195,5.9599504,7.4700003
1680011041730,1191030085382182,2.6230502,6.0079503,7.6489506
1680011041733,1191030087884336,2.6130002,5.9089503,7.5319505
1680011041735,1191030090386798,2.6130002,6.0340505,7.5850506
1680011041739,1191030092888965,2.6179502,6.0150003,7.458
1680011041741,1191030095391119,2.5200002,5.964,7.5750003
1680011041743,1191030097893273,2.4499502,5.979,7.6159506
1680011041745,1191030100395504,2.604,5.9929504,7.49805
1680011041747,1191030102897658,2.56305,6.0409503,7.5870004
1680011041750,1191030105400033,2.53695,5.85195,7.5730505
1680011041755,1191030107902187,2.5170002,5.9479504,7.5679502
1680011041756,1191030110404418,2.4790502,5.9740505,7.5940504
1680011041758,1191030112906572,2.5560002,6.0030003,7.5439506
1680011041760,1191030115408994,2.46495,5.9329505,7.48605
1680011041762,1191030117911148,2.6160002,5.95305,7.5490503
1680011041765,1191030120413379,2.5530002,5.919,7.4389505
1680011041768,1191030122915533,2.4769502,6.024,7.5750003
1680011041770,1191030125417721,2.5890002,5.98605,7.5150003
1680011041772,1191030127919875,2.60595,6.01695,7.3950005
1680011041776,1191030130422336,2.52195,6.0049505,7.4890504
1680011041779,1191030132924413,2.6490002,5.979,7.4890504
1680011041781,1191030135426658,2.6470501,6.0319505,7.4770503
1680011041783,1191030137928812,2.62995,5.91195,7.4430003
1680011041785,1191030140431196,2.70705,6.09105,7.5390005
1680011041787,1191030142933119,2.6179502,6.1540504,7.4479504
1680011041791,1191030145435581,2.709,6.0220504,7.5390005
1680011041795,1191030147937749,2.6779501,6.0150003,7.55595
1680011041796,1191030150440133,2.73795,6.0000005,7.6009502
1680011041798,1191030152942287,2.7570002,6.0390005,7.6369505
1680011041801,1191030155444441,2.74005,6.0270004,7.55805
1680011041806,1191030157946595,2.6779501,6.04395,7.5820503
1680011041807,1191030160448826,2.901,5.98605,7.5340505
1680011041809,1191030162951210,2.81205,6.0670505,7.5510006
1680011041811,1191030165453364,2.77095,6.0000005,7.5850506
1680011041816,1191030167955552,2.73495,5.9500504,7.623
1680011041817,1191030170457706,2.6899502,6.01695,7.5060005
1680011041819,1191030172959860,2.83605,5.98395,7.6060505
1680011041821,1191030175462014,2.7829502,5.9479504,7.5079503
1680011041831,1191030177964475,2.7930002,6.0100503,7.4700003
1680011041831,1191030180466659,2.7880502,5.8950005,7.563
1680011041831,1191030182968813,2.81205,5.9209504,7.5820503
1680011041832,1191030185470967,2.8600502,5.9809504,7.59705
1680011041834,1191030187973351,2.7540002,5.8300505,7.5220504
1680011041835,1191030190475534,2.8170002,6.0000005,7.5820503
1680011041838,1191030192977765,2.7829502,5.9020505,7.53
1680011041840,1191030195479919,2.8170002,6.0720005,7.6159506
1680011041842,1191030197982303,2.8860002,5.91195,7.4820004
1680011041845,1191030200484457,2.80695,5.95305,7.4389505
1680011041847,1191030202986616,2.83095,5.9760003,7.5540004
1680011041852,1191030205488847,2.8189502,5.8950005,7.5270004
1680011041854,1191030207991231,2.8170002,5.9740505,7.5030003
1680011041856,1191030210493385,2.8960502,6.0150003,7.4700003
1680011041858,1191030212995524,2.8170002,5.9670005,7.4770503
1680011041860,1191030215497755,2.802,6.01695,7.431
1680011041863,1191030217999909,2.7880502,5.9620504,7.4029503
1680011041867,1191030220502063,2.8909502,6.0049505,7.458
1680011041869,1191030223004212,2.8330503,6.02895,7.4940004
1680011041871,1191030225506673,2.8140001,6.024,7.4389505
1680011041874,1191030228008827,2.80005,6.0150003,7.45305
1680011041875,1191030230510981,2.7570002,5.94105,7.5490503
1680011041879,1191030233013111,2.7520502,5.9670005,7.6540504
1680011041881,1191030235515495,2.802,6.0199504,7.5820503
1680011041884,1191030238017649,2.733,6.0340505,7.6660504
1680011041886,1191030240519880,2.73105,6.0550504,7.7190003
1680011041889,1191030243022245,2.7949502,6.01695,7.6110005
1680011041892,1191030245524399,2.7829502,6.0049505,7.5820503
1680011041896,1191030248026553,2.7570002,6.0480003,7.5750003
1680011041897,1191030250528707,2.7570002,5.97195,7.5010505
1680011041898,1191030253030938,2.80695,6.0199504,7.563
1680011041900,1191030255533327,2.7880502,6.1390505,7.5220504
1680011041902,1191030258035481,2.76195,6.1540504,7.6420503
1680011041905,1191030260537635,2.6779501,6.11805,7.5270004
1680011041908,1191030263039866,2.7520502,6.0870004,7.5460505
1680011041911,1191030265542001,2.7499502,6.0049505,7.5390005
1680011041913,1191030268044155,2.6230502,6.0150003,7.5730505
1680011041915,1191030270546539,2.7450001,6.1420503,7.518
1680011041919,1191030273048770,2.7139502,6.1270504,7.5940504
1680011041922,1191030275550933,2.7570002,6.051,7.6039505
1680011041924,1191030278053087,2.661,6.0940504,7.6110005
1680011041929,1191030280555471,2.733,6.0199504,7.5730505
1680011041931,1191030283057625,2.6250002,6.0409503,7.5270004
1680011041933,1191030284551032,2.69895,6.0990005,7.5319505
1680011041933,1191030286045693,2.70195,6.0319505,7.5439506
1680011041935,1191030290564385,2.6800501,6.1009502,7.5660005
1680011041938,1191030293066539,2.709,6.0340505,7.518
1680011041941,1191030295568693,2.661,6.05805,7.4599504
1680011041945,1191030298070808,2.5890002,6.0480003,7.5850506
1680011041947,1191030300573039,2.6419501,6.02895,7.5079503
1680011041948,1191030303075423,2.7520502,6.0220504,7.5340505
1680011041951,1191030305577577,2.6440501,6.0649505,7.5919504
1680011041954,1191030308079731,2.7210002,6.1420503,7.6420503
1680011041956,1191030310581948,2.637,6.0199504,7.518
1680011041958,1191030313084102,2.6539502,6.13005,7.563
1680011041961,1191030315586256,2.66295,6.0550504,7.563
1680011041964,1191030318088707,2.6509502,6.0360003,7.55595
1680011041966,1191030320590861,2.66805,6.1060505,7.491
1680011041967,1191030323093015,2.63895,6.1200004,7.635
1680011041972,1191030325595169,2.6470501,6.1420503,7.53
1680011041973,1191030328097553,2.7499502,6.04395,7.5340505
1680011041975,1191030330599717,2.6899502,6.1009502,7.6090503
1680011041978,1191030333101948,2.802,6.0270004,7.4890504
1680011041981,1191030335604102,2.7859502,6.084,7.53
1680011041982,1191030338106486,2.7949502,6.084,7.7119503
1680011041985,1191030340608673,2.766,6.0820503,7.46505
1680011041990,1191030343110827,2.697,6.024,7.5370502
1680011041991,1191030345612981,2.8189502,6.0319505,7.5540004
1680011041993,1191030348115443,2.81205,6.0720005,7.6660504
1680011041995,1191030350617582,2.8890002,6.0990005,7.5990005
1680011041998,1191030353119736,2.8620002,6.1729503,7.5940504
1680011042002,1191030355621890,2.9250002,6.10305,7.623
1680011042005,1191030358124121,2.8860002,6.13005,7.5820503
1680011042006,1191030360626260,2.8549502,6.168,7.5510006
1680011042008,1191030363128644,2.9650502,6.084,7.6399503
1680011042010,1191030365630875,2.9200501,6.135,7.5700502
1680011042013,1191030368133029,2.93595,6.16095,7.6849504
1680011042015,1191030370635183,2.9149501,6.16305,7.6470003
1680011042018,1191030373137337,2.97495,6.0649505,7.5420003
1680011042020,1191030375639721,2.9989502,6.0870004,7.7380505
1680011042023,1191030378141875,2.9629502,6.14895,7.6830006
1680011042025,1191030380644106,2.9629502,6.1780505,7.6129503
1680011042028,1191030383146246,2.9530501,6.156,7.6090503
1680011042031,1191030385648630,2.8909502,6.1540504,7.5750003
1680011042034,1191030388150784,2.9509501,6.2140503,7.58895
1680011042036,1191030390652938,2.9320502,6.1780505,7.6009502
1680011042039,1191030393155087,2.901,6.11805,7.6519504
1680011042043,1191030395657548,2.9290502,6.1459503,7.6210504
1680011042044,1191030398159702,2.9580002,6.22095,7.69995
1680011042046,1191030400661856,2.8960502,6.1459503,7.6060505
1680011042048,1191030403164111,2.8620002,6.16095,7.6780505
1680011042050,1191030405666265,2.8960502,6.19005,7.6210504
1680011042052,1191030408168419,2.8890002,6.2040005,7.5940504
1680011042055,1191030410670803,2.91,6.1990504,7.5730505
1680011042058,1191030413173044,2.81205,6.1969504,7.6039505
1680011042060,1191030415675198,2.778,6.096,7.6039505
1680011042062,1191030418177352,2.7949502,6.1780505,7.5460505
1680011042065,1191030420679506,2.70705,6.16305,7.48605
1680011042067,1191030423181875,2.7880502,6.15105,7.49595
1680011042070,1191030425684106,2.802,6.1990504,7.4389505
1680011042073,1191030428186491,2.6749501,6.2520003,7.458
1680011042076,1191030430688414,2.6850002,6.1920004,7.5199504
1680011042079,1191030433190798,2.67105,6.2140503,7.4290504
1680011042082,1191030435692952,2.6539502,6.2179503,7.4149504
1680011042083,1191030438195183,2.6490002,6.11805,7.4749503
1680011042085,1191030440697260,2.70195,6.1990504,7.4770503
1680011042090,1191030443199721,2.6200502,6.2260504,7.49805
1680011042091,1191030445701842,2.63895,6.20205,7.4599504
1680011042093,1191030448204073,2.63505,6.2470503,7.4479504
1680011042095,1191030450706227,2.57505,6.3090005,7.49805
1680011042098,1191030453208381,2.53395,6.2449503,7.5439506
1680011042100,1191030455710549,2.5800002,6.2059503,7.4670005
1680011042103,1191030458212933,2.53905,6.29295,7.5940504
1680011042105,1191030460715164,2.529,6.2520003,7.5100503
1680011042107,1191030463217318,2.529,6.1870503,7.4940004
1680011042110,1191030465719472,2.56005,6.216,7.5220504
1680011042115,1191030468221899,2.5840502,6.14895,7.46295
1680011042117,1191030470724130,2.5870502,6.2110505,7.5010505
1680011042119,1191030473226284,2.53695,6.1729503,7.518
1680011042121,1191030475728452,2.59605,6.1459503,7.4599504
1680011042123,1191030478230606,2.57205,6.1129503,7.458
1680011042125,1191030480732990,2.53395,6.0649505,7.55595
1680011042128,1191030483235221,2.62995,6.0340505,7.5730505
1680011042131,1191030485737375,2.565,6.1870503,7.5750003
1680011042132,1191030488239741,2.50095,6.1459503,7.419
1680011042135,1191030490741894,2.6470501,6.07695,7.5319505
1680011042138,1191030493244048,2.6130002,6.04395,7.5199504
1680011042140,1191030495746202,2.5459502,6.1459503,7.45305
1680011042143,1191030498248640,2.661,6.05805,7.53
1680011042146,1191030500750793,2.6230502,6.0700502,7.4290504
1680011042148,1191030503252947,2.628,6.123,7.5079503
1680011042152,1191030505755101,2.63205,6.0750003,7.4599504
1680011042155,1191030508257322,2.67105,6.0220504,7.48395
1680011042156,1191030510759476,2.661,6.096,7.5130506
1680011042158,1191030513261860,2.6850002,6.063,7.4599504
1680011042161,1191030515764014,2.79795,6.0480003,7.4479504
1680011042163,1191030518266245,2.70705,6.012,7.4670005
1680011042165,1191030520768409,2.69895,6.07695,7.4790006
1680011042168,1191030523270563,2.8530002,6.10305,7.58895
1680011042171,1191030525772947,2.87205,5.9929504,7.4149504
1680011042173,1191030528275101,2.901,6.0000005,7.5150003
1680011042176,1191030530777308,2.84805,6.0940504,7.5850506
1680011042178,1191030533279462,2.9269502,6.0150003,7.53
1680011042181,1191030535781846,2.8530002,5.97195,7.5510006
1680011042183,1191030538284000,2.913,5.991,7.6330504
1680011042187,1191030540786135,2.84505,6.012,7.55595
1680011042191,1191030543288289,2.9530501,5.98605,7.6009502
1680011042193,1191030545790751,2.946,6.0000005,7.5799503
1680011042195,1191030548292904,2.93895,5.9929504,7.53
1680011042196,1191030550795091,2.94105,6.0049505,7.4940004
1680011042199,1191030553297245,2.8840501,5.9209504,7.5870004
1680011042203,1191030555799476,2.9509501,5.9290504,7.491
1680011042205,1191030558301630,2.9560502,5.88105,7.5769506
1680011042207,1191030560804014,3.0250502,5.9359503,7.6180506
1680011042209,1191030563306250,2.9250002,5.8999505,7.5510006
1680011042211,1191030565808404,2.982,5.8660502,7.5439506
1680011042212,1191030568310558,3.01305,5.907,7.5319505
1680011042215,1191030570812712,2.9560502,5.9670005,7.46295
1680011042219,1191030573315096,2.9200501,5.907,7.5420003
1680011042223,1191030575817313,2.9509501,5.9430003,7.4749503
1680011042224,1191030578319467,2.9509501,5.9740505,7.4749503
1680011042227,1191030580821621,2.8890002,5.8780503,7.4749503
1680011042230,1191030583324024,2.9340003,6.01695,7.491
1680011042232,1191030585936948,2.90805,5.98395,7.48395
1680011042236,1191030588328332,2.8240502,6.02895,7.5199504
1680011042239,1191030590830563,2.8240502,6.156,7.5030003
1680011042241,1191030593332958,2.8570502,6.1270504,7.46295
1680011042243,1191030595835111,2.901,6.1699505,7.5100503
1680011042244,1191030598337265,2.8570502,6.1660504,7.5079503
1680011042246,1191030600839419,2.877,6.2400002,7.4389505
1680011042248,1191030603341650,2.86695,6.1750503,7.5199504
1680011042251,1191030605843799,2.8170002,6.2760005,7.3980002
1680011042254,1191030608346183,2.733,6.1270504,7.5270004
1680011042255,1191030610848414,2.77395,6.216,7.45095
1680011042259,1191030613350568,2.7139502,6.2260504,7.48605
1680011042262,1191030615852755,2.7109501,6.19005,7.49595
1680011042264,1191030618354909,2.7259502,6.22305,7.458
1680011042266,1191030620857293,2.66595,6.228,7.458
1680011042269,1191030623359524,2.7210002,6.2970004,7.5010505
1680011042272,1191030625861674,2.66595,6.22095,7.35195
1680011042274,1191030628363828,2.67105,6.2689505,7.42395
1680011042275,1191030630866212,2.66295,6.2850003,7.3450503
1680011042279,1191030633368366,2.6179502,6.2760005,7.45095
1680011042281,1191030635870520,2.6920502,6.2059503,7.3020005
1680011042283,1191030638372736,2.6110501,6.3019505,7.37895
1680011042285,1191030640875121,2.532,6.261,7.3020005
1680011042289,1191030643377274,2.57505,6.28305,7.3039503
1680011042292,1191030645879428,2.49795,6.26595,7.4050503
1680011042294,1191030648381664,2.52195,6.3169503,7.3360505
1680011042295,1191030650883818,2.59395,6.3790503,7.3309503
1680011042299,1191030653386202,2.5170002,6.3090005,7.3620005
1680011042302,1191030655888351,2.50095,6.2419505,7.35195
1680011042305,1191030658390582,2.52705,6.2779503,7.42395
1680011042307,1191030660892736,2.505,6.26595,7.3810506
1680011042309,1191030663394890,2.5770001,6.3480005,7.2660003
1680011042312,1191030665897044,2.5510502,6.28095,7.386
1680011042314,1191030668399447,2.4790502,6.3169503,7.35195
1680011042315,1191030670901678,2.601,6.2110505,7.2970505
1680011042318,1191030673403832,2.532,6.288,7.3380003
1680011042321,1191030675905986,2.49795,6.34005,7.3500004
1680011042323,1191030678408370,2.493,6.4080005,7.3309503
1680011042326,1191030680910539,2.5510502,6.393,7.4340005
1680011042329,1191030683412693,2.5510502,6.2520003,7.28805
1680011042331,1191030685915155,2.4810002,6.2760005,7.3639503
1680011042333,1191030688417308,2.565,6.28095,7.37895
1680011042335,1191030690919462,2.5200002,6.3810005,7.2730503
1680011042340,1191030693421616,2.5840502,6.30495,7.3830004
1680011042342,1191030695923847,2.6110501,6.31395,7.36005
1680011042344,1191030698426001,2.55795,6.3240004,7.2420006
1680011042346,1191030700928409,2.5459502,6.2590504,7.28805
1680011042349,1191030703430563,2.568,6.30495,7.24695
1680011042351,1191030705932794,2.5530002,6.321,7.4479504
1680011042354,1191030708434948,2.5459502,6.2779503,7.4149504
1680011042356,1191030710937102,2.604,6.28095,7.4220004
1680011042359,1191030713439289,2.529,6.16305,7.3020005
1680011042361,1191030715941750,2.592,6.3019505,7.29195
1680011042364,1191030718443904,2.6490002,6.2970004,7.3690505
1680011042366,1191030720946058,2.6470501,6.2760005,7.4070005
1680011042369,1191030723448423,2.6230502,6.29505,7.3570504
1680011042372,1191030725950577,2.67105,6.23295,7.3450503
1680011042373,1191030728452731,2.63205,6.23295,7.4100003
1680011042377,1191030730954962,2.6440501,6.321,7.3830004
1680011042379,1191030733457357,2.6419501,6.2059503,7.3500004
1680011042383,1191030735959510,2.63205,6.30705,7.431
1680011042384,1191030738461664,2.7160501,6.2779503,7.3999505
1680011042386,1191030740963818,2.5410001,6.321,7.4269505
1680011042389,1191030743466049,2.6779501,6.2970004,7.55805
1680011042391,1191030745968217,2.6850002,6.321,7.4940004
1680011042396,1191030748470601,2.7160501,6.2760005,7.6159506
1680011042398,1191030750972755,2.6920502,6.249,7.5490503
1680011042399,1191030753474986,2.661,6.2380505,7.6039505
1680011042401,1191030755977140,2.697,6.288,7.4700003
1680011042405,1191030758479524,2.73495,6.34005,7.491
1680011042406,1191030760981678,2.73795,6.28305,7.49595
1680011042409,1191030763483909,2.6490002,6.3310504,7.49805
1680011042411,1191030765986053,2.6850002,6.28095,7.4940004
1680011042416,1191030768488438,2.7589502,6.2419505,7.49805
1680011042417,1191030770990591,2.69895,6.2089505,7.5199504
1680011042420,1191030773492745,2.70705,6.2850003,7.4719505
1680011042422,1191030775994899,2.67105,6.3169503,7.5750003
1680011042423,1191030778497130,2.802,6.2179503,7.49805
1680011042428,1191030780999515,2.7829502,6.3360004,7.45095
1680011042430,1191030783501654,2.838,6.2779503,7.4290504
1680011042432,1191030786003808,2.8260002,6.1849504,7.5460505
1680011042435,1191030788505962,2.8600502,6.23505,7.5319505
1680011042436,1191030791008193,2.805,6.23505,7.5660005
1680011042439,1191030793510577,2.874,6.228,7.4430003
1680011042441,1191030796012803,2.841,6.2260504,7.5199504
1680011042443,1191030798514880,2.8330503,6.156,7.5940504
1680011042446,1191030801017034,2.9250002,6.20205,7.5079503
1680011042457,1191030803519496,2.86695,6.144,7.4269505
1680011042457,1191030806021663,2.805,6.0360003,7.6210504
1680011042458,1191030808523817,2.8189502,6.0550504,7.4820004
1680011042458,1191030811025971,2.90295,6.135,7.5460505
1680011042459,1191030813528202,2.8890002,6.1060505,7.6420503
1680011042461,1191030816030356,2.8980002,6.111,7.5100503
1680011042463,1191030818532755,2.7520502,6.051,7.5100503
1680011042465,1191030821034986,2.91,6.0409503,7.5060005
1680011042468,1191030823537140,2.80995,6.0700502,7.5660005
1680011042471,1191030826039294,2.86695,6.063,7.4700003
1680011042474,1191030828541467,2.8980002,6.19005,7.5870004
1680011042475,1191030831043851,2.9170501,6.0820503,7.4719505
1680011042479,1191030833546005,2.90505,6.08895,7.55595
1680011042481,1191030836048236,2.8240502,6.1150503,7.5010505
1680011042483,1191030838550390,2.8240502,6.135,7.4170504
1680011042486,1191030841052755,2.8980002,6.16305,7.4340005
1680011042491,1191030843554909,2.80005,6.0220504,7.5030003
1680011042493,1191030846057063,2.9170501,6.1699505,7.5460505
1680011042494,1191030848559217,2.93895,6.19005,7.3620005
1680011042496,1191030851061664,2.9320502,6.1969504,7.39095
1680011042499,1191030853563817,2.94105,6.1080003,7.5100503
1680011042501,1191030856065971,2.8219502,6.1150503,7.4430003
1680011042504,1191030858568202,2.7880502,6.111,7.49595
1680011042506,1191030861070356,2.841,6.13005,7.4410505
1680011042513,1191030863572476,2.9890501,6.2059503,7.49595
1680011042513,1191030866074860,3.04905,6.26595,7.5010505
1680011042514,1191030868577091,3.00795,6.2520003,7.5990005
1680011042516,1191030871079245,2.93595,6.22095,7.5340505
1680011042518,1191030873581389,2.93595,6.111,7.431
1680011042521,1191030876083543,2.9560502,6.2779503,7.4290504
1680011042523,1191030878585927,2.9839501,6.216,7.5370502
1680011042527,1191030881088158,2.9340003,6.2089505,7.518
1680011042530,1191030883590307,2.9530501,6.14895,7.4410505
1680011042532,1191030886092461,2.8980002,6.1990504,7.5799503
1680011042534,1191030888594845,2.9320502,6.1800003,7.4599504
1680011042536,1191030891096999,2.9269502,6.1780505,7.4700003
1680011042540,1191030893599168,2.9340003,6.168,7.49595
1680011042541,1191030896101399,2.901,6.168,7.518
1680011042543,1191030898603784,2.9269502,6.1990504,7.5490503
1680011042546,1191030901105937,2.8860002,6.2089505,7.4940004
1680011042549,1191030903608081,2.91,6.16305,7.5850506
1680011042551,1191030906110312,2.8290002,6.216,7.458
1680011042555,1191030908612466,2.84805,6.2059503,7.4460006
1680011042556,1191030911114620,2.84295,6.2710505,7.48605
1680011042559,1191030913616999,2.8620002,6.1729503,7.5460505
1680011042562,1191030916119230,2.79795,6.2590504,7.5079503
1680011042566,1191030918621384,2.7280502,6.18195,7.5030003
1680011042567,1191030921123538,2.77395,6.14895,7.4479504
1680011042570,1191030923625678,2.7859502,6.19395,7.3450503
1680011042572,1191030926128062,2.70195,6.2299504,7.4460006
1680011042573,1191030928630293,2.70705,6.1990504,7.3620005
1680011042576,1191030931132447,2.70405,6.2779503,7.4170504
1680011042582,1191030933634591,2.7190502,6.2470503,7.45095
1680011042583,1191030936136975,2.8170002,6.1800003,7.4479504
1680011042584,1191030938639129,2.6850002,6.168,7.5270004
1680011042586,1191030941141283,2.7589502,6.2590504,7.518
1680011042589,1191030943643514,2.697,6.1270504,7.458
1680011042591,1191030946145893,2.63205,6.2260504,7.431
1680011042596,1191030948648047,2.5840502,6.1699505,7.36005
1680011042597,1191030951150201,2.70705,6.23505,7.45095
1680011042599,1191030953652355,2.63505,6.22305,7.45305
1680011042605,1191030956154538,2.7640502,6.1579504,7.2370505
1680011042606,1191030958656922,2.661,6.2470503,7.48605
1680011042608,1191030961159076,2.66805,6.2520003,7.2850504
1680011042609,1191030963661307,2.6869502,6.22305,7.3360505
1680011042611,1191030966163461,2.73795,6.1540504,7.45305
1680011042613,1191030968665846,2.66295,6.22305,7.3830004
1680011042615,1191030971167760,2.637,6.216,7.4170504
1680011042623,1191030973670144,2.74005,6.2689505,7.4100003
1680011042625,1191030976172375,2.7829502,6.2419505,7.42395
1680011042626,1191030978674731,2.70705,6.2400002,7.4770503
1680011042627,1191030981176654,2.6179502,6.2140503,7.3950005
1680011042630,1191030983679038,2.6920502,6.1009502,7.3740005
1680011042631,1191030986181192,2.6539502,6.2470503,7.4290504
1680011042634,1191030988683375,2.66295,6.16095,7.419
1680011042636,1191030991185529,2.7109501,6.23505,7.3069506
1680011042641,1191030993687913,2.6560502,6.1660504,7.3330503
1680011042642,1191030996190067,2.8240502,6.1699505,7.3830004
1680011042644,1191030998692221,2.6850002,6.216,7.419
1680011042646,1191031001194456,2.7280502,6.22095,7.35195
1680011042649,1191031003696610,2.6419501,6.31395,7.4119506
1680011042651,1191031006198994,2.697,6.28305,7.2400503
1680011042653,1191031008701148,2.7589502,6.09105,7.45095
1680011042655,1191031011203379,2.7499502,6.1699505,7.4050503
1680011042660,1191031013705533,2.7930002,6.168,7.25895
1680011042661,1191031016207687,2.7640502,6.168,7.3380003
1680011042663,1191031018709841,2.805,6.09105,7.3240504
1680011042665,1191031021212312,2.66805,6.2400002,7.2970505
1680011042669,1191031023714466,2.73495,6.19005,7.2900004
1680011042671,1191031026216851,2.77095,6.1990504,7.3000503
1680011042674,1191031028719004,2.80995,6.0720005,7.39305
1680011042677,1191031031221173,2.8330503,6.1800003,7.4070005
1680011042680,1191031033723327,2.84505,6.1699505,7.28805
1680011042682,1191031036225789,2.7229502,6.2059503,7.4100003
1680011042684,1191031038727943,2.7450001,6.0990005,7.4749503
1680011042686,1191031041230096,2.769,6.1150503,7.3380003
1680011042690,1191031043732241,2.73795,6.2260504,7.39095
1680011042691,1191031046234395,2.84505,6.1969504,7.3500004
1680011042693,1191031048736626,2.8290002,6.1060505,7.3039503
1680011042696,1191031051238780,2.8620002,6.1800003,7.3399506
1680011042699,1191031053741120,2.7930002,6.1270504,7.3549504
1680011042702,1191031056243274,2.8549502,6.135,7.2949505
1680011042705,1191031058745505,2.84505,6.1200004,7.3570504
1680011042707,1191031061247659,2.7589502,6.20205,7.3549504
1680011042710,1191031063750043,2.7229502,6.13005,7.3450503
1680011042711,1191031066251967,2.7829502,6.1800003,7.3159504
1680011042716,1191031068754428,2.80995,6.0700502,7.3330503
1680011042718,1191031071256582,2.8500001,6.0670505,7.3620005
1680011042721,1191031073758958,2.7499502,6.1080003,7.3879504
1680011042723,1191031076260881,2.8140001,6.1750503,7.4119506
1680011042724,1191031078763265,2.7280502,6.0990005,7.4170504
1680011042726,1191031081265419,2.7540002,6.144,7.2760506
1680011042730,1191031083767881,2.7280502,5.98605,7.35195
1680011042731,1191031086270039,2.76195,6.14895,7.2370505
1680011042733,1191031088772192,2.733,6.1729503,7.4100003
1680011042736,1191031091274346,2.7229502,6.0940504,7.3399506
1680011042739,1191031093776500,2.7880502,6.16095,7.4410505
1680011042741,1191031096278731,2.7450001,6.063,7.3740005
1680011042743,1191031098781111,2.733,6.0340505,7.4290504
1680011042746,1191031101283265,2.70405,6.15105,7.3620005
1680011042749,1191031103785419,2.7900002,6.1270504,7.3380003
1680011042753,1191031106287674,2.697,6.0550504,7.3759503
1680011042756,1191031108789828,2.63205,6.1540504,7.5769506
1680011042758,1191031111292212,2.697,6.1200004,7.386
1680011042761,1191031113794135,2.7280502,6.0390005,7.49805
1680011042763,1191031116296597,2.7210002,6.11805,7.4119506
1680011042765,1191031118798750,2.709,6.1390505,7.4340005
1680011042766,1191031121301135,2.7640502,6.0750003,7.3450503
1680011042769,1191031123803058,2.709,6.1249504,7.431
1680011042772,1191031126305442,2.70705,6.08895,7.3120503
1680011042773,1191031128807640,2.70705,6.123,7.3830004
1680011042776,1191031131310102,2.7450001,6.0649505,7.3399506
1680011042779,1191031133812255,2.733,6.0940504,7.3429503
1680011042781,1191031136314409,2.697,6.1150503,7.42395
1680011042783,1191031138816553,2.628,6.0990005,7.4359503
1680011042785,1191031141318784,2.66595,6.0750003,7.3759503
1680011042790,1191031143820938,2.6160002,6.084,7.3399506
1680011042792,1191031146323322,2.63205,6.1369505,7.37895
1680011042794,1191031148825500,2.60595,6.0820503,7.4670005
1680011042796,1191031151327654,2.50305,6.1540504,7.2730503
1680011042799,1191031153829885,2.7469501,6.10305,7.431
1680011042801,1191031156332270,2.592,6.1080003,7.3159504
1680011042803,1191031158834423,2.6110501,6.11805,7.2690005
1680011042806,1191031161336610,2.6130002,6.13005,7.3069506
1680011042809,1191031163838841,2.568,6.18195,7.3429503
1680011042811,1191031166340995,2.601,6.1540504,7.3380003
1680011042815,1191031168843149,2.604,6.123,7.2780004
1680011042817,1191031171345600,2.6950502,6.1270504,7.24695
1680011042819,1191031173847754,2.66295,6.1540504,7.4119506
1680011042823,1191031176349908,2.5459502,6.063,7.3620005
1680011042825,1191031178852062,2.6869502,6.1969504,7.28805
1680011042829,1191031181354451,2.66805,6.1249504,7.4070005
1680011042833,1191031183856605,2.66805,6.0390005,7.2690005
1680011042834,1191031186358836,2.697,6.156,7.31895
1680011042836,1191031188860990,2.6590502,6.19395,7.2760506
1680011042838,1191031191363375,2.6830502,6.0720005,7.3549504
1680011042841,1191031193865542,2.7499502,6.0990005,7.3020005
1680011042842,1191031196367696,2.7190502,6.0720005,7.2970505
1680011042844,1191031198869850,2.778,6.144,7.3069506
1680011042846,1191031201372081,2.7469501,6.11805,7.2780004
1680011042849,1191031203874485,2.7589502,6.144,7.3120503
1680011042851,1191031206376639,2.70705,6.13005,7.31895
1680011042854,1191031208878793,2.6850002,6.0750003,7.4290504
1680011042857,1191031211381024,2.73105,6.1369505,7.3000503
1680011042861,1191031213883188,2.6779501,6.0720005,7.431
1680011042863,1191031216385342,2.69895,6.1060505,7.3399506
1680011042865,1191031218887803,2.70705,6.111,7.2829504
1680011042867,1191031221389957,2.7259502,6.1080003,7.42395
1680011042871,1191031223892135,2.7210002,6.0409503,7.2660003
1680011042873,1191031226394289,2.7280502,6.096,7.314
1680011042874,1191031228896673,2.766,6.084,7.45095
1680011042876,1191031231398827,2.73795,6.11805,7.3159504
1680011042879,1191031233901058,2.7810001,6.135,7.2949505
1680011042881,1191031236403212,2.7810001,6.249,7.4220004
1680011042883,1191031238905596,2.7499502,6.2689505,7.3620005
1680011042886,1191031241407750,2.80005,6.16095,7.3000503
1680011042890,1191031243909904,2.8170002,6.1579504,7.2829504
1680011042892,1191031246412072,2.8600502,6.1699505,7.3639503
1680011042893,1191031248914534,2.80695,6.18195,7.3159504
1680011042896,1191031251416687,2.946,6.1699505,7.4890504
1680011042899,1191031253918841,2.76195,6.2059503,7.45305
1680011042902,1191031256420986,2.83605,6.19005,7.4220004
1680011042905,1191031258923217,2.83095,6.16095,7.3950005
1680011042906,1191031261425371,2.84295,6.2299504,7.4340005
1680011042909,1191031263927755,2.79795,6.2059503,7.5220504
1680011042911,1191031266429909,2.8650002,6.1920004,7.5150003
1680011042914,1191031268932130,2.87205,6.1870503,7.45095
1680011042916,1191031271434284,2.8219502,6.2449503,7.386
1680011042920,1191031273936438,2.7880502,6.1729503,7.4170504
1680011042922,1191031276438822,2.913,6.28305,7.458
1680011042924,1191031278940966,2.8600502,6.2710505,7.5010505
1680011042927,1191031281443197,2.9340003,6.28305,7.46505
1680011042930,1191031283945351,2.9250002,6.2760005,7.5220504
1680011042932,1191031286447735,2.86695,6.31395,7.4340005
1680011042934,1191031288949889,2.88105,6.2380505,7.431
1680011042936,1191031291452058,2.877,6.288,7.49805
1680011042941,1191031293954212,2.83095,6.2640004,7.49805
1680011042943,1191031296456674,2.86905,6.321,7.3950005
1680011042944,1191031298958827,2.8600502,6.3739505,7.386
1680011042946,1191031301461005,2.9680502,6.2520003,7.5010505
1680011042949,1191031303963236,2.8189502,6.22095,7.49595
1680011042951,1191031306465390,2.8840501,6.3019505,7.53
1680011042954,1191031308967544,2.8530002,6.3430505,7.49805
1680011042956,1191031311469928,2.88105,6.28095,7.4599504
1680011042959,1191031313972173,2.8170002,6.30705,7.4940004
1680011042962,1191031316474327,2.874,6.2520003,7.4070005
1680011042964,1191031318976481,2.8140001,6.2899504,7.4749503
1680011042966,1191031321478635,2.8240502,6.2520003,7.5460505
1680011042970,1191031323980995,2.8170002,6.3310504,7.4820004
1680011042971,1191031326483226,2.8260002,6.2760005,7.4290504
1680011042973,1191031328985380,2.80995,6.2779503,7.5130506
1680011042978,1191031331487529,2.8860002,6.288,7.4430003
1680011042980,1191031333989913,2.8600502,6.25395,7.5439506
1680011042982,1191031336492067,2.8240502,6.2689505,7.3950005
1680011042984,1191031338994221,2.86695,6.30495,7.4269505
1680011042986,1191031341496452,2.84805,6.393,7.5990005
1680011042990,1191031343998837,2.80005,6.3360004,7.45095
1680011042991,1191031346500990,2.80695,6.2520003,7.4389505
1680011042995,1191031349003144,2.84805,6.288,7.518
1680011042996,1191031351505298,2.8620002,6.29505,7.4269505
1680011042999,1191031354007548,2.7499502,6.4290004,7.46505
1680011043001,1191031356509702,2.7589502,6.3090005,7.4149504
1680011043003,1191031359012086,2.7450001,6.3450003,7.4749503
1680011043006,1191031361514317,2.77095,6.2779503,7.4100003
1680011043009,1191031364016447,2.766,6.3310504,7.431
1680011043011,1191031366518601,2.7589502,6.2689505,7.4550004
1680011043015,1191031369020755,2.7930002,6.3090005,7.5319505
1680011043017,1191031371523139,2.84805,6.34005,7.4599504
1680011043020,1191031374025361,2.73495,6.2590504,7.55595
1680011043022,1191031376527515,2.7880502,6.2590504,7.4359503
1680011043024,1191031379029669,2.7810001,6.2760005,7.3879504
1680011043026,1191031381532053,2.7949502,6.2260504,7.3620005
1680011043030,1191031384034212,2.7520502,6.216,7.3690505
1680011043032,1191031386536366,2.7949502,6.2760005,7.326
1680011043035,1191031389038597,2.73495,6.2260504,7.4340005
1680011043037,1191031391540981,2.84805,6.23505,7.49805
1680011043039,1191031394043135,2.80695,6.321,7.4389505
1680011043041,1191031396545293,2.7589502,6.2760005,7.419
1680011043044,1191031399047447,2.74005,6.16305,7.5660005
1680011043046,1191031401549678,2.77395,6.2089505,7.326
1680011043050,1191031404052062,2.8189502,6.216,7.3810506
1680011043053,1191031406554231,2.841,6.2970004,7.48395
1680011043055,1191031409056462,2.7880502,6.2710505,7.5150003
1680011043057,1191031411558616,2.8530002,6.333,7.4050503
1680011043059,1191031414060770,2.7589502,6.23295,7.2949505
1680011043061,1191031416562905,2.80995,6.2760005,7.4940004
1680011043064,1191031419065289,2.80995,6.3019505,7.4410505
1680011043066,1191031421567520,2.84505,6.3190503,7.3830004
1680011043070,1191031424069674,2.9269502,6.30705,7.3720503
1680011043071,1191031426571828,2.90505,6.2590504,7.4220004
1680011043081,1191031429074212,2.9479501,6.23295,7.431
1680011043081,1191031431576366,2.8930502,6.4030504,7.3620005
1680011043082,1191031434078520,2.84805,6.29295,7.3830004
1680011043082,1191031436580751,2.84505,6.36705,7.37895
1680011043083,1191031439083135,2.9340003,6.2419505,7.458
1680011043086,1191031441585289,2.8860002,6.2850003,7.3759503
1680011043091,1191031444087443,2.79795,6.3499503,7.431
1680011043093,1191031446589606,2.8930502,6.2710505,7.4149504
1680011043094,1191031449091837,2.8840501,6.2899504,7.3810506
1680011043096,1191031451594221,2.8980002,6.3169503,7.3950005
1680011043100,1191031454096375,2.97,6.3690004,7.49805
1680011043102,1191031456598606,2.877,6.3090005,7.48395
1680011043105,1191031459100760,2.9200501,6.3450003,7.3500004
1680011043106,1191031461602914,2.9250002,6.288,7.3309503
1680011043109,1191031464105068,2.9839501,6.3090005,7.4340005
1680011043111,1191031466607529,2.913,6.36,7.52505
1680011043116,1191031469109650,2.83605,6.29505,7.4479504
1680011043117,1191031471611804,3.0589502,6.2850003,7.4269505
1680011043121,1191031474113958,2.8860002,6.26595,7.5340505
1680011043123,1191031476616342,2.9650502,6.2520003,7.3830004
1680011043124,1191031479118496,3.0300002,6.29295,7.4119506
1680011043129,1191031481620698,2.91,6.3090005,7.281
1680011043131,1191031484122852,2.913,6.3499503,7.254
1680011043133,1191031486625236,2.841,6.28095,7.4460006
1680011043136,1191031489127390,2.83605,6.3190503,7.3000503
1680011043138,1191031491629621,2.901,6.2970004,7.3720503
1680011043140,1191031494131770,2.90295,6.23295,7.4220004
1680011043141,1191031496633924,2.8620002,6.3190503,7.3549504
1680011043143,1191031499136308,2.8530002,6.2970004,7.4269505
1680011043146,1191031501638462,2.7880502,6.2040005,7.46295
1680011043150,1191031504140616,2.802,6.2110505,7.4119506
1680011043151,1191031506642760,2.802,6.2689505,7.3639503
1680011043157,1191031509145221,2.709,6.19005,7.3740005
1680011043158,1191031511647375,2.874,6.3019505,7.4220004
1680011043160,1191031514149529,2.77095,6.2689505,7.4070005
1680011043162,1191031516651683,2.7499502,6.1870503,7.3039503
1680011043165,1191031519153914,2.7570002,6.2779503,7.32105
1680011043167,1191031521656068,2.7810001,6.23295,7.326
1680011043170,1191031524158452,2.83095,6.2470503,7.3039503
1680011043172,1191031526660683,2.7280502,6.156,7.24695
1680011043174,1191031529162837,2.83095,6.2260504,7.3020005
1680011043177,1191031531664991,2.7859502,6.2689505,7.3669505
1680011043179,1191031534167145,2.697,6.2689505,7.2780004
1680011043181,1191031536669529,2.733,6.2059503,7.3330503
1680011043185,1191031539171683,2.70705,6.2449503,7.4170504
1680011043187,1191031541673914,2.76195,6.29505,7.3399506
1680011043190,1191031544176068,2.70705,6.19005,7.4340005
1680011043192,1191031546678452,2.80695,6.25395,7.3740005
1680011043196,1191031549180606,2.70195,6.3120003,7.3159504
1680011043197,1191031551682760,2.769,6.3520503,7.2730503
1680011043200,1191031554184991,2.7109501,6.2380505,7.22805
1680011043203,1191031556687375,2.76195,6.2140503,7.1940002
1680011043205,1191031559189529,2.697,6.29295,7.2330003
1680011043206,1191031561691683,2.7880502,6.35505,7.2180004
1680011043209,1191031564193837,2.7589502,6.3019505,7.2420006
1680011043211,1191031566696068,2.7139502,6.2400002,7.3620005
1680011043213,1191031569198457,2.7810001,6.29295,7.3759503
1680011043216,1191031571700611,2.7139502,6.3480005,7.4410505
1680011043219,1191031574202842,2.69895,6.3760505,7.2109504
1680011043221,1191031576704996,2.7469501,6.30705,7.3069506
1680011043224,1191031579207131,2.7139502,6.28305,7.2780004
1680011043226,1191031581709285,2.73795,6.29295,7.3330503
1680011043230,1191031584211669,2.7190502,6.30705,7.2730503
1680011043232,1191031586713823,2.74005,6.249,7.3090506
1680011043235,1191031589216058,2.7450001,6.3019505,7.2949505
1680011043236,1191031591718212,2.7210002,6.33795,7.2829504
1680011043241,1191031594220596,2.7829502,6.2710505,7.2850504
1680011043242,1191031596722750,2.6800501,6.31395,7.26105
1680011043244,1191031599224924,2.6560502,6.3570004,7.3120503
1680011043246,1191031601727155,2.6250002,6.33795,7.2900004
1680011043249,1191031604229539,2.76195,6.3910503,7.2349505
1680011043254,1191031606731693,2.80995,6.2710505,7.2709503
1680011043254,1191031609233847,2.69895,6.28095,7.24695
1680011043256,1191031611736025,2.6539502,6.32595,7.4070005
1680011043259,1191031614238256,2.6560502,6.43905,7.2780004
1680011043262,1191031616740640,2.66595,6.35505,7.3039503
1680011043265,1191031619242794,2.697,6.3640504,7.2949505
1680011043267,1191031621745015,2.70405,6.3450003,7.2760506
1680011043270,1191031624247169,2.7540002,6.393,7.3000503
1680011043271,1191031626749323,2.6950502,6.35505,7.3020005
1680011043275,1191031629251476,2.6950502,6.4099503,7.2400503
1680011043278,1191031631753947,2.7280502,6.35505,7.2570004
1680011043281,1191031634256024,2.77095,6.4120502,7.39095
1680011043283,1191031636758255,2.70195,6.4410005,7.3360505
