system_ts_ms, sensor_ts_ns, gyrX, gyrY, gyrZ
1679998098399,1178086745136396,-0.00825,-0.065725,-0.0149875
1679998098400,1178086747638550,-0.005225,-0.0617375,-0.0149875
1679998098400,1178086750140627,-0.00825,-0.05775,-0.017875
1679998098401,1178086752642781,-0.010175,-0.0507375,-0.0209
1679998098401,1178086755144708,-0.00825,-0.0427625,-0.0209
1679998098402,1178086757646862,-0.0111375,-0.043725,-0.0229625
1679998098416,1178086760149015,-0.016224999,-0.0446875,-0.0259875
1679998098417,1178086762651169,-0.01815,-0.0446875,-0.029975
1679998098418,1178086765153256,-0.0221375,-0.0517,-0.0358875
1679998098418,1178086767655410,-0.0251625,-0.0587125,-0.03795
1679998098419,1178086770157333,-0.032175,-0.0636625,-0.03795
1679998098420,1178086772659487,-0.04015,-0.0776875,-0.0389125
1679998098421,1178086775161636,-0.0342375,-0.0947375,-0.039875
1679998098428,1178086777663790,-0.038225,-0.104637496,-0.0369875
1679998098428,1178086780165867,-0.038225,-0.1186625,-0.028875
1679998098428,1178086782668020,-0.0352,-0.13365,-0.029975
1679998098430,1178086785169943,-0.0352,-0.1417625,-0.0279125
1679998098432,1178086787672030,-0.0331375,-0.1516625,-0.0229625
1679998098437,1178086790174184,-0.0312125,-0.1546875,-0.018975
1679998098437,1178086792676338,-0.032175,-0.1596375,-0.01595
1679998098440,1178086795178492,-0.0331375,-0.164725,-0.0108624995
1679998098442,1178086797680405,-0.03025,-0.164725,-0.006875
1679998098446,1178086800182559,-0.0262625,-0.1637625,-0.0028875
1679998098447,1178086802684636,-0.0251625,-0.1656875,1.375E-4
1679998098454,1178086805186790,-0.0232375,-0.1637625,0.003025
1679998098454,1178086807688713,-0.0221375,-0.1577125,0.0070125
1679998098456,1178086810191097,-0.01925,-0.1486375,0.009075
1679998098457,1178086812693020,-0.01815,-0.142725,0.0111375
1679998098460,1178086815195174,-0.01815,-0.12773749,0.0121
1679998098463,1178086817697222,-0.014162499,-0.1167375,0.013062499
1679998098465,1178086820199376,-0.0111375,-0.1076625,0.0121
1679998098472,1178086822701299,-0.00825,-0.093637496,0.0100375
1679998098472,1178086825203684,-0.0061875,-0.0847,0.0111375
1679998098472,1178086827705607,-0.0022,-0.06875,0.0100375
1679998098476,1178086830207766,0.00385,-0.0556875,0.0100375
1679998098477,1178086832709843,0.0048125,-0.0397375,0.0111375
1679998098480,1178086835211997,0.005775,-0.0297,0.0111375
1679998098483,1178086837713920,0.0067375,-0.01375,0.0121
1679998098488,1178086840216059,0.0067375,-0.004675,0.0121
1679998098489,1178086842718213,0.0108624995,0.0033,0.0111375
1679998098493,1178086845220290,0.01485,0.0182875,0.0111375
1679998098494,1178086847722444,0.01485,0.0292875,0.009075
1679998098495,1178086850224323,0.0158125,0.0383625,0.004125
1679998098497,1178086852726477,0.01375,0.0433125,0.003025
1679998098504,1178086855228554,0.01485,0.0512875,0.004125
1679998098505,1178086857730785,0.0158125,0.0573375,0.0020625
1679998098505,1178086860232862,0.0188375,0.0573375,-9.625E-4
1679998098507,1178086862735012,0.0177375,0.0622875,-0.001925
1679998098510,1178086865236935,0.0188375,0.069299996,-0.0039875
1679998098512,1178086867739088,0.01485,0.0713625,-0.00495
1679998098515,1178086870241165,0.0158125,0.0702625,-0.0028875
1679998098521,1178086872743304,0.01485,0.0713625,-0.001925
1679998098521,1178086875245458,0.0158125,0.072325,-0.0099
1679998098523,1178086877747612,0.016775,0.066275,-0.0059125
1679998098527,1178086880249535,0.0158125,0.06325,-0.006875
1679998098529,1178086882751664,0.01375,0.0592625,-0.0119624995
1679998098532,1178086885253741,0.0078375,0.0543125,-0.012925
1679998098533,1178086887755895,0.0048125,0.0493625,-0.0099
1679998098539,1178086890257818,0.00385,0.0433125,-0.0108624995
1679998098540,1178086892760202,8.25E-4,0.0292875,-0.0089375
1679998098541,1178086895262120,-0.005225,0.022275,-0.0059125
1679998098543,1178086897764274,-0.00715,0.0133375,-0.0108624995
1679998098545,1178086900266351,-0.010175,2.75E-4,-0.0089375
1679998098547,1178086902768274,-0.0122375,-0.0077,-0.0089375
1679998098554,1178086905270428,-0.016224999,-0.0177375,-0.0059125
1679998098555,1178086907772813,-0.016224999,-0.0276375,-0.00495
1679998098555,1178086910274736,-0.015262499,-0.037675,-0.00495
1679998098557,1178086912776813,-0.0132,-0.0477125,-0.0059125
1679998098560,1178086915278948,-0.016224999,-0.0517,-0.0059125
1679998098564,1178086917781102,-0.01815,-0.0556875,-0.0059125
1679998098565,1178086920283025,-0.0202125,-0.05775,-0.0059125
1679998098570,1178086922785102,-0.0171875,-0.059675,-0.0089375
1679998098571,1178086925287299,-0.016224999,-0.0627,-0.007975
1679998098573,1178086927789376,-0.015262499,-0.0627,-0.007975
1679998098576,1178086930291530,-0.016224999,-0.0636625,-0.007975
1679998098577,1178086932793453,-0.016224999,-0.0647625,-0.007975
1679998098580,1178086935295598,-0.0171875,-0.0647625,-0.0028875
1679998098584,1178086937797675,-0.0171875,-0.059675,1.375E-4
1679998098590,1178086940299829,-0.01815,-0.0556875,1.375E-4
1679998098591,1178086942801983,-0.01815,-0.0537625,0.003025
1679998098592,1178086945304145,-0.0171875,-0.04675,0.003025
1679998098593,1178086947806069,-0.014162499,-0.0416625,0.003025
1679998098595,1178086950308146,-0.0122375,-0.0397375,0.004125
1679998098597,1178086952810376,-0.0122375,-0.0446875,0.00605
1679998098605,1178086955312453,-0.0122375,-0.0386375,0.0070125
1679998098605,1178086957814607,-0.00825,-0.03575,0.0070125
1679998098606,1178086960316530,-0.00715,-0.034649998,0.00605
1679998098607,1178086962818684,-0.00715,-0.034649998,0.0050875
1679998098611,1178086965320761,-0.0022,-0.0386375,0.004125
1679998098612,1178086967823020,-0.0022,-0.0386375,0.004125
1679998098615,1178086970325097,-1.375E-4,-0.0386375,0.0070125
1679998098623,1178086972827250,-0.0022,-0.0446875,0.0070125
1679998098624,1178086975329174,-0.0022,-0.048675,0.0050875
1679998098625,1178086977831342,-0.0012375,-0.0517,0.003025
1679998098625,1178086980333419,-0.0012375,-0.054725,0.003025
1679998098628,1178086982835573,-0.0022,-0.0526625,0.0011
1679998098631,1178086985337727,-1.375E-4,-0.0526625,0.003025
1679998098634,1178086987839881,-0.0012375,-0.0587125,1.375E-4
1679998098640,1178086990341804,-0.0012375,-0.065725,-0.00495
1679998098640,1178086992843881,-0.0031625,-0.06765,-0.00495
1679998098642,1178086995346035,-0.005225,-0.0697125,-0.006875
1679998098643,1178086997848189,-0.0022,-0.0776875,-0.0099
1679998098645,1178087000350121,-0.00825,-0.081675,-0.012925
1679998098647,1178087002852275,-0.0092124995,-0.0867625,-0.017875
1679998098653,1178087005354428,-0.00715,-0.087725,-0.0149875
1679998098654,1178087007856505,-0.00825,-0.095699996,-0.0169125
1679998098655,1178087010358669,-0.0061875,-0.103675,-0.017875
1679998098658,1178087012860592,-0.005225,-0.1087625,-0.017875
1679998098660,1178087015362746,-0.0061875,-0.11165,-0.0209
1679998098663,1178087017864900,-0.0061875,-0.11165,-0.0218625
1679998098665,1178087020367078,-0.005225,-0.115637496,-0.0259875
1679998098673,1178087022869155,-0.0061875,-0.115637496,-0.0319
1679998098674,1178087025371309,-0.0122375,-0.1216875,-0.0328625
1679998098675,1178087027873232,-0.014162499,-0.12265,-0.034925
1679998098677,1178087030375381,-0.015262499,-0.12773749,-0.0369875
1679998098678,1178087032877457,-0.0171875,-0.1307625,-0.0419375
1679998098681,1178087035379688,-0.016224999,-0.1307625,-0.0438625
1679998098683,1178087037881765,-0.0171875,-0.13365,-0.0449625
1679998098687,1178087040383919,-0.0171875,-0.142725,-0.0419375
1679998098688,1178087042885871,-0.016224999,-0.14575,-0.0429
1679998098691,1178087045388025,-0.016224999,-0.153725,-0.0438625
1679998098692,1178087047890102,-0.0111375,-0.16775,-0.0438625
1679998098695,1178087050392025,-0.0111375,-0.1766875,-0.0429
1679998098697,1178087052894405,-0.010175,-0.17875,-0.0429
1679998098703,1178087055396558,-0.0111375,-0.1907125,-0.0499125
1679998098704,1178087057898482,-0.0122375,-0.1967625,-0.0539
1679998098705,1178087060400558,-0.0122375,-0.197725,-0.0529375
1679998098708,1178087062902717,-0.016224999,-0.2017125,-0.0559625
1679998098711,1178087065404871,-0.016224999,-0.2047375,-0.0609125
1679998098714,1178087067907025,-0.016224999,-0.21175,-0.05995
1679998098716,1178087070408948,-0.0171875,-0.21573749,-0.0609125
1679998098722,1178087072911073,-0.01815,-0.2237125,-0.064899996
1679998098723,1178087075413150,-0.01925,-0.2297625,-0.0658625
1679998098724,1178087077915304,-0.021175,-0.241725,-0.0669625
1679998098725,1178087080417227,-0.0202125,-0.2567125,-0.0688875
1679998098728,1178087082919381,-0.01815,-0.2707375,-0.07095
1679998098731,1178087085421549,-0.01815,-0.2806375,-0.0749375
1679998098733,1178087087923702,-0.021175,-0.2937,-0.078925
1679998098739,1178087090425779,-0.0202125,-0.3117125,-0.083875
1679998098739,1178087092927933,-0.01815,-0.3246375,-0.0889625
1679998098741,1178087095429861,-0.021175,-0.34265,-0.0939125
1679998098744,1178087097932015,-0.021175,-0.3636875,-0.0979
1679998098745,1178087100434169,-0.0221375,-0.3817,-0.10395
1679998098747,1178087102936323,-0.0232375,-0.40865,-0.1128875
1679998098754,1178087105438385,-0.0262625,-0.4387625,-0.1219625
1679998098755,1178087107940539,-0.0262625,-0.46365,-0.1309
1679998098757,1178087110442462,-0.032175,-0.488675,-0.1419
1679998098759,1178087112944616,-0.0342375,-0.5146625,-0.155925
1679998098761,1178087115446678,-0.0391875,-0.538725,-0.1648625
1679998098762,1178087117948832,-0.0441375,-0.56168747,-0.1819125
1679998098765,1178087120450986,-0.0471625,-0.5836875,-0.193875
1679998098770,1178087122952909,-0.05115,-0.609675,-0.2039125
1679998098771,1178087125455078,-0.0551375,-0.6347,-0.216975
1679998098773,1178087127957155,-0.0611875,-0.66165,-0.2308625
1679998098776,1178087130459309,-0.0642125,-0.68475,-0.2399375
1679998098778,1178087132961232,-0.0702625,-0.71665,-0.2519
1679998098780,1178087135463607,-0.07425,-0.7456625,-0.2638625
1679998098783,1178087137965530,-0.0801625,-0.78265,-0.2748625
1679998098785,1178087140467683,-0.089237496,-0.8116625,-0.2849
1679998098789,1178087142969760,-0.09625,-0.8327,-0.2979625
1679998098792,1178087145471895,-0.1101375,-0.8507125,-0.3078625
1679998098793,1178087147973818,-0.12815,-0.8636375,-0.3188625
1679998098795,1178087150476203,-0.13915,-0.8647375,-0.326975
1679998098797,1178087152978126,-0.148225,-0.8677625,-0.336875
1679998098800,1178087155480289,-0.159225,-0.87175,-0.348975
1679998098803,1178087157982366,-0.164175,-0.8787625,-0.358875
1679998098805,1178087160484520,-0.1651375,-0.8886625,-0.370975
1679998098808,1178087162986443,-0.164175,-0.901725,-0.3878875
1679998098811,1178087165488612,-0.1582625,-0.928675,-0.402875
1679998098813,1178087167990765,-0.1491875,-0.9466875,-0.4189625
1679998098815,1178087170492842,-0.1431375,-0.956725,-0.4379375
1679998098817,1178087172994996,-0.1351625,-0.9667625,-0.4549875
1679998098821,1178087175496919,-0.1291125,-0.9796875,-0.469975
1679998098823,1178087177999313,-0.122237496,-0.9997625,-0.485925
1679998098827,1178087180501236,-0.115225,-1.0236875,-0.491975
1679998098829,1178087183003390,-0.1101375,-1.0637,-0.4978875
1679998098832,1178087185505453,-0.109175,-1.093675,-0.496925
1679998098834,1178087188007376,-0.1082125,-1.137675,-0.491975
1679998098835,1178087190509530,-0.109175,-1.1957,-0.479875
1679998098838,1178087193011684,-0.115225,-1.2617,-0.45993748
1679998098841,1178087195513837,-0.1241625,-1.3407625,-0.4379375
1679998098843,1178087198015996,-0.131175,-1.4196875,-0.4189625
1679998098845,1178087200518073,-0.142175,-1.5046625,-0.3969625
1679998098848,1178087203020227,-0.1511125,-1.58565,-0.37193748
1679998098853,1178087205522150,-0.1621125,-1.6666375,-0.3449875
1679998098854,1178087208024217,-0.1711875,-1.74075,-0.3188625
1679998098855,1178087210526448,-0.186175,-1.8117,-0.2899875
1679998098858,1178087213028602,-0.197175,-1.8596874,-0.26895
1679998098861,1178087215530679,-0.2121625,-1.8887,-0.249975
1679998098865,1178087218032617,-0.224125,-1.8976375,-0.2338875
1679998098867,1178087220534771,-0.2292125,-1.9086375,-0.227975
1679998098868,1178087223036848,-0.236225,-1.918675,-0.22495
1679998098872,1178087225539001,-0.23815,-1.9116625,-0.22495
1679998098873,1178087228041155,-0.257125,-1.82765,-0.2349875
1679998098876,1178087230543304,-0.280225,-1.71875,-0.2519
1679998098878,1178087233045227,-0.302225,-1.6467,-0.2739
1679998098881,1178087235547381,-0.3161125,-1.577675,-0.3029125
1679998098884,1178087238049458,-0.3301375,-1.4997125,-0.3449875
1679998098885,1178087240551612,-0.3491125,-1.42175,-0.3939375
1679998098888,1178087243053535,-0.357225,-1.341725,-0.4409625
1679998098892,1178087245555689,-0.36313748,-1.2727,-0.4899125
1679998098893,1178087248057843,-0.3691875,-1.2137125,-0.5379
1679998098895,1178087250560001,-0.373175,-1.16875,-0.584925
1679998098898,1178087253062078,-0.3741375,-1.1357499,-0.6259
1679998098902,1178087255564232,-0.379225,-1.1086625,-0.666875
1679998098905,1178087258066155,-0.3821125,-1.0877625,-0.7019375
1679998098907,1178087260568535,-0.3872,-1.071675,-0.7249
1679998098908,1178087263070458,-0.3931125,-1.05765,-0.7478625
1679998098911,1178087265572535,-0.39421248,-1.03565,-0.7679375
1679998098913,1178087268074689,-0.395175,-1.016675,-0.7739875
1679998098915,1178087270576843,-0.39214998,-0.9887625,-0.7739875
1679998098919,1178087273078766,-0.389125,-0.961675,-0.771925
1679998098921,1178087275580843,-0.3832125,-0.9246875,-0.7579
1679998098926,1178087278083073,-0.379225,-0.8806875,-0.7368625
1679998098927,1178087280585150,-0.3762,-0.8366875,-0.7049625
1679998098928,1178087283087333,-0.3691875,-0.7976375,-0.6659125
1679998098931,1178087285589256,-0.3532375,-0.7547375,-0.622875
1679998098933,1178087288091410,-0.3422375,-0.7027625,-0.578875
1679998098935,1178087290593487,-0.3301375,-0.6527125,-0.5269
1679998098939,1178087293095617,-0.31913748,-0.598675,-0.474925
1679998098942,1178087295597771,-0.3001625,-0.54065,-0.424875
1679998098944,1178087298099925,-0.2872375,-0.4797375,-0.3729
1679998098946,1178087300601848,-0.2732125,-0.4236375,-0.32395
1679998098948,1178087303104002,-0.2591875,-0.3636875,-0.2778875
1679998098951,1178087305606074,-0.2451625,-0.3086875,-0.23595
1679998098953,1178087308108227,-0.2332,-0.25465,-0.1978625
1679998098955,1178087310610381,-0.2212375,-0.2047375,-0.160875
1679998098958,1178087313112535,-0.2091375,-0.158675,-0.1318625
1679998098961,1178087315614458,-0.20019999,-0.1216875,-0.105875
1679998098963,1178087318116612,-0.1931875,-0.0807125,-0.084975
1679998098965,1178087320618689,-0.1841125,-0.045649998,-0.0699875
1679998098968,1178087323120612,-0.17613749,-0.014712499,-0.0578875
1679998098971,1178087325622771,-0.1681625,0.00935,-0.0479875
1679998098973,1178087328124925,-0.1662375,0.0323125,-0.039875
1679998098978,1178087330627079,-0.1621125,0.0493625,-0.0358875
1679998098979,1178087333129155,-0.15619999,0.06435,-0.0358875
1679998098982,1178087335631294,-0.15413749,0.0732875,-0.034925
1679998098984,1178087338133217,-0.1511125,0.08525,-0.0369875
1679998098986,1178087340635371,-0.1511125,0.0903375,-0.040975
1679998098988,1178087343137525,-0.1552375,0.089237496,-0.040975
1679998098991,1178087345639679,-0.15619999,0.0873125,-0.0449625
1679998098993,1178087348141756,-0.1571625,0.0823625,-0.045925
1679998098996,1178087350643910,-0.1571625,0.0732875,-0.04895
1679998098998,1178087353145833,-0.159225,0.0653125,-0.051975
1679998099001,1178087355648011,-0.1601875,0.052249998,-0.051975
1679998099003,1178087358150088,-0.1632125,0.0383625,-0.0548625
1679998099005,1178087360652318,-0.170225,0.0243375,-0.051975
1679998099010,1178087363154395,-0.1672,0.0143,-0.050875
1679998099012,1178087365656564,-0.1672,2.75E-4,-0.050875
1679998099019,1178087368158487,-0.1742125,-0.014712499,-0.050875
1679998099037,1178087370660641,-0.17215,-0.0276375,-0.0529375
1679998099037,1178087373162718,-0.1731125,-0.0397375,-0.0539
1679998099038,1178087375664872,-0.1782,-0.0526625,-0.0559625
1679998099038,1178087378167026,-0.1782,-0.0636625,-0.0548625
1679998099038,1178087380668949,-0.18315,-0.0697125,-0.0529375
1679998099039,1178087383171103,-0.1821875,-0.0746625,-0.0548625
1679998099039,1178087385673257,-0.1871375,-0.0807125,-0.051975
1679998099040,1178087388175333,-0.1892,-0.0837375,-0.0499125
1679998099040,1178087390677257,-0.1901625,-0.0856625,-0.0479875
1679998099040,1178087393179641,-0.192225,-0.087725,-0.045925
1679998099041,1178087395681564,-0.1901625,-0.087725,-0.040975
1679998099043,1178087398183641,-0.192225,-0.0917125,-0.03795
1679998099045,1178087400685795,-0.1931875,-0.093637496,-0.0389125
1679998099048,1178087403187718,-0.191125,-0.087725,-0.0369875
1679998099052,1178087405690103,-0.19415,-0.0867625,-0.0279125
1679998099054,1178087408192050,-0.1901625,-0.0847,-0.02695
1679998099056,1178087410694204,-0.186175,-0.07975,-0.0259875
1679998099058,1178087413196281,-0.181225,-0.07865,-0.0218625
1679998099061,1178087415698434,-0.17613749,-0.0757625,-0.0199375
1679998099064,1178087418200338,-0.1672,-0.06875,-0.012925
1679998099065,1178087420702722,-0.16115,-0.0636625,-0.0099
1679998099068,1178087423204645,-0.1571625,-0.0617375,-0.0059125
1679998099071,1178087425706722,-0.1431375,-0.0556875,-0.001925
1679998099072,1178087428208876,-0.1351625,-0.0496375,1.375E-4
1679998099076,1178087430711016,-0.131175,-0.0507375,0.0050875
1679998099078,1178087433212939,-0.1232,-0.043725,0.009075
1679998099081,1178087435715016,-0.115225,-0.03575,0.0111375
1679998099083,1178087438217247,-0.109175,-0.0276375,0.013062499
1679998099086,1178087440719411,-0.10615,-0.0226875,0.013062499
1679998099089,1178087443221487,-0.103125,-0.0177375,0.014025
1679998099093,1178087445723411,-0.0991375,-0.0056375,0.015125
1679998099093,1178087448225564,-0.100237496,0.0053625,0.01705
1679998099095,1178087450727703,-0.0972125,0.017324999,0.014025
1679998099098,1178087453229857,-0.0911625,0.03025,0.014025
1679998099100,1178087455731934,-0.087175,0.0342375,0.014025
1679998099104,1178087458234088,-0.082225,0.0452375,0.0111375
1679998099106,1178087460736011,-0.0782375,0.0543125,0.0070125
1679998099108,1178087463238160,-0.0721875,0.06435,0.003025
1679998099110,1178087465740237,-0.065175,0.072325,0.0020625
1679998099113,1178087468242391,-0.0642125,0.077275,-0.0039875
1679998099115,1178087470744544,-0.054175,0.0803,-0.0089375
1679998099118,1178087473246473,-0.048125,0.0823625,-0.0089375
1679998099121,1178087475748626,-0.049225,0.0873125,-0.0199375
1679998099123,1178087478250780,-0.043175,0.0903375,-0.0199375
1679998099127,1178087480752862,-0.043175,0.0952875,-0.0199375
1679998099129,1178087483254785,-0.0411125,0.09625,-0.0248875
1679998099132,1178087485756939,-0.04015,0.09625,-0.02695
1679998099134,1178087488259324,-0.0411125,0.0922625,-0.0279125
1679998099136,1178087490761247,-0.04015,0.083325,-0.0248875
1679998099138,1178087493263319,-0.0411125,0.0803,-0.0248875
1679998099141,1178087495765473,-0.04015,0.0713625,-0.0248875
1679998099144,1178087498267626,-0.043175,0.0592625,-0.023924999
1679998099145,1178087500769550,-0.0391875,0.055275,-0.0259875
1679998099148,1178087503271712,-0.038225,0.0463375,-0.02695
1679998099151,1178087505773866,-0.0422125,0.0402875,-0.0248875
1679998099153,1178087508275943,-0.043175,0.0323125,-0.0229625
1679998099156,1178087510778097,-0.0411125,0.0232375,-0.0229625
1679998099159,1178087513280020,-0.0422125,0.02035,-0.0199375
1679998099161,1178087515782174,-0.0441375,0.0122375,-0.0169125
1679998099164,1178087518284328,-0.0452375,0.0042625,-0.0119624995
1679998099166,1178087520786482,-0.0441375,-0.00165,-0.007975
1679998099170,1178087523288559,-0.043175,-0.004675,-0.006875
1679998099174,1178087525790698,-0.0441375,-0.0067375,-0.0089375
1679998099175,1178087528292622,-0.0441375,-0.0086624995,-0.0089375
1679998099176,1178087530794698,-0.0391875,-0.0037125,-0.0119624995
1679998099178,1178087533296852,-0.037125,-0.0056375,-0.0108624995
1679998099180,1178087535799011,-0.032175,-0.00275,-0.017875
1679998099184,1178087538301165,-0.0312125,0.0023375,-0.0218625
1679998099185,1178087540803088,-0.0312125,0.0072875,-0.0229625
1679998099188,1178087543305242,-0.027224999,0.0182875,-0.0229625
1679998099191,1178087545807381,-0.027224999,0.0292875,-0.0248875
1679998099193,1178087548309458,-0.0251625,0.0323125,-0.0319
1679998099196,1178087550811381,-0.0232375,0.0482625,-0.029975
1679998099199,1178087553313765,-0.0251625,0.0603625,-0.0389125
1679998099205,1178087555815894,-0.0242,0.0763125,-0.040975
1679998099205,1178087558317817,-0.0232375,0.08635,-0.0438625
1679998099207,1178087560819894,-0.0191125,0.099275,-0.04895
1679998099208,1178087563322048,-0.0191125,0.110275,-0.0499125
1679998099211,1178087565824202,-0.0191125,0.121275,-0.050875
1679998099213,1178087568326130,-0.015125,0.1362625,-0.0539
1679998099215,1178087570828284,-0.014162499,0.1483625,-0.0559625
1679998099218,1178087573330438,-0.010175,0.1582625,-0.0548625
1679998099220,1178087575832515,-0.0022,0.16733749,-0.050875
1679998099224,1178087578334664,-0.0012375,0.1722875,-0.0578875
1679998099226,1178087580836587,8.25E-4,0.1772375,-0.0548625
1679998099228,1178087583338740,8.25E-4,0.182325,-0.051975
1679998099231,1178087585840894,0.0048125,0.18933749,-0.050875
1679998099233,1178087588343048,0.006875,0.1863125,-0.0529375
1679998099236,1178087590845144,0.0048125,0.1832875,-0.04895
1679998099240,1178087593347298,0.0028875,0.1783375,-0.04895
1679998099242,1178087595849221,0.0028875,0.1783375,-0.0479875
1679998099244,1178087598351375,0.0088,0.16225,-0.045925
1679998099246,1178087600853486,0.033825,0.1013375,-0.0369875
1679998099248,1178087603355717,0.093775,-0.0037125,-0.01595
1679998099251,1178087605857794,0.1698125,-0.115637496,0.0070125
1679998099253,1178087608359717,0.242825,-0.2146375,0.0320375
1679998099256,1178087610861870,0.29479998,-0.2866875,0.0540375
1679998099259,1178087613364024,0.32285,-0.3377,0.0710875
1679998099261,1178087615866178,0.3287625,-0.3697375,0.08305
1679998099264,1178087618368255,0.3048375,-0.38665,0.0881375
1679998099266,1178087620870178,0.2737625,-0.39765,0.0900625
1679998099268,1178087623372342,0.2468125,-0.4107125,0.0900625
1679998099271,1178087625874496,0.22385,-0.433675,0.0930875
1679998099273,1178087628376573,0.2187625,-0.477675,0.092125
1679998099277,1178087630878741,0.22385,-0.5256625,0.097075
1679998099279,1178087633380895,0.2327875,-0.5666375,0.102025
1679998099282,1178087635883048,0.231825,-0.5907,0.0991375
1679998099284,1178087638384971,0.2107875,-0.5927625,0.0961125
1679998099286,1178087640887048,0.18287499,-0.5817625,0.0891
1679998099288,1178087643389212,0.1588125,-0.57475,0.087037496
1679998099291,1178087645891135,0.137775,-0.57475,0.087037496
1679998099294,1178087648393520,0.1238875,-0.5687,0.0820875
1679998099295,1178087650895443,0.1148125,-0.56265,0.075075
1679998099298,1178087653397577,0.10285,-0.560725,0.0741125
1679998099302,1178087655899654,0.0968,-0.55165,0.069025
1679998099304,1178087658401808,0.093775,-0.5427125,0.061049998
1679998099306,1178087660903731,0.0878625,-0.52965,0.0540375
1679998099308,1178087663406115,0.0818125,-0.5157625,0.0451
1679998099313,1178087665908058,0.082775,-0.4987125,0.0380875
1679998099315,1178087668410135,0.0858,-0.483725,0.0290125
1679998099317,1178087670912289,0.0867625,-0.472725,0.0231
1679998099319,1178087673414443,0.0897875,-0.45265,0.014025
1679998099321,1178087675916366,0.09075,-0.43175,0.00605
1679998099323,1178087678418443,0.0968,-0.4186875,0.0020625
1679998099327,1178087680920674,0.10285,-0.40974998,-0.0039875
1679998099328,1178087683422818,0.117837496,-0.41965,-0.0039875
1679998099331,1178087685924895,0.121825,-0.406725,-0.0099
1679998099333,1178087688426818,0.106837496,-0.37565,-0.0169125
1679998099336,1178087690928972,0.093775,-0.36465,-0.0169125
1679998099338,1178087693431125,0.0968,-0.3667125,-0.01595
1679998099340,1178087695933279,0.0968,-0.3526875,-0.0229625
1679998099344,1178087698435356,0.0878625,-0.340725,-0.029975
1679998099345,1178087700937510,0.0858,-0.33673748,-0.028875
1679998099349,1178087703439433,0.0858,-0.3276625,-0.029975
1679998099353,1178087705941587,0.07975,-0.30965,-0.028875
1679998099354,1178087708443664,0.0738375,-0.2976875,-0.02695
1679998099356,1178087710945818,0.0768625,-0.296725,-0.0339625
1679998099359,1178087713447972,0.0727375,-0.2847625,-0.039875
1679998099362,1178087715949885,0.0727375,-0.274725,-0.034925
1679998099363,1178087718452039,0.0768625,-0.274725,-0.029975
1679998099366,1178087720954192,0.0757625,-0.263725,-0.0279125
1679998099368,1178087723456269,0.082775,-0.2597375,-0.02695
1679998099371,1178087725958202,0.0837375,-0.2506625,-0.0259875
1679998099373,1178087728460356,0.0878625,-0.241725,-0.023924999
1679998099376,1178087730962741,0.099825,-0.241725,-0.023924999
1679998099383,1178087733464664,0.10285,-0.2407625,-0.0259875
1679998099383,1178087735966750,0.1007875,-0.2256375,-0.0328625
1679998099385,1178087738468904,0.104775,-0.2206875,-0.0369875
1679998099386,1178087740970827,0.1057375,-0.2066625,-0.0369875
1679998099389,1178087743472981,0.1078,-0.2066625,-0.0389125
1679998099392,1178087745975131,0.1167375,-0.21175,-0.034925
1679998099394,1178087748477284,0.1098625,-0.202675,-0.0358875
1679998099396,1178087750979361,0.11275,-0.1956625,-0.03795
1679998099398,1178087753481515,0.1167375,-0.19167499,-0.039875
1679998099401,1178087755983438,0.1208625,-0.18865,-0.0389125
1679998099403,1178087758485587,0.1258125,-0.1816375,-0.0369875
1679998099405,1178087760987664,0.12485,-0.175725,-0.0328625
1679998099409,1178087763489895,0.12375,-0.1706375,-0.028875
1679998099411,1178087765991972,0.12979999,-0.169675,-0.028875
1679998099413,1178087768494130,0.12979999,-0.1637625,-0.029975
1679998099416,1178087770996053,0.132825,-0.17173749,-0.0279125
1679998099418,1178087773498130,0.13475,-0.16665,-0.02695
1679998099421,1178087776000283,0.13585,-0.1637625,-0.023924999
1679998099424,1178087778502442,0.1368125,-0.169675,-0.023924999
1679998099428,1178087781004596,0.13585,-0.16665,-0.0229625
1679998099431,1178087783506519,0.1387375,-0.16775,-0.0169125
1679998099432,1178087786008673,0.1398375,-0.17173749,-0.01595
1679998099434,1178087788510755,0.13585,-0.1656875,-0.0169125
1679998099436,1178087791012909,0.1337875,-0.1687125,-0.0169125
1679998099438,1178087793514832,0.13585,-0.1656875,-0.0119624995
1679998099441,1178087796017217,0.13585,-0.1687125,-0.018975
1679998099443,1178087798519140,0.13585,-0.1607375,-0.01595
1679998099446,1178087801021294,0.1368125,-0.14973749,-0.006875
1679998099448,1178087803523370,0.132825,-0.1406625,-0.0108624995
1679998099451,1178087806025524,0.1337875,-0.1326875,-0.0119624995
1679998099453,1178087808527447,0.1398375,-0.1216875,-0.00495
1679998099456,1178087811029567,0.1368125,-0.1247125,-0.006875
1679998099459,1178087813531721,0.1307625,-0.1307625,-0.0059125
1679998099461,1178087816033875,0.1307625,-0.1417625,0.0011
1679998099466,1178087818535952,0.12375,-0.1467125,0.004125
1679998099468,1178087821037894,0.1188,-0.164725,0.014025
1679998099469,1178087823540048,0.1087625,-0.1816375,0.0121
1679998099472,1178087826042125,0.10285,-0.197725,0.0111375
1679998099473,1178087828544356,0.09185,-0.2237125,0.013062499
1679998099477,1178087831046399,0.082775,-0.2426875,0.01705
1679998099479,1178087833548553,0.07975,-0.25465,0.02805
1679998099481,1178087836050476,0.0727375,-0.2646875,0.036025
1679998099484,1178087838552630,0.066825,-0.2787125,0.042075
1679998099486,1178087841054784,0.0638,-0.2937,0.0490875
1679998099488,1178087843556866,0.058849998,-0.31075,0.0561
1679998099492,1178087846059020,0.0537625,-0.3276625,0.0620125
1679998099494,1178087848560943,0.0507375,-0.340725,0.0671
1679998099496,1178087851063020,0.0488125,-0.3587375,0.07205
1679998099498,1178087853565183,0.04675,-0.3686375,0.0741125
1679998099503,1178087856067414,0.0488125,-0.3837625,0.0771375
1679998099508,1178087858569490,0.04675,-0.39875,0.0760375
1679998099509,1178087861071414,0.0408375,-0.4137375,0.078099996
1679998099511,1178087863573596,0.038775,-0.43065,0.08305
1679998099514,1178087866075750,0.038775,-0.4486625,0.086075
1679998099515,1178087868577827,0.0397375,-0.4607625,0.087037496
1679998099518,1178087871079750,0.036849998,-0.472725,0.0881375
1679998099519,1178087873582135,0.0328625,-0.48675,0.092125
1679998099522,1178087876084049,0.02585,-0.49665,0.0891
1679998099524,1178087878586203,0.02475,-0.510675,0.0851125
1679998099527,1178087881088280,0.02475,-0.5226375,0.0881375
1679998099531,1178087883590434,0.0188375,-0.5336375,0.087037496
1679998099533,1178087886092381,0.011825,-0.54175,0.087037496
1679998099534,1178087888594458,0.0088,-0.55165,0.091025
1679998099536,1178087891096688,0.0017875,-0.5586625,0.0851125
1679998099540,1178087893598837,-0.0031625,-0.5677375,0.0820875
1679998099543,1178087896100914,-0.0031625,-0.5757125,0.0820875
1679998099545,1178087898602837,-0.0092124995,-0.57365,0.0820875
1679998099547,1178087901104991,-0.0132,-0.5776375,0.081125
1679998099549,1178087903607145,-0.0202125,-0.5797,0.0771375
1679998099552,1178087906109284,-0.0232375,-0.5757125,0.0771375
1679998099553,1178087908611361,-0.0281875,-0.5787375,0.0730125
1679998099556,1178087911113515,-0.0372625,-0.5907,0.0710875
1679998099559,1178087913615438,-0.0452375,-0.59675,0.0661375
1679998099561,1178087916117597,-0.0562375,-0.604725,0.0671
1679998099563,1178087918619673,-0.0611875,-0.6117375,0.0650375
1679998099566,1178087921121827,-0.065175,-0.61875,0.061049998
1679998099568,1178087923623981,-0.07425,-0.61875,0.0650375
1679998099571,1178087926126135,-0.0771375,-0.62865,0.0671
1679998099573,1178087928628058,-0.082225,-0.626725,0.064075
1679998099577,1178087931130212,-0.08525,-0.6257625,0.0671
1679998099579,1178087933632289,-0.08415,-0.6257625,0.069025
1679998099582,1178087936134208,-0.08415,-0.61875,0.069025
1679998099584,1178087938636593,-0.0911625,-0.6237,0.0671
1679998099586,1178087941138516,-0.0922625,-0.626725,0.0710875
1679998099588,1178087943640669,-0.0991375,-0.626725,0.07205
1679998099591,1178087946142746,-0.10615,-0.631675,0.075075
1679998099593,1178087948644895,-0.1101375,-0.642675,0.0790625
1679998099596,1178087951146818,-0.1131625,-0.6457,0.0790625
1679998099598,1178087953648972,-0.1122,-0.6527125,0.0771375
1679998099601,1178087956151126,-0.122237496,-0.6576625,0.081125
1679998099603,1178087958653275,-0.1252625,-0.6637125,0.0891
1679998099606,1178087961155352,-0.122237496,-0.6606875,0.0930875
1679998099608,1178087963657506,-0.126225,-0.664675,0.091025
1679998099612,1178087966159429,-0.13213749,-0.6747125,0.0930875
1679998099615,1178087968661568,-0.1332375,-0.6897,0.092125
1679998099617,1178087971163645,-0.1351625,-0.6967125,0.0930875
1679998099619,1178087973665875,-0.13915,-0.7007,0.097075
1679998099622,1178087976167952,-0.13915,-0.7126625,0.100099996
1679998099624,1178087978670106,-0.142175,-0.7206375,0.1040875
1679998099626,1178087981172039,-0.13915,-0.7266875,0.0991375
1679998099628,1178087983674193,-0.1342,-0.72875,0.097075
1679998099634,1178087986176270,-0.1342,-0.725725,0.0991375
1679998099636,1178087988678424,-0.1351625,-0.71665,0.100099996
1679998099638,1178087991180573,-0.13213749,-0.70675,0.097075
1679998099646,1178087993682496,-0.13213749,-0.6997375,0.0961125
1679998099664,1178087996184650,-0.12815,-0.69465,0.0950125
1679998099664,1178087998686727,-0.131175,-0.68475,0.091025
1679998099665,1178088001188904,-0.131175,-0.6747125,0.0891
1679998099665,1178088003690827,-0.12815,-0.6637125,0.087037496
1679998099665,1178088006193212,-0.12815,-0.6466625,0.081125
1679998099666,1178088008695135,-0.1271875,-0.626725,0.081125
1679998099666,1178088011197255,-0.1232,-0.604725,0.078099996
1679998099666,1178088013699332,-0.11715,-0.57475,0.0741125
1679998099667,1178088016201255,-0.1161875,-0.5446375,0.0710875
1679998099667,1178088018703409,-0.1161875,-0.516725,0.064075
1679998099667,1178088021205563,-0.111237496,-0.4926625,0.059125
1679998099668,1178088023707713,-0.109175,-0.47465,0.059125
1679998099671,1178088026209790,-0.1122,-0.45374998,0.053075
1679998099673,1178088028711943,-0.11715,-0.44275,0.047025
1679998099676,1178088031214097,-0.1232,-0.4327125,0.0451
1679998099678,1178088033715991,-0.12815,-0.4236375,0.039049998
1679998099681,1178088036218068,-0.1302125,-0.417725,0.0320375
1679998099685,1178088038720299,-0.1332375,-0.4076875,0.0290125
1679998099686,1178088041222376,-0.1351625,-0.39875,0.0240625
1679998099690,1178088043724515,-0.1332375,-0.3917375,0.0210375
1679998099693,1178088046226438,-0.13213749,-0.38073748,0.01705
1679998099695,1178088048728592,-0.12925,-0.373725,0.015125
1679998099697,1178088051230669,-0.1302125,-0.36465,0.0111375
1679998099698,1178088053732592,-0.1252625,-0.3636875,0.0100375
1679998099702,1178088056234967,-0.1232,-0.3606625,0.0121
1679998099704,1178088058736890,-0.120175,-0.3617625,0.0111375
1679998099706,1178088061239044,-0.1142625,-0.356675,0.0121
1679998099708,1178088063741121,-0.109175,-0.3487,0.0160875
1679998099712,1178088066243304,-0.10615,-0.3477375,0.015125
1679998099713,1178088068745458,-0.098175,-0.3477375,0.0191125
1679998099718,1178088071247612,-0.09515,-0.345675,0.020075
1679998099721,1178088073749535,-0.08415,-0.3477375,0.025024999
1679998099723,1178088076251603,-0.0782375,-0.3487,0.0301125
1679998099725,1178088078753757,-0.07425,-0.356675,0.0320375
1679998099729,1178088081255680,-0.0661375,-0.3617625,0.0380875
1679998099732,1178088083756843,-0.0642125,-0.36574998,0.0451
1679998099732,1178088086258036,-0.0611875,-0.3777125,0.047025
1679998099734,1178088088762112,-0.060225,-0.3906375,0.048125
1679998099736,1178088091264189,-0.0581625,-0.4037,0.048125
1679998099738,1178088093766112,-0.054175,-0.4137375,0.0540375
1679998099743,1178088096268280,-0.054175,-0.42473748,0.0551375
1679998099744,1178088098770665,-0.0551375,-0.42473748,0.0570625
1679998099746,1178088101272588,-0.049225,-0.4277625,0.0570625
1679998099748,1178088103774665,-0.0471625,-0.428725,0.058025
1679998099752,1178088106276819,-0.0482625,-0.4346375,0.058025
1679998099753,1178088108778973,-0.0482625,-0.4406875,0.061049998
1679998099756,1178088111280896,-0.054175,-0.4437125,0.058025
1679998099759,1178088113782973,-0.0572,-0.45168748,0.0570625
1679998099761,1178088116285203,-0.0581625,-0.4657125,0.0561
1679998099765,1178088118787266,-0.0682,-0.477675,0.0561
1679998099767,1178088121289420,-0.071225,-0.48565,0.058025
1679998099769,1178088123791343,-0.071225,-0.499675,0.0561
1679998099772,1178088126293497,-0.07315,-0.5137,0.0561
1679998099773,1178088128795574,-0.0752125,-0.521675,0.0561
1679998099776,1178088131297728,-0.07425,-0.5336375,0.0540375
1679998099778,1178088133799882,-0.0682,-0.549725,0.050049998
1679998099782,1178088136301805,-0.065175,-0.5577,0.0490875
1679998099784,1178088138803959,-0.0562375,-0.5556375,0.050049998
1679998099786,1178088141306112,-0.049225,-0.5457375,0.0430375
1679998099788,1178088143808189,-0.043175,-0.5427125,0.0400125
1679998099791,1178088146310112,-0.0342375,-0.5317125,0.039049998
1679998099793,1178088148812497,-0.0281875,-0.5256625,0.036025
1679998099796,1178088151314660,-0.0312125,-0.5127375,0.0301125
1679998099798,1178088153816583,-0.0251625,-0.50765,0.026124999
1679998099803,1178088156318660,-0.021175,-0.5017375,0.0240625
1679998099805,1178088158820814,-0.021175,-0.48565,0.020075
1679998099807,1178088161322742,-0.021175,-0.4697,0.014025
1679998099808,1178088163824896,-0.021175,-0.4497625,0.0111375
1679998099812,1178088166327050,-0.0221375,-0.4367,0.014025
1679998099814,1178088168829203,-0.0242,-0.4186875,0.0100375
1679998099816,1178088171331280,-0.0251625,-0.39875,0.0081124995
1679998099819,1178088173833203,-0.0262625,-0.3746875,0.0111375
1679998099822,1178088176335357,-0.0262625,-0.3507625,0.0100375
1679998099824,1178088178837511,-0.027224999,-0.323675,0.0111375
1679998099826,1178088181339665,-0.0281875,-0.29975,0.0121
1679998099829,1178088183841761,-0.0312125,-0.285725,0.0121
1679998099831,1178088186343915,-0.032175,-0.2696375,0.0191125
1679998099834,1178088188845838,-0.0391875,-0.2476375,0.0221375
1679998099836,1178088191347915,-0.0422125,-0.23375,0.0270875
1679998099840,1178088193850074,-0.0441375,-0.2267375,0.0331375
1679998099843,1178088196352227,-0.0452375,-0.21367499,0.0380875
1679998099844,1178088198854381,-0.0471625,-0.19965,0.0430375
1679998099846,1178088201356304,-0.0452375,-0.186725,0.0521125
1679998099848,1178088203858458,-0.043175,-0.180675,0.0561
1679998099852,1178088206360598,-0.0422125,-0.17173749,0.0620125
1679998099853,1178088208862675,-0.0441375,-0.169675,0.0671
1679998099856,1178088211364598,-0.0422125,-0.1637625,0.075075
1679998099858,1178088213866752,-0.038225,-0.1617,0.080025
1679998099862,1178088216369170,-0.032175,-0.1577125,0.0851125
1679998099864,1178088218871093,-0.0331375,-0.1527625,0.091025
1679998099866,1178088221373170,-0.0281875,-0.147675,0.0930875
1679998099868,1178088223875323,-0.0242,-0.1406625,0.0881375
1679998099872,1178088226377257,-0.01815,-0.131725,0.086075
1679998099874,1178088228879410,-0.016224999,-0.12265,0.081125
1679998099878,1178088231381564,-0.015262499,-0.1186625,0.0771375
1679998099880,1178088233883718,-0.0092124995,-0.117699996,0.0730125
1679998099883,1178088236385765,-0.00715,-0.1167375,0.070125
1679998099885,1178088238887688,-0.0092124995,-0.1186625,0.061049998
1679998099887,1178088241389842,-0.0061875,-0.1216875,0.053075
1679998099889,1178088243891919,-0.0061875,-0.1216875,0.048125
1679998099893,1178088246394073,-0.0012375,-0.1266375,0.0400125
1679998099894,1178088248896242,-0.0022,-0.1266375,0.0331375
1679998099896,1178088251398395,-0.0022,-0.1186625,0.0301125
1679998099898,1178088253900319,0.0017875,-0.120725,0.026124999
1679998099902,1178088256402395,0.00275,-0.1287,0.0240625
1679998099904,1178088258904563,0.0048125,-0.1307625,0.0231
1679998099906,1178088261406717,0.00385,-0.1296625,0.0221375
1679998099910,1178088263908640,0.0078375,-0.1307625,0.0210375
1679998099912,1178088266410794,0.01485,-0.1266375,0.020075
1679998099916,1178088268912905,0.0218625,-0.120725,0.0221375
1679998099917,1178088271414982,0.0268125,-0.12265,0.0221375
1679998099919,1178088273917136,0.0328625,-0.1186625,0.0240625
1679998099922,1178088276419059,0.044825,-0.11275,0.0221375
1679998099924,1178088278921213,0.0518375,-0.1076625,0.0210375
1679998099926,1178088281423367,0.0528,-0.11165,0.0231
1679998099928,1178088283925443,0.055825,-0.115637496,0.0191125
1679998099931,1178088286427597,0.05775,-0.1186625,0.0160875
1679998099933,1178088288929520,0.0638,-0.12265,0.014025
1679998099936,1178088291431919,0.060775,-0.1296625,0.0111375
1679998099939,1178088293933842,0.0567875,-0.13365,0.0111375
1679998099942,1178088296435919,0.055825,-0.13475,0.0111375
1679998099944,1178088298938073,0.0537625,-0.136675,0.0121
1679998099946,1178088301440227,0.047849998,-0.136675,0.0111375
1679998099948,1178088303942126,0.0427625,-0.1406625,0.0160875
1679998099953,1178088306444203,0.03575,-0.147675,0.0210375
1679998099955,1178088308946434,0.0308,-0.1626625,0.0270875
1679998099956,1178088311448505,0.0237875,-0.1656875,0.0341
1679998099960,1178088313950659,0.0198,-0.1687125,0.0411125
1679998099962,1178088316452582,0.01375,-0.175725,0.0521125
1679998099964,1178088318954736,0.0088,-0.1816375,0.058025
1679998099966,1178088321456813,0.00275,-0.186725,0.0631125
1679998099969,1178088323958736,-1.375E-4,-0.1846625,0.07205
1679998099971,1178088326461121,-1.375E-4,-0.17765,0.078099996
1679998099974,1178088328963275,-0.0022,-0.180675,0.0851125
1679998099977,1178088331465198,-0.0022,-0.1827375,0.0891
1679998099979,1178088333967270,-0.0031625,-0.1816375,0.092125
1679998099982,1178088336469424,-0.0061875,-0.1876875,0.098037496
1679998099984,1178088338971577,-0.00715,-0.1947,0.1040875
1679998099986,1178088341473731,-0.0092124995,-0.202675,0.10505
1679998099990,1178088343975630,-0.00825,-0.2096875,0.10505
1679998099993,1178088346477784,-0.0012375,-0.2167,0.1071125
1679998099995,1178088348979861,-0.0012375,-0.2187625,0.1071125
1679998099997,1178088351482015,8.25E-4,-0.2167,0.10505
1679998099999,1178088353983938,0.0067375,-0.2146375,0.1071125
1679998100001,1178088356486092,0.0158125,-0.2077625,0.103125
1679998100004,1178088358988246,0.02585,-0.197725,0.098037496
1679998100006,1178088361490400,0.033825,-0.20075,0.0950125
1679998100010,1178088363992477,0.0378125,-0.20075,0.0900625
1679998100012,1178088366494616,0.049775,-0.20075,0.0851125
1679998100014,1178088368996540,0.0528,-0.2017125,0.0790625
1679998100016,1178088371498693,0.0518375,-0.2066625,0.070125
1679998100019,1178088374000770,0.0518375,-0.208725,0.0631125
1679998100022,1178088376502938,0.0518375,-0.2176625,0.059125
1679998100025,1178088379005092,0.0537625,-0.22165,0.0570625
1679998100028,1178088381507015,0.0518375,-0.2256375,0.0540375
1679998100031,1178088384009169,0.0488125,-0.2267375,0.0521125
1679998100033,1178088386511236,0.0438625,-0.2256375,0.0460625
1679998100035,1178088389013390,0.0427625,-0.2316875,0.047025
1679998100036,1178088391515544,0.038775,-0.2366375,0.0490875
1679998100039,1178088394017467,0.0308,-0.2457125,0.050049998
1679998100042,1178088396519620,0.0218625,-0.2517625,0.0540375
1679998100044,1178088399021764,0.01485,-0.2646875,0.059125
1679998100048,1178088401523841,0.0078375,-0.2756875,0.064075
1679998100050,1178088404025764,-1.375E-4,-0.2817375,0.070125
1679998100052,1178088406527918,-0.00715,-0.28765,0.0741125
1679998100054,1178088409030077,-0.0092124995,-0.29273748,0.075075
1679998100056,1178088411532231,-0.0132,-0.2946625,0.078099996
1679998100060,1178088414034308,-0.0171875,-0.2976875,0.0851125
1679998100063,1178088416536462,-0.0221375,-0.3026375,0.0900625
1679998100067,1178088419038380,-0.027224999,-0.31075,0.0891
1679998100068,1178088421540457,-0.0342375,-0.3267,0.092125
1679998100071,1178088424042687,-0.041249998,-0.3287625,0.097075
1679998100073,1178088426544841,-0.0391875,-0.3257375,0.0991375
1679998100075,1178088429046918,-0.0422125,-0.3267,0.097075
1679998100077,1178088431548846,-0.0462,-0.33467498,0.098037496
1679998100079,1178088434051000,-0.0441375,-0.33467498,0.0991375
1679998100082,1178088436553077,-0.043175,-0.3276625,0.0991375
1679998100084,1178088439055231,-0.0422125,-0.3227125,0.0991375
1679998100086,1178088441557428,-0.041249998,-0.323675,0.0961125
1679998100089,1178088444059582,-0.0342375,-0.3227125,0.0961125
1679998100092,1178088446561505,-0.0342375,-0.3157,0.0930875
1679998100094,1178088449063582,-0.0331375,-0.3037375,0.0881375
1679998100097,1178088451565736,-0.0281875,-0.296725,0.0851125
1679998100099,1178088454067889,-0.0281875,-0.2916375,0.080025
1679998100105,1178088456569812,-0.02915,-0.28765,0.0760375
1679998100107,1178088459071966,-0.0262625,-0.2737625,0.0741125
1679998100109,1178088461574125,-0.021175,-0.2607,0.069025
1679998100111,1178088464076202,-0.01815,-0.2517625,0.0661375
1679998100112,1178088466578356,-0.0171875,-0.24365,0.0620125
1679998100114,1178088469080279,-0.0171875,-0.2347125,0.061049998
1679998100116,1178088471582433,-0.014162499,-0.2297625,0.0600875
1679998100119,1178088474084587,-0.015262499,-0.224675,0.059125
1679998100122,1178088476586741,-0.0171875,-0.219725,0.059125
1679998100124,1178088479088818,-0.0132,-0.2237125,0.0650375
1679998100126,1178088481590971,-0.014162499,-0.2237125,0.0650375
1679998100129,1178088484092894,-0.0132,-0.23265,0.0710875
1679998100132,1178088486594995,-0.0132,-0.2277,0.0771375
1679998100134,1178088489097149,-0.0132,-0.23265,0.081125
1679998100136,1178088491599303,-0.0111375,-0.23773749,0.08305
1679998100140,1178088494101476,-0.010175,-0.24475,0.086075
1679998100144,1178088496603399,-0.00715,-0.2457125,0.091025
1679998100146,1178088499105553,-0.0031625,-0.2497,0.0950125
1679998100148,1178088501607707,8.25E-4,-0.2457125,0.0991375
1679998100150,1178088504109784,0.0017875,-0.2457125,0.100099996
1679998100152,1178088506611929,0.0048125,-0.2487375,0.10505
1679998100154,1178088509114082,0.0097624995,-0.2506625,0.103125
1679998100156,1178088511616005,0.0108624995,-0.2497,0.0991375
1679998100162,1178088514118096,0.011825,-0.24365,0.097075
1679998100164,1178088516620250,0.011825,-0.2457125,0.0950125
1679998100166,1178088519122404,0.01375,-0.2476375,0.092125
1679998100169,1178088521624558,0.01485,-0.241725,0.0891
1679998100170,1178088524126481,0.0177375,-0.230725,0.086075
1679998100172,1178088526628616,0.0198,-0.2286625,0.0790625
1679998100174,1178088529130693,0.022824999,-0.2277,0.075075
1679998100178,1178088531632616,0.0268125,-0.2267375,0.070125
1679998100181,1178088534135001,0.0308,-0.219725,0.0631125
1679998100183,1178088536637149,0.0317625,-0.219725,0.0631125
1679998100185,1178088539139072,0.033825,-0.2127125,0.0540375
1679998100187,1178088541641149,0.03575,-0.2077625,0.0451
1679998100189,1178088544143303,0.0347875,-0.2077625,0.0430375
1679998100192,1178088546645226,0.027775,-0.2066625,0.039049998
1679998100194,1178088549147313,0.02475,-0.2017125,0.0341
1679998100198,1178088551649544,0.0188375,-0.2047375,0.031075
1679998100200,1178088554151698,0.011825,-0.21065,0.02805
1679998100203,1178088556653775,0.0088,-0.2176625,0.025024999
1679998100205,1178088559155683,0.00385,-0.224675,0.0290125
1679998100207,1178088561657837,-0.005225,-0.2316875,0.0290125
1679998100209,1178088564159991,-0.010175,-0.2457125,0.02805
1679998100212,1178088566662068,-0.0111375,-0.252725,0.0290125
1679998100216,1178088569164221,-0.0111375,-0.2627625,0.0341
1679998100217,1178088571666375,-0.0122375,-0.268675,0.0411125
1679998100220,1178088574168298,-0.016224999,-0.2717,0.0441375
1679998100223,1178088576670452,-0.0202125,-0.2827,0.048125
1679998100226,1178088579172529,-0.0202125,-0.2957625,0.053075
1679998100227,1178088581674708,-0.0251625,-0.307725,0.0561
1679998100229,1178088584176862,-0.03025,-0.3287625,0.0600875
1679998100232,1178088586678785,-0.038225,-0.3526875,0.064075
1679998100234,1178088589180939,-0.0441375,-0.36465,0.0671
1679998100237,1178088591683079,-0.049225,-0.37565,0.07205
1679998100239,1178088594185156,-0.05115,-0.3927,0.075075
1679998100242,1178088596687079,-0.0572,-0.4147,0.0760375
1679998100244,1178088599189232,-0.0672375,-0.428725,0.075075
1679998100247,1178088601691400,-0.0682,-0.433675,0.0760375
1679998100249,1178088604193554,-0.071225,-0.4437125,0.080025
1679998100253,1178088606695631,-0.0771375,-0.45265,0.0771375
1679998100255,1178088609197785,-0.0801625,-0.4676375,0.0741125
1679998100257,1178088611699684,-0.08415,-0.47575,0.0730125
1679998100260,1178088614201838,-0.08415,-0.4767125,0.0710875
1679998100262,1178088616703915,-0.0831875,-0.47465,0.070125
1679998100266,1178088619206146,-0.0911625,-0.47465,0.0661375
1679998100273,1178088621708222,-0.0902,-0.4706625,0.059125
1679998100273,1178088624210367,-0.089237496,-0.461725,0.0521125
1679998100273,1178088626712290,-0.087175,-0.450725,0.047025
1679998100274,1178088629214367,-0.08525,-0.4456375,0.0430375
1679998100276,1178088631716521,-0.089237496,-0.44275,0.036025
1679998100279,1178088634218665,-0.0902,-0.4357375,0.026124999
1679998100281,1178088636720819,-0.0881375,-0.43175,0.01705
1679998100284,1178088639222742,-0.0911625,-0.4277625,0.0081124995
1679998100286,1178088641724896,-0.09515,-0.4266625,-9.625E-4
1679998100290,1178088644226973,-0.0881375,-0.411675,-0.0099
1679998100293,1178088646729127,-0.0661375,-0.3697375,-0.017875
1679998100295,1178088649231050,-0.0441375,-0.318725,-0.0259875
1679998100297,1178088651733434,-0.0242,-0.2827,-0.0328625
1679998100299,1178088654235357,-0.016224999,-0.2627625,-0.040975
1679998100305,1178088656737444,-0.014162499,-0.2497,-0.0539
1679998100306,1178088659239598,-0.0122375,-0.24475,-0.0578875
1679998100306,1178088661741752,-0.0092124995,-0.24365,-0.062975
1679998100311,1178088664243675,-0.00825,-0.24475,-0.067925
1679998100312,1178088666745800,-0.005225,-0.2366375,-0.067925
1679998100314,1178088669247954,-0.0022,-0.22165,-0.0658625
1679998100317,1178088671750031,-0.0022,-0.21367499,-0.061875
1679998100320,1178088674251954,-0.0012375,-0.2127125,-0.061875
1679998100322,1178088676754112,-0.0031625,-0.2146375,-0.0609125
1679998100328,1178088679256266,-0.005225,-0.21175,-0.0548625
1679998100329,1178088681758342,-0.0061875,-0.21175,-0.0499125
1679998100332,1178088684260482,-0.0012375,-0.21175,-0.045925
1679998100333,1178088686857713,-0.0031625,-0.2127125,-0.039875
1679998100335,1178088689264790,-0.0031625,-0.208725,-0.034925
1679998100337,1178088691766713,-0.0022,-0.21367499,-0.0328625
1679998100339,1178088694268790,-1.375E-4,-0.21065,-0.028875
1679998100344,1178088696770949,0.0048125,-0.208725,-0.02695
1679998100345,1178088699272872,0.0078375,-0.2066625,-0.0248875
1679998100346,1178088701775026,0.0097624995,-0.19965,-0.0248875
1679998100351,1178088704277180,0.0088,-0.1967625,-0.028875
1679998100352,1178088706779334,0.0108624995,-0.20075,-0.02695
1679998100354,1178088709281424,0.016775,-0.19965,-0.02695
1679998100360,1178088711783348,0.0188375,-0.19965,-0.0319
1679998100361,1178088714285501,0.022824999,-0.1967625,-0.03795
1679998100362,1178088716787655,0.02475,-0.1907125,-0.040975
1679998100365,1178088719289824,0.027775,-0.18865,-0.0479875
1679998100367,1178088721791901,0.0308,-0.1846625,-0.0539
1679998100370,1178088724293824,0.03575,-0.1837,-0.0589875
1679998100372,1178088726795978,0.0347875,-0.17875,-0.0699875
1679998100374,1178088729298132,0.03575,-0.164725,-0.0759
1679998100376,1178088731800295,0.0418,-0.14973749,-0.0809875
1679998100379,1178088734302372,0.0438625,-0.1436875,-0.0859375
1679998100383,1178088736804525,0.0418,-0.13365,-0.0889625
1679998100385,1178088739306449,0.044825,-0.12773749,-0.0979
1679998100386,1178088741808520,0.044825,-0.117699996,-0.0979
1679998100391,1178088744310751,0.0438625,-0.1027125,-0.09295
1679998100392,1178088746812905,0.0438625,-0.092675,-0.09295
1679998100394,1178088749314982,0.039875,-0.087725,-0.09295
1679998100397,1178088751816896,0.039875,-0.07975,-0.089925
1679998100405,1178088754319050,0.033825,-0.06765,-0.08195
1679998100407,1178088756821127,0.0298375,-0.0617375,-0.0809875
1679998100408,1178088759323295,0.022824999,-0.0587125,-0.073975
1679998100408,1178088761825449,0.016775,-0.048675,-0.0699875
1679998100412,1178088764327602,0.0108624995,-0.04675,-0.05995
1679998100412,1178088766829526,0.00275,-0.0477125,-0.050875
1679998100414,1178088769331602,-0.0031625,-0.045649998,-0.0438625
1679998100417,1178088771833756,-0.0092124995,-0.0416625,-0.039875
1679998100420,1178088774335660,-0.0111375,-0.0416625,-0.0358875
1679998100423,1178088776838045,-0.0122375,-0.0397375,-0.028875
1679998100426,1178088779339968,-0.0111375,-0.034649998,-0.018975
1679998100427,1178088781842122,-0.0111375,-0.0317625,-0.017875
1679998100430,1178088784344218,-0.0092124995,-0.032725,-0.0149875
1679998100432,1178088786846372,-0.0022,-0.0306625,-0.0099
1679998100434,1178088789348295,-1.375E-4,-0.0287375,-0.0108624995
1679998100436,1178088791850449,0.00385,-0.0226875,-0.0089375
1679998100441,1178088794352627,0.0097624995,-0.0226875,-0.007975
1679998100443,1178088796854780,0.011825,-0.0207625,-0.0108624995
1679998100445,1178088799356857,0.0158125,-0.0187,-0.0099
1679998100447,1178088801859011,0.022824999,-0.0196625,-0.0108624995
1679998100450,1178088804360934,0.02585,-0.015675,-0.0108624995
1679998100452,1178088806863078,0.0308,-0.0177375,-0.0099
1679998100454,1178088809365155,0.0347875,-0.010725,-0.0099
1679998100456,1178088811867309,0.0378125,-0.010725,-0.0089375
1679998100460,1178088814369463,0.0427625,-0.01265,-0.007975
1679998100463,1178088816871401,0.0488125,-0.0116875,-0.0089375
1679998100464,1178088819373555,0.049775,-0.01265,-0.0089375
1679998100467,1178088821875632,0.0537625,-0.010725,-0.0089375
1679998100470,1178088824377785,0.0548625,-0.0077,-0.0089375
1679998100472,1178088826879939,0.0567875,-0.010725,-0.006875
1679998100474,1178088829382078,0.055825,-0.0056375,-0.0108624995
1679998100479,1178088831884001,0.060775,-0.0037125,-0.0099
1679998100480,1178088834386155,0.072875,-0.00275,-0.007975
1679998100483,1178088836888232,0.0708125,2.75E-4,-0.007975
1679998100485,1178088839390160,0.0708125,2.75E-4,-0.0089375
1679998100487,1178088841892314,0.06875,0.0012375,-0.0149875
1679998100490,1178088844394699,0.066825,0.0023375,-0.0099
1679998100492,1178088846896622,0.066825,0.0023375,-0.0149875
1679998100495,1178088849398699,0.066825,0.006325,-0.01595
1679998100496,1178088851900847,0.0628375,0.00935,-0.01595
1679998100500,1178088854402771,0.05775,0.0053625,-0.017875
1679998100502,1178088856904924,0.055825,0.00935,-0.018975
1679998100505,1178088859407001,0.0537625,0.0072875,-0.017875
1679998100506,1178088861909252,0.0537625,0.0033,-0.01595
1679998100510,1178088864411329,0.050875,0.006325,-0.0149875
1679998100512,1178088866913252,0.0488125,0.0103124995,-0.0108624995
1679998100515,1178088869415406,0.049775,0.0072875,-0.0119624995
1679998100517,1178088871917579,0.0488125,0.00935,-0.0108624995
1679998100523,1178088874419656,0.0438625,0.0122375,-0.0089375
1679998100524,1178088876921810,0.0438625,0.0072875,-0.0099
1679998100525,1178088879423963,0.0418,0.0072875,-0.007975
1679998100527,1178088881925886,0.0418,0.0122375,-0.0059125
1679998100531,1178088884427934,0.038775,0.0103124995,-0.0059125
1679998100532,1178088886930088,0.0408375,0.0072875,-0.007975
1679998100534,1178088889432242,0.0427625,0.0103124995,-0.0039875
1679998100537,1178088891934165,0.0438625,0.0042625,1.375E-4
1679998100541,1178088894436290,0.0438625,0.0042625,-0.0028875
1679998100543,1178088896938444,0.0438625,0.0012375,-0.0039875
1679998100545,1178088899440598,0.044825,0.0012375,-0.0028875
1679998100547,1178088901942675,0.04675,0.0023375,-9.625E-4
1679998100551,1178088904444593,0.049775,0.0033,-9.625E-4
1679998100554,1178088906946747,0.050875,0.0033,-0.0039875
1679998100556,1178088909448900,0.0488125,-0.00275,-0.007975
1679998100557,1178088911951054,0.050875,-0.00165,-0.0039875
1679998100560,1178088914453131,0.0488125,-6.875E-4,1.375E-4
1679998100562,1178088916955300,0.050875,0.0012375,-0.0059125
1679998100565,1178088919457223,0.050875,-6.875E-4,-0.0039875
1679998100567,1178088921959300,0.049775,-0.004675,-0.00495
1679998100570,1178088924461454,0.050875,-0.0037125,-0.0028875
1679998100572,1178088926963608,0.049775,-0.00275,-0.006875
1679998100574,1178088929465762,0.050875,2.75E-4,-0.0089375
1679998100577,1178088931967685,0.0488125,-0.0037125,-0.0089375
1679998100580,1178088934469839,0.04675,-0.00275,-0.0099
1679998100583,1178088936971982,0.0438625,0.0012375,-0.0149875
1679998100584,1178088939474059,0.038775,-6.875E-4,-0.0149875
1679998100587,1178088941976213,0.0328625,2.75E-4,-0.0169125
1679998100592,1178088944478367,0.0298375,-6.875E-4,-0.0199375
1679998100593,1178088946980295,0.02585,-0.0037125,-0.0209
1679998100596,1178088949482372,0.02475,-0.00165,-0.0199375
1679998100597,1178088951984526,0.0188375,0.0012375,-0.0229625
1679998100599,1178088954486680,0.0158125,0.0012375,-0.0218625
1679998100601,1178088956988834,0.01375,-0.00165,-0.0209
1679998100604,1178088959490968,0.011825,2.75E-4,-0.0218625
1679998100607,1178088961992891,0.0158125,-6.875E-4,-0.0218625
1679998100610,1178088964494968,0.01375,-0.0056375,-0.0209
1679998100613,1178088966996891,0.01375,-0.0056375,-0.018975
1679998100615,1178088969499030,0.0158125,-0.00165,-0.0149875
1679998100617,1178088972001415,0.0158125,-0.00275,-0.012925
1679998100620,1178088974503338,0.016775,-0.0067375,-0.0119624995
1679998100623,1178088977005415,0.016775,-0.0097624995,-0.0149875
1679998100626,1178088979507583,0.0158125,-0.0097624995,-0.0119624995
1679998100629,1178088982009506,0.0207625,-0.010725,-0.012925
1679998100631,1178088984511660,0.02475,-0.0086624995,-0.0119624995
1679998100633,1178088987013814,0.0218625,-0.0097624995,-0.0108624995
1679998100636,1178088989515968,0.0237875,-0.0116875,-0.0099
1679998100638,1178088992018026,0.0268125,-0.01265,-0.0119624995
1679998100641,1178088994519949,0.027775,-0.01265,-0.0108624995
1679998100642,1178088997022102,0.0268125,-0.01375,-0.0099
1679998100644,1178088999524256,0.0268125,-0.01375,-0.0119624995
1679998100647,1178089002026328,0.0317625,-0.01265,-0.01595
1679998100651,1178089004528482,0.0328625,-0.0086624995,-0.0099
1679998100653,1178089007030636,0.033825,-0.01265,-0.007975
1679998100655,1178089009532790,0.036849998,-0.0097624995,-0.01595
1679998100657,1178089012034723,0.036849998,-0.0067375,-0.0169125
1679998100661,1178089014536800,0.036849998,-0.0067375,-0.01595
1679998100663,1178089017038954,0.0378125,-0.0097624995,-0.0119624995
1679998100667,1178089019541108,0.0347875,-0.0077,-0.012925
1679998100669,1178089022043055,0.033825,-0.0056375,-0.0169125
1679998100671,1178089024545208,0.036849998,-0.0077,-0.01595
1679998100673,1178089027047362,0.0347875,-0.004675,-0.0119624995
1679998100676,1178089029549439,0.0317625,-0.0086624995,-0.01595
1679998100678,1178089032051333,0.0308,-0.0077,-0.017875
1679998100682,1178089034553487,0.027775,-0.0067375,-0.012925
1679998100683,1178089037055641,0.027775,-0.004675,-0.0099
1679998100685,1178089039557795,0.027775,-0.0056375,-0.007975
1679998100687,1178089042059862,0.02475,-0.0037125,-0.0039875
1679998100692,1178089044562016,0.0218625,-0.00275,-9.625E-4
1679998100694,1178089047063939,0.0188375,2.75E-4,1.375E-4
1679998100695,1178089049566093,0.0188375,0.0012375,-9.625E-4
1679998100697,1178089052068204,0.0198,-0.00165,1.375E-4
1679998100701,1178089054570434,0.0237875,-0.00275,-9.625E-4
1679998100706,1178089057072511,0.022824999,-0.0037125,-0.001925
1679998100708,1178089059574665,0.02475,-0.00275,0.0011
1679998100711,1178089062076588,0.022824999,-0.00165,-9.625E-4
1679998100712,1178089064578665,0.0237875,-0.0037125,-0.0039875
1679998100714,1178089067080819,0.027775,-0.0037125,-9.625E-4
1679998100716,1178089069583050,0.0237875,-0.00275,1.375E-4
1679998100717,1178089072085127,0.0237875,-0.0077,1.375E-4
1679998100721,1178089074587069,0.0218625,-0.00165,1.375E-4
1679998100723,1178089077089223,0.022824999,-0.00275,-0.001925
1679998100725,1178089079591300,0.022824999,-0.0056375,-0.001925
1679998100727,1178089082093453,0.0198,-0.004675,-9.625E-4
1679998100731,1178089084595376,0.022824999,-0.0067375,-0.0028875
1679998100734,1178089087097747,0.022824999,-0.0056375,-9.625E-4
1679998100736,1178089089599670,0.0218625,-0.004675,-0.0039875
1679998100737,1178089092101747,0.02475,-0.0097624995,1.375E-4
1679998100743,1178089094603866,0.022824999,-0.0077,0.0020625
1679998100745,1178089097105789,0.0268125,-0.0067375,-0.0028875
1679998100746,1178089099607943,0.0298375,-0.0086624995,-0.001925
1679998100748,1178089102110020,0.0308,-0.0067375,-0.00495
1679998100751,1178089104612251,0.0298375,-0.0086624995,-0.0039875
1679998100752,1178089107114341,0.0347875,-0.004675,-0.001925
1679998100755,1178089109616495,0.0347875,-0.0056375,-9.625E-4
1679998100757,1178089112118418,0.03575,-0.0056375,-0.0039875
1679998100761,1178089114620572,0.03575,-0.004675,-0.001925
1679998100762,1178089117122649,0.0378125,-0.0067375,1.375E-4
1679998100765,1178089119624794,0.039875,-0.00165,1.375E-4
1679998100767,1178089122126948,0.0378125,-6.875E-4,0.0011
1679998100772,1178089124629102,0.039875,0.0023375,1.375E-4
1679998100773,1178089127131025,0.0427625,-6.875E-4,-9.625E-4
1679998100774,1178089129633130,0.044825,-0.00275,1.375E-4
1679998100779,1178089132135284,0.047849998,0.0012375,1.375E-4
1679998100781,1178089134637207,0.049775,2.75E-4,-0.001925
1679998100784,1178089137139361,0.0537625,2.75E-4,0.0020625
1679998100785,1178089139641495,0.0537625,2.75E-4,0.003025
1679998100787,1178089142143649,0.055825,0.0012375,-9.625E-4
1679998100791,1178089144645726,0.058849998,0.0012375,-0.001925
1679998100792,1178089147147649,0.060775,0.0012375,-9.625E-4
1679998100794,1178089149649803,0.0598125,0.0042625,1.375E-4
1679998100797,1178089152152203,0.0658625,0.006325,1.375E-4
1679998100801,1178089154654126,0.0628375,0.0033,1.375E-4
1679998100802,1178089157156203,0.060775,0.0042625,-9.625E-4
1679998100804,1178089159658126,0.0628375,0.0042625,0.0020625
1679998100807,1178089162160284,0.060775,0.006325,-9.625E-4
1679998100811,1178089164662668,0.0598125,0.0042625,-0.0028875
1679998100812,1178089167164591,0.0598125,0.0023375,1.375E-4
1679998100816,1178089169666668,0.058849998,0.0033,0.0011
1679998100819,1178089172168822,0.058849998,0.0042625,0.0020625
1679998100821,1178089174670745,0.0628375,2.75E-4,1.375E-4
1679998100824,1178089177172822,0.0598125,0.0023375,0.004125
1679998100825,1178089179675053,0.060775,0.0023375,0.003025
1679998100827,1178089182177207,0.060775,0.0012375,-9.625E-4
1679998100831,1178089184679275,0.0598125,-0.00165,0.0020625
1679998100833,1178089187181198,0.060775,-0.0037125,0.0020625
1679998100835,1178089189683352,0.0628375,-6.875E-4,0.003025
1679998100837,1178089192185506,0.060775,-0.004675,-9.625E-4
1679998100840,1178089194687572,0.0638,-0.00275,-9.625E-4
1679998100843,1178089197189726,0.0638,-0.00275,-9.625E-4
1679998100844,1178089199691880,0.060775,-0.0067375,-9.625E-4
1679998100847,1178089202193803,0.058849998,-0.0037125,-0.001925
1679998100851,1178089204695909,0.055825,-6.875E-4,0.0011
1679998100854,1178089207198063,0.0548625,-0.0056375,1.375E-4
1679998100856,1178089209700217,0.050875,-0.004675,0.0011
1679998100858,1178089212202140,0.044825,-0.00165,0.0050875
1679998100861,1178089214704303,0.044825,-0.00275,-9.625E-4
1679998100863,1178089217206457,0.047849998,-0.0037125,-9.625E-4
1679998100865,1178089219708534,0.047849998,-0.00275,-9.625E-4
1679998100869,1178089222210687,0.04675,-0.004675,0.0011
1679998100871,1178089224712607,0.04675,-0.00275,0.0020625
1679998100873,1178089227214760,0.049775,-6.875E-4,0.0020625
1679998100876,1178089229716914,0.050875,-6.875E-4,0.003025
1679998100877,1178089232219068,0.0528,0.0023375,1.375E-4
1679998100880,1178089234721145,0.0528,-6.875E-4,1.375E-4
1679998100882,1178089237223327,0.049775,2.75E-4,0.0020625
1679998100886,1178089239725250,0.047849998,-6.875E-4,0.0011
1679998100887,1178089242227327,0.047849998,0.0012375,0.0011
1679998100896,1178089244729452,0.047849998,0.0012375,0.0020625
1679998100900,1178089247231606,0.044825,-6.875E-4,0.004125
1679998100901,1178089249733759,0.0438625,0.0023375,1.375E-4
1679998100901,1178089252235683,0.039875,0.0042625,1.375E-4
1679998100902,1178089254737836,0.039875,0.0042625,0.004125
1679998100902,1178089257239913,0.0378125,2.75E-4,0.0020625
1679998100905,1178089259742077,0.033825,-6.875E-4,0.004125
1679998100906,1178089262244231,0.033825,2.75E-4,0.0070125
1679998100910,1178089264746385,0.033825,0.0012375,0.0011
1679998100912,1178089267248308,0.033825,-6.875E-4,0.0011
1679998100914,1178089269750511,0.03575,-6.875E-4,0.0050875
1679998100917,1178089272252588,0.0317625,-0.00275,1.375E-4
1679998100920,1178089274754511,0.033825,-0.0056375,1.375E-4
1679998100922,1178089277256665,0.0378125,-0.0037125,0.004125
1679998100924,1178089279759039,0.036849998,-0.0067375,0.004125
1679998100928,1178089282260962,0.0378125,-0.0056375,1.375E-4
1679998100931,1178089284763039,0.038775,-0.0037125,-9.625E-4
1679998100933,1178089287265193,0.039875,-0.0067375,-0.0028875
1679998100934,1178089289767347,0.0427625,-0.0056375,-0.00495
1679998100937,1178089292269270,0.047849998,-0.0056375,-0.0059125
1679998100940,1178089294771347,0.0518375,-0.0037125,-0.0099
1679998100943,1178089297273578,0.0537625,-0.0037125,-0.0169125
1679998100945,1178089299775631,0.055825,-0.004675,-0.0248875
1679998100947,1178089302277554,0.060775,0.0023375,-0.0328625
1679998100951,1178089304779708,0.0677875,0.0012375,-0.03795
1679998100953,1178089307281862,0.0708125,2.75E-4,-0.0419375
1679998100955,1178089309783958,0.077825,0.0042625,-0.050875
1679998100958,1178089312286112,0.082775,0.0042625,-0.0548625
1679998100961,1178089314788266,0.0878625,0.0042625,-0.05995
1679998100963,1178089317290189,0.0977625,0.0042625,-0.064899996
1679998100968,1178089319792319,0.0988625,0.0023375,-0.0669625
1679998100968,1178089322294396,0.0977625,0.006325,-0.07095
1679998100970,1178089324796550,0.10285,0.006325,-0.072875
1679998100972,1178089327298473,0.1038125,0.0053625,-0.072875
1679998100975,1178089329800627,0.0977625,0.006325,-0.078925
1679998100977,1178089332302776,0.10285,0.0103124995,-0.0809875
1679998100980,1178089334804930,0.104775,0.0133375,-0.084975
1679998100983,1178089337307006,0.10175,0.0163625,-0.0889625
1679998100985,1178089339808930,0.10175,0.015262499,-0.0919875
1679998100987,1178089342311073,0.0977625,0.0163625,-0.0999625
1679998100991,1178089344813150,0.09185,0.0122375,-0.100925
1679998100992,1178089347315381,0.0878625,0.011275,-0.094875
1679998100994,1178089349817458,0.083875,0.0133375,-0.089925
1679998100997,1178089352319636,0.07975,0.00935,-0.084975
1679998101000,1178089354821559,0.0757625,0.0122375,-0.078925
1679998101004,1178089357323636,0.06985,0.0133375,-0.072875
1679998101005,1178089359825790,0.0638,0.0103124995,-0.067925
1679998101007,1178089362328025,0.0598125,0.00935,-0.05995
1679998101011,1178089364830102,0.0548625,0.0103124995,-0.0539
1679998101013,1178089367332026,0.047849998,0.0103124995,-0.050875
1679998101015,1178089369834179,0.0427625,0.006325,-0.0438625
1679998101017,1178089372336256,0.0408375,0.0072875,-0.039875
1679998101020,1178089374838410,0.03575,0.0042625,-0.0369875
1679998101024,1178089377340564,0.0347875,0.0033,-0.0339625
1679998101025,1178089379842718,0.0347875,0.0033,-0.0259875
1679998101027,1178089382344636,0.0317625,0.0033,-0.0259875
1679998101031,1178089384846713,0.033825,0.0033,-0.0209
1679998101032,1178089387348867,0.0268125,2.75E-4,-0.018975
1679998101035,1178089389851021,0.027775,0.0023375,-0.017875
1679998101037,1178089392353174,0.0328625,-6.875E-4,-0.012925
1679998101042,1178089394855092,0.0298375,-0.0037125,-0.01595
1679998101043,1178089397357246,0.0328625,2.75E-4,-0.0169125
1679998101045,1178089399859323,0.038775,-0.00165,-0.0108624995
1679998101047,1178089402361477,0.039875,-0.00275,-0.0108624995
1679998101050,1178089404863400,0.0427625,-6.875E-4,-0.0089375
1679998101052,1178089407365785,0.0438625,-6.875E-4,-0.006875
1679998101054,1178089409867708,0.049775,2.75E-4,-0.00495
1679998101057,1178089412369785,0.0518375,-0.0037125,-0.0028875
1679998101062,1178089414871939,0.0537625,-0.004675,-0.0039875
1679998101064,1178089417373862,0.05775,-0.0056375,-0.00495
1679998101064,1178089419876016,0.055825,-0.0037125,-0.0059125
1679998101067,1178089422378169,0.0567875,-0.004675,-0.0059125
1679998101070,1178089424880328,0.0567875,-0.00275,-0.0059125
1679998101072,1178089427382405,0.05775,-0.004675,-0.0059125
1679998101074,1178089429884328,0.0628375,-0.0037125,-0.0059125
1679998101078,1178089432386482,0.0658625,-0.004675,-0.0028875
1679998101081,1178089434888587,0.0708125,-0.0037125,1.375E-4
1679998101083,1178089437390664,0.0757625,-0.010725,0.004125
1679998101086,1178089439892818,0.08085,-0.0116875,0.0081124995
1679998101088,1178089442394972,0.083875,-0.0067375,0.0111375
1679998101090,1178089444896905,0.0878625,-0.0077,0.013062499
1679998101092,1178089447399059,0.0858,-0.0116875,0.0191125
1679998101095,1178089449901136,0.0858,-0.010725,0.025024999
1679998101097,1178089452403289,0.0878625,-0.0116875,0.025024999
1679998101100,1178089454905226,0.0848375,-0.010725,0.025024999
1679998101103,1178089457407611,0.0757625,-0.010725,0.0270875
1679998101104,1178089459909534,0.0748,-0.0086624995,0.02805
1679998101107,1178089462411688,0.0708125,-0.0086624995,0.0290125
1679998101110,1178089464913765,0.071775,-0.0077,0.02805
1679998101112,1178089467415683,0.0708125,-0.0086624995,0.0290125
1679998101116,1178089469917837,0.071775,-0.0067375,0.0270875
1679998101118,1178089472420222,0.0738375,-0.0086624995,0.0240625
1679998101121,1178089474922160,0.0748,-0.0077,0.0231
1679998101123,1178089477424237,0.07975,-0.0086624995,0.0210375
1679998101125,1178089479926390,0.0818125,-0.0077,0.020075
1679998101127,1178089482428313,0.0757625,-0.010725,0.015125
1679998101131,1178089484930467,0.077825,-0.0077,0.013062499
1679998101133,1178089487432563,0.0748,-0.0056375,0.0121
1679998101134,1178089489934794,0.071775,-0.0056375,0.0050875
1679998101137,1178089492436871,0.071775,-0.0086624995,0.0011
1679998101140,1178089494939025,0.0708125,-0.0056375,-9.625E-4
1679998101143,1178089497440957,0.0677875,-0.00275,-0.0039875
1679998101145,1178089499943034,0.0647625,-0.00275,-0.0059125
1679998101147,1178089502445188,0.060775,-0.0086624995,-0.0039875
1679998101150,1178089504947418,0.05775,-0.004675,-0.00495
1679998101154,1178089507449495,0.050875,-0.0056375,-0.006875
1679998101155,1178089509951418,0.0518375,-0.0037125,-0.006875
1679998101157,1178089512453572,0.044825,-0.004675,-0.006875
1679998101160,1178089514955649,0.0408375,-6.875E-4,-0.0059125
1679998101162,1178089517457803,0.0378125,0.0023375,-0.00495
1679998101164,1178089519959726,0.0378125,-0.00165,-0.0039875
1679998101167,1178089522462111,0.038775,-6.875E-4,-0.00495
1679998101170,1178089524964034,0.038775,-6.875E-4,-0.00495
1679998101172,1178089527466111,0.038775,0.0012375,-0.0089375
1679998101174,1178089529968246,0.039875,-0.00165,-0.0099
1679998101177,1178089532470400,0.0418,2.75E-4,-0.012925
1679998101180,1178089534972323,0.044825,2.75E-4,-0.01595
1679998101183,1178089537474400,0.0438625,0.0012375,-0.018975
1679998101185,1178089539976630,0.047849998,0.0023375,-0.02695
1679998101187,1178089542478707,0.050875,0.0023375,-0.0328625
1679998101192,1178089544980861,0.049775,0.0042625,-0.0369875
1679998101194,1178089547482784,0.0518375,0.0053625,-0.0438625
1679998101196,1178089549984943,0.0518375,0.0072875,-0.0548625
1679998101197,1178089552487020,0.0518375,0.0103124995,-0.062975
1679998101200,1178089554989174,0.0518375,0.0143,-0.073975
1679998101202,1178089557491328,0.050875,0.0133375,-0.0829125
1679998101205,1178089559993481,0.04675,0.011275,-0.084975
1679998101207,1178089562495405,0.050875,0.00935,-0.086899996
1679998101211,1178089564997482,0.0537625,0.011275,-0.084975
1679998101212,1178089567499635,0.0518375,0.00935,-0.0779625
1679998101215,1178089570001789,0.044825,0.0072875,-0.072875
1679998101217,1178089572503928,0.0438625,0.006325,-0.0658625
1679998101221,1178089575005851,0.0418,0.0012375,-0.0539
1679998101224,1178089577508005,0.03575,0.0012375,-0.045925
1679998101226,1178089580010082,0.0328625,-0.0037125,-0.034925
1679998101229,1178089582512256,0.0317625,-0.00165,-0.0328625
1679998101232,1178089585014179,0.0298375,-0.0037125,-0.0279125
1679998101233,1178089587516333,0.022824999,-0.0067375,-0.0248875
1679998101235,1178089590018487,0.017875,-0.004675,-0.0248875
1679998101237,1178089592520563,0.016775,2.75E-4,-0.023924999
1679998101240,1178089595022501,0.017875,2.75E-4,-0.0218625
1679998101243,1178089597524654,0.01485,-0.00275,-0.018975
1679998101245,1178089600027039,0.016775,-6.875E-4,-0.0209
1679998101247,1178089602528962,0.0218625,-6.875E-4,-0.0209
1679998101251,1178089605031063,0.0268125,-6.875E-4,-0.017875
1679998101253,1178089607533217,0.0308,-6.875E-4,-0.0119624995
1679998101255,1178089610035140,0.033825,-0.00275,-0.012925
1679998101257,1178089612537294,0.039875,0.0012375,-0.012925
1679998101261,1178089615039429,0.044825,2.75E-4,-0.012925
1679998101263,1178089617541583,0.049775,-0.0037125,-0.0099
1679998101266,1178089620043659,0.0528,-0.00165,-0.0059125
1679998101269,1178089622545583,0.055825,-0.00165,-0.0059125
1679998101271,1178089625047716,0.05775,0.0012375,-0.007975
1679998101273,1178089627549870,0.0567875,-0.00165,-0.00495
1679998101276,1178089630051947,0.0537625,0.0012375,-0.0059125
1679998101277,1178089632554101,0.055825,0.0033,-0.0059125
1679998101281,1178089635056255,0.0528,-6.875E-4,-0.001925
1679998101283,1178089637558207,0.0518375,-0.00275,-0.0028875
1679998101285,1178089640060361,0.04675,-0.00165,-0.0059125
1679998101287,1178089642562438,0.0427625,-0.0037125,-0.0039875
1679998101291,1178089645064592,0.0378125,-0.0067375,-0.00495
1679998101292,1178089647566491,0.036849998,-0.0067375,-0.0028875
1679998101295,1178089650068645,0.0328625,-0.0067375,-0.0028875
1679998101297,1178089652570798,0.0298375,-6.875E-4,1.375E-4
1679998101300,1178089655072952,0.0268125,-0.0037125,0.004125
1679998101305,1178089657575020,0.02585,-0.00275,0.00605
1679998101306,1178089660076943,0.0237875,-0.0037125,0.0020625
1679998101308,1178089662579097,0.02585,-0.0056375,0.003025
1679998101311,1178089665081482,0.0308,-0.0077,0.0011
1679998101313,1178089667583405,0.02585,-0.0056375,1.375E-4
1679998101315,1178089670085496,0.0268125,-0.0056375,-0.0039875
1679998101318,1178089672587650,0.02585,-0.0067375,-0.0028875
1679998101321,1178089675089573,0.0268125,-0.004675,-0.0059125
1679998101323,1178089677591727,0.0298375,-0.00275,-0.001925
1679998101326,1178089680093827,0.0298375,-0.0037125,-0.0028875
1679998101327,1178089682596058,0.0268125,-0.0056375,-9.625E-4
1679998101331,1178089685098135,0.0268125,-0.0097624995,-0.001925
1679998101332,1178089687600058,0.02585,-0.0077,1.375E-4
1679998101334,1178089690102212,0.0268125,-0.0037125,1.375E-4
1679998101337,1178089692604342,0.0298375,-0.0067375,0.0011
1679998101342,1178089695106419,0.0317625,-0.004675,0.0020625
1679998101345,1178089697608342,0.0378125,-0.004675,1.375E-4
1679998101346,1178089700110741,0.0397375,-0.0037125,-0.00495
1679998101348,1178089702612664,0.0427625,-0.004675,-9.625E-4
1679998101351,1178089705114818,0.047849998,-0.00275,0.0011
1679998101353,1178089707616894,0.0528,-6.875E-4,0.0020625
1679998101355,1178089710119048,0.055825,-0.00275,1.375E-4
1679998101358,1178089712620986,0.05775,2.75E-4,0.0050875
1679998101361,1178089715123371,0.060775,-0.00165,0.004125
1679998101364,1178089717625294,0.0598125,2.75E-4,0.003025
1679998101366,1178089720127371,0.058849998,0.0033,0.003025
1679998101368,1178089722629520,0.0567875,0.0023375,0.0020625
1679998101371,1178089725131674,0.0537625,0.0033,0.0011
1679998101372,1178089727633597,0.0507375,0.0072875,0.004125
1679998101375,1178089730135674,0.04675,0.0023375,0.004125
1679998101379,1178089732637900,0.0397375,-6.875E-4,0.0020625
1679998101382,1178089735139976,0.0408375,0.0033,0.0020625
1679998101386,1178089737642130,0.0408375,0.0012375,0.0020625
1679998101387,1178089740144053,0.03575,-6.875E-4,0.004125
1679998101388,1178089742646207,0.033825,2.75E-4,0.004125
1679998101391,1178089745148289,0.0328625,-0.00165,0.0011
1679998101393,1178089747650520,0.0308,-0.00165,0.004125
1679998101395,1178089750152597,0.0317625,-0.00165,0.0050875
1679998101398,1178089752654751,0.0308,-0.00275,1.375E-4
1679998101401,1178089755156674,0.0308,-0.0037125,0.0011
1679998101403,1178089757658751,0.0308,-0.0037125,1.375E-4
1679998101405,1178089760160905,0.0298375,-0.00275,0.0011
1679998101410,1178089762663058,0.0298375,-0.00275,0.0011
1679998101412,1178089765165178,0.0328625,-0.0037125,1.375E-4
1679998101413,1178089767667101,0.0347875,-0.00165,0.0011
1679998101416,1178089770169255,0.0328625,-0.004675,0.0011
1679998101418,1178089772671332,0.0317625,-0.0037125,-9.625E-4
1679998101425,1178089775173497,0.033825,-0.0037125,1.375E-4
1679998101428,1178089777675420,0.03575,-0.0056375,0.0020625
1679998101430,1178089780177574,0.0397375,-0.004675,1.375E-4
1679998101430,1178089782679728,0.0418,-0.00165,-9.625E-4
1679998101433,1178089785181805,0.038775,-0.0056375,-9.625E-4
1679998101434,1178089787683978,0.038775,-0.0037125,0.0011
1679998101436,1178089790186131,0.0378125,0.0012375,-9.625E-4
1679998101438,1178089792688055,0.0408375,-0.0067375,-9.625E-4
1679998101441,1178089795190131,0.038775,-0.0037125,0.0011
1679998101443,1178089797692362,0.0378125,-0.0037125,1.375E-4
1679998101445,1178089800194444,0.0408375,-0.00275,0.0011
1679998101448,1178089802696598,0.0397375,-0.00275,0.0011
1679998101451,1178089805198521,0.0408375,-6.875E-4,-9.625E-4
1679998101454,1178089807700646,0.0378125,-6.875E-4,0.0020625
1679998101456,1178089810202723,0.03575,-0.00275,0.0011
1679998101457,1178089812704646,0.036849998,-0.0037125,-9.625E-4
1679998101461,1178089815207031,0.036849998,-6.875E-4,0.0011
1679998101464,1178089817708954,0.0347875,-0.00275,0.0011
1679998101465,1178089820211113,0.0328625,-6.875E-4,0.0011
1679998101467,1178089822713189,0.0347875,-0.004675,1.375E-4
1679998101470,1178089825215420,0.0347875,-0.00275,-9.625E-4
1679998101472,1178089827717497,0.0347875,2.75E-4,0.0011
1679998101475,1178089830219651,0.036849998,2.75E-4,0.0011
1679998101477,1178089832721579,0.036849998,-0.00165,0.0020625
1679998101481,1178089835223733,0.036849998,-0.0056375,1.375E-4
1679998101483,1178089837725810,0.0378125,-0.00275,0.0011
1679998101486,1178089840227737,0.0397375,0.0012375,1.375E-4
1679998101488,1178089842730122,0.0438625,-0.00275,0.0011
1679998101492,1178089845232045,0.0438625,-0.00275,-0.001925
1679998101494,1178089847734198,0.0438625,-0.0037125,0.0011
1679998101496,1178089850236232,0.0438625,-0.00165,0.0020625
1679998101498,1178089852738386,0.0438625,-6.875E-4,0.0011
1679998101501,1178089855240309,0.0438625,-0.00275,0.0020625
1679998101504,1178089857742463,0.0427625,-0.00165,0.003025
1679998101506,1178089860244617,0.0408375,-0.00165,0.003025
1679998101508,1178089862746790,0.036849998,-0.00165,0.0011
1679998101511,1178089865248867,0.03575,-0.00165,0.0011
1679998101513,1178089867750790,0.0378125,2.75E-4,0.0011
1679998101517,1178089870252944,0.03575,2.75E-4,0.0020625
1679998101528,1178089872755026,0.03575,-0.004675,0.003025
1679998101528,1178089875257256,0.0397375,-0.0037125,0.003025
1679998101529,1178089877759333,0.0408375,0.0023375,0.0050875
1679998101529,1178089880261487,0.0397375,-6.875E-4,0.004125
1679998101529,1178089882763410,0.0427625,-0.0056375,0.003025
1679998101531,1178089885265487,0.044825,-0.0037125,0.004125
1679998101533,1178089887767641,0.0427625,-0.00275,0.00605
1679998101535,1178089890269795,0.047849998,-6.875E-4,0.0050875
1679998101538,1178089892771949,0.0488125,-6.875E-4,0.0050875
1679998101541,1178089895273853,0.0518375,-0.00275,0.00605
1679998101543,1178089897776007,0.0567875,-0.004675,0.004125
1679998101545,1178089900278161,0.0647625,-0.00275,0.004125
1679998101548,1178089902780238,0.0647625,-0.00275,0.00605
1679998101551,1178089905282137,0.0638,-0.0037125,0.0050875
1679998101553,1178089907784521,0.0628375,-0.004675,0.004125
1679998101555,1178089910286444,0.06985,-0.00165,0.0050875
1679998101557,1178089912788598,0.06985,-0.00165,0.0050875
1679998101560,1178089915290675,0.06985,-0.0037125,0.00605
1679998101562,1178089917792829,0.06875,-0.0077,0.0081124995
1679998101568,1178089920294752,0.071775,-0.0116875,0.00605
1679998101569,1178089922796829,0.06985,-0.010725,0.0050875
1679998101572,1178089925299060,0.06875,-0.0067375,0.003025
1679998101573,1178089927801214,0.0638,-0.0077,0.003025
1679998101577,1178089930303291,0.0567875,-0.0077,0.0020625
1679998101577,1178089932805214,0.0518375,-0.0086624995,0.004125
1679998101581,1178089935307367,0.047849998,-0.01265,0.0020625
1679998101584,1178089937809458,0.0438625,-0.0097624995,0.0020625
1679998101585,1178089940311612,0.038775,-0.0116875,0.004125
1679998101590,1178089942813766,0.03575,-0.0056375,0.004125
1679998101594,1178089945315909,0.033825,-0.0067375,0.003025
1679998101594,1178089947817832,0.033825,-0.0067375,0.0011
1679998101595,1178089950319909,0.0317625,-0.0056375,-9.625E-4
1679998101598,1178089952822063,0.0308,-0.0067375,-0.00495
1679998101602,1178089955324217,0.0308,-0.0056375,1.375E-4
1679998101606,1178089957826376,0.0317625,-0.004675,0.0011
1679998101607,1178089960328299,0.027775,-0.00165,0.0011
1679998101608,1178089962830452,0.022824999,-0.004675,1.375E-4
1679998101611,1178089965332529,0.0207625,-0.00275,1.375E-4
1679998101613,1178089967834683,0.0158125,-6.875E-4,0.0020625
1679998101615,1178089970336621,0.011825,-0.004675,1.375E-4
1679998101617,1178089972838775,0.0108624995,-0.0037125,0.003025
1679998101621,1178089975340929,0.0048125,-0.0037125,0.003025
1679998101627,1178089977843092,0.0078375,-0.00275,0.004125
1679998101628,1178089980345169,0.005775,-0.00165,0.00605
1679998101629,1178089982847323,0.00275,-0.00165,0.009075
1679998101632,1178089985349246,0.00385,-0.0037125,0.009075
1679998101633,1178089987851400,0.0067375,-0.00275,0.009075
1679998101637,1178089990353539,0.0067375,-6.875E-4,0.0100375
1679998101638,1178089992855616,0.011825,-0.0037125,0.0070125
1679998101643,1178089995357770,0.0188375,-0.00275,0.0121
1679998101645,1178089997859924,0.0207625,-0.00275,0.020075
1679998101646,1178090000361832,0.02475,-0.00275,0.0221375
1679998101650,1178090002863909,0.0298375,-0.00275,0.0270875
1679998101652,1178090005366063,0.036849998,-0.00165,0.0320375
1679998101653,1178090007868217,0.0378125,-0.00275,0.0380875
1679998101658,1178090010370145,0.0397375,-0.004675,0.0430375
1679998101661,1178090012872299,0.04675,-0.0037125,0.0400125
1679998101662,1178090015374453,0.0567875,-0.0056375,0.020075
1679998101664,1178090017876530,0.08085,-0.00275,0.004125
1679998101665,1178090020378683,0.10285,-0.00165,0.00605
1679998101668,1178090022880620,0.1098625,-0.0077,0.020075
1679998101671,1178090025383005,0.1098625,-0.0077,0.0331375
1679998101673,1178090027884928,0.106837496,-0.010725,0.050049998
1679998101676,1178090030387005,0.0977625,-0.014712499,0.0631125
1679998101679,1178090032889145,0.0858,-0.01375,0.070125
1679998101681,1178090035391299,0.0757625,-0.01375,0.075075
1679998101684,1178090037893222,0.0727375,-0.014712499,0.0760375
1679998101686,1178090040395376,0.060775,-0.01265,0.0671
1679998101688,1178090042897453,0.055825,-0.0086624995,0.058025
1679998101691,1178090045399602,0.04675,-0.0086624995,0.0451
1679998101693,1178090047901525,0.044825,-0.0086624995,0.039049998
1679998101695,1178090050403678,0.0438625,-0.0086624995,0.0320375
1679998101698,1178090052905832,0.0427625,-0.0056375,0.0270875
1679998101701,1178090055407967,0.0427625,-0.0086624995,0.020075
1679998101704,1178090057910044,0.0427625,-0.0067375,0.01705
1679998101705,1178090060411967,0.047849998,-0.0086624995,0.015125
1679998101708,1178090062914121,0.0488125,-0.0067375,0.013062499
1679998101712,1178090065416284,0.0427625,-0.0067375,0.01705
1679998101713,1178090067918438,0.0438625,-0.010725,0.0221375
1679998101717,1178090070420515,0.04675,-0.0086624995,0.0210375
1679998101719,1178090072922668,0.0438625,-0.0077,0.025024999
1679998101725,1178090075423658,0.0427625,-0.0056375,0.02805
1679998101725,1178090077924621,0.0427625,-0.0067375,0.02805
1679998101727,1178090080428851,0.0427625,-0.0037125,0.0380875
1679998101728,1178090082931005,0.038775,-0.00165,0.042075
1679998101731,1178090085433145,0.0347875,-0.004675,0.048125
1679998101733,1178090087935068,0.027775,-0.0077,0.053075
1679998101735,1178090090437222,0.022824999,-0.00275,0.047025
1679998101738,1178090092939376,0.0237875,-0.0056375,0.0400125
1679998101741,1178090095441453,0.0207625,-0.0086624995,0.0331375
1679998101744,1178090097943376,0.0177375,-0.0077,0.0240625
1679998101746,1178090100445760,0.01485,-0.0097624995,0.0210375
1679998101748,1178090102947684,0.0088,-0.0086624995,0.020075
1679998101751,1178090105449837,0.0078375,-0.004675,0.0221375
1679998101754,1178090107951914,0.00385,-0.0086624995,0.020075
1679998101755,1178090110454068,0.00385,-0.0116875,0.0210375
1679998101757,1178090112955991,0.00385,-0.0116875,0.0240625
1679998101761,1178090115458068,0.00275,-0.01265,0.026124999
1679998101762,1178090117960299,8.25E-4,-0.0086624995,0.0270875
1679998101765,1178090120462463,0.0017875,-0.0097624995,0.0301125
1679998101768,1178090122964540,-1.375E-4,-0.0097624995,0.0290125
1679998101770,1178090125466463,-0.0012375,-0.004675,0.0231
1679998101773,1178090127968617,-0.005225,-0.00275,0.01705
1679998101776,1178090130470767,-0.0092124995,-0.0037125,0.01705
1679998101778,1178090132972843,-0.0092124995,2.75E-4,0.0111375
1679998101781,1178090135474997,-0.00715,2.75E-4,0.0081124995
1679998101784,1178090137977151,-0.0111375,-0.0037125,0.003025
1679998101785,1178090140479074,-0.010175,0.0012375,-0.001925
1679998101788,1178090142981151,-0.0092124995,0.0053625,-0.0039875
1679998101794,1178090145483305,-0.0061875,0.0023375,-0.0039875
1679998101795,1178090147985459,-0.0022,2.75E-4,-0.0039875
1679998101797,1178090150487598,0.0048125,0.0023375,-0.00495
1679998101798,1178090152989521,0.0088,0.0023375,-0.00495
1679998101802,1178090155491675,0.011825,-6.875E-4,-0.0028875
1679998101804,1178090157993752,0.01485,-6.875E-4,0.0011
1679998101806,1178090160495905,0.011825,-0.004675,0.0020625
1679998101808,1178090162997834,0.01375,-0.004675,0.0050875
1679998101811,1178090165499987,0.016775,2.75E-4,0.0081124995
1679998101813,1178090168002141,0.0158125,-0.004675,0.0111375
1679998101815,1178090170504218,0.0097624995,-0.004675,0.014025
1679998101818,1178090173006386,0.01485,-0.0037125,0.0160875
1679998101821,1178090175508540,0.011825,-0.0037125,0.015125
1679998101827,1178090178010463,0.01485,-0.0037125,0.0111375
1679998101827,1178090180512540,0.0097624995,-0.00165,0.0111375
1679998101829,1178090183014675,0.011825,-6.875E-4,0.013062499
1679998101832,1178090185516906,0.016775,-0.00275,0.004125
1679998101834,1178090188018982,0.0188375,-0.0056375,0.004125
1679998101836,1178090190520906,0.0218625,-0.004675,0.0081124995
1679998101838,1178090193023059,0.02475,-0.00165,0.0081124995
1679998101841,1178090195525146,0.0308,-0.00275,0.009075
1679998101844,1178090198027300,0.033825,-0.0037125,0.009075
1679998101845,1178090200529454,0.0317625,-0.00165,0.0081124995
1679998101848,1178090203031608,0.0328625,2.75E-4,0.0100375
1679998101852,1178090205533535,0.0308,0.0012375,0.0100375
1679998101853,1178090208035689,0.0328625,0.0033,0.0081124995
1679998101855,1178090210537766,0.0328625,-0.00275,0.013062499
1679998101858,1178090213039920,0.0328625,2.75E-4,0.015125
1679998101861,1178090215541829,0.0317625,0.0012375,0.014025
1679998101863,1178090218044213,0.02475,0.0012375,0.014025
1679998101867,1178090220546136,0.02475,-6.875E-4,0.013062499
1679998101869,1178090223048213,0.022824999,2.75E-4,0.0081124995
1679998101872,1178090225550338,0.0207625,0.0033,0.0020625
1679998101873,1178090228052261,0.0237875,0.0033,1.375E-4
1679998101876,1178090230554415,0.02585,0.006325,-9.625E-4
1679998101880,1178090233056569,0.0237875,0.0023375,-0.001925
1679998101883,1178090235558723,0.02475,0.0012375,-0.0028875
1679998101884,1178090238060795,0.02475,-6.875E-4,-0.00495
1679998101886,1178090240562949,0.0237875,-6.875E-4,-0.00495
1679998101888,1178090243064872,0.0188375,0.0023375,-0.0099
1679998101891,1178090245567026,0.0188375,-6.875E-4,-0.012925
1679998101895,1178090248069097,0.0188375,0.0012375,-0.0149875
1679998101897,1178090250571251,0.01485,2.75E-4,-0.012925
1679998101898,1178090253073405,0.0108624995,-0.00275,-0.0169125
1679998101901,1178090255575328,0.0078375,0.0012375,-0.0199375
1679998101905,1178090258077487,0.00385,-6.875E-4,-0.0248875
1679998101907,1178090260579641,0.005775,-0.00165,-0.02695
1679998101909,1178090263081718,0.005775,0.0023375,-0.0259875
1679998101912,1178090265583872,0.00385,-6.875E-4,-0.028875
1679998101914,1178090268086026,0.0017875,2.75E-4,-0.0339625
1679998101916,1178090270587925,-1.375E-4,0.0023375,-0.0369875
1679998101918,1178090273090002,0.0017875,0.0012375,-0.0358875
1679998101922,1178090275592155,0.0078375,-0.00165,-0.0328625
1679998101924,1178090278094309,0.0078375,-0.00165,-0.0328625
1679998101926,1178090280596463,0.0088,-0.00165,-0.0328625
1679998101928,1178090283098381,0.0078375,-0.00165,-0.0328625
1679998101931,1178090285600535,0.0097624995,0.0042625,-0.0279125
1679998101933,1178090288102612,0.0108624995,0.0023375,-0.0319
1679998101936,1178090290604535,0.011825,0.0012375,-0.028875
1679998101938,1178090293106680,0.011825,0.0033,-0.02695
1679998101942,1178090295608834,0.016775,0.0012375,-0.0279125
1679998101945,1178090298110988,0.016775,0.0023375,-0.0248875
1679998101946,1178090300613065,0.016775,0.0023375,-0.0248875
1679998101948,1178090303115232,0.016775,-6.875E-4,-0.0218625
1679998101951,1178090305617156,0.0198,0.0012375,-0.0229625
1679998101953,1178090308119309,0.02475,0.0033,-0.0229625
1679998101956,1178090310621463,0.0268125,0.00935,-0.0248875
1679998101959,1178090313123617,0.0268125,0.0023375,-0.028875
1679998101961,1178090315625694,0.02585,0.0072875,-0.0259875
1679998101963,1178090318127848,0.0237875,0.0033,-0.02695
1679998101965,1178090320629771,0.02475,0.0042625,-0.029975
1679998101968,1178090323131925,0.0268125,0.006325,-0.029975
1679998101971,1178090325634015,0.0237875,0.006325,-0.029975
1679998101973,1178090328136169,0.022824999,0.0053625,-0.028875
1679998101977,1178090330638322,0.0207625,0.0053625,-0.02695
1679998101979,1178090333140237,0.016775,0.0023375,-0.0259875
1679998101982,1178090335642391,0.0188375,0.0053625,-0.0248875
1679998101984,1178090338144468,0.0158125,-6.875E-4,-0.023924999
1679998101987,1178090340646622,0.0177375,0.0053625,-0.0218625
1679998101990,1178090343148776,0.016775,2.75E-4,-0.0199375
1679998101994,1178090345650911,0.0158125,2.75E-4,-0.018975
1679998101997,1178090348152834,0.0177375,0.0042625,-0.01595
1679998101999,1178090350654988,0.0218625,0.0023375,-0.0108624995
1679998102000,1178090353157065,0.022824999,2.75E-4,-0.00495
1679998102003,1178090355659199,0.02475,-6.875E-4,-0.0039875
1679998102004,1178090358161122,0.0268125,0.0012375,-9.625E-4
1679998102005,1178090360663506,0.0308,-0.0056375,0.003025
1679998102010,1178090363165429,0.0347875,-0.0067375,0.009075
1679998102013,1178090365667598,0.03575,-0.0077,0.0081124995
1679998102014,1178090368169675,0.033825,-0.004675,0.003025
1679998102019,1178090370671598,0.036849998,-0.0056375,0.0011
1679998102021,1178090373173752,0.038775,-0.0037125,-0.0028875
1679998102024,1178090375675891,0.038775,-0.00275,-0.0039875
1679998102026,1178090378178045,0.0408375,-6.875E-4,-0.0059125
1679998102028,1178090380680122,0.0427625,2.75E-4,-0.0099
1679998102030,1178090383182276,0.0408375,-0.00275,-0.0108624995
1679998102032,1178090385684223,0.038775,-0.004675,-0.0108624995
1679998102034,1178090388186376,0.0397375,-6.875E-4,-0.012925
1679998102036,1178090390688453,0.0408375,-6.875E-4,-0.0149875
1679998102038,1178090393190684,0.038775,2.75E-4,-0.0169125
1679998102041,1178090395692761,0.036849998,0.0053625,-0.0149875
1679998102043,1178090398194726,0.0328625,0.0023375,-0.0119624995
1679998102045,1178090400696880,0.0328625,-0.00165,-0.018975
1679998102048,1178090403199034,0.033825,-0.00165,-0.017875
1679998102051,1178090405701111,0.036849998,-0.00275,-0.0119624995
1679998102054,1178090408203044,0.0328625,-0.004675,-0.0108624995
1679998102056,1178090410705429,0.0347875,-0.00275,-0.0099
1679998102058,1178090413207352,0.0328625,-0.00275,-0.0089375
1679998102061,1178090415709429,0.0347875,2.75E-4,-0.00495
1679998102064,1178090418211582,0.0347875,-0.004675,-0.00495
1679998102065,1178090420713736,0.036849998,-0.004675,-9.625E-4
1679998102068,1178090423215659,0.036849998,-0.004675,0.0050875
1679998102071,1178090425717736,0.0347875,-0.0067375,0.0111375
1679998102073,1178090428219967,0.0347875,-0.0077,0.009075
1679998102077,1178090430722111,0.03575,-0.004675,0.009075
1679998102078,1178090433224188,0.0347875,-0.0056375,0.0100375
1679998102081,1178090435726111,0.033825,-0.004675,0.0121
1679998102083,1178090438228265,0.0298375,-0.0056375,0.014025
1679998102085,1178090440730342,0.0268125,-0.0067375,0.0111375
1679998102088,1178090443232506,0.02585,-0.0067375,0.0081124995
1679998102093,1178090445734659,0.0218625,-0.004675,0.0070125
1679998102095,1178090448236813,0.02475,-0.004675,0.0070125
1679998102096,1178090450738745,0.0237875,-0.00275,0.003025
1679998102098,1178090453240822,0.02585,0.0012375,0.0020625
1679998102101,1178090455742976,0.022824999,2.75E-4,0.0011
1679998102104,1178090458245130,0.0207625,-0.00275,0.0011
1679998102105,1178090460747284,0.0188375,-0.00165,0.004125
1679998102108,1178090463249213,0.0177375,-0.0037125,0.0050875
1679998102111,1178090465751367,0.0108624995,-6.875E-4,0.004125
1679998102113,1178090468253521,0.0067375,2.75E-4,0.0050875
1679998102116,1178090470755598,0.0048125,-0.00165,0.00605
1679998102118,1178090473257521,8.25E-4,0.0012375,0.0020625
1679998102123,1178090475759674,0.0017875,0.0042625,0.0020625
1679998102124,1178090478261828,-1.375E-4,0.0042625,0.0050875
1679998102126,1178090480763905,-0.0022,0.0023375,0.003025
1679998102130,1178090483266059,-0.005225,-6.875E-4,0.0020625
1679998102132,1178090485767982,-0.005225,-6.875E-4,0.003025
1679998102134,1178090488270367,-0.0031625,-0.00275,0.004125
1679998102136,1178090490772290,-0.0031625,-0.0037125,0.003025
1679998102138,1178090493274367,-0.00715,-0.00165,0.0020625
1679998102143,1178090495776526,-1.375E-4,-0.00165,0.0011
1679998102151,1178090498278680,-0.0022,2.75E-4,1.375E-4
1679998102151,1178090500780603,-0.0022,-0.00275,0.003025
1679998102151,1178090503282756,-0.0031625,-6.875E-4,0.003025
1679998102151,1178090505784900,-0.0012375,-0.0037125,-0.001925
1679998102153,1178090508287054,8.25E-4,2.75E-4,-0.0209
1679998102155,1178090510789131,0.011825,0.0023375,-0.040975
1679998102158,1178090513291054,0.0268125,0.0023375,-0.0578875
1679998102161,1178090515793208,0.0488125,0.0053625,-0.05995
1679998102163,1178090518295314,0.0598125,0.0053625,-0.04895
1679998102167,1178090520797468,0.05775,0.0012375,-0.034925
1679998102169,1178090523299622,0.0537625,-0.00165,-0.017875
1679998102172,1178090525801793,0.0438625,-0.0056375,-0.00495
1679998102173,1178090528303717,0.0298375,-0.0097624995,0.004125
1679998102175,1178090530805794,0.0198,-0.0086624995,0.0121
1679998102178,1178090533307947,0.01375,-0.0067375,0.0160875
1679998102181,1178090535809870,0.0048125,-0.0056375,0.014025
1679998102184,1178090538312218,-0.0031625,-0.0067375,0.0111375
1679998102186,1178090540814141,-0.00825,-0.0037125,0.0050875
1679998102188,1178090543316295,-0.00825,-6.875E-4,1.375E-4
1679998102191,1178090545818372,-0.005225,-0.00275,-0.006875
1679998102193,1178090548320295,-0.0012375,-0.00165,-0.006875
1679998102196,1178090550822458,0.0067375,2.75E-4,-0.0099
1679998102198,1178090553324842,0.005775,-6.875E-4,-0.007975
1679998102201,1178090555826766,0.0088,2.75E-4,-0.0028875
1679998102204,1178090558328842,0.01485,-0.0037125,1.375E-4
1679998102207,1178090560830972,0.0158125,-0.00275,0.0081124995
1679998102208,1178090563332895,0.01485,0.0012375,0.0081124995
1679998102211,1178090565835049,0.011825,-6.875E-4,0.0111375
1679998102213,1178090568337126,0.0097624995,-0.00165,0.01705
1679998102216,1178090570839357,0.00275,-0.004675,0.0160875
1679998102218,1178090573341410,8.25E-4,-0.0037125,0.013062499
1679998102221,1178090575843564,8.25E-4,-6.875E-4,0.0100375
1679998102224,1178090578345487,8.25E-4,-0.00275,0.0111375
1679998102227,1178090580847641,8.25E-4,-0.00165,0.009075
1679998102228,1178090583349718,0.0017875,-0.00275,0.004125
1679998102231,1178090585851948,0.0048125,-0.00275,0.0020625
1679998102233,1178090588354025,0.0067375,2.75E-4,0.0050875
1679998102235,1178090590855948,0.0048125,2.75E-4,0.0050875
1679998102238,1178090593358117,0.005775,-0.0037125,0.0050875
1679998102243,1178090595860271,0.005775,-0.0056375,0.009075
1679998102244,1178090598362348,0.0078375,-6.875E-4,0.009075
1679998102246,1178090600864271,0.0048125,2.75E-4,0.009075
1679998102248,1178090603366685,0.00385,0.0012375,0.0100375
1679998102251,1178090605868608,0.0017875,-6.875E-4,0.0081124995
1679998102253,1178090608370762,-0.0012375,2.75E-4,0.0081124995
1679998102255,1178090610872839,-0.0012375,2.75E-4,0.0070125
1679998102258,1178090613374996,-0.005225,0.0012375,0.004125
1679998102262,1178090615876920,-0.00715,-6.875E-4,0.0050875
1679998102264,1178090618379073,-0.0092124995,-6.875E-4,0.004125
1679998102265,1178090620881227,-0.0061875,0.0033,0.0020625
1679998102268,1178090623383367,-0.0061875,2.75E-4,-9.625E-4
1679998102271,1178090625885444,-0.00825,-0.00165,1.375E-4
1679998102273,1178090628387367,-0.00715,-0.00275,0.0011
1679998102277,1178090630889521,-0.0111375,-6.875E-4,0.003025
1679998102279,1178090633391598,-0.0092124995,-0.00275,-0.001925
1679998102282,1178090635893829,-0.0092124995,-0.00165,-0.00495
1679998102284,1178090638395906,-0.00715,0.0023375,-0.00495
1679998102287,1178090640898059,-0.005225,-6.875E-4,-9.625E-4
1679998102289,1178090643399983,-0.00715,-0.004675,0.0020625
1679998102293,1178090645902035,-0.00825,-0.0056375,0.004125
1679998102293,1178090648404189,-0.0092124995,-0.0056375,0.00605
1679998102296,1178090650906343,-0.0092124995,-0.0037125,0.0011
1679998102298,1178090653408497,-0.010175,2.75E-4,0.0011
1679998102301,1178090655910410,-0.00825,2.75E-4,0.0011
1679998102303,1178090658412564,-0.0092124995,2.75E-4,0.0011
1679998102306,1178090660914641,-0.00825,-6.875E-4,0.0020625
1679998102310,1178090663416795,-0.00715,-0.00165,-9.625E-4
1679998102312,1178090665918718,-0.00715,-0.00165,-9.625E-4
1679998102313,1178090668420872,-0.0092124995,-0.0037125,1.375E-4
1679998102317,1178090670923026,-0.00825,-0.00275,0.0011
1679998102321,1178090673425179,-0.0092124995,2.75E-4,1.375E-4
1679998102323,1178090675927275,-0.0092124995,-6.875E-4,-9.625E-4
1679998102325,1178090678429429,-0.0061875,-6.875E-4,1.375E-4
1679998102327,1178090680931352,-0.005225,2.75E-4,-0.001925
1679998102329,1178090683433429,-0.005225,-0.00275,-0.0028875
1679998102332,1178090685935660,-0.005225,-0.00275,1.375E-4
1679998102334,1178090688437795,-0.0081124995,-0.00275,1.375E-4
1679998102336,1178090690939872,-0.005225,0.0012375,1.375E-4
1679998102338,1178090693441795,-0.00715,2.75E-4,-9.625E-4
1679998102341,1178090695944179,-0.0081124995,-6.875E-4,1.375E-4
1679998102344,1178090698446103,-0.005225,2.75E-4,0.0011
1679998102346,1178090700948256,-0.0061875,2.75E-4,1.375E-4
1679998102348,1178090703450333,-0.0031625,-0.0037125,1.375E-4
1679998102352,1178090705952487,-0.0022,-0.0056375,0.0011
1679998102358,1178090708454424,-0.005225,-0.00165,1.375E-4
1679998102359,1178090710956501,-1.375E-4,-0.00275,0.0011
1679998102360,1178090713458732,0.0088,-0.0037125,0.004125
1679998102362,1178090715960809,0.0017875,-6.875E-4,0.0011
1679998102363,1178090718462963,0.00385,-0.0037125,1.375E-4
1679998102366,1178090720964886,0.0028875,-6.875E-4,-0.001925
1679998102368,1178090723467036,-0.0022,0.0033,-0.001925
1679998102371,1178090725969113,-0.0031625,0.0023375,-9.625E-4
1679998102373,1178090728471266,-0.0031625,-6.875E-4,0.0020625
1679998102376,1178090730973420,-0.0031625,0.0033,-9.625E-4
1679998102378,1178090733475574,-0.00715,0.0012375,1.375E-4
1679998102381,1178090735977497,-0.0111375,-0.00165,0.0020625
1679998102384,1178090738479574,-0.015125,0.0012375,0.0020625
1679998102386,1178090740981728,-0.014162499,0.0012375,0.004125
1679998102388,1178090743483877,-0.0122375,-0.0056375,1.375E-4
1679998102393,1178090745986031,-0.0132,-0.0037125,1.375E-4
1679998102395,1178090748487954,-0.0132,-6.875E-4,0.0011
1679998102396,1178090750990112,-0.0092124995,2.75E-4,1.375E-4
1679998102399,1178090753492265,-0.0092124995,0.0012375,1.375E-4
1679998102401,1178090755994342,-0.00715,-0.00275,1.375E-4
1679998102403,1178090758496266,-0.005225,-0.00275,-9.625E-4
1679998102406,1178090760998419,-0.0022,-6.875E-4,-9.625E-4
1679998102409,1178090763500574,0.00385,-6.875E-4,1.375E-4
1679998102413,1178090766002651,0.0078375,-0.00165,1.375E-4
1679998102414,1178090768504805,0.00385,-0.0037125,-9.625E-4
1679998102416,1178090771006959,0.0017875,-0.0037125,1.375E-4
1679998102419,1178090773508877,-0.0022,2.75E-4,1.375E-4
1679998102423,1178090776010954,-0.005225,-0.00165,0.0011
1679998102424,1178090778513108,-0.0022,-6.875E-4,1.375E-4
1679998102427,1178090781015338,-0.0092124995,-6.875E-4,-9.625E-4
1679998102430,1178090783517419,-0.010175,-0.00275,-9.625E-4
1679998102433,1178090786019342,-0.0092124995,-0.0037125,1.375E-4
1679998102434,1178090788521496,-0.010175,-0.00165,1.375E-4
1679998102436,1178090791023573,-0.00715,-6.875E-4,0.0020625
1679998102438,1178090793525496,-0.005225,-0.00275,0.0011
1679998102441,1178090796027891,-0.0031625,-0.0037125,1.375E-4
1679998102444,1178090798530045,-1.375E-4,-0.00165,1.375E-4
1679998102446,1178090801031968,0.005775,0.0012375,-9.625E-4
1679998102449,1178090803534045,0.006875,0.0033,0.0011
1679998102451,1178090806036193,0.006875,2.75E-4,1.375E-4
1679998102454,1178090808538116,0.0078375,-6.875E-4,1.375E-4
1679998102456,1178090811040270,0.0108624995,-0.00165,-9.625E-4
1679998102460,1178090813542423,0.011825,0.0012375,-9.625E-4
1679998102462,1178090816044577,0.0138875,0.0033,-9.625E-4
1679998102464,1178090818546649,0.01485,-0.00165,-0.001925
1679998102467,1178090821048572,0.0158125,-6.875E-4,-9.625E-4
1679998102470,1178090823550726,0.0108624995,0.0033,-9.625E-4
1679998102472,1178090826052876,0.0097624995,0.0023375,1.375E-4
1679998102474,1178090828555030,0.0078375,-6.875E-4,0.0020625
1679998102476,1178090831057107,0.0078375,-0.00165,0.0020625
1679998102479,1178090833559261,0.011825,-0.00165,0.0011
1679998102481,1178090836061415,0.011825,-6.875E-4,1.375E-4
1679998102484,1178090838563323,0.0097624995,-6.875E-4,-0.001925
1679998102486,1178090841065400,0.0108624995,0.0023375,-9.625E-4
1679998102489,1178090843567553,0.0138875,2.75E-4,1.375E-4
1679998102491,1178090846069707,0.017875,0.0023375,-0.0028875
1679998102493,1178090848571861,0.016775,0.0023375,0.0011
1679998102496,1178090851073794,0.01485,0.0012375,0.0020625
1679998102500,1178090853575948,0.01485,0.0012375,0.0020625
1679998102504,1178090856078025,0.0158125,-6.875E-4,0.003025
1679998102506,1178090858580169,0.01485,0.0012375,1.375E-4
1679998102507,1178090861082092,0.0158125,0.0053625,0.0020625
1679998102509,1178090863584477,0.01485,0.0023375,0.0011
1679998102512,1178090866086400,0.0108624995,2.75E-4,0.0011
1679998102513,1178090868588477,0.006875,0.0023375,1.375E-4
1679998102516,1178090871090621,0.0048125,0.0012375,-0.001925
1679998102518,1178090873592544,0.00385,-0.00165,0.0011
1679998102521,1178090876094698,0.0028875,-0.00165,0.0011
1679998102524,1178090878596852,-1.375E-4,0.0012375,-0.001925
1679998102527,1178090881099025,8.25E-4,-6.875E-4,-0.0089375
1679998102529,1178090883601102,0.0138875,0.0023375,-0.0328625
1679998102532,1178090886103256,0.0268125,0.0042625,-0.0539
1679998102533,1178090888605179,0.044825,0.011275,-0.0578875
1679998102538,1178090891107323,0.0628375,0.0133375,-0.045925
1679998102540,1178090893609400,0.0658625,0.006325,-0.0279125
1679998102544,1178090896111630,0.060775,-0.004675,-0.00495
1679998102546,1178090898613707,0.055825,-0.004675,0.0121
1679998102547,1178090901115635,0.0408375,-0.0077,0.0221375
1679998102549,1178090903617789,0.027775,-0.0097624995,0.0320375
1679998102552,1178090906119943,0.0218625,-0.0077,0.0341
1679998102554,1178090908622020,0.0188375,-0.0056375,0.0301125
1679998102556,1178090911123943,0.017875,-0.0077,0.0240625
1679998102559,1178090913626328,0.0158125,-0.00275,0.0221375
1679998102562,1178090916128251,0.016775,0.0023375,0.01705
1679998102563,1178090918630328,0.017875,0.0012375,0.013062499
1679998102566,1178090921132482,0.0237875,-6.875E-4,0.0100375
1679998102568,1178090923634636,0.0248875,-0.00165,0.0121
1679998102571,1178090926136789,0.0298375,-0.00165,0.01705
1679998102573,1178090928638712,0.0298375,0.0023375,0.0160875
1679998102577,1178090931140866,0.027775,-0.00165,0.013062499
1679998102581,1178090933642943,0.027775,-0.0037125,0.0160875
1679998102583,1178090936144866,0.0308,-0.00275,0.0191125
1679998102585,1178090938647251,0.0308,-0.00275,0.020075
1679998102587,1178090941149174,0.02585,-0.00275,0.0160875
1679998102589,1178090943651328,0.0207625,-0.00165,0.020075
1679998102591,1178090946153395,0.0198,-0.00165,0.01705
1679998102593,1178090948655549,0.0198,2.75E-4,0.0111375
1679998102596,1178090951157472,0.017875,2.75E-4,0.0081124995
1679998102598,1178090953659626,0.0158125,-6.875E-4,0.00605
1679998102601,1178090956161766,0.0138875,-0.00165,0.003025
1679998102603,1178090958663920,0.01485,-0.004675,1.375E-4
1679998102606,1178090961165997,0.0158125,-0.0067375,-9.625E-4
1679998102609,1178090963668151,0.016775,-0.0037125,-0.0028875
1679998102611,1178090966170064,0.0188375,-0.004675,-0.0059125
1679998102614,1178090968672141,0.016775,2.75E-4,-0.006875
1679998102618,1178090971174295,0.0188375,-6.875E-4,-0.0089375
1679998102619,1178090973676526,0.0198,-0.00165,-0.0099
1679998102623,1178090976178597,0.0198,0.0023375,-0.0099
1679998102625,1178090978680520,0.0207625,0.0023375,-0.006875
1679998102627,1178090981182674,0.022824999,2.75E-4,-0.0108624995
1679998102629,1178090983684827,0.0198,-0.0037125,-0.007975
1679998102632,1178090986186904,0.017875,-0.00165,-0.0039875
1679998102633,1178090988689058,0.022824999,2.75E-4,-0.0059125
1679998102636,1178090991191212,0.0237875,-0.004675,-0.0059125
1679998102639,1178090993693135,0.0268125,-0.0037125,-0.00495
1679998102641,1178090996195289,0.0237875,-0.0056375,-0.001925
1679998102643,1178090998697366,0.02585,-0.0037125,-0.0028875
1679998102647,1178091001199530,0.0317625,-0.00165,-0.0028875
1679998102649,1178091003701453,0.0268125,-0.0037125,-9.625E-4
1679998102651,1178091006203607,0.033825,-0.0056375,-9.625E-4
1679998102655,1178091008705756,0.033825,-0.0037125,0.0020625
1679998102657,1178091011207832,0.036849998,-0.0056375,0.0020625
1679998102659,1178091013709986,0.033825,-0.0067375,0.004125
1679998102662,1178091016211909,0.0328625,-0.00275,0.00605
1679998102664,1178091018714063,0.0298375,-0.0067375,0.0100375
1679998102666,1178091021216140,0.0328625,-0.0077,0.0100375
1679998102668,1178091023718294,0.027775,-0.004675,0.0111375
1679998102671,1178091026220448,0.0298375,-0.004675,0.0081124995
1679998102674,1178091028722602,0.0298375,-0.0067375,0.0050875
1679998102677,1178091031224525,0.02585,-0.0037125,0.004125
1679998102679,1178091033726602,0.022824999,-0.0037125,0.0011
1679998102681,1178091036228756,0.0207625,-0.0086624995,-0.001925
1679998102684,1178091038730909,0.0207625,-0.004675,-0.001925
1679998102686,1178091041233082,0.0218625,-0.0086624995,-0.0028875
1679998102688,1178091043735005,0.0218625,-0.0056375,-0.0028875
1679998102695,1178091046237159,0.0218625,-0.0037125,-9.625E-4
1679998102695,1178091048739236,0.0088,-0.010725,-9.625E-4
1679998102697,1178091051241405,0.0248875,-0.0086624995,-0.00495
1679998102699,1178091053743328,0.0378125,-0.0067375,-0.0089375
1679998102702,1178091056245713,0.036849998,-0.0056375,-0.0119624995
1679998102705,1178091058747636,0.036849998,-0.0056375,-0.0149875
1679998102706,1178091061249713,0.036849998,-0.0037125,-0.0149875
1679998102709,1178091063751857,0.0378125,-0.0037125,-0.0169125
1679998102712,1178091066254010,0.0378125,-0.004675,-0.0199375
1679998102713,1178091068755934,0.0317625,-6.875E-4,-0.023924999
1679998102716,1178091071258087,0.0248875,-0.00165,-0.0229625
1679998102719,1178091073760231,0.0207625,-0.0077,-0.0218625
1679998102723,1178091076262385,0.0188375,-0.0037125,-0.0169125
1679998102724,1178091078764462,0.0188375,-6.875E-4,-0.0149875
1679998102727,1178091081266385,0.0188375,2.75E-4,-0.0119624995
1679998102730,1178091083768544,0.01485,-0.0067375,-0.007975
1679998102733,1178091086270621,0.0138875,-0.0056375,-0.007975
1679998102735,1178091088772852,0.017875,-0.004675,-0.0028875
1679998102736,1178091091274929,0.0207625,-0.0056375,-0.0039875
1679998102739,1178091093777082,0.0218625,-0.004675,-0.0089375
1679998102743,1178091096279006,0.0218625,-0.004675,-0.0108624995
1679998102744,1178091098781082,0.0207625,-0.0056375,-0.0119624995
1679998102746,1178091101283236,0.0188375,-0.0056375,-0.0108624995
1679998102748,1178091103785390,0.0198,-0.0056375,-0.0059125
1679998102751,1178091106287544,0.01485,-0.0067375,-0.0028875
1679998102754,1178091108789448,0.0138875,-0.0037125,-9.625E-4
1679998102756,1178091111291602,0.011825,-0.00165,-9.625E-4
1679998102759,1178091113793679,0.0078375,-0.0067375,0.0011
1679998102761,1178091116295833,0.0078375,-0.0037125,1.375E-4
1679998102764,1178091118797760,0.005775,-0.004675,-0.001925
1679998102769,1178091121300144,0.00385,-0.004675,0.003025
1679998102777,1178091123802068,0.00385,-0.0067375,0.004125
1679998102777,1178091126304221,0.0028875,-0.0086624995,0.003025
1679998102777,1178091128806313,0.0028875,-0.0067375,-9.625E-4
1679998102777,1178091131308467,0.006875,-0.004675,1.375E-4
1679998102779,1178091133810390,0.0048125,-6.875E-4,-9.625E-4
1679998102783,1178091136312544,0.0088,-0.00275,-0.0028875
1679998102784,1178091138814698,0.0138875,-0.00275,-0.00495
1679998102786,1178091141316775,0.01485,-0.00275,-0.0028875
1679998102788,1178091143818698,0.0188375,0.0012375,-0.0059125
1679998102792,1178091146320852,0.0207625,2.75E-4,-0.00495
1679998102794,1178091148823266,0.0237875,-0.0037125,-0.00495
1679998102796,1178091151325190,0.0248875,-0.00275,-0.006875
1679998102799,1178091153827266,0.02585,2.75E-4,-0.006875
1679998102801,1178091156329420,0.027775,-6.875E-4,-0.00495
1679998102805,1178091158831588,0.0248875,0.0023375,-0.0099
1679998102807,1178091161333511,0.02585,0.0023375,-0.0099
1679998102808,1178091163835588,0.0248875,-6.875E-4,-0.006875
1679998102812,1178091166337819,0.0198,0.0023375,-0.0059125
1679998102814,1178091168839896,0.0188375,-0.00275,-0.00495
1679998102816,1178091171342069,0.0158125,0.0033,-0.0059125
1679998102819,1178091173843992,0.0108624995,0.0012375,-0.0108624995
1679998102823,1178091176346146,0.0078375,0.0023375,-0.012925
1679998102824,1178091178848223,0.0048125,0.0033,-0.0089375
1679998102827,1178091181350381,0.006875,0.0012375,-0.0108624995
1679998102829,1178091183852535,0.005775,0.0023375,-0.007975
1679998102834,1178091186354458,0.005775,-0.00165,-0.0039875
1679998102834,1178091188856612,0.00385,-0.0037125,-0.00495
1679998102838,1178091191358655,0.0088,-0.00275,0.0020625
1679998102839,1178091193860809,0.006875,-0.00165,0.00605
1679998102845,1178091196362732,0.0048125,-0.0067375,0.0070125
1679998102845,1178091198865117,0.0097624995,-0.0067375,0.0070125
1679998102847,1178091201367040,0.0078375,-0.004675,0.00605
1679998102848,1178091203869223,0.011825,-0.004675,0.0111375
1679998102852,1178091206371300,0.0108624995,-6.875E-4,0.0121
1679998102854,1178091208873223,0.0078375,-0.0077,0.0160875
1679998102856,1178091211375377,0.0088,-0.0037125,0.0191125
1679998102860,1178091213877540,0.01375,-0.004675,0.0191125
1679998102863,1178091216379694,0.011825,-0.0056375,0.013062499
1679998102864,1178091218881771,0.0078375,-6.875E-4,0.0121
1679998102866,1178091221383925,0.00385,-0.00165,0.0121
1679998102868,1178091223885828,0.0078375,-0.00275,0.0081124995
1679998102873,1178091226387982,0.0097624995,-6.875E-4,0.0050875
1679998102874,1178091228890059,0.005775,-6.875E-4,0.004125
1679998102877,1178091231392290,0.0078375,0.0012375,0.0020625
1679998102880,1178091233894367,0.0097624995,0.0012375,-0.001925
1679998102883,1178091236396520,0.011825,-6.875E-4,-9.625E-4
1679998102885,1178091238898444,0.0108624995,0.0023375,-0.00495
1679998102887,1178091241400597,0.0108624995,0.0023375,-0.006875
1679998102889,1178091243902674,0.0158125,-0.00165,-0.006875
1679998102892,1178091246404857,0.016775,0.0023375,1.375E-4
1679998102897,1178091248907011,0.016775,0.0012375,0.0100375
1679998102897,1178091251408934,0.0188375,0.0012375,0.013062499
1679998102899,1178091253911088,0.0188375,-6.875E-4,0.00605
1679998102902,1178091256413175,0.0207625,-0.00165,0.003025
1679998102904,1178091258915329,0.0237875,2.75E-4,0.004125
1679998102906,1178091261417252,0.027775,0.0012375,0.0050875
1679998102908,1178091263919406,0.0298375,2.75E-4,0.003025
1679998102912,1178091266421559,0.0298375,2.75E-4,0.0011
1679998102914,1178091268923713,0.0298375,-0.00275,0.0020625
1679998102917,1178091271425790,0.0328625,-0.00275,0.0011
1679998102920,1178091273927944,0.0317625,-6.875E-4,0.0020625
1679998102925,1178091276428933,0.0268125,-0.00275,1.375E-4
1679998102925,1178091278929896,0.0268125,-0.0037125,-0.001925
1679998102927,1178091281434204,0.0268125,-0.00275,-0.001925
1679998102930,1178091283936358,0.02585,-0.00165,1.375E-4
1679998102933,1178091286438435,0.02475,-0.00275,0.0011
1679998102935,1178091288940358,0.0198,-0.0037125,0.0020625
1679998102936,1178091291442488,0.0198,-0.004675,0.0011
1679998102939,1178091293944641,0.017875,-0.004675,-0.001925
1679998102943,1178091296446718,0.01485,-0.0037125,-0.001925
1679998102944,1178091298948872,0.01485,-0.00275,1.375E-4
1679998102947,1178091301451026,0.011825,-0.00275,0.0011
1679998102949,1178091303952949,0.0108624995,-0.004675,1.375E-4
1679998102952,1178091306455026,0.0097624995,-0.0037125,-9.625E-4
1679998102955,1178091308957180,0.0088,-0.00165,-0.001925
1679998102957,1178091311459334,0.005775,-0.00165,-9.625E-4
1679998102960,1178091313961488,0.006875,-0.0067375,0.0011
1679998102963,1178091316463411,0.0078375,-0.0056375,1.375E-4
1679998102964,1178091318965565,0.0088,-0.00275,-0.001925
1679998102966,1178091321467718,0.0097624995,-0.00165,-9.625E-4
1679998102969,1178091323969780,0.01485,-0.0037125,1.375E-4
1679998102972,1178091326471703,0.017875,-0.004675,1.375E-4
1679998102974,1178091328973857,0.0198,-0.0037125,1.375E-4
1679998102977,1178091331476011,0.02585,-0.00275,0.0011
1679998102979,1178091333978064,0.027775,-0.00165,0.0020625
1679998102982,1178091336480218,0.0308,-0.00275,1.375E-4
1679998102984,1178091338982372,0.0347875,-0.004675,0.0011
1679998102986,1178091341484295,0.03575,-0.004675,0.0011
1679998102989,1178091343986372,0.0347875,-0.00165,1.375E-4
1679998102993,1178091346488526,0.036849998,0.0012375,1.375E-4
1679998102995,1178091348990756,0.0378125,-0.00165,1.375E-4
1679998102997,1178091351492833,0.038775,-6.875E-4,0.0011
1679998102999,1178091353994756,0.038775,-6.875E-4,0.0011
1679998103002,1178091356496848,0.0408375,0.0023375,-9.625E-4
1679998103004,1178091358999079,0.0408375,0.0012375,0.0020625
1679998103007,1178091361501233,0.039875,-6.875E-4,1.375E-4
1679998103009,1178091364003310,0.038775,0.0023375,1.375E-4
1679998103012,1178091366505285,0.03575,2.75E-4,0.0020625
1679998103015,1178091369007439,0.0378125,-0.00165,1.375E-4
1679998103016,1178091371509516,0.0418,-0.00165,0.0011
1679998103019,1178091374011439,0.038775,-6.875E-4,0.0020625
1679998103022,1178091376513810,0.036849998,-0.00165,0.0011
1679998103025,1178091379015963,0.038775,-6.875E-4,1.375E-4
1679998103026,1178091381517886,0.036849998,-0.00165,-0.001925
1679998103030,1178091384019948,0.033825,-0.004675,0.0020625
1679998103035,1178091386522102,0.033825,0.0012375,1.375E-4
1679998103036,1178091389024256,0.0317625,0.0023375,-9.625E-4
1679998103037,1178091391526410,0.0317625,-0.00165,0.0011
1679998103039,1178091394028333,0.0308,-0.0037125,0.0011
1679998103043,1178091396530483,0.0328625,-0.00165,-9.625E-4
1679998103044,1178091399032560,0.0317625,-0.0037125,0.0020625
1679998103046,1178091401534714,0.0317625,-0.0067375,-9.625E-4
1679998103049,1178091404036637,0.027775,-0.0037125,1.375E-4
1679998103052,1178091406538824,0.02475,-0.0037125,0.0020625
1679998103054,1178091409040977,0.022824999,-0.00165,0.0011
1679998103056,1178091411543054,0.0207625,-0.00275,0.0020625
1679998103060,1178091414045208,0.0198,-0.004675,0.0020625
1679998103063,1178091416547362,0.017875,-0.0077,1.375E-4
1679998103064,1178091419049285,0.0188375,-0.0077,1.375E-4
1679998103068,1178091421551362,0.0218625,-0.0077,0.003025
1679998103071,1178091424053593,0.0237875,-0.0037125,0.0020625
1679998103073,1178091426555675,0.0298375,-6.875E-4,1.375E-4
1679998103074,1178091429057829,0.0328625,-0.00275,1.375E-4
1679998103077,1178091431559752,0.036849998,-0.0037125,1.375E-4
1679998103079,1178091434061906,0.038775,-0.00165,1.375E-4
1679998103082,1178091436563983,0.0427625,-0.0086624995,1.375E-4
1679998103084,1178091439066145,0.047849998,-0.004675,1.375E-4
1679998103087,1178091441568299,0.0488125,-0.004675,0.0011
1679998103089,1178091444070453,0.049775,-0.0056375,-9.625E-4
1679998103092,1178091446572376,0.049775,-0.0077,-9.625E-4
1679998103094,1178091449074410,0.0518375,-0.0056375,0.003025
1679998103096,1178091451576564,0.0528,-0.0037125,0.003025
1679998103099,1178091454078718,0.0528,-0.0067375,1.375E-4
1679998103102,1178091456580641,0.0488125,-0.0037125,0.0011
1679998103106,1178091459082805,0.049775,-0.0037125,-9.625E-4
1679998103107,1178091461584959,0.050875,-0.004675,-9.625E-4
1679998103110,1178091464087035,0.0518375,-0.004675,0.0011
1679998103113,1178091466589189,0.0518375,-0.0037125,0.003025
1679998103115,1178091469091112,0.050875,-0.00275,0.0011
1679998103116,1178091471593280,0.049775,-6.875E-4,0.0011
1679998103119,1178091474095434,0.04675,-0.00165,1.375E-4
1679998103122,1178091476597511,0.047849998,-0.00165,1.375E-4
1679998103124,1178091479099665,0.047849998,-0.0037125,0.0011
1679998103128,1178091481601588,0.0488125,-6.875E-4,0.0011
1679998103130,1178091484103742,0.047849998,0.0012375,0.0020625
1679998103133,1178091486605819,0.0438625,0.0012375,0.0011
1679998103135,1178091489107973,0.0438625,-0.00165,0.0011
1679998103136,1178091491610126,0.0438625,2.75E-4,0.0050875
1679998103139,1178091494112280,0.0418,0.0012375,0.003025
1679998103144,1178091496614203,0.0418,2.75E-4,0.0020625
1679998103147,1178091499116357,0.039875,-6.875E-4,0.0020625
1679998103148,1178091501618468,0.039875,0.0012375,0.0020625
1679998103152,1178091504120622,0.0418,0.0012375,0.0011
1679998103153,1178091506622545,0.0418,-0.0056375,0.0020625
1679998103155,1178091509124930,0.039875,-0.0037125,0.0011
1679998103156,1178091511626853,0.038775,-6.875E-4,0.0011
1679998103160,1178091514128973,0.0408375,-0.00275,0.0020625
1679998103162,1178091516631050,0.0408375,-0.00275,0.0020625
1679998103164,1178091519132973,0.038775,-0.0077,0.0011
1679998103166,1178091521635127,0.038775,-0.00165,0.0020625
1679998103169,1178091524137511,0.0378125,2.75E-4,0.0011
1679998103171,1178091526639434,0.036849998,-0.00275,-9.625E-4
1679998103174,1178091529141511,0.0328625,-0.00275,0.0011
1679998103177,1178091531643665,0.033825,-0.00165,0.0020625
1679998103180,1178091534145574,0.0328625,-0.0077,-9.625E-4
1679998103184,1178091536647728,0.0308,-0.0077,0.0020625
1679998103186,1178091539149805,0.0308,-0.0056375,0.0020625
1679998103187,1178091541652036,0.0308,-0.0067375,0.0011
1679998103190,1178091544154113,0.0308,-0.00165,0.0020625
1679998103193,1178091546656031,0.02585,-0.00165,0.004125
1679998103195,1178091549158185,0.02475,-0.0037125,0.004125
1679998103196,1178091551660338,0.02475,-0.00165,0.0011
1679998103200,1178091554162415,0.022824999,-0.00275,0.0020625
1679998103203,1178091556664550,0.0198,-0.00165,0.003025
1679998103204,1178091559166704,0.0207625,-6.875E-4,0.0020625
1679998103207,1178091561668627,0.0207625,-0.0037125,0.003025
1679998103209,1178091564170781,0.0207625,-0.0037125,0.00605
1679998103212,1178091566672848,0.0188375,-0.0037125,0.003025
1679998103214,1178091569175002,0.0188375,-6.875E-4,0.003025
1679998103218,1178091571676925,0.0198,-6.875E-4,0.004125
1679998103221,1178091574179079,0.0188375,0.0033,0.0011
1679998103224,1178091576681228,0.017875,0.0023375,1.375E-4
1679998103227,1178091579183304,0.0188375,2.75E-4,0.0011
1679998103228,1178091581685458,0.0158125,2.75E-4,1.375E-4
1679998103231,1178091584187612,0.0108624995,-0.004675,0.003025
1679998103233,1178091586689535,0.01375,-0.00165,0.0011
1679998103236,1178091589191660,0.01485,-0.00165,0.0011
1679998103238,1178091591693814,0.01375,-0.0037125,0.0020625
1679998103240,1178091594195891,0.01485,-0.00165,-9.625E-4
1679998103243,1178091596697814,0.017875,-6.875E-4,-9.625E-4
1679998103245,1178091599199968,0.016775,2.75E-4,1.375E-4
1679998103247,1178091601702328,0.0158125,-0.0056375,1.375E-4
1679998103249,1178091604204252,0.01375,-0.0037125,0.0011
1679998103252,1178091606706328,0.011825,-0.00275,1.375E-4
1679998103255,1178091609208482,0.0088,-0.00165,-9.625E-4
1679998103258,1178091611710376,0.006875,-0.00275,0.0011
1679998103260,1178091614212530,0.005775,-0.0037125,0.004125
1679998103263,1178091616714607,8.25E-4,-0.0037125,0.003025
1679998103265,1178091619216838,-0.0031625,-0.00275,-9.625E-4
1679998103267,1178091621718915,-0.005225,-0.00275,-9.625E-4
1679998103270,1178091624221089,-0.00825,-0.0067375,1.375E-4
1679998103272,1178091626723012,-0.0092124995,-0.0067375,-0.001925
1679998103274,1178091629225166,-0.0092124995,-0.0056375,-0.001925
1679998103276,1178091631727243,-0.014162499,-0.004675,0.0011
1679998103279,1178091634229396,-0.014162499,2.75E-4,-0.001925
1679998103282,1178091636731554,-0.014162499,-0.00275,0.0020625
1679998103284,1178091639233477,-0.016224999,-6.875E-4,1.375E-4
1679998103287,1178091641735631,-0.015125,-0.0037125,-9.625E-4
1679998103289,1178091644237708,-0.015125,-0.00165,-0.001925
1679998103295,1178091646739863,-0.0132,-0.004675,1.375E-4
1679998103295,1178091649241786,-0.010175,-0.0037125,-0.001925
1679998103297,1178091651744171,-0.00715,-0.0037125,-0.001925
1679998103299,1178091654246094,-0.0012375,-0.00165,0.0011
1679998103303,1178091656748257,-1.375E-4,-0.00275,1.375E-4
1679998103305,1178091659250334,-1.375E-4,-0.00165,-9.625E-4
1679998103307,1178091661752487,-0.00825,-0.00165,-0.001925
1679998103311,1178091664254411,-0.00715,-0.00165,0.0020625
1679998103312,1178091666756564,-0.00715,0.0012375,1.375E-4
1679998103314,1178091669258718,-0.0111375,2.75E-4,-0.0028875
1679998103317,1178091671760872,-0.0122375,0.0012375,-0.0028875
1679998103319,1178091674262949,-0.014162499,0.0033,-9.625E-4
1679998103322,1178091676764872,-0.015125,0.0023375,-0.0028875
1679998103324,1178091679267016,-0.01925,2.75E-4,-0.001925
1679998103326,1178091681769093,-0.01925,-0.00275,-0.001925
1679998103331,1178091684271324,-0.0171875,-6.875E-4,-0.0028875
1679998103333,1178091686773401,-0.01815,0.0012375,1.375E-4
1679998103335,1178091689275569,-0.01815,2.75E-4,0.0020625
1679998103336,1178091691777493,-0.01925,0.0012375,1.375E-4
1679998103339,1178091694279569,-0.01925,-6.875E-4,0.0011
1679998103343,1178091696781723,-0.01815,0.0012375,1.375E-4
