system_ts_ms, sensor_ts_ns, accX, accY, accZ
1679998098398,1178086745136396,8.713051,0.19305001,5.4580503
1679998098399,1178086747638550,8.694,0.162,5.439
1679998098400,1178086750140627,8.838,0.15795001,5.472
1679998098400,1178086752642781,8.79705,0.177,5.3359504
1679998098401,1178086755144708,8.72295,0.16005,5.3760004
1679998098402,1178086757646862,8.710951,0.11400001,5.32095
1679998098415,1178086760149015,8.79,0.141,5.28105
1679998098416,1178086762651169,8.713051,0.13800001,5.32905
1679998098417,1178086765153246,8.69205,0.09,5.39295
1679998098418,1178086767655410,8.577001,0.031050002,5.37195
1679998098419,1178086770157333,8.54595,0.022950001,5.47695
1679998098420,1178086772659487,8.467051,0.043050002,5.5870504
1679998098421,1178086775161641,8.43795,-0.060000002,5.63805
1679998098427,1178086777663790,8.40705,-0.052950002,5.649
1679998098428,1178086780165867,8.34405,-0.039,5.5270505
1679998098428,1178086782668020,8.42805,-0.043950003,5.59695
1679998098430,1178086785169943,8.392051,-0.08895,5.61105
1679998098432,1178086787672030,8.44005,-0.08895,5.781
1679998098436,1178086790174184,8.574,-0.108,5.7910504
1679998098437,1178086792676338,8.64105,-0.079950005,5.7790504
1679998098440,1178086795178492,8.76105,-0.13905,5.8390503
1679998098442,1178086797680405,8.79195,-0.21105,5.87505
1679998098444,1178086800182559,8.802,-0.216,5.8939505
1679998098447,1178086802684636,8.93595,-0.08205,5.8650002
1679998098454,1178086805186790,9.06495,-0.16605,5.9560504
1679998098454,1178086807688713,9.09405,-0.036000002,6.0040503
1679998098455,1178086810191097,9.087001,-0.07005,5.84805
1679998098457,1178086812693020,9.252001,-0.12495001,5.9149504
1679998098460,1178086815195174,9.199051,-0.063,5.9659505
1679998098463,1178086817697222,9.243,0.079050004,5.90805
1679998098465,1178086820199376,9.250051,0.045,5.7720003
1679998098472,1178086822701299,9.23295,0.0019500001,5.7910504
1679998098472,1178086825203684,9.204,0.016050002,5.793
1679998098472,1178086827705607,9.154051,0.11895001,5.736
1679998098476,1178086830207766,9.204,0.141,5.7330003
1679998098477,1178086832709843,9.115951,0.061950002,5.78595
1679998098480,1178086835211997,9.23505,0.052050002,5.6970005
1679998098482,1178086837713920,9.219001,0.10695001,5.68305
1679998098488,1178086840216059,9.108001,0.11895001,5.7979503
1679998098489,1178086842718213,9.108001,0.102000006,5.59695
1679998098493,1178086845220290,9.08205,0.109950006,5.5540504
1679998098494,1178086847722444,8.995951,0.097950004,5.54895
1679998098495,1178086850224323,9.010051,0.11400001,5.4910502
1679998098497,1178086852726477,8.93595,0.14295001,5.41695
1679998098504,1178086855228554,8.886001,0.07095,5.5129504
1679998098505,1178086857730785,8.85495,-0.010050001,5.5609503
1679998098505,1178086860232862,8.806951,0.10695001,5.5350003
1679998098507,1178086862735012,8.838,0.13605,5.5300503
1679998098510,1178086865236935,8.72805,-0.01995,5.6400003
1679998098512,1178086867739088,8.742001,0.010950001,5.59005
1679998098515,1178086870241165,8.75895,-0.04605,5.5540504
1679998098521,1178086872743304,8.69205,-0.027,5.7450004
1679998098521,1178086875245458,8.62005,-0.048,5.604
1679998098523,1178086877747612,8.578951,-0.135,5.5939503
1679998098526,1178086880249535,8.55795,-0.087000005,5.62995
1679998098528,1178086882751664,8.50695,-0.08205,5.6400003
1679998098531,1178086885253741,8.533951,0.07095,5.5030503
1679998098533,1178086887755895,8.434951,-0.072000004,5.5300503
1679998098539,1178086890257818,8.316,0.07095,5.3880005
1679998098540,1178086892760202,8.29395,-0.039,5.5009503
1679998098541,1178086895262120,8.376,-0.034050003,5.736
1679998098543,1178086897764274,8.397,0.028050002,5.62305
1679998098545,1178086900266351,8.409,0.04695,5.7169504
1679998098547,1178086902768274,8.352,-0.051000003,5.77605
1679998098554,1178086905270428,8.44305,0.11895001,5.74305
1679998098555,1178086907772813,8.44305,-0.060000002,5.7169504
1679998098555,1178086910274736,8.45505,-0.072000004,5.7289505
1679998098557,1178086912776813,8.54595,-0.072000004,5.7330003
1679998098560,1178086915278948,8.577001,-0.051000003,5.84595
1679998098563,1178086917781102,8.62005,0.009000001,5.8050003
1679998098565,1178086920283025,8.76105,-0.01695,5.793
1679998098570,1178086922785102,8.74905,0.10695001,5.7960005
1679998098570,1178086925287299,8.79195,0.034950003,5.80305
1679998098572,1178086927789376,8.826,-0.01695,5.6850004
1679998098575,1178086930291530,8.833051,-0.063,5.59695
1679998098577,1178086932793453,8.75205,-0.10605001,5.5030503
1679998098580,1178086935295607,8.835,-0.10395,5.6950502
1679998098583,1178086937797675,8.839951,-0.07005,5.736
1679998098590,1178086940299829,8.857051,-0.015000001,5.6850004
1679998098591,1178086942801983,8.851951,0.016050002,5.6449504
1679998098592,1178086945304136,8.86905,-0.0010500001,5.6350503
1679998098593,1178086947806069,8.7949505,-0.11100001,5.46495
1679998098595,1178086950308146,8.907001,-0.11100001,5.7000003
1679998098597,1178086952810376,8.821051,-0.043950003,5.6610003
1679998098605,1178086955312453,8.830951,-0.09900001,5.6280003
1679998098605,1178086957814607,8.8279505,-0.13905,5.6400003
1679998098606,1178086960316530,8.85495,-0.16305001,5.532
1679998098607,1178086962818684,8.857051,-0.09900001,5.604
1679998098611,1178086965320761,8.87895,-0.04605,5.499
1679998098612,1178086967823020,8.93595,-0.16800001,5.49405
1679998098615,1178086970325097,8.830951,-0.18495001,5.4630003
1679998098623,1178086972827250,8.895,-0.19005,5.49405
1679998098624,1178086975329174,8.811001,-0.079950005,5.4409504
1679998098624,1178086977831342,8.90505,-0.22305001,5.46705
1679998098625,1178086980333419,8.77305,-0.112950005,5.4820504
1679998098627,1178086982835573,8.838,-0.123,5.4910502
1679998098631,1178086985337727,8.823,-0.012,5.5420504
1679998098633,1178086987839881,8.910001,-0.01995,5.472
1679998098639,1178086990341804,8.835,-0.00795,5.472
1679998098640,1178086992843881,8.71605,-0.04605,5.5609503
1679998098641,1178086995346035,8.7300005,0.052050002,5.5129504
1679998098643,1178086997848189,8.713051,-0.003,5.5540504
1679998098645,1178087000350121,8.689051,-0.01995,5.57805
1679998098647,1178087002852275,8.610001,-0.034050003,5.4559503
1679998098653,1178087005354428,8.59605,-0.09195001,5.5470004
1679998098654,1178087007856505,8.67,-0.10395,5.4960003
1679998098655,1178087010358659,8.637,-0.14205001,5.62995
1679998098657,1178087012860592,8.59395,-0.064950004,5.5230002
1679998098660,1178087015362746,8.530951,-0.063,5.532
1679998098663,1178087017864900,8.625,-0.052950002,5.544
1679998098665,1178087020367054,8.61705,-0.087000005,5.53905
1679998098673,1178087022869155,8.613001,0.03795,5.4580503
1679998098674,1178087025371309,8.529,0.016050002,5.54895
1679998098675,1178087027873232,8.50695,0.025950002,5.4910502
1679998098676,1178087030375381,8.457001,-0.04605,5.5470004
1679998098678,1178087032877457,8.500051,-0.027,5.5080004
1679998098681,1178087035379688,8.44995,0.094950005,5.59905
1679998098683,1178087037881765,8.538,-0.039,5.62305
1679998098687,1178087040383919,8.517,0.052050002,5.55105
1679998098688,1178087042885871,8.44305,-0.11805001,5.6569505
1679998098690,1178087045388025,8.42805,-0.060000002,5.544
1679998098692,1178087047890102,8.45205,-0.04095,5.54895
1679998098695,1178087050392025,8.491051,-0.01695,5.35305
1679998098697,1178087052894405,8.467051,-0.09900001,5.4100504
1679998098703,1178087055396558,8.48805,-0.003,5.3959503
1679998098704,1178087057898482,8.54595,-0.09900001,5.3980503
1679998098705,1178087060400558,8.45505,-0.13005,5.4
1679998098707,1178087062902712,8.4210005,-0.003,5.3170505
1679998098710,1178087065404871,8.43795,0.033,5.37195
1679998098714,1178087067907025,8.3230505,0.01905,5.31405
1679998098715,1178087070408948,8.29695,-0.027,5.41695
1679998098722,1178087072911073,8.31795,0.016050002,5.4
1679998098723,1178087075413150,8.244,-0.0010500001,5.5150504
1679998098723,1178087077915304,8.23695,0.079050004,5.38605
1679998098725,1178087080417227,8.239051,0.009000001,5.40495
1679998098727,1178087082919381,8.194051,0.034950003,5.4220505
1679998098731,1178087085421549,8.28195,0.03795,5.3359504
1679998098732,1178087087923702,8.194051,-0.027,5.3689504
1679998098738,1178087090425779,8.208,-0.112950005,5.36205
1679998098739,1178087092927933,8.18595,-0.05595,5.2519503
1679998098740,1178087095429861,8.095051,-0.07005,5.247
1679998098743,1178087097932015,8.16705,0.109950006,5.295
1679998098745,1178087100434169,8.22,0.034950003,5.0599504
1679998098747,1178087102936323,8.154,0.061950002,5.235
1679998098754,1178087105438385,8.20995,0.16695,5.118
1679998098755,1178087107940539,8.158051,0.21300001,5.0220003
1679998098756,1178087110442462,8.16495,0.22905001,5.0560503
1679998098757,1178087112944616,8.148001,0.26295,4.9450502
1679998098761,1178087115446678,8.203051,0.29895002,4.9879503
1679998098762,1178087117948832,8.097,0.31305,5.02005
1679998098765,1178087120450986,8.019,0.34695002,4.9960504
1679998098770,1178087122952909,8.068951,0.42705002,4.8850503
1679998098771,1178087125455078,8.07405,0.44400004,4.90695
1679998098772,1178087127957155,8.068951,0.42705002,4.9240503
1679998098775,1178087130459309,8.07405,0.48495004,4.7850003
1679998098777,1178087132961232,8.142,0.32295,4.701
1679998098780,1178087135463607,8.067,0.38595003,4.7130003
1679998098783,1178087137965530,8.059051,0.43695003,4.53105
1679998098785,1178087140467683,7.9729505,0.33495003,4.6080003
1679998098789,1178087142969760,8.062051,0.37500003,4.72695
1679998098791,1178087145471895,7.9729505,0.38205,4.7779503
1679998098793,1178087147973818,7.9249506,0.37095,4.85895
1679998098795,1178087150476203,7.9560003,0.294,4.8690004
1679998098797,1178087152978126,8.04,0.37500003,5.1010504
1679998098800,1178087155480280,8.097,0.342,5.2930503
1679998098803,1178087157982366,8.142,0.46305,5.3190002
1679998098805,1178087160484520,8.29905,0.354,5.4580503
1679998098807,1178087162986443,8.27505,0.32805002,5.532
1679998098810,1178087165488597,8.376,0.28905,5.62095
1679998098813,1178087167990765,8.31795,0.42000002,5.7790504
1679998098815,1178087170492842,8.337001,0.34905002,5.6329503
1679998098817,1178087172994996,8.20605,0.36405003,5.58195
1679998098820,1178087175496919,8.208,0.23700002,5.499
1679998098823,1178087177999313,8.083051,0.23205002,5.36205
1679998098827,1178087180501236,8.03295,0.15495001,5.2380004
1679998098829,1178087183003390,7.9129505,0.094950005,5.20905
1679998098832,1178087185505453,7.8799505,0.07395,4.9879503
1679998098833,1178087188007376,7.77405,-0.07005,4.73505
1679998098835,1178087190509530,7.8130503,-0.120000005,4.52895
1679998098837,1178087193011684,7.66695,-0.060000002,4.38
1679998098841,1178087195513837,7.68795,-0.19500001,4.1839504
1679998098843,1178087198015996,7.6710005,-0.072000004,4.098
1679998098845,1178087200518073,7.65495,-0.052950002,3.9160502
1679998098847,1178087203020227,7.6830006,-0.16305001,3.9589503
1679998098853,1178087205522150,7.7149506,-0.064950004,3.9610503
1679998098853,1178087208024217,7.7430005,0.0019500001,4.1070004
1679998098855,1178087210526448,7.7460003,-0.05595,4.07805
1679998098857,1178087213028602,7.7820005,0.03795,4.25805
1679998098860,1178087215530679,7.767,0.14595,4.4160004
1679998098865,1178087218032617,8.026051,0.261,4.56195
1679998098866,1178087220534771,8.031,0.342,4.5930004
1679998098868,1178087223036848,8.30595,0.504,4.545
1679998098871,1178087225539001,9.396001,1.167,5.17995
1679998098873,1178087228041155,9.745951,1.2870001,5.0269504
1679998098875,1178087230543304,10.16895,1.2940501,4.79895
1679998098877,1178087233045227,10.51395,1.47105,4.8520503
1679998098881,1178087235547381,11.005051,1.608,4.8349504
1679998098883,1178087238049458,11.311951,1.5600001,4.96005
1679998098885,1178087240551612,11.439,1.4569501,4.842
1679998098887,1178087243053535,11.68095,1.5190501,4.842
1679998098891,1178087245555689,11.92695,1.3399501,4.63605
1679998098893,1178087248057843,12.00405,1.3660501,4.69605
1679998098895,1178087250559996,12.1380005,1.194,4.3560004
1679998098897,1178087253062078,12.12405,1.1910001,4.3060503
1679998098902,1178087255564232,12.198001,1.0999501,4.248
1679998098904,1178087258066155,12.226951,0.98505,4.1839504
1679998098906,1178087260568535,12.255,0.89400005,4.33005
1679998098908,1178087263070458,12.118951,0.77895004,4.296
1679998098911,1178087265572535,11.985001,0.65205,4.31505
1679998098913,1178087268074689,11.941951,0.564,4.45905
1679998098915,1178087270576843,11.712001,0.54195005,4.4760003
1679998098918,1178087273078766,11.523001,0.32805002,4.5090003
1679998098921,1178087275580843,11.326051,0.22905001,4.6579504
1679998098926,1178087278083073,11.11995,0.13605,4.5690002
1679998098927,1178087280585150,10.90005,0.052050002,4.63395
1679998098928,1178087283087304,10.749001,-0.08895,4.7250004
1679998098930,1178087285589256,10.573951,-0.21105,4.71105
1679998098932,1178087288091410,10.510051,-0.20400001,4.8970504
1679998098935,1178087290593487,10.47105,-0.22095,4.85895
1679998098939,1178087293095617,10.408951,-0.42195,4.8829503
1679998098941,1178087295597771,10.375051,-0.34305,4.9500003
1679998098944,1178087298099925,10.46205,-0.47505003,4.749
1679998098946,1178087300601848,10.366051,-0.49395,4.77495
1679998098948,1178087303104002,10.441951,-0.49095002,4.701
1679998098951,1178087305606074,10.49295,-0.49395,4.38705
1679998098953,1178087308108227,10.5070505,-0.50295,4.392
1679998098955,1178087310610381,10.49295,-0.46995002,4.37295
1679998098957,1178087313112535,10.44705,-0.46500003,4.1839504
1679998098960,1178087315614458,10.543051,-0.42900002,4.1140504
1679998098963,1178087318116612,10.543051,-0.28095,3.9970503
1679998098965,1178087320618689,10.48095,-0.20400001,4.026
1679998098968,1178087323120612,10.524,-0.13905,4.05
1679998098971,1178087325622771,10.464001,-0.112950005,3.9439502
1679998098972,1178087328124925,10.569,0.028050002,3.73305
1679998098977,1178087330627079,10.435051,0.09,3.657
1679998098979,1178087333129155,10.372951,0.23700002,3.6810002
1679998098981,1178087335631294,10.42605,0.22005,3.62295
1679998098984,1178087338133217,10.411051,0.38895002,3.6979501
1679998098986,1178087340635371,10.30605,0.45405003,3.6780002
1679998098987,1178087343137525,10.356001,0.46800002,3.5110502
1679998098990,1178087345639679,10.284,0.48705003,3.42
1679998098993,1178087348141756,10.18095,0.54495,3.5110502
1679998098995,1178087350643910,10.083,0.57105005,3.4699502
1679998098997,1178087353145833,10.122001,0.54495,3.417
1679998099000,1178087355647987,9.99495,0.67605,3.51795
1679998099003,1178087358150088,10.081051,0.61605,3.4480503
1679998099005,1178087360652318,10.057051,0.55905,3.5040002
1679998099009,1178087363154395,9.97095,0.58005005,3.4819503
1679998099011,1178087365656564,9.96105,0.58305,3.3450003
1679998099015,1178087368158487,9.942,0.597,3.3240001
1679998099037,1178087370660641,9.880051,0.492,3.3720002
1679998099037,1178087373162718,9.93,0.51000005,3.4650002
1679998099038,1178087375664872,9.93,0.43905002,3.4699502
1679998099038,1178087378167026,9.990001,0.58005005,3.4840503
1679998099038,1178087380668949,9.85095,0.44400004,3.4960501
1679998099039,1178087383171103,9.94005,0.45795003,3.417
1679998099039,1178087385673257,9.80805,0.432,3.51795
1679998099039,1178087388175333,9.769051,0.41505003,3.4720502
1679998099040,1178087390677257,9.748051,0.44595003,3.6499503
1679998099040,1178087393179641,9.84405,0.43695003,3.6040502
1679998099041,1178087395681564,9.868051,0.44400004,3.6739502
1679998099043,1178087398183641,9.84405,0.37305,3.82905
1679998099045,1178087400685795,9.87705,0.34005,3.7140002
1679998099047,1178087403187718,9.79605,0.32805002,3.82905
1679998099052,1178087405690103,9.8220005,0.30105,3.6709502
1679998099054,1178087408192050,9.97305,0.45600003,3.7909503
1679998099056,1178087410694204,9.90795,0.41295,3.8389502
1679998099057,1178087413196281,9.898951,0.37305,3.798
1679998099060,1178087415698434,9.934951,0.35895002,3.801
1679998099063,1178087418200338,9.98505,0.38895002,3.7380002
1679998099065,1178087420702722,9.99705,0.36405003,3.9180002
1679998099067,1178087423204645,9.96105,0.40305,3.8580003
1679998099070,1178087425706722,10.09305,0.36105,3.86805
1679998099072,1178087428208876,10.014001,0.354,3.8170502
1679998099076,1178087430711016,10.033051,0.30600002,3.7480502
1679998099078,1178087433212939,10.078051,0.39600003,3.762
1679998099080,1178087435715016,9.98295,0.42000002,3.62595
1679998099082,1178087438217247,10.038,0.39600003,3.6139503
1679998099085,1178087440719411,10.071,0.46305,3.6540003
1679998099089,1178087443221487,9.990001,0.43005002,3.59205
1679998099092,1178087445723411,10.13595,0.47295,3.6190503
1679998099093,1178087448225564,10.026,0.58500004,3.6070502
1679998099095,1178087450727718,10.014001,0.45795003,3.6979501
1679998099097,1178087453229857,10.05195,0.47505003,3.7549503
1679998099100,1178087455731934,10.033051,0.537,3.6469502
1679998099103,1178087458234088,10.114051,0.58305,3.6690001
1679998099105,1178087460736011,10.05405,0.48195,3.5730002
1679998099107,1178087463238160,10.047001,0.45600003,3.69
1679998099110,1178087465740237,10.078051,0.51795,3.65895
1679998099112,1178087468242391,10.00695,0.492,3.6109502
1679998099115,1178087470744544,9.9199505,0.50895,3.5010002
1679998099118,1178087473246473,9.9199505,0.47505003,3.4630501
1679998099120,1178087475748626,9.916051,0.384,3.4630501
1679998099123,1178087478250780,9.846001,0.46800002,3.42
1679998099127,1178087480752862,9.8220005,0.51795,3.38595
1679998099129,1178087483254785,9.82695,0.50895,3.39105
1679998099132,1178087485756939,9.754951,0.45105,3.38895
1679998099133,1178087488259324,9.637951,0.39600003,3.3409503
1679998099136,1178087490761247,9.71205,0.44595003,3.4360502
1679998099137,1178087493263319,9.754951,0.52305,3.3649502
1679998099140,1178087495765473,9.705001,0.44595003,3.3100502
1679998099144,1178087498267626,9.68295,0.46305,3.35295
1679998099145,1178087500769550,9.714001,0.46995002,3.42195
1679998099147,1178087503271703,9.64305,0.492,3.4819503
1679998099150,1178087505773866,9.68595,0.38205,3.5389502
1679998099153,1178087508275943,9.702001,0.40305,3.55905
1679998099155,1178087510778097,9.616051,0.43905002,3.6019502
1679998099157,1178087513280020,9.621,0.39795002,3.5730002
1679998099160,1178087515782174,9.669001,0.40995002,3.6739502
1679998099164,1178087518284328,9.702001,0.54705,3.5440502
1679998099166,1178087520786482,9.762,0.51795,3.7840502
1679998099169,1178087523288559,9.85095,0.46605003,3.6660001
1679998099171,1178087525790698,9.87195,0.537,3.6690001
1679998099174,1178087528292622,9.87195,0.48000002,3.801
1679998099176,1178087530794698,9.92805,0.51600003,3.8389502
1679998099178,1178087533296852,10.002001,0.51000005,3.726
1679998099180,1178087535799011,9.990001,0.40995002,3.8869503
1679998099183,1178087538301165,10.074,0.31605002,3.8749502
1679998099185,1178087540803088,10.047001,0.38595003,3.7570503
1679998099188,1178087543305242,10.05,0.33705002,3.7500002
1679998099191,1178087545807381,10.099951,0.32805002,3.7219503
1679998099193,1178087548309458,10.12905,0.261,3.6979501
1679998099195,1178087550811381,10.099951,0.29205,3.7219503
1679998099198,1178087553313765,10.05195,0.37305,3.657
1679998099205,1178087555815894,10.063951,0.28905,3.657
1679998099205,1178087558317817,10.057051,0.30105,3.762
1679998099207,1178087560819894,10.066051,0.25605002,3.6349502
1679998099208,1178087563322048,9.99195,0.28395,3.7500002
1679998099211,1178087565824202,10.02795,0.30600002,3.7050002
1679998099212,1178087568326130,9.963,0.30105,3.6210003
1679998099215,1178087570828284,9.954,0.28395,3.66405
1679998099218,1178087573330438,9.93,0.32805002,3.7360501
1679998099220,1178087575832515,9.910951,0.384,3.6469502
1679998099224,1178087578334664,9.943951,0.30600002,3.5970001
1679998099226,1178087580836587,9.910951,0.37500003,3.70005
1679998099228,1178087583338740,9.931951,0.37695003,3.4080002
1679998099231,1178087585840894,9.906,0.43695003,3.4990501
1679998099233,1178087588343048,9.89595,0.34395,3.52305
1679998099235,1178087590845144,9.87195,0.47505003,3.4770002
1679998099240,1178087593347298,9.80805,0.39795002,3.4819503
1679998099242,1178087595849221,9.813001,0.41505003,3.5110502
1679998099244,1178087598351375,9.805051,0.55395,3.7789502
1679998099245,1178087600853486,9.670951,0.55905,4.0680003
1679998099248,1178087603355717,9.493951,0.597,4.248
1679998099251,1178087605857794,9.439051,0.55695003,4.308
1679998099253,1178087608359717,9.460951,0.50100005,4.0150504
1679998099255,1178087610861870,9.53205,0.55905,3.7600503
1679998099259,1178087613364024,9.592051,0.56100005,3.3019502
1679998099261,1178087615866178,9.559051,0.56595004,2.9340003
1679998099264,1178087618368255,9.58005,0.633,2.73705
1679998099266,1178087620870178,9.621,0.65205,2.4090002
1679998099268,1178087623372342,9.678,0.73905003,2.5120502
1679998099271,1178087625874496,9.609,0.76005006,2.55795
1679998099273,1178087628376573,9.666,0.66405004,2.6440501
1679998099277,1178087630878741,9.65205,0.62595004,2.66805
1679998099279,1178087633380895,9.754951,0.61200005,2.505
1679998099282,1178087635883048,9.774,0.51000005,2.2800002
1679998099284,1178087638384971,9.975,0.39795002,2.29905
1679998099285,1178087640887048,9.805051,0.47295,2.24895
1679998099288,1178087643389212,9.913051,0.537,2.3130002
1679998099291,1178087645891135,10.087951,0.40305,2.301
1679998099293,1178087648393520,9.990001,0.39405003,2.364
1679998099295,1178087650895443,10.078051,0.354,2.505
1679998099298,1178087653397577,10.167001,0.36795002,2.53605
1679998099302,1178087655899654,10.3279505,0.29205,2.46405
1679998099304,1178087658401808,10.287001,0.24105,2.70795
1679998099306,1178087660903731,10.299001,0.201,2.6890502
1679998099308,1178087663406115,10.342051,0.18900001,2.73705
1679998099313,1178087665908058,10.441951,0.24405001,2.838
1679998099315,1178087668410135,10.311001,0.15495001,2.838
1679998099316,1178087670912289,10.378051,0.13395001,2.8879502
1679998099318,1178087673414443,10.368,0.16695,2.9839501
1679998099321,1178087675916366,10.299001,0.105000004,2.8549502
1679998099323,1178087678418443,10.27995,0.12900001,2.8590002
1679998099326,1178087680920674,10.342051,0.32505003,2.8900502
1679998099328,1178087683422828,10.32495,0.29895002,2.77305
1679998099331,1178087685924895,10.179001,0.15795001,2.7160501
1679998099332,1178087688426818,10.387051,0.28695002,2.70795
1679998099335,1178087690928972,10.372951,0.42000002,2.7919502
1679998099338,1178087693431125,10.210051,0.28005,2.874
1679998099340,1178087695933279,10.17405,0.31800002,2.8279502
1679998099343,1178087698435356,10.059,0.31605002,2.9479501
1679998099345,1178087700937510,10.083,0.252,2.874
1679998099348,1178087703439433,10.038,0.252,2.871
1679998099352,1178087705941587,10.026,0.23895001,2.9290502
1679998099354,1178087708443664,10.225051,0.50505,2.9569502
1679998099356,1178087710945818,10.02105,0.21495001,3.072
1679998099358,1178087713447972,9.817051,0.058950003,3.1350002
1679998099361,1178087715949885,10.00695,0.33705002,3.0889502
1679998099363,1178087718452039,10.087951,0.36105,3.2040002
1679998099365,1178087720954192,10.071,0.22005,3.2710502
1679998099368,1178087723456269,10.075951,0.27705002,3.4459503
1679998099371,1178087725958202,10.210051,0.201,3.2929502
1679998099373,1178087728460356,10.078051,0.22905001,3.3070502
1679998099375,1178087730962741,10.069051,0.33705002,3.42
1679998099378,1178087733464664,10.428,0.537,3.25395
1679998099382,1178087735966750,10.17405,0.32295,3.51795
1679998099385,1178087738468904,10.399051,0.537,3.3409503
1679998099386,1178087740970827,10.12905,0.34005,3.4680002
1679998099389,1178087743472981,10.213051,0.46095002,3.3120003
1679998099392,1178087745975131,10.390051,0.48195,3.2350502
1679998099394,1178087748477284,10.255951,0.56805,3.3120003
1679998099396,1178087750979361,10.30395,0.64305,3.3019502
1679998099398,1178087753481515,10.143001,0.45600003,3.3690002
1679998099401,1178087755983438,10.074,0.37695003,3.0870001
1679998099403,1178087758485587,9.97095,0.492,3.20895
1679998099405,1178087760987664,10.12395,0.64305,3.1279502
1679998099408,1178087763489895,10.090051,0.55200005,3.2350502
1679998099411,1178087765991972,9.975,0.46800002,3.147
1679998099413,1178087768494130,9.901051,0.537,3.21105
1679998099416,1178087770996053,9.966001,0.48900002,3.0870001
1679998099418,1178087773498130,10.126051,0.669,3.288
1679998099421,1178087776000283,9.86295,0.68595004,3.1969502
1679998099424,1178087778502442,9.937051,0.68595004,3.25005
1679998099427,1178087781004596,9.99495,0.75795,3.14895
1679998099431,1178087783506519,9.99495,0.72705,2.9929502
1679998099432,1178087786008673,9.849001,0.624,3.0199502
1679998099434,1178087788510755,9.868051,0.58995,3.0700502
1679998099436,1178087791012909,9.73095,0.66195005,3.1230001
1679998099438,1178087793514832,9.87495,0.73905003,3.0889502
1679998099440,1178087796017217,9.75,0.84405005,3.0010502
1679998099443,1178087798519140,9.745951,0.74805003,3.0030003
1679998099445,1178087801021294,9.646951,0.63105005,2.9860501
1679998099448,1178087803523370,9.616051,0.669,3.0319502
1679998099451,1178087806025524,9.58695,0.717,2.91195
1679998099453,1178087808527447,9.741,0.88905007,3.039
1679998099455,1178087811029567,9.628051,0.80100006,2.7610502
1679998099458,1178087813531721,9.71205,0.97800004,2.7949502
1679998099461,1178087816033875,9.595051,0.93495005,2.8930502
1679998099466,1178087818535952,9.528001,0.80595005,2.838
1679998099467,1178087821037894,9.825001,1.0710001,2.7919502
1679998099469,1178087823540048,9.68595,1.0210501,2.73195
1679998099472,1178087826042125,9.646951,0.96405005,2.67705
1679998099473,1178087828544356,9.607051,1.23705,2.8159502
1679998099476,1178087831046399,9.4459505,0.80295,2.9260502
1679998099478,1178087833548553,9.729,1.1220001,2.9980502
1679998099481,1178087836050476,9.69495,1.19595,2.8639503
1679998099483,1178087838552630,9.601951,1.0380001,2.84295
1679998099486,1178087841054784,9.640051,1.0030501,2.7559502
1679998099488,1178087843556866,9.801001,1.0500001,2.6509502
1679998099491,1178087846059020,9.70995,1.0189501,2.9860501
1679998099493,1178087848560943,9.93,1.0690501,3.0030003
1679998099495,1178087851063020,9.868051,1.0570501,3.0889502
1679998099498,1178087853565183,9.79605,0.88695,3.14895
1679998099502,1178087856067414,9.82905,0.89895004,3.0700502
1679998099505,1178087858569490,9.793051,0.89895004,3.0600002
1679998099509,1178087861071414,9.93,1.0309501,2.93595
1679998099511,1178087863573596,10.01895,0.91605,3.0270002
1679998099513,1178087866075750,10.111951,0.85095006,3.0529501
1679998099515,1178087868577827,10.110001,1.074,2.8519502
1679998099517,1178087871079750,9.97305,0.762,2.8189502
1679998099519,1178087873582135,10.078051,0.86100006,2.8140001
1679998099521,1178087876084049,10.09305,0.73395,2.7829502
1679998099523,1178087878586203,10.078051,0.882,2.84505
1679998099527,1178087881088280,10.284,0.84900004,2.70405
1679998099529,1178087883590434,10.252951,0.97605,2.67
1679998099531,1178087886092381,10.13595,0.85395,2.7130501
1679998099534,1178087888594458,10.33695,0.97095007,2.5099502
1679998099536,1178087891096688,10.1650505,0.96105003,2.66505
1679998099540,1178087893598837,10.3279505,1.04805,2.562
1679998099543,1178087896100914,10.1959505,0.90900004,2.706
1679998099544,1178087898602837,10.356001,1.07595,2.661
1679998099546,1178087901104991,10.201051,0.94005007,2.4160502
1679998099549,1178087903607145,10.395,0.90900004,2.4109502
1679998099551,1178087906109284,10.504951,1.0669501,2.4139502
1679998099553,1178087908611361,10.1959505,0.92505,2.29605
1679998099556,1178087911113515,10.441951,1.0210501,2.42805
1679998099558,1178087913615438,10.366051,1.1149501,2.3490002
1679998099561,1178087916117597,10.1650505,0.89895004,2.33205
1679998099563,1178087918619673,10.332001,0.96105003,2.421
1679998099565,1178087921121827,10.408951,1.19805,2.39205
1679998099568,1178087923623981,10.429951,1.03995,2.3730001
1679998099571,1178087926126135,10.32495,1.095,2.5500002
1679998099573,1178087928628058,10.071,0.74100006,2.4109502
1679998099577,1178087931130212,10.359,1.1190001,2.49495
1679998099579,1178087933632289,10.33905,1.19595,2.5860002
1679998099582,1178087936134208,10.17405,0.99495006,2.5890002
1679998099584,1178087938636593,10.18095,1.0020001,2.38995
1679998099585,1178087941138516,10.320001,1.3300501,2.5170002
1679998099588,1178087943640669,10.43805,1.2610501,2.22705
1679998099591,1178087946142746,10.26795,0.966,2.3160002
1679998099593,1178087948644895,10.276951,1.026,2.32305
1679998099596,1178087951146818,10.429951,1.0669501,2.3370001
1679998099598,1178087953648972,10.320001,1.1359501,2.352
1679998099601,1178087956151126,10.40205,1.1220001,2.3160002
1679998099603,1178087958653280,10.234051,1.02405,2.56695
1679998099605,1178087961155352,10.272,0.89205,2.4450002
1679998099608,1178087963657506,10.332001,0.84195006,2.4090002
1679998099611,1178087966159429,10.396951,0.906,2.3419502
1679998099614,1178087968661568,10.512,0.85395,2.35605
1679998099616,1178087971163645,10.102051,0.657,2.526
1679998099618,1178087973665875,10.31295,0.81000006,2.42805
1679998099622,1178087976167952,10.555051,0.94695,2.292
1679998099624,1178087978670106,10.378051,0.79095006,2.4019501
1679998099626,1178087981172039,10.452001,0.97605,2.3830502
1679998099628,1178087983674193,10.524,0.67905,2.39505
1679998099633,1178087986176270,10.629001,0.906,2.46405
1679998099635,1178087988678424,10.57695,1.1050501,2.25105
1679998099637,1178087991180573,10.6699505,1.0000501,2.3490002
1679998099640,1178087993682496,10.644,1.014,2.0640001
1679998099664,1178087996184650,10.641001,1.02795,2.1100502
1679998099664,1178087998686727,10.569,0.68295,2.2729502
1679998099665,1178088001188904,10.56,1.0570501,2.22705
1679998099665,1178088003690827,10.555051,0.80595005,2.046
1679998099665,1178088006193212,10.689,0.88005006,2.028
1679998099665,1178088008695135,10.51395,0.69795,2.12205
1679998099666,1178088011197255,10.61295,0.49395,2.1379502
1679998099666,1178088013699332,10.4740505,0.43905002,2.0640001
1679998099666,1178088016201255,10.564951,0.76500005,2.01
1679998099667,1178088018703409,10.59105,0.624,1.9159501
1679998099667,1178088021205563,10.608001,0.47295,1.8270001
1679998099668,1178088023707713,10.552951,0.537,1.7260501
1679998099671,1178088026209790,10.785001,0.88905007,1.64295
1679998099673,1178088028711943,10.72305,0.69795,1.4440501
1679998099676,1178088031214097,10.71105,0.44895002,1.5439501
1679998099678,1178088033715991,10.585951,0.36600003,1.674
1679998099681,1178088036218068,10.632001,0.42495003,1.674
1679998099685,1178088038720299,10.57695,0.28695002,1.8199501
1679998099686,1178088041222376,10.540951,0.41805002,1.83405
1679998099690,1178088043724515,10.504951,0.48900002,2.0070002
1679998099693,1178088046226438,10.44495,0.48900002,1.9900501
1679998099695,1178088048728592,10.452001,0.50100005,1.983
1679998099696,1178088051230669,10.311001,0.492,1.9440001
1679998099698,1178088053732592,10.408951,0.50505,2.028
1679998099702,1178088056234967,10.284,0.51795,2.09295
1679998099704,1178088058736890,10.252951,0.46995002,2.079
1679998099706,1178088061239044,10.29195,0.47295,2.1000001
1679998099708,1178088063741121,10.275001,0.54495,2.08995
1679998099711,1178088066243304,10.18395,0.46800002,2.1460502
1679998099713,1178088068745458,10.1650505,0.39600003,2.1019502
1679998099717,1178088071247612,10.189051,0.50895,2.1649501
1679998099721,1178088073749535,10.119,0.48495004,2.232
1679998099723,1178088076251603,10.144951,0.50505,2.1360002
1679998099725,1178088078753757,10.083,0.53295004,2.0640001
1679998099728,1178088081255680,10.09305,0.48195,2.0329502
1679998099732,1178088083756843,10.203,0.48195,2.2080002
1679998099732,1178088086258036,10.227,0.492,1.9950001
1679998099734,1178088088762112,10.191001,0.47700003,1.899
1679998099735,1178088091264189,10.203,0.45600003,1.9849501
1679998099738,1178088093766112,10.29195,0.47505003,1.8559501
1679998099743,1178088096268266,10.308001,0.42195,1.9369501
1679998099744,1178088098770665,10.31595,0.53505003,1.7359501
1679998099745,1178088101272588,10.356001,0.34395,1.7550001
1679998099748,1178088103774665,10.368,0.48495004,1.7190001
1679998099751,1178088106276819,10.399051,0.40305,1.5850501
1679998099753,1178088108778973,10.429951,0.44400004,1.50405
1679998099756,1178088111280896,10.399051,0.49695003,1.5109501
1679998099758,1178088113782973,10.476001,0.43905002,1.5469501
1679998099761,1178088116285203,10.378051,0.50895,1.47
1679998099765,1178088118787266,10.396951,0.33495003,1.44105
1679998099766,1178088121289420,10.371,0.40305,1.4680501
1679998099768,1178088123791343,10.50195,0.43695003,1.65495
1679998099771,1178088126293497,10.399051,0.37695003,1.7820001
1679998099773,1178088128795574,10.522051,0.50100005,1.7479501
1679998099775,1178088131297728,10.486051,0.55695003,1.76505
1679998099778,1178088133799882,10.41405,0.46605003,1.899
1679998099781,1178088136301805,10.464001,0.40095,1.8409501
1679998099783,1178088138803959,10.617001,0.46095002,1.8870001
1679998099785,1178088141306112,10.569,0.35205,1.75995
1679998099788,1178088143808189,10.581,0.432,1.695
1679998099791,1178088146310112,10.6050005,0.38895002,1.5679501
1679998099793,1178088148812497,10.533001,0.42195,1.554
1679998099796,1178088151314651,10.548,0.36105,1.41495
1679998099798,1178088153816583,10.581,0.36405003,1.31895
1679998099803,1178088156318660,10.555051,0.40305,1.3770001
1679998099804,1178088158820814,10.61295,0.41505003,1.3069501
1679998099806,1178088161322742,10.564951,0.43905002,1.17795
1679998099808,1178088163824896,10.44705,0.41805002,1.1850001
1679998099811,1178088166327050,10.411051,0.44205,1.077
1679998099813,1178088168829203,10.465951,0.40305,1.1370001
1679998099816,1178088171331280,10.33695,0.33705002,1.176
1679998099819,1178088173833203,10.276951,0.37695003,1.05795
1679998099822,1178088176335357,10.36305,0.432,1.06095
1679998099824,1178088178837511,10.246051,0.40800002,0.97395
1679998099826,1178088181339665,10.240951,0.48195,0.984
1679998099829,1178088183841761,10.264951,0.48195,1.00995
1679998099831,1178088186343915,10.107,0.31800002,0.9979501
1679998099833,1178088188845838,10.144951,0.42195,1.09395
1679998099836,1178088191347915,10.042951,0.48495004,1.2070501
1679998099840,1178088193850074,10.110001,0.39600003,1.1539501
1679998099842,1178088196352227,10.047001,0.49695003,1.164
1679998099844,1178088198854381,10.02105,0.38895002,1.16805
1679998099846,1178088201356304,10.035001,0.38895002,1.11105
1679998099848,1178088203858458,10.035001,0.41505003,1.2400501
1679998099851,1178088206360598,10.05,0.50100005,1.269
1679998099853,1178088208862675,10.10505,0.45405003,1.2760501
1679998099855,1178088211364598,10.1650505,0.294,1.2930001
1679998099858,1178088213866752,10.252951,0.45600003,1.33605
1679998099862,1178088216369170,10.31295,0.354,1.3960501
1679998099864,1178088218871093,10.31295,0.32805002,1.4800501
1679998099865,1178088221373170,10.47105,0.36600003,1.31505
1679998099868,1178088223875323,10.429951,0.30405003,1.4130001
1679998099872,1178088226377247,10.60995,0.39405003,1.4490001
1679998099873,1178088228879410,10.677,0.28905,1.3789501
1679998099877,1178088231381564,10.72305,0.39405003,1.3600501
1679998099880,1178088233883718,10.878,0.40605003,1.3480501
1679998099882,1178088236385765,10.80195,0.29895002,1.3410001
1679998099885,1178088238887688,10.807051,0.31800002,1.38405
1679998099887,1178088241389842,10.76805,0.28395,1.24995
1679998099889,1178088243891919,10.809001,0.38595003,1.26405
1679998099892,1178088246394073,10.75605,0.28005,1.40295
1679998099894,1178088248896242,10.665001,0.34695002,1.3960501
1679998099896,1178088251398395,10.63605,0.38595003,1.28805
1679998099898,1178088253900319,10.540951,0.39600003,1.2070501
1679998099902,1178088256402395,10.50195,0.30795002,1.36995
1679998099904,1178088258904563,10.335,0.41505003,1.422
1679998099906,1178088261406717,10.366051,0.43905002,1.4320501
1679998099910,1178088263908640,10.46205,0.38895002,1.4770501
1679998099911,1178088266410794,10.4740505,0.40305,1.506
1679998099916,1178088268912905,10.47795,0.384,1.60905
1679998099917,1178088271414982,10.4740505,0.35205,1.64295
1679998099919,1178088273917136,10.528951,0.28695002,1.60905
1679998099922,1178088276419059,10.50195,0.33495003,1.4629501
1679998099924,1178088278921213,10.557,0.37905002,1.3600501
1679998099926,1178088281423367,10.57695,0.40995002,1.3770001
1679998099928,1178088283925443,10.498051,0.42000002,1.269
1679998099931,1178088286427597,10.59105,0.37095,1.2400501
1679998099933,1178088288929520,10.51395,0.36600003,1.2240001
1679998099936,1178088291431905,10.49295,0.34905002,1.10895
1679998099938,1178088293933842,10.4740505,0.42000002,1.07505
1679998099942,1178088296435919,10.372951,0.342,1.0200001
1679998099944,1178088298938073,10.347,0.39105,0.90000004
1679998099946,1178088301440227,10.258051,0.39795002,0.95295006
1679998099948,1178088303942126,10.222051,0.44400004,0.78795004
1679998099953,1178088306444203,10.134001,0.38205,0.89805007
1679998099954,1178088308946434,10.03995,0.43695003,0.804
1679998099956,1178088311448505,10.05405,0.42195,0.92700005
1679998099959,1178088313950659,10.014001,0.45795003,0.85695004
1679998099961,1178088316452582,9.98295,0.40605003,0.86895007
1679998099964,1178088318954736,10.01895,0.39600003,0.90495
1679998099966,1178088321456813,10.030951,0.32805002,0.95295006
1679998099968,1178088323958736,10.081051,0.40800002,1.0200001
1679998099971,1178088326461121,10.15995,0.37695003,1.07505
1679998099973,1178088328963275,10.15995,0.40995002,1.125
1679998099976,1178088331465198,10.222051,0.33495003,1.13505
1679998099978,1178088333967270,10.231951,0.37695003,1.08
1679998099982,1178088336469424,10.342051,0.38895002,1.0320001
1679998099984,1178088338971577,10.32495,0.34695002,1.14705
1679998099986,1178088341473731,10.404,0.30105,1.2790501
1679998099990,1178088343975630,10.371,0.39405003,1.25205
1679998099993,1178088346477784,10.465951,0.384,1.2430501
1679998099994,1178088348979861,10.486051,0.33,1.2349501
1679998099997,1178088351482015,10.486051,0.27,1.3770001
1679998099998,1178088353983938,10.608001,0.42195,1.4269501
1679998100001,1178088356486092,10.60095,0.342,1.51995
1679998100004,1178088358988246,10.750951,0.21705002,1.4130001
1679998100006,1178088361490400,10.773001,0.24105,1.4290501
1679998100009,1178088363992477,10.807051,0.273,1.3480501
1679998100011,1178088366494616,10.89,0.201,1.3099501
1679998100013,1178088368996540,10.821,0.30795002,1.0510501
1679998100016,1178088371498693,10.795051,0.261,1.0819501
1679998100019,1178088374000770,10.78695,0.21495001,1.0009501
1679998100022,1178088376502938,10.725,0.21705002,1.0030501
1679998100024,1178088379005092,10.729951,0.20295002,0.86205006
1679998100028,1178088381507015,10.564951,0.32295,0.924
1679998100031,1178088384009169,10.61505,0.273,0.87105006
1679998100033,1178088386511236,10.392,0.246,0.87900007
1679998100034,1178088389013390,10.371,0.29895002,0.71295005
1679998100036,1178088391515544,10.372951,0.28905,0.67305005
1679998100038,1178088394017467,10.264951,0.34905002,0.79200006
1679998100041,1178088396519620,10.248,0.32505003,0.62505
1679998100044,1178088399021764,10.246051,0.32805002,0.58905005
1679998100046,1178088401523841,10.16895,0.33195,0.66495
1679998100049,1178088404025764,10.31595,0.27495003,0.85005003
1679998100051,1178088406527918,10.207951,0.34395,0.80205005
1679998100053,1178088409030077,10.252951,0.36405003,0.71295005
1679998100056,1178088411532231,10.33905,0.29595003,0.72300005
1679998100059,1178088414034308,10.311001,0.22005,0.744
1679998100063,1178088416536462,10.36305,0.294,0.62505
1679998100066,1178088419038380,10.366051,0.22200002,0.62700003
1679998100068,1178088421540457,10.366051,0.31995,0.76395005
1679998100071,1178088424042687,10.366051,0.20805001,0.69900006
1679998100073,1178088426544841,10.429951,0.19800001,0.75600004
1679998100075,1178088429046918,10.49505,0.31800002,0.87105006
1679998100076,1178088431548846,10.536,0.28905,0.88305
1679998100078,1178088434051000,10.464001,0.26505002,0.88095003
1679998100081,1178088436553077,10.555051,0.16995001,0.89505005
1679998100084,1178088439055231,10.617001,0.18195,0.86700004
1679998100086,1178088441557385,10.641001,0.177,0.91695005
1679998100088,1178088444059582,10.629001,0.24900001,0.97695005
1679998100092,1178088446561505,10.663051,0.30105,0.93795
1679998100093,1178088449063582,10.585951,0.165,0.90000004
1679998100096,1178088451565736,10.713,0.21300001,0.82605004
1679998100099,1178088454067889,10.63605,0.23400001,0.89805007
1679998100104,1178088456569812,10.644,0.13095,0.83100003
1679998100106,1178088459071966,10.6390505,0.21000001,0.87405
1679998100108,1178088461574125,10.63395,0.246,0.84705
1679998100111,1178088464076202,10.608001,0.069000006,0.89295006
1679998100112,1178088466578356,10.57695,0.19305001,0.84300005
1679998100114,1178088469080279,10.561951,0.20505,0.85695004
1679998100116,1178088471582433,10.44495,0.30795002,0.80895007
1679998100119,1178088474084587,10.378051,0.28395,0.71295005
1679998100121,1178088476586741,10.441951,0.31800002,0.74205005
1679998100124,1178088479088818,10.29405,0.30600002,0.771
1679998100126,1178088481590971,10.2289505,0.29895002,0.74205005
1679998100129,1178088484092894,10.156951,0.32805002,0.74205005
1679998100131,1178088486594995,10.27995,0.294,0.81405
1679998100133,1178088489097149,10.246051,0.35595003,0.88605005
1679998100136,1178088491599303,10.15305,0.252,0.86700004
1679998100140,1178088494101476,10.368,0.24900001,0.89805007
1679998100144,1178088496603399,10.33695,0.22905001,0.924
1679998100145,1178088499105553,10.344001,0.32805002,0.85695004
1679998100147,1178088501607707,10.387051,0.21000001,0.93105006
1679998100149,1178088504109784,10.452001,0.25605002,0.87405
1679998100152,1178088506611929,10.48305,0.24405001,0.90000004
1679998100154,1178088509114082,10.64805,0.18900001,0.72795004
1679998100156,1178088511616005,10.63605,0.22005,0.71805006
1679998100162,1178088514118096,10.61295,0.177,0.735
1679998100164,1178088516620250,10.665001,0.21495001,0.83100003
1679998100165,1178088519122404,10.675051,0.201,0.77805007
1679998100168,1178088521624558,10.76595,0.141,0.92205006
1679998100170,1178088524126481,10.74705,0.18900001,0.771
1679998100172,1178088526628616,10.750951,0.21000001,0.82395005
1679998100174,1178088529130693,10.783051,0.13605,0.89100003
1679998100178,1178088531632616,10.80405,0.11895001,0.77295005
1679998100180,1178088534135001,10.749001,0.109950006,0.67995006
1679998100183,1178088536637149,10.807051,0.141,0.67005
1679998100185,1178088539139072,10.774951,0.19800001,0.71595
1679998100187,1178088541641149,10.81095,0.15795001,0.58605003
1679998100189,1178088544143303,10.726951,0.10695001,0.41595003
1679998100191,1178088546645226,10.77795,0.08295,0.40905002
1679998100193,1178088549147313,10.656,0.10695001,0.282
1679998100196,1178088551649544,10.687051,0.126,0.29205
1679998100200,1178088554151698,10.56,0.177,0.18900001
1679998100202,1178088556653775,10.49505,0.093,0.33705002
1679998100204,1178088559155683,10.45695,0.16995001,0.42600003
1679998100206,1178088561657837,10.320001,0.117000006,0.38505003
1679998100209,1178088564159991,10.33005,0.18195,0.35700002
1679998100211,1178088566662068,10.272,0.126,0.47595003
1679998100215,1178088569164221,10.28205,0.13395001,0.54300004
1679998100217,1178088571666375,10.251,0.33,0.531
1679998100219,1178088574168298,10.27005,0.13395001,0.48105
1679998100223,1178088576670452,10.27995,0.28395,0.51495004
1679998100225,1178088579172529,10.234051,0.18405001,0.333
1679998100227,1178088581674708,10.252951,0.141,0.38805002
1679998100229,1178088584176862,10.33695,0.16995001,0.31095
1679998100232,1178088586678785,10.344001,0.15795001,0.40905002
1679998100234,1178088589180939,10.2960005,0.09,0.29895002
1679998100236,1178088591683079,10.332001,0.07395,0.38805002
1679998100239,1178088594185156,10.46205,0.16695,0.37305
1679998100241,1178088596687079,10.49505,0.17895001,0.42795002
1679998100244,1178088599189232,10.567051,0.22695,0.25605002
1679998100246,1178088601691386,10.531051,0.040050004,0.39195
1679998100249,1178088604193554,10.504951,0.186,0.32505003
1679998100253,1178088606695631,10.569,0.17400001,0.13095
1679998100255,1178088609197785,10.620001,0.11895001,0.33
1679998100257,1178088611699684,10.644,0.12195001,0.26505002
1679998100260,1178088614201838,10.681951,0.016050002,0.27495003
1679998100262,1178088616703915,10.761001,0.043050002,0.29205
1679998100264,1178088619206146,10.78005,0.12900001,0.31305
1679998100273,1178088621708222,10.91205,0.177,0.37305
1679998100273,1178088624210367,10.91895,0.031050002,0.34695002
1679998100273,1178088626712290,11.034,0.045,0.34905002
1679998100273,1178088629214367,10.996051,-0.01695,0.24195
1679998100276,1178088631716521,11.082001,0.097950004,0.17205001
1679998100278,1178088634218665,11.035951,0.08295,0.10005
1679998100281,1178088636720819,10.965,0.0019500001,0.16005
1679998100284,1178088639222742,10.926001,0.034950003,0.16005
1679998100286,1178088641724896,10.846951,0.081,0.63900006
1679998100290,1178088644226973,10.926001,0.16995001,0.84300005
1679998100293,1178088646729127,10.993051,0.057000004,1.044
1679998100295,1178088649231050,10.93605,0.15495001,0.855
1679998100297,1178088651733434,10.986,0.045,0.63405
1679998100299,1178088654235357,10.929001,0.13605,0.34005
1679998100305,1178088656737444,10.861951,0.022950001,0.19800001
1679998100305,1178088659239598,10.77105,0.10695001,0.124050006
1679998100306,1178088661741752,10.644,0.105000004,0.246
1679998100311,1178088664243675,10.564951,0.18195,0.23205002
1679998100311,1178088666745800,10.48995,0.124050006,0.13395001
1679998100314,1178088669247954,10.46895,0.16695,0.105000004
1679998100316,1178088671750031,10.423051,0.126,0.112050004
1679998100320,1178088674251954,10.284,0.11400001,0.097950004
1679998100322,1178088676754112,10.2960005,0.20295002,0.09105001
1679998100326,1178088679256266,10.288951,0.13095,0.14805001
1679998100329,1178088681758342,10.26795,0.14805001,0.055050004
1679998100331,1178088684260482,10.227,0.15300001,0.22995001
1679998100333,1178088686857713,10.248,0.094950005,0.17895001
1679998100335,1178088689264790,10.33695,0.17205001,0.13605
1679998100337,1178088691766713,10.33005,0.21000001,0.19800001
1679998100339,1178088694268790,10.435051,0.19305001,0.186
1679998100343,1178088696770949,10.464001,0.15300001,0.25005
1679998100345,1178088699272872,10.50195,0.07395,0.17400001
1679998100346,1178088701775026,10.64805,0.13395001,0.21300001
1679998100351,1178088704277180,10.62405,0.093,0.25800002
1679998100352,1178088706779334,10.720051,0.18405001,0.30405003
1679998100354,1178088709281424,10.74705,0.105000004,0.282
1679998100359,1178088711783348,10.72305,0.16695,0.39495003
1679998100360,1178088714285501,10.816051,0.15,0.26295
1679998100361,1178088716787655,10.861951,0.16005,0.14805001
1679998100365,1178088719289824,10.953,0.17400001,0.124050006
1679998100367,1178088721791901,10.842001,0.043050002,0.112050004
1679998100369,1178088724293824,10.960051,0.094950005,0.141
1679998100372,1178088726795978,10.91205,0.17895001,0.21000001
1679998100374,1178088729298132,10.842001,0.093,0.18900001
1679998100376,1178088731800295,10.74705,0.109950006,0.07095
1679998100379,1178088734302372,10.825951,0.19305001,0.18405001
1679998100383,1178088736804525,10.63395,0.109950006,-0.031050002
1679998100384,1178088739306449,10.641001,0.162,-0.028950002
1679998100386,1178088741808520,10.47795,0.16005,-0.087000005
1679998100391,1178088744310751,10.44495,0.13605,-0.10305001
1679998100392,1178088746812905,10.33695,0.10695001,-0.25005
1679998100394,1178088749314982,10.30605,0.19605,-0.18900001
1679998100396,1178088751816896,10.27005,0.14805001,-0.22395001
1679998100401,1178088754319050,10.239,0.13800001,-0.37500003
1679998100406,1178088756821127,10.119,0.33705002,-0.30795002
1679998100407,1178088759323295,10.1959505,0.22905001,-0.37500003
1679998100408,1178088761825449,10.1310005,0.24405001,-0.45195
1679998100411,1178088764327602,10.14105,0.18405001,-0.37800002
1679998100412,1178088766829526,10.126051,0.20505,-0.31995
1679998100414,1178088769331602,10.1959505,0.28005,-0.11805001
1679998100416,1178088771833756,10.17405,0.22695,-0.20295002
1679998100420,1178088774335660,10.1650505,0.19305001,-0.039
1679998100423,1178088776838045,10.219951,0.15795001,0.14595
1679998100425,1178088779339968,10.246051,0.282,0.13905
1679998100427,1178088781842122,10.323001,0.177,0.07095
1679998100429,1178088784344218,10.371,0.246,0.20805001
1679998100432,1178088786846372,10.45005,0.23895001,0.28695002
1679998100434,1178088789348295,10.486051,0.20505,0.29895002
1679998100436,1178088791850449,10.533001,0.19095,0.33705002
1679998100441,1178088794352627,10.510051,0.076050006,0.25800002
1679998100443,1178088796854780,10.543051,0.26805001,0.30105
1679998100445,1178088799356857,10.45005,0.17895001,0.37605003
1679998100447,1178088801859011,10.420951,0.162,0.26505002
1679998100450,1178088804360934,10.528951,0.29895002,0.21495001
1679998100452,1178088806863078,10.62195,0.15,0.37605003
1679998100454,1178088809365155,10.561951,0.16005,0.20295002
1679998100456,1178088811867309,10.540951,0.19095,0.36405003
1679998100460,1178088814369463,10.540951,0.14595,0.15105
1679998100462,1178088816871401,10.5379505,0.201,0.15300001
1679998100464,1178088819373555,10.57905,0.15495001,0.07095
1679998100466,1178088821875632,10.49505,0.16005,0.14595
1679998100470,1178088824377785,10.581,0.21000001,0.117000006
1679998100472,1178088826879939,10.5070505,0.15795001,0.14595
1679998100474,1178088829382078,10.48995,0.141,0.055050004
1679998100478,1178088831884001,10.52595,0.273,0.12705001
1679998100480,1178088834386155,10.585951,0.21300001,0.141
1679998100482,1178088836888232,10.498051,0.23895001,-0.072000004
1679998100485,1178088839390160,10.665001,0.22500001,0.028050002
1679998100487,1178088841892314,10.548,0.12900001,-0.028950002
1679998100489,1178088844394699,10.63605,0.13095,-0.10605001
1679998100492,1178088846896622,10.629001,0.17895001,-0.10605001
1679998100494,1178088849398699,10.64805,0.25005,-0.18900001
1679998100496,1178088851900847,10.519051,0.21000001,-0.14805001
1679998100499,1178088854402771,10.500001,0.16695,-0.165
1679998100502,1178088856904924,10.429951,0.246,-0.162
1679998100504,1178088859407001,10.46205,0.19305001,-0.10605001
1679998100506,1178088861909252,10.416,0.246,-0.087000005
1679998100510,1178088864411329,10.387051,0.18195,-0.010050001
1679998100512,1178088866913252,10.41405,0.252,0.060000002
1679998100515,1178088869415406,10.371,0.23205002,-0.01995
1679998100517,1178088871917579,10.453951,0.186,-0.108
1679998100521,1178088874419656,10.45905,0.32805002,-0.043050002
1679998100524,1178088876921810,10.4740505,0.20805001,-0.012
1679998100525,1178088879423963,10.429951,0.16005,-0.072000004
1679998100527,1178088881925886,10.564951,0.23205002,-0.04605
1679998100530,1178088884427934,10.486051,0.14295001,-0.0049500004
1679998100532,1178088886930088,10.48305,0.16005,0.069000006
1679998100534,1178088889432242,10.395,0.15795001,0.076050006
1679998100537,1178088891934165,10.498051,0.22905001,0.025950002
1679998100540,1178088894436319,10.585951,0.16995001,0.033
1679998100543,1178088896938444,10.548,0.23700002,0.105000004
1679998100544,1178088899440598,10.549951,0.16995001,0.10305001
1679998100546,1178088901942675,10.561951,0.16695,0.12195001
1679998100550,1178088904444598,10.561951,0.21000001,0.117000006
1679998100554,1178088906946747,10.569,0.26505002,0.055050004
1679998100555,1178088909448900,10.581,0.18900001,-0.075
1679998100557,1178088911951054,10.561951,0.22005,0.105000004
1679998100560,1178088914453131,10.557,0.162,0.045
1679998100562,1178088916955300,10.59105,0.25800002,-0.01695
1679998100564,1178088919457223,10.531051,0.14595,0.09105001
1679998100566,1178088921959300,10.57695,0.16695,0.060000002
1679998100570,1178088924461454,10.56,0.17205001,-0.02205
1679998100572,1178088926963608,10.629001,0.17400001,-0.027
1679998100574,1178088929465762,10.64595,0.14595,-0.15300001
1679998100576,1178088931967685,10.651051,0.12195001,-0.15
1679998100580,1178088934469839,10.66005,0.20295002,-0.20505
1679998100583,1178088936971982,10.6050005,0.12900001,-0.34695002
1679998100584,1178088939474059,10.701,0.21705002,-0.27705002
1679998100586,1178088941976213,10.665001,0.201,-0.27705002
1679998100591,1178088944478367,10.641001,0.079050004,-0.25800002
1679998100593,1178088946980295,10.60305,0.23895001,-0.33900002
1679998100595,1178088949482372,10.552951,0.261,-0.12900001
1679998100597,1178088951984526,10.512,0.11895001,-0.058050003
1679998100599,1178088954486680,10.548,0.15795001,-0.19605
1679998100601,1178088956988834,10.5720005,0.22695,-0.079050004
1679998100604,1178088959490968,10.440001,0.17205001,-0.012
1679998100606,1178088961992891,10.40205,0.22905001,-0.003
1679998100610,1178088964494968,10.44705,0.27495003,-0.108
1679998100612,1178088966996891,10.49295,0.27495003,0.024
1679998100615,1178088969499030,10.44495,0.23895001,0.045
1679998100616,1178088972001415,10.510051,0.24105,0.17400001
1679998100620,1178088974503338,10.50195,0.162,0.10005
1679998100623,1178088977005415,10.465951,0.19305001,0.16995001
1679998100625,1178088979507583,10.48095,0.19305001,0.141
1679998100629,1178088982009506,10.52595,0.22905001,0.064050004
1679998100631,1178088984511660,10.404,0.19305001,0.112050004
1679998100633,1178088987013814,10.56,0.19095,0.00405
1679998100634,1178088989515968,10.567051,0.23895001,0.055050004
1679998100638,1178088992018026,10.504951,0.23205002,0.07395
1679998100640,1178088994519949,10.510051,0.19095,0.025950002
1679998100642,1178088997022102,10.540951,0.25605002,0.141
1679998100644,1178088999524256,10.56,0.31995,0.08295
1679998100647,1178089002026328,10.56,0.22500001,0.13095
1679998100650,1178089004528482,10.60095,0.19605,0.13605
1679998100652,1178089007030636,10.545,0.27705002,-0.04095
1679998100654,1178089009532790,10.57695,0.19305001,0.13605
1679998100656,1178089012034723,10.585951,0.246,0.10005
1679998100660,1178089014536800,10.6390505,0.177,0.024
1679998100663,1178089017038954,10.545,0.13605,0.025950002
1679998100666,1178089019541108,10.57905,0.177,-0.08205
1679998100669,1178089022043055,10.452001,0.19305001,-0.13800001
1679998100671,1178089024545208,10.52595,0.261,-0.02205
1679998100673,1178089027047362,10.48095,0.22005,0.045
1679998100675,1178089029549439,10.486051,0.26295,0.031050002
1679998100677,1178089032051333,10.356001,0.27,-0.11100001
1679998100680,1178089034553487,10.383,0.20805001,-0.14805001
1679998100683,1178089037055641,10.408951,0.30795002,-0.120000005
1679998100685,1178089039557795,10.43295,0.20505,-0.04605
1679998100687,1178089042059872,10.36305,0.24105,-0.04605
1679998100691,1178089044562016,10.512,0.25005,-0.052950002
1679998100693,1178089047063939,10.498051,0.177,0.055050004
1679998100695,1178089049566093,10.59105,0.273,0.01905
1679998100697,1178089052068170,10.63605,0.21000001,0.033
1679998100700,1178089054570434,10.52595,0.23895001,0.08295
1679998100706,1178089057072511,10.5070505,0.22005,0.01905
1679998100707,1178089059574665,10.522051,0.24900001,0.025950002
1679998100710,1178089062076588,10.561951,0.23205002,0.045
1679998100712,1178089064578665,10.50195,0.21300001,0.060000002
1679998100713,1178089067080819,10.62705,0.27,-0.043050002
1679998100715,1178089069583050,10.548,0.12195001,-0.01695
1679998100717,1178089072085127,10.498051,0.19305001,-0.12900001
1679998100721,1178089074587069,10.561951,0.19095,-0.10095
1679998100723,1178089077089223,10.524,0.27,-0.072000004
1679998100725,1178089079591300,10.533001,0.22500001,-0.060000002
1679998100727,1178089082093453,10.500001,0.177,0.00705
1679998100730,1178089084595376,10.561951,0.252,0.117000006
1679998100733,1178089087097747,10.564951,0.28695002,0.093
1679998100735,1178089089599670,10.5070505,0.27,0.057000004
1679998100737,1178089092101747,10.557,0.201,0.069000006
1679998100742,1178089094603866,10.510051,0.21495001,0.07395
1679998100744,1178089097105789,10.46895,0.23895001,0.094950005
1679998100746,1178089099607943,10.536,0.20805001,0.00405
1679998100748,1178089102110020,10.552951,0.21495001,0.10305001
1679998100751,1178089104612251,10.533001,0.22695,0.012
1679998100752,1178089107114341,10.488001,0.20295002,0.03795
1679998100754,1178089109616495,10.555051,0.27705002,0.09105001
1679998100756,1178089112118418,10.531051,0.24900001,0.03795
1679998100760,1178089114620572,10.56,0.28905,0.055050004
1679998100762,1178089117122649,10.50195,0.20505,-0.02205
1679998100764,1178089119624794,10.46895,0.28395,-0.010050001
1679998100767,1178089122126948,10.453951,0.21300001,0.03795
1679998100771,1178089124629102,10.52595,0.18900001,0.19605
1679998100773,1178089127131025,10.531051,0.17400001,0.19605
1679998100774,1178089129633102,10.6050005,0.19305001,0.16695
1679998100778,1178089132135284,10.555051,0.21000001,0.21300001
1679998100780,1178089134637207,10.464001,0.13095,0.105000004
1679998100783,1178089137139361,10.536,0.24105,0.12195001
1679998100785,1178089139641495,10.50195,0.21000001,0.093
1679998100787,1178089142143649,10.45905,0.21495001,0.079050004
1679998100790,1178089144645726,10.52595,0.21300001,0.07395
1679998100792,1178089147147649,10.50195,0.24105,0.045
1679998100794,1178089149649803,10.533001,0.186,-0.0049500004
1679998100797,1178089152152203,10.51395,0.186,-0.079050004
1679998100800,1178089154654126,10.512,0.27,-0.024
1679998100802,1178089157156203,10.516951,0.30105,-0.043050002
1679998100804,1178089159658126,10.549951,0.124050006,0.0139500005
1679998100807,1178089162160280,10.498051,0.20505,-0.04095
1679998100810,1178089164662668,10.512,0.22905001,0.036000002
1679998100812,1178089167164591,10.428,0.20295002,0.057000004
1679998100815,1178089169666668,10.528951,0.17205001,-0.02205
1679998100819,1178089172168822,10.549951,0.21300001,0.028050002
1679998100821,1178089174670745,10.545,0.069000006,0.00405
1679998100823,1178089177172822,10.52595,0.19305001,0.025950002
1679998100825,1178089179675053,10.528951,0.20505,-0.028950002
1679998100827,1178089182177207,10.552951,0.23400001,0.052050002
1679998100831,1178089184679275,10.584001,0.27705002,-0.07005
1679998100832,1178089187181198,10.5379505,0.22200002,-0.06705
1679998100834,1178089189683352,10.59105,0.33705002,0.079050004
1679998100836,1178089192185506,10.581,0.19095,-0.052950002
1679998100840,1178089194687572,10.524,0.27495003,-0.10305001
1679998100843,1178089197189726,10.548,0.186,-0.07005
1679998100844,1178089199691880,10.533001,0.21300001,-0.079050004
1679998100846,1178089202193803,10.561951,0.26805001,-0.21000001
1679998100850,1178089204695909,10.524,0.17400001,-0.11100001
1679998100854,1178089207198063,10.52595,0.19095,-0.21000001
1679998100856,1178089209700217,10.573951,0.21000001,-0.10605001
1679998100857,1178089212202140,10.528951,0.186,-0.16695
1679998100860,1178089214704303,10.548,0.23895001,-0.034050003
1679998100863,1178089217206457,10.555051,0.28905,0.08805001
1679998100865,1178089219708534,10.49295,0.23400001,0.036000002
1679998100869,1178089222210687,10.48995,0.24105,0.057000004
1679998100871,1178089224712607,10.540951,0.17400001,0.21795002
1679998100873,1178089227214760,10.512,0.177,0.10305001
1679998100874,1178089229716914,10.465951,0.22005,0.03795
1679998100877,1178089232219068,10.48305,0.22695,0.0139500005
1679998100880,1178089234721145,10.500001,0.23400001,-0.039
1679998100882,1178089237223327,10.536,0.24105,-0.08895
1679998100886,1178089239725250,10.585951,0.16995001,0.024
1679998100887,1178089242227327,10.46895,0.19095,-0.126
1679998100893,1178089244729452,10.540951,0.17400001,-0.18900001
1679998100900,1178089247231606,10.5379505,0.11400001,-0.07005
1679998100901,1178089249733759,10.498051,0.20805001,-0.120000005
1679998100901,1178089252235683,10.516951,0.22905001,-0.13305001
1679998100902,1178089254737836,10.56,0.22005,-0.11505
1679998100902,1178089257239913,10.522051,0.15,-0.16905001
1679998100905,1178089259742077,10.528951,0.15795001,-0.094050005
1679998100906,1178089262244231,10.548,0.17400001,-0.08400001
1679998100910,1178089264746385,10.573951,0.23700002,-0.043050002
1679998100911,1178089267248308,10.608001,0.24405001,0.012
1679998100914,1178089269750511,10.5379505,0.11400001,0.00705
1679998100916,1178089272252588,10.62195,0.18195,0.14805001
1679998100919,1178089274754511,10.540951,0.23895001,0.048
1679998100922,1178089277256665,10.519051,0.33495003,-0.003
1679998100924,1178089279759039,10.45005,0.17895001,0.19605
1679998100928,1178089282260962,10.644,0.19305001,0.079050004
1679998100931,1178089284763039,10.57695,0.21000001,0.12900001
1679998100932,1178089287265193,10.597951,0.26805001,0.055050004
1679998100934,1178089289767347,10.6050005,0.15,0.12705001
1679998100937,1178089292269270,10.977,0.22005,0.27
1679998100940,1178089294771347,10.972051,0.17400001,0.177
1679998100943,1178089297273578,10.869,0.186,0.321
1679998100945,1178089299775631,10.9789505,0.11400001,0.36600003
1679998100947,1178089302277554,10.91895,0.14295001,0.22695
1679998100950,1178089304779708,10.94505,0.186,0.186
1679998100953,1178089307281862,10.938001,0.22200002,0.29205
1679998100954,1178089309783938,10.795051,0.141,0.28500003
1679998100957,1178089312286112,10.738951,0.294,0.28500003
1679998100961,1178089314788266,10.732051,0.16005,0.32805002
1679998100963,1178089317290189,10.692,0.19095,0.15105
1679998100965,1178089319792319,10.644,0.21000001,0.031050002
1679998100968,1178089322294396,10.744051,0.28695002,0.009000001
1679998100970,1178089324796550,10.620001,0.079050004,0.049950004
1679998100972,1178089327298473,10.65795,0.13605,-0.08400001
1679998100975,1178089329800627,10.644,0.094950005,-0.02205
1679998100977,1178089332302776,10.696051,-0.01995,-0.075
1679998100980,1178089334804930,10.83495,0.17895001,-0.075
1679998100983,1178089337307006,10.75395,0.39795002,-0.17205001
1679998100984,1178089339808930,10.64805,0.31095,-0.186
1679998100987,1178089342311073,10.561951,0.29205,-0.22695
1679998100990,1178089344813150,10.38,0.273,-0.32295
1679998100992,1178089347315381,10.18605,0.32505003,-0.22005
1679998100994,1178089349817458,10.15005,0.30795002,-0.32505003
1679998100997,1178089352319612,10.177051,0.33495003,-0.27495003
1679998101000,1178089354821559,10.15995,0.38595003,-0.12900001
1679998101003,1178089357323636,10.1650505,0.27705002,-0.36795002
1679998101005,1178089359825790,10.13595,0.354,-0.31500003
1679998101007,1178089362328020,10.219951,0.32295,-0.26505002
1679998101010,1178089364830102,10.227,0.37095,-0.38700002
1679998101013,1178089367332026,10.33905,0.22200002,-0.31995
1679998101015,1178089369834179,10.31295,0.26295,-0.21000001
1679998101017,1178089372336256,10.354051,0.25800002,-0.20295002
1679998101020,1178089374838410,10.29195,0.294,-0.015000001
1679998101023,1178089377340564,10.299001,0.33705002,-0.13095
1679998101025,1178089379842718,10.248,0.20505,-0.12900001
1679998101027,1178089382344641,10.390051,0.294,-0.052950002
1679998101030,1178089384846713,10.347,0.246,-0.003
1679998101032,1178089387348867,10.36305,0.27,0.08295
1679998101034,1178089389851021,10.452001,0.22695,0.031050002
1679998101037,1178089392353174,10.49505,0.30600002,0.11895001
1679998101041,1178089394855092,10.48305,0.27705002,0.13905
1679998101043,1178089397357246,10.44495,0.282,0.25395
1679998101045,1178089399859323,10.428,0.30405003,0.30405003
1679998101047,1178089402361477,10.48095,0.24105,0.25605002
1679998101050,1178089404863400,10.46205,0.26805001,0.23700002
1679998101052,1178089407365785,10.476001,0.33195,0.15300001
1679998101054,1178089409867708,10.48305,0.15,0.049950004
1679998101057,1178089412369785,10.440001,0.14295001,0.031050002
1679998101062,1178089414871939,10.49295,0.08295,0.112050004
1679998101064,1178089417373862,10.411051,0.16005,0.094950005
1679998101064,1178089419876016,10.464001,0.15795001,-0.01695
1679998101067,1178089422378169,10.486051,0.11400001,-0.0049500004
1679998101070,1178089424880328,10.36305,0.21495001,0.07095
1679998101072,1178089427382405,10.30395,-0.132,0.08805001
1679998101074,1178089429884328,10.191001,-0.20400001,0.19800001
1679998101078,1178089432386482,10.11705,-0.15405001,0.21495001
1679998101081,1178089434888587,10.18095,0.141,0.27
1679998101083,1178089437390664,10.13595,-0.01995,0.21795002
1679998101086,1178089439892818,10.272,0.22200002,0.21000001
1679998101087,1178089442394972,10.251,0.15795001,-0.003
1679998101090,1178089444896905,10.411051,0.31800002,-0.072000004
1679998101092,1178089447399059,10.320001,0.19305001,-0.15
1679998101094,1178089449901136,10.356001,0.342,-0.048
1679998101097,1178089452403289,10.58895,0.537,-0.19095
1679998101100,1178089454905212,10.47795,0.26295,-0.112950005
1679998101102,1178089457407611,10.464001,0.24405001,-0.16905001
1679998101104,1178089459909534,10.567051,0.19800001,-0.19305001
1679998101107,1178089462411688,10.516951,0.36105,-0.0049500004
1679998101110,1178089464913765,10.696051,0.39600003,0.00705
1679998101112,1178089467415683,10.732051,0.48195,-0.094050005
1679998101116,1178089469917837,10.596001,0.31800002,0.057000004
1679998101118,1178089472420222,10.79205,0.40995002,0.11895001
1679998101120,1178089474922160,10.585951,0.13800001,0.045
1679998101122,1178089477424237,10.840051,0.78195006,0.16695
1679998101124,1178089479926390,10.938001,0.90900004,-0.012
1679998101127,1178089482428313,11.071951,0.83895004,0.045
1679998101130,1178089484930467,10.77795,0.51795,-0.036000002
1679998101132,1178089487432563,10.94505,0.44595003,-0.079050004
1679998101134,1178089489934794,10.938001,0.40995002,-0.17895001
1679998101136,1178089492436871,10.76805,0.43005002,-0.13305001
1679998101140,1178089494939025,10.61295,0.31800002,-0.10095
1679998101143,1178089497440957,10.629001,0.33,-0.13305001
1679998101144,1178089499943034,10.584001,0.26505002,-0.20805001
1679998101147,1178089502445188,10.510051,0.25605002,-0.28905
1679998101150,1178089504947418,10.543051,0.25605002,-0.23595001
1679998101153,1178089507449495,10.545,0.30105,-0.25005
1679998101155,1178089509951418,10.452001,0.26295,-0.21300001
1679998101157,1178089512453572,10.59105,0.21000001,-0.19605
1679998101160,1178089514955649,10.564951,0.16995001,-0.08895
1679998101162,1178089517457803,10.569,0.28005,-0.18900001
1679998101164,1178089519959726,10.498051,0.36795002,-0.19305001
1679998101167,1178089522462111,10.585951,0.26805001,0.012
1679998101170,1178089524964034,10.585951,0.19605,0.00405
1679998101172,1178089527466111,10.632001,0.246,0.00405
1679998101174,1178089529968246,10.716001,0.18900001,0.109950006
1679998101177,1178089532470400,10.76595,0.27,0.10005
1679998101180,1178089534972323,10.783051,0.342,0.10305001
1679998101182,1178089537474400,10.76805,0.32805002,0.25005
1679998101184,1178089539976630,10.828051,0.17205001,-0.055050004
1679998101186,1178089542478707,10.91205,0.093,-0.076950006
1679998101192,1178089544980861,10.894951,0.097950004,0.045
1679998101194,1178089547482784,11.09595,0.165,-0.072000004
1679998101195,1178089549984943,10.95495,0.08295,-0.039
1679998101197,1178089552487020,10.88805,-0.043950003,-0.096
1679998101200,1178089554989174,10.63605,-0.096,-0.124050006
1679998101202,1178089557491328,10.545,-0.20595,-0.28905
1679998101205,1178089559993481,10.31295,-0.47700003,-0.079050004
1679998101207,1178089562495405,10.2289505,-0.058050003,0.10695001
1679998101210,1178089564997482,10.18095,0.32805002,-0.036000002
1679998101212,1178089567499635,10.09305,0.29895002,-0.09105001
1679998101215,1178089570001789,10.1959505,0.56595004,-0.15300001
1679998101217,1178089572503928,10.062,0.432,-0.201
1679998101221,1178089575005851,10.189051,0.45600003,-0.09105001
1679998101223,1178089577508005,10.19295,0.42195,-0.22200002
1679998101226,1178089580010082,10.31805,0.573,-0.177
1679998101229,1178089582512256,10.31595,0.43905002,-0.124050006
1679998101232,1178089585014179,10.428,0.48900002,-0.186
1679998101233,1178089587516333,10.569,0.51795,-0.15
1679998101235,1178089590018487,10.476001,0.31800002,-0.10605001
1679998101237,1178089592520563,10.44495,0.246,0.043050002
1679998101240,1178089595022501,10.41405,0.22200002,0.028050002
1679998101242,1178089597524654,10.45905,0.22905001,0.097950004
1679998101244,1178089600027039,10.52595,0.44595003,0.282
1679998101247,1178089602528962,10.366051,0.15300001,0.22695
1679998101251,1178089605031063,10.372951,0.29205,0.38505003
1679998101253,1178089607533217,10.38,0.201,0.34500003
1679998101254,1178089610035140,10.408951,0.28905,0.34905002
1679998101257,1178089612537294,10.476001,0.22200002,0.36600003
1679998101260,1178089615039429,10.48995,0.20505,0.26805001
1679998101263,1178089617541583,10.453951,0.22200002,0.025950002
1679998101266,1178089620043659,10.441951,0.273,0.109950006
1679998101268,1178089622545583,10.536,0.22695,0.07395
1679998101271,1178089625047716,10.48305,0.282,-0.06705
1679998101273,1178089627549870,10.435051,0.27495003,-0.003
1679998101275,1178089630051947,10.564951,0.47505003,-0.063
1679998101277,1178089632554101,10.429951,0.26805001,-0.10095
1679998101280,1178089635056255,10.50195,0.27705002,-0.21495001
1679998101282,1178089637558207,10.408951,-0.039,-0.15495001
1679998101284,1178089640060361,10.569,0.42000002,-0.20295002
1679998101287,1178089642562438,10.593,0.49395,-0.30105
1679998101291,1178089645064592,10.543051,0.39105,-0.30105
1679998101292,1178089647566491,10.452001,0.33495003,-0.11100001
1679998101295,1178089650068645,10.528951,0.573,-0.20295002
1679998101297,1178089652570798,10.60305,0.61905,-0.079050004
1679998101300,1178089655072952,10.486051,0.39405003,-0.141
1679998101304,1178089657575020,10.476001,0.46800002,0.00705
1679998101306,1178089660076943,10.677,0.48000002,-0.015000001
1679998101308,1178089662579097,10.729951,0.47295,0.045
1679998101311,1178089665081482,10.726951,0.49395,0.069000006
1679998101313,1178089667583405,10.665001,0.41295,0.0019500001
1679998101315,1178089670085496,10.6390505,0.354,-0.04095
1679998101317,1178089672587650,10.63395,0.40605003,-0.087000005
1679998101320,1178089675089573,10.46205,0.342,-0.055050004
1679998101322,1178089677591727,10.407001,0.39405003,-0.051000003
1679998101326,1178089680093827,10.49505,0.30600002,-0.048
1679998101327,1178089682596058,10.48995,0.38595003,-0.04095
1679998101330,1178089685098135,10.399051,0.31995,-0.02205
1679998101332,1178089687600058,10.407001,0.36105,0.10305001
1679998101334,1178089690102212,10.48095,0.37095,0.07095
1679998101337,1178089692604342,10.512,0.31305,0.16005
1679998101341,1178089695106419,10.429951,0.33195,0.16005
1679998101344,1178089697608342,10.59105,0.31800002,0.15795001
1679998101346,1178089700110741,10.555051,0.29205,0.22995001
1679998101348,1178089702612664,10.608001,0.34395,0.30900002
1679998101350,1178089705114818,10.5379505,0.354,0.24900001
1679998101352,1178089707616894,10.567051,0.354,0.141
1679998101354,1178089710119048,10.488001,0.29205,0.177
1679998101357,1178089712620986,10.557,0.30105,0.10305001
1679998101360,1178089715123371,10.44705,0.32805002,0.03795
1679998101362,1178089717625294,10.549951,0.37095,-0.015000001
1679998101365,1178089720127371,10.528951,0.37905002,-0.15495001
1679998101367,1178089722629520,10.48995,0.34905002,-0.246
1679998101370,1178089725131674,10.5070505,0.35895002,-0.24105
1679998101372,1178089727633597,10.4740505,0.21000001,-0.19800001
1679998101375,1178089730135674,10.5379505,0.252,-0.21495001
1679998101379,1178089732637900,10.500001,0.28905,-0.21705002
1679998101381,1178089735139976,10.5379505,0.22905001,-0.22395001
1679998101385,1178089737642130,10.552951,0.25800002,-0.079050004
1679998101386,1178089740144053,10.52595,0.28005,-0.124050006
1679998101388,1178089742646207,10.56,0.31800002,-0.075
1679998101391,1178089745148289,10.569,0.354,-0.162
1679998101393,1178089747650520,10.5379505,0.33705002,-0.0049500004
1679998101395,1178089750152597,10.504951,0.29205,-0.120000005
1679998101397,1178089752654751,10.557,0.32505003,-0.012
1679998101400,1178089755156674,10.564951,0.29895002,0.060000002
1679998101402,1178089757658751,10.5379505,0.24405001,-0.058050003
1679998101405,1178089760160905,10.569,0.32295,0.00405
1679998101410,1178089762663058,10.552951,0.29895002,0.048
1679998101411,1178089765165178,10.581,0.30600002,0.033
1679998101413,1178089767667101,10.573951,0.35595003,0.009000001
1679998101416,1178089770169255,10.476001,0.34695002,0.033
1679998101418,1178089772671332,10.59105,0.37305,0.043050002
1679998101422,1178089775173497,10.60305,0.34695002,0.009000001
1679998101427,1178089777675420,10.476001,0.384,0.045
1679998101428,1178089780177574,10.500001,0.36405003,-0.003
1679998101430,1178089782679728,10.57905,0.27495003,-0.024
1679998101432,1178089785181805,10.581,0.22905001,-0.024
1679998101434,1178089787683978,10.516951,0.20805001,-0.010050001
1679998101435,1178089790186131,10.57695,0.39600003,0.079050004
1679998101437,1178089792688055,10.561951,0.28905,0.033
1679998101440,1178089795190131,10.504951,0.30795002,0.012
1679998101443,1178089797692362,10.46895,0.32505003,0.055050004
1679998101444,1178089800194444,10.522051,0.33,-0.10605001
1679998101448,1178089802696598,10.552951,0.33495003,-0.162
1679998101450,1178089805198521,10.504951,0.23400001,0.00705
1679998101454,1178089807700646,10.498051,0.31800002,0.016050002
1679998101456,1178089810202723,10.573951,0.38205,0.025950002
1679998101457,1178089812704646,10.545,0.23895001,-0.10095
1679998101460,1178089815207031,10.60305,0.36795002,-0.036000002
1679998101463,1178089817708954,10.510051,0.31605002,-0.126
1679998101465,1178089820211113,10.584001,0.28005,-0.012
1679998101467,1178089822713189,10.549951,0.34395,0.15105
1679998101470,1178089825215420,10.516951,0.31095,0.081
1679998101472,1178089827717497,10.5720005,0.37905002,0.00405
1679998101475,1178089830219651,10.533001,0.36795002,0.069000006
1679998101477,1178089832721579,10.536,0.32505003,0.069000006
1679998101480,1178089835223733,10.5720005,0.33195,0.048
1679998101482,1178089837725810,10.452001,0.29895002,0.13605
1679998101485,1178089840227733,10.60995,0.32805002,0.064050004
1679998101487,1178089842730122,10.453951,0.31800002,0.025950002
1679998101492,1178089845232045,10.47795,0.24105,0.028050002
1679998101494,1178089847734198,10.584001,0.34395,0.016050002
1679998101495,1178089850236275,10.50195,0.26295,-0.04095
1679998101497,1178089852738386,10.46205,0.24900001,-0.126
1679998101500,1178089855240309,10.488001,0.33495003,-0.19305001
1679998101503,1178089857742463,10.5070505,0.27495003,-0.24795002
1679998101505,1178089860244617,10.387051,0.23895001,-0.024
1679998101507,1178089862746790,10.45695,0.29205,-0.039
1679998101511,1178089865248867,10.488001,0.36105,-0.120000005
1679998101513,1178089867750790,10.545,0.25605002,0.052050002
1679998101515,1178089870252944,10.45005,0.26505002,0.15300001
1679998101528,1178089872755026,10.5720005,0.29895002,0.00405
1679998101528,1178089875257256,10.510051,0.32505003,0.036000002
1679998101529,1178089877759333,10.46895,0.31605002,-0.02205
1679998101529,1178089880261487,10.58895,0.36600003,0.052050002
1679998101529,1178089882763410,10.545,0.29895002,0.043050002
1679998101531,1178089885265487,10.465951,0.35205,0.052050002
1679998101533,1178089887767641,10.498051,0.32805002,0.0
1679998101535,1178089890269795,10.596001,0.29595003,0.10695001
1679998101537,1178089892771949,10.52595,0.34005,0.31095
1679998101540,1178089895273853,10.56,0.25605002,0.294
1679998101543,1178089897776007,10.48995,0.252,0.23205002
1679998101545,1178089900278161,10.504951,0.27495003,-0.024
1679998101547,1178089902780238,10.5379505,0.36795002,0.07395
1679998101550,1178089905282137,10.498051,0.27705002,0.08595
1679998101552,1178089907784521,10.57695,0.30600002,0.079050004
1679998101555,1178089910286444,10.52595,0.28695002,0.186
1679998101557,1178089912788598,10.51395,0.32805002,0.024
1679998101560,1178089915290675,10.545,0.31305,-0.028950002
1679998101562,1178089917792829,10.555051,0.20295002,-0.043050002
1679998101568,1178089920294752,10.569,0.28395,-0.18105
1679998101568,1178089922796829,10.498051,0.27495003,-0.20295002
1679998101571,1178089925299060,10.536,0.38595003,-0.25605002
1679998101573,1178089927801214,10.569,0.31305,-0.29895002
1679998101577,1178089930303291,10.528951,0.28695002,-0.39495003
1679998101577,1178089932805214,10.56,0.16005,-0.24105
1679998101581,1178089935307367,10.569,0.31095,-0.20505
1679998101584,1178089937809458,10.533001,0.27495003,-0.21495001
1679998101585,1178089940311612,10.57695,0.282,-0.141
1679998101589,1178089942813766,10.585951,0.35895002,-0.12900001
1679998101594,1178089945315909,10.5720005,0.21495001,-0.060000002
1679998101594,1178089947817832,10.540951,0.37695003,0.0
1679998101595,1178089950319909,10.5379505,0.37905002,-0.11100001
1679998101598,1178089952822063,10.4740505,0.23700002,-0.141
1679998101602,1178089955324217,10.440001,0.37500003,-0.124050006
1679998101605,1178089957826376,10.52595,0.273,-0.15705001
1679998101607,1178089960328299,10.5379505,0.23400001,-0.079050004
1679998101608,1178089962830452,10.50195,0.25005,-0.27195
1679998101611,1178089965332529,10.440001,0.30105,-0.12900001
1679998101613,1178089967834683,10.516951,0.28905,-0.162
1679998101615,1178089970336621,10.516951,0.30795002,-0.11805001
1679998101617,1178089972838775,10.43805,0.30405003,-0.13800001
1679998101620,1178089975340929,10.510051,0.36405003,-0.19800001
1679998101626,1178089977843083,10.44495,0.19305001,-0.07005
1679998101628,1178089980345169,10.452001,0.32805002,-0.124050006
1679998101628,1178089982847323,10.44705,0.24405001,0.105000004
1679998101631,1178089985349246,10.488001,0.29895002,0.10305001
1679998101633,1178089987851400,10.408951,0.26505002,0.109950006
1679998101637,1178089990353539,10.36305,0.30105,0.25800002
1679998101638,1178089992855616,10.387051,0.26505002,0.26505002
1679998101642,1178089995357770,10.407001,0.282,0.34005
1679998101644,1178089997859924,10.234051,0.24105,0.186
1679998101646,1178090000361847,10.114051,0.141,0.18900001
1679998101650,1178090002863909,10.16895,0.20805001,0.141
1679998101651,1178090005366063,10.201051,0.14295001,0.109950006
1679998101653,1178090007868217,10.246051,0.15795001,-0.003
1679998101657,1178090010370140,10.453951,0.081,0.076050006
1679998101660,1178090012872299,10.49295,-2.46495,0.69900006
1679998101662,1178090015374453,9.805051,-2.214,0.81900007
1679998101663,1178090017876530,9.681001,-1.07295,0.80205005
1679998101665,1178090020378683,9.790951,0.354,0.43605003
1679998101668,1178090022880620,9.894,0.67095006,0.055050004
1679998101671,1178090025383005,9.97095,0.77400005,-0.17205001
1679998101672,1178090027884928,10.335,0.94200003,-0.44505003
1679998101675,1178090030387005,10.60095,1.31295,-0.58905005
1679998101679,1178090032889145,10.857,1.26495,-0.49500003
1679998101681,1178090035391299,10.9140005,0.49905002,-0.39705002
1679998101684,1178090037893222,11.026951,0.44400004,-0.39900002
1679998101685,1178090040395376,11.23995,0.61605,-0.29205
1679998101688,1178090042897453,11.178,0.52305,-0.37500003
1679998101690,1178090045399602,10.846951,-0.22995001,-0.15705001
1679998101693,1178090047901525,10.840051,0.44595003,-0.094050005
1679998101695,1178090050403678,10.938001,0.30405003,-0.15495001
1679998101697,1178090052905832,10.905001,0.36795002,-0.058050003
1679998101700,1178090055407967,10.64595,0.081,0.01905
1679998101703,1178090057910044,10.66005,0.40605003,0.00405
1679998101705,1178090060411967,10.423051,0.061950002,0.0139500005
1679998101707,1178090062914121,10.441951,0.59505004,0.064050004
1679998101711,1178090065416284,10.356001,0.22905001,-0.075
1679998101712,1178090067918438,10.399051,-0.11805001,-0.10095
1679998101717,1178090070420515,10.416,0.573,-0.09105001
1679998101719,1178090072922668,10.45695,0.38205,-0.052950002
1679998101723,1178090075423658,10.372951,0.26295,-0.024
1679998101723,1178090077924621,10.416,0.65505004,-0.012
1679998101726,1178090080428851,10.569,0.94905007,-0.15705001
1679998101728,1178090082931005,10.677,1.7160001,-0.24405001
1679998101731,1178090085433159,10.72305,0.753,-0.33195
1679998101733,1178090087935068,11.014951,0.51000005,-0.31995
1679998101735,1178090090437222,11.070001,0.31605002,-0.201
1679998101737,1178090092939376,10.78695,0.37695003,-0.120000005
1679998101740,1178090095441453,10.677,-0.15105,-0.177
1679998101743,1178090097943376,10.44705,0.061950002,-0.25995
1679998101745,1178090100445760,10.56,0.124050006,-0.35595003
1679998101747,1178090102947684,10.440001,-0.25905,-0.37500003
1679998101750,1178090105449837,10.299001,-0.13005,-0.13095
1679998101753,1178090107951914,10.26795,-0.14400001,-0.31800002
1679998101755,1178090110454068,10.248,-0.063,-0.16695
1679998101757,1178090112955991,10.359,0.109950006,-0.112950005
1679998101761,1178090115458068,10.504951,0.717,0.024
1679998101762,1178090117960299,10.74705,0.717,-0.039
1679998101765,1178090120462463,10.64805,0.29595003,-0.04605
1679998101767,1178090122964540,10.83495,0.44400004,-0.11100001
1679998101770,1178090125466463,10.8810005,0.44205,-0.027
1679998101772,1178090127968617,10.960051,0.48705003,-0.051000003
1679998101775,1178090130470771,10.738951,0.15795001,-0.028950002
1679998101777,1178090132972843,10.75905,0.21495001,-0.09900001
1679998101781,1178090135474997,10.76805,0.043050002,-0.051000003
1679998101784,1178090137977151,10.720051,0.19095,-0.20805001
1679998101785,1178090140479074,10.548,0.081,-0.01995
1679998101788,1178090142981151,10.5070505,-0.08895,0.16995001
1679998101793,1178090145483305,10.347,0.052050002,0.26295
1679998101795,1178090147985459,10.38,0.055050004,0.30600002
1679998101796,1178090150487598,10.5070505,0.097950004,0.09105001
1679998101798,1178090152989521,10.30605,-0.058050003,0.25800002
1679998101802,1178090155491675,10.31295,0.22200002,0.061950002
1679998101803,1178090157993752,10.510051,0.37905002,-0.028950002
1679998101806,1178090160495905,10.320001,0.26505002,-0.076950006
1679998101808,1178090162997834,10.5070505,0.43695003,-0.12195001
1679998101811,1178090165499987,10.429951,0.49395,0.036000002
1679998101812,1178090168002141,10.399051,0.22695,-0.12900001
1679998101815,1178090170504218,10.399051,-0.079950005,-0.027
1679998101818,1178090173006386,10.524,0.27495003,0.040050004
1679998101821,1178090175508540,10.761001,0.54195005,-0.15495001
1679998101825,1178090178010463,10.548,0.37905002,-0.0049500004
1679998101827,1178090180512540,10.516951,-0.17505,-0.034050003
1679998101829,1178090183014675,10.488001,-0.19005,0.024
1679998101832,1178090185516906,10.60305,-0.028950002,0.117000006
1679998101834,1178090188018982,10.441951,0.16695,0.22695
1679998101835,1178090190520906,10.545,0.20805001,0.13095
1679998101837,1178090193023059,10.384951,-0.09900001,0.13095
1679998101840,1178090195525146,10.555051,0.384,-0.09105001
1679998101843,1178090198027300,10.569,0.52305,0.09105001
1679998101845,1178090200529454,10.617001,0.39600003,-0.079050004
1679998101848,1178090203031608,10.335,0.093,0.025950002
1679998101851,1178090205533535,10.65795,0.31995,0.093
1679998101853,1178090208035689,10.557,0.45600003,-0.126
1679998101855,1178090210537766,10.452001,0.29205,0.033
1679998101857,1178090213039920,10.44495,0.32505003,-0.09900001
1679998101860,1178090215541829,10.75905,0.609,-0.052950002
1679998101863,1178090218044213,10.783051,0.58005005,-0.034050003
1679998101867,1178090220546136,10.893001,0.43695003,-0.08895
1679998101869,1178090223048213,10.821,0.24900001,-0.010050001
1679998101871,1178090225550338,10.61295,0.39105,-0.01695
1679998101873,1178090228052261,10.57695,0.29205,-0.015000001
1679998101876,1178090230554415,10.585951,0.294,0.0019500001
1679998101878,1178090233056569,10.63395,0.36105,-0.072000004
1679998101883,1178090235558723,10.738951,0.32805002,-0.09105001
1679998101884,1178090238060795,10.807051,0.609,-0.18105
1679998101885,1178090240562949,10.684051,0.201,-0.031050002
1679998101887,1178090243064872,10.63395,-0.09195001,-0.19800001
1679998101891,1178090245567026,10.45695,0.028050002,0.00405
1679998101895,1178090248069097,10.689,0.46800002,-0.19605
1679998101896,1178090250571251,10.60095,0.08295,-0.22695
1679998101898,1178090253073405,10.840051,0.30795002,-0.22395001
1679998101900,1178090255575328,10.6390505,-0.060000002,-0.246
1679998101905,1178090258077487,10.52595,-0.012,-0.22905001
1679998101907,1178090260579641,10.545,-0.034050003,-0.21495001
1679998101909,1178090263081718,10.692,-0.027,-0.21705002
1679998101912,1178090265583872,10.441951,-0.14895001,-0.126
1679998101914,1178090268086026,10.368,0.009000001,-0.039
1679998101915,1178090270587925,10.36305,-0.28605002,0.14805001
1679998101918,1178090273090002,10.423051,0.08595,0.069000006
1679998101921,1178090275592155,10.40205,0.043050002,0.093
1679998101924,1178090278094309,10.429951,0.36600003,0.12705001
1679998101926,1178090280596463,10.420951,-0.24495001,-0.058050003
1679998101928,1178090283098381,10.548,0.16695,0.186
1679998101931,1178090285600535,10.45905,0.14295001,0.07095
1679998101933,1178090288102612,10.59105,0.69495004,-0.012
1679998101935,1178090290604535,10.399051,0.27,0.117000006
1679998101938,1178090293106680,10.58895,0.36600003,0.09105001
1679998101942,1178090295608834,10.519051,0.44400004,0.13605
1679998101944,1178090298110988,10.64805,0.74805003,0.012
1679998101946,1178090300613065,10.407001,0.52095,0.016050002
1679998101948,1178090303115232,10.696051,0.141,0.028050002
1679998101951,1178090305617156,10.59105,0.34905002,0.105000004
1679998101952,1178090308119309,10.797001,0.52995,0.061950002
1679998101955,1178090310621463,10.581,0.081,-0.02205
1679998101958,1178090313123617,10.57695,-0.00795,0.08805001
1679998101960,1178090315625694,10.71105,0.39105,-0.063
1679998101963,1178090318127848,10.416,-0.21795002,-0.04605
1679998101965,1178090320629771,10.335,-0.12495001,-0.13305001
1679998101968,1178090323131925,10.332001,0.043050002,-0.22905001
1679998101971,1178090325634015,10.396951,-0.132,-0.15
1679998101973,1178090328136169,10.356001,0.19305001,-0.141
1679998101976,1178090330638322,10.272,0.064050004,-0.24105
1679998101979,1178090333140237,10.717951,0.73605,-0.087000005
1679998101981,1178090335642391,10.21695,0.13605,0.0
1679998101984,1178090338144468,10.516951,0.58305,-0.13605
1679998101986,1178090340646622,10.567051,0.49695003,0.009000001
1679998101988,1178090343148776,10.335,0.35895002,0.177
1679998101994,1178090345650911,10.441951,0.81000006,0.031050002
1679998101996,1178090348152834,10.49295,0.83895004,0.07095
1679998101998,1178090350654988,10.464001,0.72705,0.23205002
1679998102000,1178090353157065,10.44495,0.56595004,0.13095
1679998102002,1178090355659199,10.44705,0.64500004,0.18900001
1679998102004,1178090358161122,10.61295,0.75495005,0.033
1679998102005,1178090360663506,10.504951,0.60705,0.34500003
1679998102010,1178090363165429,10.46895,0.18900001,0.016050002
1679998102012,1178090365667598,10.737,0.16695,0.0019500001
1679998102014,1178090368169675,10.738951,0.44400004,-0.08205
1679998102018,1178090370671598,10.737,0.079050004,0.069000006
1679998102021,1178090373173752,10.681951,0.33,0.06705
1679998102024,1178090375675891,10.79895,0.45600003,0.033
1679998102026,1178090378178045,10.76805,0.693,-0.079050004
1679998102028,1178090380680122,10.632001,0.20295002,0.060000002
1679998102029,1178090383182276,10.543051,0.31995,-0.028950002
1679998102032,1178090385684223,10.717951,0.49695003,-0.072000004
1679998102033,1178090388186376,10.49505,0.33,-0.08205
1679998102035,1178090390688453,10.74195,0.56595004,-0.177
1679998102037,1178090393190684,10.44495,0.38595003,-0.094050005
1679998102040,1178090395692761,10.80195,0.41505003,-0.10305001
1679998102043,1178090398194726,10.440001,-0.075,0.012
1679998102045,1178090400696880,10.419001,0.20295002,-0.04095
1679998102048,1178090403199034,10.617001,0.67905,-0.11805001
1679998102051,1178090405701111,10.231951,-0.060000002,-0.012
1679998102054,1178090408203044,10.528951,0.54495,-0.08895
1679998102056,1178090410705429,10.20495,0.033,0.055050004
1679998102058,1178090413207352,10.48995,0.22500001,0.21795002
1679998102061,1178090415709429,10.347,0.43905002,0.03795
1679998102063,1178090418211582,10.359,0.50895,0.024
1679998102065,1178090420713736,10.62405,0.77895004,-0.00795
1679998102067,1178090423215659,10.43295,0.59505004,-0.060000002
1679998102070,1178090425717736,10.49505,0.36405003,0.043050002
1679998102073,1178090428219967,10.696051,0.36405003,-0.10305001
1679998102076,1178090430722121,10.452001,0.53505003,0.03795
1679998102078,1178090433224188,10.6050005,0.34395,-0.112950005
1679998102080,1178090435726111,10.65795,0.73905003,-0.10605001
1679998102083,1178090438228265,10.729951,0.46095002,-0.20295002
1679998102085,1178090440730342,10.689,0.094950005,-0.162
1679998102088,1178090443232506,10.59105,0.29205,-0.12900001
1679998102092,1178090445734659,10.705951,0.294,-0.039
1679998102094,1178090448236813,10.705951,0.39600003,-0.039
1679998102096,1178090450738745,10.699051,0.61605,-0.25995
1679998102098,1178090453240822,10.71105,0.58305,-0.15495001
1679998102101,1178090455742976,10.585951,0.48900002,-0.19095
1679998102103,1178090458245130,10.57695,0.47295,-0.26505002
1679998102105,1178090460747284,10.45695,0.35205,-0.22395001
1679998102108,1178090463249213,10.608001,0.38895002,-0.15495001
1679998102111,1178090465751367,10.57905,0.246,-0.25800002
1679998102113,1178090468253521,10.57905,0.27,-0.28695002
1679998102115,1178090470755598,10.5379505,0.30795002,-0.28695002
1679998102118,1178090473257521,10.561951,0.342,-0.23205002
1679998102123,1178090475759674,10.5070505,0.37500003,-0.18900001
1679998102124,1178090478261828,10.59105,0.28395,-0.10605001
1679998102126,1178090480763905,10.540951,0.32295,-0.087000005
1679998102130,1178090483266059,10.46895,0.24900001,0.00405
1679998102132,1178090485767982,10.524,0.29895002,-0.16005
1679998102134,1178090488270367,10.597951,0.30405003,-0.058050003
1679998102136,1178090490772290,10.540951,0.35205,0.052050002
1679998102138,1178090493274367,10.573951,0.31095,0.097950004
1679998102141,1178090495776526,10.555051,0.26295,0.00405
1679998102151,1178090498278680,10.504951,0.16995001,0.07395
1679998102151,1178090500780603,10.561951,0.22695,-0.060000002
1679998102151,1178090503282756,10.62195,0.25605002,-0.043050002
1679998102151,1178090505784900,11.61795,-0.16305001,0.055050004
1679998102153,1178090508287054,11.215951,-0.83895004,0.44805002
1679998102155,1178090510789131,10.404,-1.9240501,0.78495
1679998102158,1178090513291054,9.894,-1.1689501,0.77805007
1679998102160,1178090515793208,9.748051,0.21705002,0.39705002
1679998102163,1178090518295314,9.94005,0.70695,-0.003
1679998102167,1178090520797468,10.00905,1.2220501,-0.25800002
1679998102168,1178090523299622,10.1650505,1.1029501,-0.56205004
1679998102171,1178090525801793,10.177051,0.86295,-0.73200005
1679998102173,1178090528303717,10.359,0.88695,-0.55695003
1679998102175,1178090530805794,10.632001,0.68805003,-0.55305004
1679998102178,1178090533307947,10.71105,0.537,-0.483
1679998102181,1178090535809870,10.83495,0.31605002,-0.41595003
1679998102184,1178090538312218,10.90005,0.27,-0.10605001
1679998102186,1178090540814141,10.972051,0.37500003,-0.08895
1679998102188,1178090543316295,10.816051,-0.052950002,0.028050002
1679998102191,1178090545818372,10.476001,-0.32595003,0.22695
1679998102193,1178090548320295,10.347,-0.108,0.15495001
1679998102196,1178090550822458,10.342051,0.31605002,0.07395
1679998102198,1178090553324842,10.29405,0.44205,0.14805001
1679998102201,1178090555826766,10.252951,-0.02205,0.0139500005
1679998102204,1178090558328842,10.416,0.21705002,0.049950004
1679998102207,1178090560830972,10.347,0.37695003,-0.058050003
1679998102208,1178090563332895,10.64805,0.88695,0.03795
1679998102211,1178090565835049,10.522051,0.89895004,-0.21300001
1679998102213,1178090568337126,10.65795,0.48495004,-0.33
1679998102215,1178090570839357,10.687051,0.28395,-0.112950005
1679998102218,1178090573341410,10.665001,0.20805001,-0.094050005
1679998102221,1178090575843564,10.74195,0.17205001,-0.10305001
1679998102223,1178090578345487,10.64805,0.055050004,-0.043050002
1679998102227,1178090580847641,10.6390505,0.18900001,0.11895001
1679998102228,1178090583349718,10.58895,0.12900001,0.064050004
1679998102231,1178090585851948,10.354051,0.46800002,0.079050004
1679998102233,1178090588354025,10.488001,0.282,-0.01695
1679998102235,1178090590855948,10.408951,0.13095,-0.060000002
1679998102238,1178090593358102,10.408951,0.11895001,-0.075
1679998102243,1178090595860271,10.48095,0.22695,-0.141
1679998102244,1178090598362348,10.64595,0.47700003,-0.063
1679998102246,1178090600864271,10.5379505,0.41295,0.055050004
1679998102247,1178090603366656,10.60095,0.66,-0.120000005
1679998102251,1178090605868608,10.75605,0.54495,-0.162
1679998102253,1178090608370762,10.76595,0.46800002,-0.19305001
1679998102255,1178090610872839,10.573951,0.39600003,-0.252
1679998102258,1178090613374992,10.569,-0.0049500004,-0.17400001
1679998102261,1178090615876920,10.519051,-0.08895,0.024
1679998102263,1178090618379073,10.552951,0.23895001,0.00705
1679998102265,1178090620881227,10.64805,0.29895002,-0.10305001
1679998102268,1178090623383381,10.573951,0.6,-0.060000002
1679998102271,1178090625885444,10.67205,0.42495003,-0.08895
1679998102273,1178090628387367,10.641001,0.32505003,-0.028950002
1679998102276,1178090630889521,10.708051,0.27705002,-0.02205
1679998102279,1178090633391598,10.6699505,0.37905002,0.028050002
1679998102282,1178090635893829,10.629001,0.46800002,0.08805001
1679998102284,1178090638395906,10.687051,0.34695002,0.08295
1679998102286,1178090640898059,10.41405,0.40305,-0.027
1679998102289,1178090643399983,10.428,0.186,0.00705
1679998102291,1178090645902035,10.584001,0.23400001,-0.10605001
1679998102293,1178090648404189,10.65795,0.28005,-0.08895
1679998102295,1178090650906343,10.531051,0.29895002,-0.08895
1679998102298,1178090653408497,10.617001,0.33195,-0.16005
1679998102301,1178090655910410,10.569,0.36105,-0.04095
1679998102303,1178090658412564,10.512,0.22905001,-0.031050002
1679998102306,1178090660914641,10.61295,0.342,-0.09900001
1679998102309,1178090663416795,10.632001,0.21000001,-0.010050001
1679998102311,1178090665918718,10.59105,0.261,-0.07005
1679998102313,1178090668420872,10.533001,0.27495003,-0.003
1679998102316,1178090670923026,10.533001,0.34395,-0.08205
1679998102321,1178090673425179,10.44705,0.22005,-0.015000001
1679998102323,1178090675927275,10.465951,0.26505002,-0.06705
1679998102325,1178090678429429,10.48305,0.32805002,-0.043050002
1679998102327,1178090680931352,10.617001,0.25605002,0.025950002
1679998102329,1178090683433429,10.545,0.23205002,0.052050002
1679998102331,1178090685935660,10.555051,0.27495003,-0.177
1679998102333,1178090688437795,10.584001,0.29895002,-0.052950002
1679998102335,1178090690939872,10.522051,0.26505002,-0.063
1679998102338,1178090693441795,10.48095,0.31800002,-0.031050002
1679998102341,1178090695944179,10.524,0.30105,-0.06705
1679998102343,1178090698446103,10.573951,0.35895002,-0.072000004
1679998102346,1178090700948256,10.6050005,0.30795002,0.00705
1679998102348,1178090703450333,10.49505,0.13800001,-0.024
1679998102351,1178090705952487,10.567051,0.31800002,0.141
1679998102357,1178090708454424,10.548,0.29205,0.093
1679998102357,1178090710956501,10.533001,0.282,0.064050004
1679998102360,1178090713458732,10.486051,0.15495001,-0.075
1679998102362,1178090715960809,10.593,0.17895001,-0.13800001
1679998102363,1178090718462963,10.56,0.39795002,-0.18900001
1679998102366,1178090720964886,10.593,0.31605002,-0.072000004
1679998102368,1178090723467036,10.540951,0.294,-0.13605
1679998102371,1178090725969113,10.549951,0.26805001,-0.12195001
1679998102373,1178090728471266,10.49505,0.25005,-0.20505
1679998102376,1178090730973420,10.498051,0.28005,-0.20805001
1679998102378,1178090733475574,10.512,0.28695002,-0.13605
1679998102381,1178090735977497,10.540951,0.23400001,-0.08205
1679998102384,1178090738479574,10.569,0.26805001,-0.108
1679998102386,1178090740981728,10.48995,0.28905,-0.07005
1679998102388,1178090743483877,10.510051,0.177,0.0
1679998102393,1178090745986031,10.545,0.26505002,0.10695001
1679998102394,1178090748487954,10.533001,0.37305,0.06705
1679998102396,1178090750990112,10.564951,0.26505002,0.17205001
1679998102398,1178090753492265,10.536,0.34395,0.043050002
1679998102401,1178090755994342,10.50195,0.33705002,0.057000004
1679998102403,1178090758496266,10.519051,0.15495001,0.00405
1679998102406,1178090760998419,10.528951,0.22200002,0.01905
1679998102408,1178090763500574,10.62195,0.36405003,-0.09105001
1679998102412,1178090766002651,10.533001,0.32505003,-0.058050003
1679998102414,1178090768504805,10.516951,0.31995,-0.08895
1679998102415,1178090771006959,10.516951,0.31605002,-0.112950005
1679998102419,1178090773508877,10.548,0.23895001,-0.13305001
1679998102422,1178090776010954,10.533001,0.24405001,-0.18900001
1679998102424,1178090778513108,10.476001,0.30105,-0.30105
1679998102427,1178090781015338,10.62705,0.28005,-0.11805001
1679998102430,1178090783517419,10.59105,0.26505002,-0.12195001
1679998102432,1178090786019342,10.488001,0.26505002,0.055050004
1679998102434,1178090788521496,10.569,0.21705002,0.064050004
1679998102436,1178090791023573,10.531051,0.22905001,-0.072000004
1679998102438,1178090793525496,10.510051,0.21300001,0.093
1679998102441,1178090796027891,10.531051,0.29595003,0.17895001
1679998102443,1178090798530045,10.52595,0.27705002,0.069000006
1679998102445,1178090801031968,10.608001,0.23895001,0.09105001
1679998102448,1178090803534045,10.435051,0.17205001,0.025950002
1679998102451,1178090806036199,10.564951,0.36600003,0.097950004
1679998102453,1178090808538116,10.617001,0.30600002,0.079050004
1679998102455,1178090811040270,10.555051,0.25800002,-0.04095
1679998102458,1178090813542423,10.48305,0.30105,0.025950002
1679998102462,1178090816044577,10.555051,0.35205,0.0139500005
1679998102464,1178090818546649,10.528951,0.282,-0.13605
1679998102467,1178090821048572,10.548,0.246,-0.13800001
1679998102470,1178090823550726,10.528951,0.31605002,-0.17400001
1679998102472,1178090826052876,10.573951,0.22005,-0.17400001
1679998102474,1178090828555030,10.50195,0.25005,0.049950004
1679998102476,1178090831057107,10.49505,0.31800002,-0.058050003
1679998102478,1178090833559261,10.476001,0.21300001,-0.04095
1679998102481,1178090836061415,10.464001,0.29895002,0.064050004
1679998102483,1178090838563323,10.498051,0.252,0.043050002
1679998102486,1178090841065400,10.51395,0.186,0.09105001
1679998102488,1178090843567553,10.504951,0.19095,0.069000006
1679998102491,1178090846069707,10.60305,0.26805001,-0.08400001
1679998102493,1178090848571861,10.46205,0.32505003,0.028050002
1679998102496,1178090851073794,10.573951,0.33,0.0019500001
1679998102499,1178090853575948,10.512,0.27705002,-0.12900001
1679998102503,1178090856078025,10.555051,0.24900001,-0.003
1679998102505,1178090858580169,10.56,0.22905001,-0.20295002
1679998102507,1178090861082092,10.5379505,0.22905001,-0.27
1679998102508,1178090863584477,10.545,0.294,-0.19800001
1679998102511,1178090866086400,10.56,0.24900001,-0.15300001
1679998102513,1178090868588477,10.524,0.29895002,-0.21000001
1679998102516,1178090871090621,10.465951,0.28005,-0.18405001
1679998102518,1178090873592544,10.585951,0.32805002,-0.15
1679998102521,1178090876094698,10.533001,0.22905001,-0.13095
1679998102524,1178090878596852,11.082001,-0.16095,0.057000004
1679998102527,1178090881099006,11.71905,-0.76905006,0.35895002
1679998102529,1178090883601102,10.548,-1.7010001,0.64605004
1679998102532,1178090886103256,9.790951,-1.6000501,0.768
1679998102533,1178090888605179,9.39795,-0.50505,0.59595
1679998102538,1178090891107323,9.51795,0.57105005,-0.028950002
1679998102539,1178090893609400,9.54195,0.837,-0.051000003
1679998102544,1178090896111630,9.86505,1.04805,-0.48600003
1679998102545,1178090898613707,10.239,0.81000006,-0.507
1679998102547,1178090901115635,10.419001,0.40800002,-0.68700004
1679998102549,1178090903617789,10.528951,0.41805002,-0.53595
1679998102552,1178090906119943,10.548,0.061950002,-0.20805001
1679998102554,1178090908622020,10.906951,0.41505003,-0.26805001
1679998102556,1178090911123943,10.573951,-0.11805001,0.025950002
1679998102558,1178090913626328,10.74195,0.35595003,0.10305001
1679998102561,1178090916128251,10.732051,0.124050006,0.14805001
1679998102563,1178090918630328,10.49505,-0.10395,0.105000004
1679998102565,1178090921132482,10.420951,0.56100005,0.29700002
1679998102568,1178090923634636,10.732051,0.57105005,-0.079050004
1679998102571,1178090926136789,10.36305,-0.08895,0.08805001
1679998102573,1178090928638712,10.323001,0.081,0.00705
1679998102577,1178090931140866,10.49295,0.04695,-0.072000004
1679998102580,1178090933642943,10.429951,0.31095,-0.036000002
1679998102583,1178090936144866,10.33005,0.60195005,-0.23400001
1679998102585,1178090938647251,10.58895,0.51795,-0.096
1679998102587,1178090941149174,10.693951,0.069000006,-0.22695
1679998102588,1178090943651328,10.681951,0.52305,-0.19305001
1679998102591,1178090946153395,10.75905,0.32505003,-0.21300001
1679998102593,1178090948655549,10.72305,-0.108,-0.24405001
1679998102595,1178090951157472,10.716001,0.034950003,-0.13305001
1679998102598,1178090953659626,10.629001,0.26505002,-0.120000005
1679998102601,1178090956161766,10.584001,0.29895002,-0.19800001
1679998102603,1178090958663920,10.641001,-0.028950002,0.06705
1679998102606,1178090961165997,10.665001,-0.0010500001,-0.003
1679998102608,1178090963668151,10.696051,0.33195,0.00405
1679998102611,1178090966170064,10.809001,0.48900002,0.10695001
1679998102614,1178090968672141,10.60995,0.31305,-0.031050002
1679998102618,1178090971174295,10.533001,-0.003,-0.036000002
1679998102619,1178090973676526,10.516951,0.19605,-0.012
1679998102623,1178090976178597,10.452001,0.31800002,-0.10605001
1679998102625,1178090978680520,10.540951,0.52995,-0.094050005
1679998102627,1178090981182674,10.528951,0.51600003,-0.034050003
1679998102629,1178090983684827,10.476001,0.39795002,0.00405
1679998102631,1178090986186904,10.48305,-0.171,-0.08895
1679998102633,1178090988689058,10.531051,0.37500003,-0.09105001
1679998102636,1178090991191212,10.383,0.16695,0.11895001
1679998102638,1178090993693135,10.33905,0.057000004,-0.01695
1679998102641,1178090996195289,10.435051,-0.20895001,0.021000002
1679998102643,1178090998697366,10.5379505,0.53505003,0.021000002
1679998102646,1178091001199530,10.416,-0.13005,0.094950005
1679998102648,1178091003701453,10.368,0.23895001,0.009000001
1679998102651,1178091006203607,10.347,-0.00795,0.076050006
1679998102655,1178091008705756,10.452001,0.18405001,0.016050002
1679998102657,1178091011207832,10.36305,0.094950005,-0.060000002
1679998102659,1178091013709986,10.167001,-0.01695,-0.034050003
1679998102662,1178091016211909,10.5070505,0.37095,-0.036000002
1679998102664,1178091018714063,10.561951,0.86100006,-0.024
1679998102666,1178091021216140,10.63395,0.24405001,0.00705
1679998102668,1178091023718294,10.512,0.08805001,-0.18900001
1679998102671,1178091026220448,10.533001,0.20505,-0.15705001
1679998102674,1178091028722602,10.75605,0.19605,-0.25605002
1679998102677,1178091031224525,10.67205,0.20295002,-0.186
1679998102679,1178091033726602,10.64805,-0.01695,-0.26295
1679998102681,1178091036228756,10.67205,0.25800002,-0.094050005
1679998102684,1178091038730909,10.516951,0.14295001,-0.079050004
1679998102686,1178091041233082,10.311001,-0.04605,-0.072000004
1679998102688,1178091043735005,10.531051,0.14295001,0.109950006
1679998102694,1178091046237159,10.276951,0.06705,0.109950006
1679998102695,1178091048739236,10.797001,0.40095,0.23895001
1679998102696,1178091051241405,10.60095,0.37695003,0.08595
1679998102699,1178091053743328,10.65795,0.41805002,-0.015000001
1679998102702,1178091056245713,10.88595,0.432,-0.024
1679998102705,1178091058747636,10.63605,-0.027,-0.14805001
1679998102706,1178091061249713,10.644,0.27495003,-0.162
1679998102709,1178091063751857,10.716001,0.57105005,-0.22695
1679998102712,1178091066254010,10.569,0.32805002,-0.16005
1679998102713,1178091068755934,10.6050005,0.30405003,-0.43005002
1679998102716,1178091071258087,10.43805,0.33195,-0.24405001
1679998102719,1178091073760241,10.50195,0.73095006,-0.24105
1679998102723,1178091076262385,10.239,0.51795,-0.19095
1679998102724,1178091078764462,10.40205,0.513,-0.18405001
1679998102726,1178091081266385,10.246051,0.38895002,0.061950002
1679998102730,1178091083768544,10.65795,0.41805002,-0.09105001
1679998102733,1178091086270621,10.596001,0.177,0.13905
1679998102735,1178091088772852,10.59105,-0.01995,-0.015000001
1679998102736,1178091091274929,10.57695,-0.08400001,0.064050004
1679998102738,1178091093777082,10.452001,0.016050002,-0.17400001
1679998102742,1178091096279006,10.476001,0.18405001,-0.13800001
1679998102744,1178091098781082,10.359,0.055050004,-0.064950004
1679998102746,1178091101283236,10.323001,0.08805001,-0.12195001
1679998102748,1178091103785390,10.713,0.66405004,-0.31305
1679998102751,1178091106287544,10.31595,0.28905,-0.087000005
1679998102753,1178091108789448,10.392,0.24105,-0.12900001
1679998102756,1178091111291602,10.561951,0.30600002,-0.35595003
1679998102758,1178091113793679,10.2960005,-0.04095,-0.186
1679998102761,1178091116295833,10.597951,0.549,-0.051000003
1679998102763,1178091118797760,10.452001,0.45105,-0.036000002
1679998102767,1178091121300144,10.581,0.37905002,-0.14805001
1679998102776,1178091123802068,10.57905,-0.13005,-0.060000002
1679998102777,1178091126304221,10.878,0.70005006,-0.04605
1679998102777,1178091128806313,10.73505,0.504,0.141
1679998102777,1178091131308467,10.641001,0.35205,0.055050004
1679998102779,1178091133810390,10.557,0.44895002,-0.012
1679998102782,1178091136312544,10.64805,0.13605,0.081
1679998102784,1178091138814698,10.65795,0.31095,0.21300001
1679998102786,1178091141316775,10.584001,0.44205,0.17205001
1679998102788,1178091143818698,10.561951,0.41295,0.052050002
1679998102791,1178091146320852,10.564951,0.42000002,-0.003
1679998102793,1178091148823236,10.656,0.45105,0.040050004
1679998102796,1178091151325190,10.677,0.50100005,0.14595
1679998102799,1178091153827266,10.555051,0.45600003,0.033
1679998102801,1178091156329420,10.528951,0.36795002,-0.034050003
1679998102805,1178091158831588,10.773001,0.74295,-0.087000005
1679998102807,1178091161333511,10.47795,0.55905,-0.177
1679998102808,1178091163835588,10.62405,0.112050004,-0.21495001
1679998102812,1178091166337819,10.540951,0.36105,-0.165
1679998102814,1178091168839896,10.60305,0.11400001,-0.16005
1679998102816,1178091171342069,10.821,0.43005002,-0.20295002
1679998102819,1178091173843992,10.555051,0.112050004,-0.18405001
1679998102823,1178091176346146,10.320001,-0.09900001,-0.20505
1679998102824,1178091178848223,10.45695,-0.18705001,-0.04095
1679998102826,1178091181350381,10.399051,-0.003,0.0139500005
1679998102828,1178091183852535,10.435051,0.6,-0.37305
1679998102833,1178091186354458,10.225051,-0.24000001,-0.06705
1679998102834,1178091188856612,10.5070505,0.53505003,-0.126
1679998102838,1178091191358655,10.408951,0.19305001,-0.162
1679998102839,1178091193860809,10.308001,-0.010050001,0.055050004
1679998102844,1178091196362732,10.488001,-0.04095,-0.07005
1679998102845,1178091198865117,10.56,0.055050004,-0.01695
1679998102847,1178091201367040,10.05405,0.045,-0.06705
1679998102848,1178091203869223,10.68,1.05495,0.08805001
1679998102851,1178091206371300,10.5070505,0.51000005,-0.094050005
1679998102853,1178091208873223,10.677,0.58500004,-0.08400001
1679998102856,1178091211375377,10.6050005,0.41505003,-0.00795
1679998102859,1178091213877540,10.795051,0.47505003,0.10695001
1679998102862,1178091216379694,10.78695,0.78195006,-0.07005
1679998102864,1178091218881771,10.64595,0.48495004,-0.08895
1679998102866,1178091221383925,10.75605,0.37095,0.10305001
1679998102868,1178091223885828,10.76805,0.492,0.00405
1679998102873,1178091226387982,10.71105,0.786,-0.048
1679998102874,1178091228890059,10.864051,0.79095006,-0.01995
1679998102876,1178091231392290,10.675051,0.45600003,-0.0049500004
1679998102880,1178091233894367,10.76805,0.30795002,-0.02205
1679998102883,1178091236396520,10.552951,0.21300001,0.033
1679998102885,1178091238898444,10.59105,0.48495004,-0.024
1679998102887,1178091241400597,10.555051,0.80295,0.060000002
1679998102889,1178091243902674,10.227,0.99000007,-0.028950002
1679998102892,1178091246404857,10.110001,0.28005,0.048
1679998102893,1178091248907011,10.57695,0.27495003,-0.039
1679998102897,1178091251408934,10.738951,0.29895002,0.07395
1679998102898,1178091253911088,10.692,0.40305,0.09105001
1679998102902,1178091256413175,10.62705,0.28905,0.11505
1679998102904,1178091258915329,10.56,0.31605002,0.24405001
1679998102906,1178091261417252,10.62705,0.28905,0.093
1679998102908,1178091263919406,10.584001,0.34695002,-0.039
1679998102911,1178091266421559,10.486051,0.31995,-0.12195001
1679998102914,1178091268923713,10.543051,0.33705002,-0.072000004
1679998102917,1178091271425790,10.567051,0.25005,-0.15705001
1679998102919,1178091273927944,10.56,0.22005,-0.17205001
1679998102924,1178091276428933,10.552951,0.29895002,-0.08895
1679998102924,1178091278929896,10.48305,0.23400001,-0.16695
1679998102927,1178091281434204,10.5070505,0.32505003,-0.14505
1679998102929,1178091283936358,10.46205,0.35595003,-0.063
1679998102933,1178091286438435,10.617001,0.24405001,-0.08205
1679998102934,1178091288940358,10.519051,0.27705002,-0.18405001
1679998102936,1178091291442488,10.46895,0.28905,-0.11100001
1679998102938,1178091293944641,10.61295,0.33495003,-0.13605
1679998102942,1178091296446718,10.524,0.29895002,-0.29205
1679998102944,1178091298948872,10.524,0.31995,-0.108
1679998102946,1178091301451026,10.510051,0.28005,-0.177
1679998102948,1178091303952949,10.552951,0.34695002,-0.063
1679998102951,1178091306455026,10.504951,0.23895001,-0.051000003
1679998102955,1178091308957180,10.569,0.37695003,-0.072000004
1679998102957,1178091311459334,10.584001,0.30405003,-0.031050002
1679998102960,1178091313961488,10.45005,0.294,0.021000002
1679998102963,1178091316463411,10.45695,0.261,0.097950004
1679998102964,1178091318965565,10.46895,0.31800002,0.055050004
1679998102966,1178091321467718,10.519051,0.32805002,0.043050002
1679998102968,1178091323969780,10.5379505,0.22500001,0.14595
1679998102972,1178091326471703,10.617001,0.261,0.13095
1679998102973,1178091328973857,10.45005,0.23700002,0.15300001
1679998102977,1178091331476011,10.584001,0.25800002,0.20595
1679998102979,1178091333978064,10.524,0.29895002,0.06705
1679998102982,1178091336480218,10.57905,0.22005,0.093
1679998102984,1178091338982372,10.59105,0.165,0.040050004
1679998102986,1178091341484295,10.48995,0.32295,-0.00795
1679998102989,1178091343986372,10.61295,0.31305,-0.028950002
1679998102993,1178091346488526,10.464001,0.28905,-0.052950002
1679998102995,1178091348990756,10.57905,0.30795002,-0.027
1679998102997,1178091351492833,10.540951,0.23895001,-0.028950002
1679998102999,1178091353994756,10.59105,0.342,-0.076950006
1679998103001,1178091356496848,10.51395,0.24900001,-0.13095
1679998103004,1178091358999079,10.500001,0.31305,-0.075
1679998103006,1178091361501233,10.56,0.354,-0.13800001
1679998103009,1178091364003310,10.476001,0.27495003,-0.126
1679998103011,1178091366505285,10.561951,0.30795002,0.00705
1679998103014,1178091369007439,10.61295,0.30795002,0.00705
1679998103016,1178091371509516,10.548,0.34005,0.03795
1679998103019,1178091374011439,10.49295,0.29895002,-0.058050003
1679998103022,1178091376513810,10.516951,0.21300001,-0.052950002
1679998103024,1178091379015963,10.46895,0.28005,-0.15
1679998103026,1178091381517886,10.569,0.30795002,-0.165
1679998103030,1178091384019948,10.581,0.342,-0.13800001
1679998103033,1178091386522102,10.564951,0.18195,-0.11100001
1679998103035,1178091389024256,10.561951,0.25605002,-0.094050005
1679998103036,1178091391526410,10.569,0.22005,-0.075
1679998103038,1178091394028333,10.629001,0.23400001,-0.14805001
1679998103041,1178091396530483,10.498051,0.29895002,-0.120000005
1679998103044,1178091399032560,10.498051,0.35205,-0.21300001
1679998103046,1178091401534714,10.519051,0.25005,-0.23895001
1679998103049,1178091404036637,10.569,0.29595003,-0.17895001
1679998103051,1178091406538824,10.512,0.22005,-0.186
1679998103053,1178091409040977,10.540951,0.342,-0.22005
1679998103056,1178091411543054,10.596001,0.273,-0.26295
1679998103059,1178091414045208,10.504951,0.32295,-0.08205
1679998103062,1178091416547362,10.52595,0.33195,0.040050004
1679998103064,1178091419049285,10.549951,0.29205,0.201
1679998103068,1178091421551362,10.51395,0.27705002,0.10305001
1679998103071,1178091424053593,10.557,0.26805001,0.12900001
1679998103072,1178091426555670,10.561951,0.23895001,0.141
1679998103074,1178091429057829,10.555051,0.28695002,0.15495001
1679998103076,1178091431559752,10.548,0.30405003,0.25800002
1679998103079,1178091434061906,10.4740505,0.282,0.08595
1679998103081,1178091436563983,10.540951,0.24105,0.012
1679998103084,1178091439066145,10.549951,0.25005,0.00405
1679998103086,1178091441568299,10.585951,0.33495003,-0.012
1679998103089,1178091444070453,10.567051,0.31305,-0.010050001
1679998103091,1178091446572376,10.569,0.31095,-0.01695
1679998103094,1178091449074410,10.486051,0.25005,-0.012
1679998103096,1178091451576564,10.5720005,0.26805001,0.052050002
1679998103099,1178091454078718,10.57695,0.34395,-0.024
1679998103102,1178091456580641,10.62195,0.31605002,-0.076950006
1679998103105,1178091459082805,10.567051,0.26505002,-0.08895
1679998103107,1178091461584959,10.561951,0.30105,-0.11805001
1679998103110,1178091464087035,10.543051,0.31095,-0.060000002
1679998103113,1178091466589189,10.49505,0.282,-0.13605
1679998103114,1178091469091112,10.524,0.28695002,-0.027
1679998103116,1178091471593280,10.46205,0.273,-0.01995
1679998103118,1178091474095434,10.561951,0.29895002,-0.120000005
1679998103121,1178091476597511,10.49505,0.29895002,-0.162
1679998103124,1178091479099665,10.49505,0.23700002,-0.060000002
1679998103127,1178091481601588,10.548,0.273,-0.11805001
1679998103130,1178091484103742,10.59105,0.20295002,-0.13305001
1679998103133,1178091486605819,10.540951,0.22200002,-0.079050004
1679998103134,1178091489107973,10.48995,0.25005,-0.11100001
1679998103136,1178091491610126,10.519051,0.20805001,-0.19605
1679998103138,1178091494112280,10.512,0.21300001,-0.12900001
1679998103144,1178091496614203,10.5379505,0.30795002,-0.055050004
1679998103145,1178091499116357,10.533001,0.26805001,-0.19605
1679998103147,1178091501618468,10.536,0.32295,-0.14505
1679998103151,1178091504120622,10.59105,0.27495003,-0.177
1679998103153,1178091506622545,10.629001,0.33495003,-0.063
1679998103155,1178091509124930,10.552951,0.294,-0.058050003
1679998103156,1178091511626853,10.57695,0.23205002,-0.11100001
1679998103159,1178091514128973,10.486051,0.33495003,-0.048
1679998103162,1178091516631050,10.548,0.32295,-0.108
1679998103164,1178091519132973,10.519051,0.19305001,-0.19095
1679998103166,1178091521635127,10.522051,0.25005,-0.11100001
1679998103169,1178091524137511,10.46895,0.22200002,-0.13605
1679998103171,1178091526639434,10.50195,0.273,-0.20295002
1679998103173,1178091529141511,10.50195,0.23700002,-0.112950005
1679998103177,1178091531643665,10.49505,0.24900001,-0.060000002
1679998103180,1178091534145574,10.465951,0.25605002,-0.08895
1679998103184,1178091536647728,10.452001,0.282,-0.13605
1679998103185,1178091539149805,10.524,0.27705002,0.00405
1679998103187,1178091541652036,10.5070505,0.22005,-0.08895
1679998103190,1178091544154113,10.435051,0.28905,-0.09900001
1679998103193,1178091546656031,10.5379505,0.246,-0.201
1679998103194,1178091549158185,10.488001,0.19305001,-0.094050005
1679998103196,1178091551660338,10.453951,0.31605002,-0.15705001
1679998103199,1178091554162415,10.48095,0.26295,-0.039
1679998103203,1178091556664550,10.569,0.20505,-0.10305001
1679998103204,1178091559166704,10.549951,0.29595003,-0.064950004
1679998103207,1178091561668627,10.531051,0.19800001,-0.051000003
1679998103209,1178091564170781,10.597951,0.31605002,-0.21000001
1679998103211,1178091566672848,10.452001,0.22695,-0.124050006
1679998103214,1178091569175002,10.488001,0.35205,-0.18405001
1679998103218,1178091571676925,10.557,0.19095,-0.15300001
1679998103221,1178091574179079,10.581,0.34905002,-0.22200002
1679998103223,1178091576681228,10.56,0.27705002,-0.15495001
1679998103227,1178091579183304,10.555051,0.30105,-0.09105001
1679998103228,1178091581685458,10.555051,0.19305001,-0.177
1679998103230,1178091584187612,10.46895,0.28905,-0.058050003
1679998103233,1178091586689535,10.585951,0.28005,-0.060000002
1679998103236,1178091589191660,10.60305,0.22005,-0.09900001
1679998103238,1178091591693814,10.45905,0.28005,-0.015000001
1679998103239,1178091594195891,10.561951,0.201,-0.11805001
1679998103242,1178091596697814,10.533001,0.23205002,-0.048
1679998103244,1178091599199968,10.48095,0.24105,-0.12195001
1679998103247,1178091601702328,10.545,0.246,-0.10605001
1679998103249,1178091604204252,10.584001,0.31095,-0.23895001
1679998103252,1178091606706328,10.45905,0.246,-0.22695
1679998103255,1178091609208482,10.488001,0.33495003,-0.24405001
1679998103258,1178091611710376,10.533001,0.294,-0.22200002
1679998103260,1178091614212530,10.464001,0.35895002,-0.26295
1679998103263,1178091616714607,10.528951,0.282,-0.201
1679998103264,1178091619216838,10.584001,0.19305001,-0.25005
1679998103266,1178091621718915,10.57695,0.26505002,-0.19305001
1679998103270,1178091624221089,10.545,0.31800002,-0.19800001
1679998103272,1178091626723012,10.552951,0.30600002,-0.18900001
1679998103274,1178091629225166,10.64595,0.27,-0.186
1679998103276,1178091631727243,10.498051,0.19800001,-0.15
1679998103279,1178091634229396,10.57695,0.32805002,-0.076950006
1679998103282,1178091636731554,10.524,0.22905001,0.00705
1679998103284,1178091639233477,10.543051,0.33705002,-0.060000002
1679998103286,1178091641735631,10.498051,0.24900001,0.08295
1679998103289,1178091644237708,10.651051,0.30795002,0.036000002
1679998103294,1178091646739863,10.46205,0.27705002,0.064050004
1679998103295,1178091649241786,10.552951,0.32805002,0.165
1679998103297,1178091651744171,10.557,0.32505003,0.061950002
1679998103299,1178091654246094,10.573951,0.246,0.00405
1679998103302,1178091656748257,10.464001,0.28905,-0.186
1679998103304,1178091659250334,10.531051,0.252,-0.072000004
1679998103306,1178091661752487,10.545,0.26295,-0.186
1679998103310,1178091664254411,10.57905,0.26295,-0.22395001
1679998103312,1178091666756564,10.528951,0.17400001,-0.29595003
1679998103314,1178091669258718,10.48995,0.31095,-0.23205002
1679998103316,1178091671760872,10.531051,0.26505002,-0.124050006
1679998103319,1178091674262949,10.48095,0.342,-0.20295002
1679998103322,1178091676764872,10.567051,0.29895002,-0.25605002
1679998103324,1178091679267016,10.528951,0.27,-0.16695
1679998103326,1178091681769093,10.504951,0.25605002,-0.19605
1679998103331,1178091684271324,10.540951,0.31305,0.0
1679998103333,1178091686773401,10.524,0.23895001,-0.13605
1679998103334,1178091689275569,10.510051,0.36405003,-0.087000005
1679998103336,1178091691777493,10.62195,0.27495003,-0.108
1679998103339,1178091694279569,10.581,0.25605002,0.03795
1679998103343,1178091696781723,10.500001,0.32295,-0.036000002
1679998103344,1178091699283877,10.62405,0.32505003,-0.012
1679998103346,1178091701786026,10.510051,0.28905,-0.14295001
1679998103349,1178091704287949,10.48095,0.25800002,-0.162
1679998103352,1178091706790103,10.56,0.282,-0.13800001
1679998103354,1178091709292257,10.533001,0.24900001,-0.09105001
1679998103357,1178091711794334,10.51395,0.21300001,-0.126
1679998103359,1178091714296257,10.564951,0.25800002,-0.13605
1679998103361,1178091716798641,10.569,0.22200002,-0.075
1679998103364,1178091719300564,10.46205,0.21495001,-0.12195001
1679998103368,1178091721802713,10.488001,0.36795002,0.0139500005
1679998103371,1178091724304790,10.528951,0.33495003,0.069000006
1679998103373,1178091726806944,10.429951,0.33705002,0.10305001
1679998103375,1178091729308867,10.435051,0.34695002,0.064050004
1679998103377,1178091731810944,10.59105,0.22200002,0.112050004
1679998103380,1178091734313194,10.573951,0.22905001,0.028050002
1679998103383,1178091736815348,10.476001,0.31800002,-0.08400001
1679998103384,1178091739317425,10.519051,0.32805002,-0.051000003
1679998103386,1178091741819348,10.49505,0.30405003,-0.010050001
1679998103390,1178091744321517,10.528951,0.31995,0.024
1679998103393,1178091746823594,10.52595,0.30795002,-0.04605
1679998103404,1178091749325517,10.56,0.28905,-0.14505
1679998103404,1178091751827901,10.504951,0.246,-0.11100001
1679998103404,1178091754330055,10.50195,0.246,-0.051000003
1679998103404,1178091756831963,10.465951,0.282,-0.04605
1679998103405,1178091759334040,10.617001,0.30600002,-0.11100001
1679998103407,1178091761836194,10.51395,0.32805002,-0.126
1679998103410,1178091764338348,10.52595,0.25800002,-0.14505
1679998103412,1178091766840502,10.564951,0.23895001,-0.0049500004
1679998103414,1178091769342425,10.49505,0.23205002,-0.112950005
1679998103416,1178091771844579,10.536,0.273,-0.16695
1679998103419,1178091774346656,10.533001,0.33705002,-0.15
1679998103423,1178091776848819,10.486051,0.28695002,-0.23400001
1679998103425,1178091779350742,10.536,0.28395,-0.19800001
1679998103427,1178091781852896,10.476001,0.27,-0.16005
1679998103430,1178091784355050,10.57905,0.28695002,-0.10095
1679998103432,1178091786857223,10.548,0.252,-0.17205001
1679998103434,1178091789359300,10.5379505,0.37095,-0.162
1679998103436,1178091791861454,10.52595,0.31800002,-0.124050006
1679998103440,1178091794363377,10.561951,0.177,-0.064950004
