system_ts_ms, sensor_ts_ns, gyrX, gyrY, gyrZ
1679930055437,1110043789860281,-0.0268125,-0.0925375,0.0163625
1679930055437,1110043792362358,-0.0237875,-0.091575,0.02035
1679930055439,1110043794864286,-0.0177375,-0.0796125,0.0193875
1679930055441,1110043797366363,-0.0127875,-0.06765,0.0144375
1679930055444,1110043799868286,-0.0067375,-0.0545875,0.0154
1679930055446,1110043802370440,-0.0017875,-0.045649998,0.0114124995
1679930055457,1110043804872301,0.0042625,-0.034649998,0.01045
1679930055457,1110043807374686,0.005225,-0.0246125,0.00935
1679930055457,1110043809876609,0.005225,-0.01155,0.0053625
1679930055457,1110043812378686,0.005225,-5.5E-4,0.001375
1679930055459,1110043814880609,0.0061875,0.0154,4.125E-4
1679930055461,1110043817382690,0.0061875,0.02035,-0.003575
1679930055466,1110043819884613,0.0061875,0.032449998,-0.0075625
1679930055468,1110043822386997,0.005225,0.0493625,-0.0056375
1679930055470,1110043824888878,0.005225,0.0523875,-0.004675
1679930055473,1110043827391031,0.0031625,0.0554125,-0.0066
1679930055474,1110043829892954,0.0012375,0.062425,-0.0086624995
1679930055477,1110043832395031,0.0022,0.06435,-0.003575
1679930055484,1110043834896935,0.0022,0.0664125,-0.00165
1679930055484,1110043837399012,-8.25E-4,0.0683375,-0.004675
1679930055486,1110043839901166,0.0012375,0.06545,-0.003575
1679930055487,1110043842403089,0.0022,0.067375,0.0023375
1679930055490,1110043844905161,2.75E-4,0.0694375,0.0034375
1679930055492,1110043847407315,0.0012375,0.0683375,0.0034375
1679930055494,1110043849909238,2.75E-4,0.0664125,0.0053625
1679930055501,1110043852411315,0.0022,0.0664125,0.0023375
1679930055501,1110043854913238,0.0031625,0.0633875,0.0044
1679930055503,1110043857415392,2.75E-4,0.062425,0.00935
1679930055505,1110043859917469,-8.25E-4,0.0594,0.0083875
1679930055508,1110043862419392,-0.00275,0.0554125,0.006325
1679930055510,1110043864921469,-0.005775,0.05335,0.0053625
1679930055512,1110043867423623,-0.00275,0.0474375,0.0044
1679930055518,1110043869925546,-0.0017875,0.0394625,0.0044
1679930055518,1110043872427700,-0.005775,0.0383625,0.0044
1679930055520,1110043874929777,-0.005775,0.0284625,0.006325
1679930055523,1110043877431666,-0.0097624995,0.0264,0.00935
1679930055525,1110043879933743,-0.0078375,0.023375,0.007425
1679930055527,1110043882435897,-0.0067375,0.0174625,0.007425
1679930055530,1110043884937820,-0.0088,0.01045,0.0083875
1679930055534,1110043887439902,-0.0088,4.125E-4,0.00935
1679930055535,1110043889941825,-0.0097624995,-0.0075625,0.01045
1679930055537,1110043892443902,-0.011825,-0.013612499,0.0133375
1679930055541,1110043894945825,-0.01375,-0.0166375,0.0133375
1679930055543,1110043897448008,-0.01375,-0.0196625,0.0144375
1679930055544,1110043899950084,-0.014712499,-0.0246125,0.0154
1679930055551,1110043902452238,-0.0127875,-0.031625,0.0163625
1679930055551,1110043904954161,-0.0127875,-0.034649998,0.0154
1679930055552,1110043907456238,-0.016775,-0.036575,0.0133375
1679930055554,1110043909958146,-0.0188375,-0.042625,0.0154
1679930055557,1110043912460223,-0.016775,-0.04455,0.0133375
1679930055560,1110043914962146,-0.016775,-0.04455,0.0133375
1679930055562,1110043917464531,-0.0177375,-0.04455,0.0114124995
1679930055570,1110043919966373,-0.0177375,-0.04455,0.01045
1679930055570,1110043922468527,-0.0158125,-0.045649998,0.012375
1679930055570,1110043924970450,-0.0127875,-0.0466125,0.01045
1679930055572,1110043927472527,-0.0127875,-0.045649998,0.0083875
1679930055575,1110043929974459,-0.016775,-0.042625,0.00935
1679930055578,1110043932476613,-0.0158125,-0.0416625,0.0083875
1679930055584,1110043934978690,-0.01375,-0.0416625,0.007425
1679930055585,1110043937480844,-0.0158125,-0.0396,0.0023375
1679930055586,1110043939982690,-0.01375,-0.0386375,0.0053625
1679930055588,1110043942484849,-0.010725,-0.0356125,0.001375
1679930055590,1110043944986772,-0.0097624995,-0.03355,-5.5E-4
1679930055592,1110043947488849,-0.014712499,-0.0325875,0.001375
1679930055594,1110043949991003,-0.01375,-0.0286,0.0034375
1679930055601,1110043952492912,-0.01375,-0.02255,0.0023375
1679930055602,1110043954994989,-0.011825,-0.0215875,0.0023375
1679930055603,1110043957496912,-0.011825,-0.0185625,0.0023375
1679930055604,1110043959998989,-0.0097624995,-0.0166375,0.0023375
1679930055607,1110043962501143,-0.0078375,-0.013612499,0.0023375
1679930055610,1110043965002989,-0.0078375,-0.01265,0.006325
1679930055613,1110043967505219,-0.0097624995,-0.009625,0.006325
1679930055617,1110043970007296,-0.0088,-0.0066,0.007425
1679930055618,1110043972509204,-0.0097624995,-0.00165,0.0083875
1679930055620,1110043975011281,-0.0078375,0.0023375,0.00935
1679930055622,1110043977513204,-0.0078375,4.125E-4,0.0083875
1679930055625,1110043980015281,-0.005775,0.001375,0.0114124995
1679930055628,1110043982517507,-0.0078375,0.0044,0.01045
1679930055633,1110043985019584,-0.011825,0.007425,0.00935
1679930055634,1110043987521430,-0.0097624995,0.01045,0.0083875
1679930055635,1110043990023584,-0.0067375,0.007425,0.0133375
1679930055637,1110043992525507,-0.0067375,0.0114124995,0.0133375
1679930055640,1110043995027599,-0.005775,0.0163625,0.00935
1679930055642,1110043997529522,-0.0067375,0.018424999,0.01045
1679930055645,1110044000031676,-0.0078375,0.018424999,0.012375
1679930055650,1110044002533830,-0.0088,0.0193875,0.0114124995
1679930055651,1110044005035695,-0.0088,0.02145,0.01045
1679930055654,1110044007537849,-0.005775,0.0163625,0.0133375
1679930055655,1110044010039926,-0.0067375,0.0193875,0.01045
1679930055657,1110044012541849,-0.0078375,0.0224125,0.01045
1679930055660,1110044015043921,-0.0048125,0.0193875,0.0133375
1679930055662,1110044017546075,-0.00275,0.0193875,0.012375
1679930055667,1110044020047998,-0.0048125,0.018424999,0.0114124995
1679930055668,1110044022550152,-0.0048125,0.0163625,0.01045
1679930055671,1110044025051998,-0.005775,0.02035,0.012375
1679930055673,1110044027554152,-0.0048125,0.0174625,0.0133375
1679930055675,1110044030056229,-0.0048125,0.018424999,0.01045
1679930055677,1110044032558382,-0.00275,0.0174625,0.0114124995
1679930055680,1110044035060306,-8.25E-4,0.0144375,0.0114124995
1679930055686,1110044037562368,-0.0048125,0.012375,0.0083875
1679930055686,1110044040064292,-0.00275,0.01045,0.01045
1679930055687,1110044042566445,-0.00275,0.00935,0.00935
1679930055691,1110044045068292,-8.25E-4,0.012375,0.0083875
1679930055693,1110044047570459,-8.25E-4,0.012375,0.01045
1679930055694,1110044050072613,-0.00275,0.0064625,0.007425
1679930055701,1110044052574690,-0.0017875,0.0053625,0.007425
1679930055702,1110044055076613,-0.0048125,0.007425,0.007425
1679930055702,1110044057578690,-0.0017875,0.007425,0.006325
1679930055705,1110044060080613,-0.0048125,0.0064625,0.007425
1679930055708,1110044062582690,-0.005775,0.0053625,0.007425
1679930055711,1110044065084844,-0.005775,0.0044,0.0044
1679930055713,1110044067586998,-0.005775,0.0053625,0.006325
1679930055717,1110044070088839,-0.0017875,0.0034375,0.006325
1679930055718,1110044072590993,-0.0048125,0.0034375,0.0083875
1679930055722,1110044075092916,-0.0067375,-0.003575,0.006325
1679930055723,1110044077595070,-0.0017875,-5.5E-4,0.0083875
1679930055725,1110044080097152,-0.0017875,-0.00165,0.00935
1679930055728,1110044082599075,-0.0017875,-0.0045375,0.00935
1679930055736,1110044085101152,-8.25E-4,-0.003575,0.00935
1679930055740,1110044087603075,-8.25E-4,-0.0066,0.0114124995
1679930055741,1110044090105152,2.75E-4,-0.003575,0.012375
1679930055743,1110044092607392,2.75E-4,-0.0026125,0.007425
1679930055744,1110044095109469,2.75E-4,-0.003575,0.0114124995
1679930055746,1110044097611392,-8.25E-4,-0.0045375,0.01045
1679930055747,1110044100113469,-0.00275,-0.0045375,0.0083875
1679930055748,1110044102615372,-0.005775,-0.0066,0.007425
1679930055755,1110044105117449,-0.0067375,-0.0056375,0.0083875
1679930055756,1110044107619372,-0.005775,-0.0056375,0.007425
1679930055757,1110044110121526,-0.0067375,-0.0056375,0.006325
1679930055758,1110044112623588,-0.0067375,-0.003575,0.0044
1679930055760,1110044115125512,-0.005775,-0.0045375,0.0053625
1679930055762,1110044117627588,-0.005775,-0.003575,0.0053625
1679930055766,1110044120129742,-0.00275,-0.0056375,0.006325
1679930055767,1110044122631674,-0.0078375,-0.0056375,0.006325
1679930055770,1110044125133828,-0.00275,-0.003575,0.0053625
1679930055773,1110044127635905,-0.005775,-0.0026125,0.006325
1679930055775,1110044130137828,-0.0048125,4.125E-4,0.00935
1679930055777,1110044132639982,-0.005775,-0.0026125,0.0083875
1679930055780,1110044135141823,-0.00275,-0.00165,0.01045
1679930055785,1110044137643900,-0.0017875,-0.0026125,0.00935
1679930055785,1110044140146054,-0.0048125,0.001375,0.01045
1679930055788,1110044142648204,-0.0017875,-5.5E-4,0.0114124995
1679930055790,1110044145150127,-0.00275,0.0034375,0.01045
1679930055792,1110044147652204,-0.0017875,0.0023375,0.01045
1679930055795,1110044150154127,-0.00275,0.0023375,0.00935
1679930055800,1110044152656204,-0.005775,0.0044,0.00935
1679930055801,1110044155158127,-0.0067375,0.0034375,0.00935
1679930055804,1110044157660281,-0.0088,0.0034375,0.0083875
1679930055805,1110044160162435,-0.0088,0.0023375,0.006325
1679930055807,1110044162664512,-0.0088,0.0044,0.0044
1679930055810,1110044165166425,-0.0078375,0.0034375,0.0053625
1679930055812,1110044167668502,-0.0078375,0.0044,0.006325
1679930055817,1110044170170425,-0.0078375,0.0034375,0.0044
1679930055817,1110044172672502,-0.010725,-0.00165,0.0044
1679930055820,1110044175174651,-0.010725,4.125E-4,0.0044
1679930055824,1110044177676574,-0.010725,-0.0026125,0.0053625
1679930055825,1110044180178727,-0.010725,-0.00165,0.0053625
1679930055828,1110044182680574,-0.011825,-0.00165,0.0044
1679930055831,1110044185182727,-0.0127875,-0.0045375,0.0034375
1679930055832,1110044187684804,-0.0127875,-0.003575,0.001375
1679930055835,1110044190186727,-0.011825,-0.0056375,0.0044
1679930055837,1110044192688881,-0.010725,-0.0026125,0.0053625
1679930055841,1110044195190963,-0.011825,-0.0075625,0.0044
1679930055843,1110044197692886,-0.011825,-0.009625,0.0053625
1679930055845,1110044200195040,-0.010725,-0.0086624995,0.0034375
1679930055847,1110044202696886,-0.01375,-0.0075625,0.0044
1679930055850,1110044205199040,-0.0127875,-0.009625,0.0034375
1679930055853,1110044207701126,-0.0127875,-0.01265,0.0034375
1679930055856,1110044210203280,-0.014712499,-0.01155,0.0034375
1679930055858,1110044212705203,-0.014712499,-0.009625,0.001375
1679930055860,1110044215207280,-0.016775,-0.009625,4.125E-4
1679930055863,1110044217709189,-0.0158125,-0.0086624995,-5.5E-4
1679930055865,1110044220211266,-0.014712499,-0.009625,4.125E-4
1679930055869,1110044222713420,-0.016775,-0.0066,-0.00165
1679930055871,1110044225215574,-0.0188375,-0.003575,-0.004675
1679930055874,1110044227717482,-0.0177375,-0.0045375,-0.003575
1679930055875,1110044230219559,-0.0177375,-0.0066,-0.00165
1679930055879,1110044232721482,-0.0177375,-0.0045375,-5.5E-4
1679930055882,1110044235223559,-0.0177375,4.125E-4,4.125E-4
1679930055883,1110044237725478,-0.0198,-0.00165,0.0023375
1679930055886,1110044240227555,-0.016775,-5.5E-4,-5.5E-4
1679930055887,1110044242729709,-0.0188375,-0.0045375,0.001375
1679930055890,1110044245231862,-0.0158125,-0.003575,0.0034375
1679930055892,1110044247733786,-0.021724999,-0.0026125,4.125E-4
1679930055895,1110044250235842,-0.0207625,0.0023375,0.0023375
1679930055897,1110044252737766,-0.0207625,0.0044,0.001375
1679930055900,1110044255239842,-0.0188375,0.0044,0.0034375
1679930055902,1110044257741766,-0.0207625,0.001375,0.007425
1679930055905,1110044260243895,-0.021724999,0.001375,0.006325
1679930055908,1110044262745972,-0.0198,0.0034375,0.007425
1679930055911,1110044265247895,-0.0207625,0.0023375,0.0083875
1679930055913,1110044267749972,-0.0207625,0.007425,0.007425
1679930055917,1110044270252117,-0.021724999,0.00935,0.0044
1679930055919,1110044272754040,-0.022824999,0.007425,0.0044
1679930055924,1110044275256194,-0.021724999,0.0133375,0.006325
1679930055924,1110044277758271,-0.0207625,0.0114124995,0.0034375
1679930055927,1110044280260198,-0.022824999,0.0144375,0.0023375
1679930055930,1110044282762275,-0.022824999,0.0163625,4.125E-4
1679930055931,1110044285264429,-0.0237875,0.018424999,4.125E-4
1679930055933,1110044287766352,-0.02475,0.0193875,0.0023375
1679930055935,1110044290268429,-0.0257125,0.0174625,-0.00165
1679930055937,1110044292770328,-0.022824999,0.02145,-5.5E-4
1679930055941,1110044295272482,-0.0268125,0.02035,0.001375
1679930055944,1110044297774328,-0.0257125,0.0193875,-5.5E-4
1679930055945,1110044300276482,-0.027775,0.0273625,0.0023375
1679930055949,1110044302778627,-0.0308,0.0224125,4.125E-4
1679930055951,1110044305280704,-0.0308,0.023375,-0.0026125
1679930055954,1110044307782627,-0.032725,0.0264,4.125E-4
1679930055957,1110044310284704,-0.0378125,0.0243375,0.001375
1679930055958,1110044312786627,-0.0347875,0.02145,0.001375
1679930055964,1110044315288786,-0.0378125,0.0193875,0.001375
1679930055964,1110044317790632,-0.038775,0.0224125,-0.0026125
1679930055965,1110044320293016,-0.038775,0.0193875,0.0023375
1679930055968,1110044322794939,-0.0407,0.018424999,0.006325
1679930055971,1110044325296996,-0.043725,0.0144375,0.0044
1679930055974,1110044327798919,-0.044825,0.0163625,0.0034375
1679930055975,1110044330300996,-0.0418,0.018424999,0.0044
1679930055978,1110044332802919,-0.044825,0.0163625,0.0053625
1679930055981,1110044335305064,-0.0488125,0.0154,0.0044
1679930055983,1110044337807141,-0.0477125,0.0144375,0.0023375
1679930055985,1110044340309295,-0.0477125,0.0114124995,0.0023375
1679930055989,1110044342811218,-0.0477125,0.00935,0.0034375
1679930055993,1110044345313261,-0.0488125,0.012375,0.0053625
1679930055994,1110044347815184,-0.0477125,0.01045,0.0044
1679930055996,1110044350317261,-0.0488125,0.01045,0.0023375
1679930055999,1110044352819415,-0.0507375,0.012375,4.125E-4
1679930056001,1110044355321333,-0.049775,0.00935,0.0023375
1679930056003,1110044357823410,-0.0517,0.007425,0.0044
1679930056005,1110044360325564,-0.0507375,0.0114124995,0.0034375
1679930056007,1110044362827487,-0.0537625,0.012375,0.0023375
1679930056010,1110044365329564,-0.054725,0.01045,0.0044
1679930056013,1110044367831709,-0.0507375,0.01045,0.0023375
1679930056016,1110044370333632,-0.055825,0.007425,0.001375
1679930056018,1110044372835709,-0.0567875,0.007425,0.0034375
1679930056021,1110044375337632,-0.0567875,0.0064625,0.0034375
1679930056023,1110044377839709,-0.0598125,0.007425,0.0023375
1679930056025,1110044380341887,-0.0598125,0.007425,0.0044
1679930056030,1110044382843733,-0.0587125,0.007425,0.0034375
1679930056034,1110044385344858,-0.060775,0.0034375,0.0034375
1679930056034,1110044387845973,-0.060775,0.0064625,0.0044
1679930056035,1110044390349973,-0.0627,0.00935,0.0053625
1679930056038,1110044392852049,-0.0617375,0.0044,0.0053625
1679930056041,1110044395353973,-0.0598125,4.125E-4,0.0053625
1679930056043,1110044397856049,-0.0587125,0.0034375,0.0053625
1679930056045,1110044400357992,-0.0627,0.0034375,0.007425
1679930056048,1110044402860145,-0.0598125,0.0034375,0.00935
1679930056051,1110044405362299,-0.0627,0.0044,0.007425
1679930056053,1110044407864376,-0.0647625,4.125E-4,0.0083875
1679930056056,1110044410366290,-0.065725,0.0034375,0.0083875
1679930056061,1110044412868367,-0.0677875,0.0044,0.007425
1679930056064,1110044415370290,-0.0697125,0.0023375,0.0083875
1679930056064,1110044417872444,-0.0697125,0.0034375,0.0114124995
1679930056066,1110044420374545,-0.065725,0.0034375,0.012375
1679930056070,1110044422876468,-0.0708125,0.0023375,0.0114124995
1679930056073,1110044425378622,-0.066825,0.0034375,0.0133375
1679930056074,1110044427880699,-0.0647625,0.0044,0.0114124995
1679930056076,1110044430382622,-0.066825,0.0053625,0.012375
1679930056078,1110044432884708,-0.066825,0.0044,0.0133375
1679930056081,1110044435386862,-0.071775,0.007425,0.01045
1679930056082,1110044437888785,-0.0697125,0.0034375,0.0133375
1679930056085,1110044440390939,-0.071775,0.0053625,0.0154
1679930056087,1110044442892790,-0.076725,0.00935,0.0133375
1679930056091,1110044445394944,-0.0757625,0.01045,0.012375
1679930056093,1110044447897021,-0.0757625,0.00935,0.0133375
1679930056095,1110044450398944,-0.0757625,0.00935,0.0133375
1679930056097,1110044452901093,-0.073699996,0.012375,0.0163625
1679930056100,1110044455403170,-0.077825,0.0144375,0.01045
1679930056104,1110044457905093,-0.07975,0.0133375,0.012375
1679930056107,1110044460407170,-0.077825,0.0154,0.0114124995
1679930056109,1110044462909338,-0.0787875,0.0144375,0.0133375
1679930056112,1110044465411262,-0.0818125,0.018424999,0.0163625
1679930056113,1110044467913338,-0.0807125,0.018424999,0.0154
1679930056115,1110044470415492,-0.076725,0.0163625,0.017324999
1679930056118,1110044472917415,-0.0807125,0.0154,0.0163625
1679930056124,1110044475419492,-0.082775,0.0174625,0.0163625
1679930056125,1110044477921646,-0.0837375,0.0133375,0.017324999
1679930056126,1110044480423569,-0.07975,0.018424999,0.02035
1679930056128,1110044482925646,-0.0837375,0.018424999,0.023375
1679930056131,1110044485427583,-0.087725,0.012375,0.0224125
1679930056133,1110044487929660,-0.087725,0.01045,0.02145
1679930056136,1110044490431814,-0.087725,0.007425,0.023375
1679930056141,1110044492933655,-0.0867625,0.007425,0.0254375
1679930056142,1110044495435886,-0.0847,0.0044,0.0254375
1679930056144,1110044497937963,-0.088825,0.001375,0.0254375
1679930056145,1110044500439886,-0.0897875,-0.00165,0.023375
1679930056148,1110044502941963,-0.0928125,-0.003575,0.0264
1679930056152,1110044505443891,-0.093775,-0.0066,0.0273625
1679930056153,1110044507945968,-0.095699996,-0.0086624995,0.0254375
1679930056156,1110044510447891,-0.095699996,-0.01155,0.0243375
1679930056158,1110044512950045,-0.0977625,-0.0155375,0.023375
1679930056161,1110044515452160,-0.098725,-0.014575,0.023375
1679930056162,1110044517954314,-0.0977625,-0.0155375,0.02035
1679930056165,1110044520456237,-0.1027125,-0.0246125,0.023375
1679930056168,1110044522958314,-0.1057375,-0.025575,0.0264
1679930056171,1110044525460252,-0.1087625,-0.02255,0.0254375
1679930056173,1110044527962406,-0.109725,-0.0286,0.0273625
1679930056176,1110044530464483,-0.1087625,-0.03355,0.0264
1679930056180,1110044532966406,-0.110825,-0.034649998,0.0264
1679930056183,1110044535468559,-0.115775,-0.0416625,0.0254375
1679930056184,1110044537970636,-0.115775,-0.0435875,0.028324999
1679930056185,1110044540472559,-0.1197625,-0.04455,0.03135
1679930056189,1110044542974636,-0.12375,-0.047575,0.0334125
1679930056192,1110044545476790,-0.1247125,-0.0526625,0.032449998
1679930056193,1110044547978708,-0.12773749,-0.0515625,0.0303875
1679930056195,1110044550480785,-0.1258125,-0.0515625,0.032449998
1679930056198,1110044552982708,-0.126775,-0.0526625,0.0374
1679930056200,1110044555484785,-0.12979999,-0.0496375,0.0374
1679930056202,1110044557986939,-0.12979999,-0.0506,0.0374
1679930056207,1110044560488838,-0.131725,-0.0496375,0.0374
1679930056208,1110044562990992,-0.1368125,-0.053625,0.0383625
1679930056211,1110044565493069,-0.1337875,-0.0526625,0.0383625
1679930056216,1110044567994972,-0.1408,-0.0515625,0.040425
1679930056217,1110044570497049,-0.1417625,-0.053625,0.0374
1679930056219,1110044572998972,-0.14575,-0.0496375,0.0374
1679930056221,1110044575501049,-0.1527625,-0.045649998,0.039325
1679930056223,1110044578003280,-0.1557875,-0.045649998,0.0374
1679930056225,1110044580505126,-0.15675,-0.0435875,0.034375
1679930056228,1110044583007276,-0.1628,-0.03355,0.034375
1679930056231,1110044585509353,-0.165825,-0.031625,0.0374
1679930056233,1110044588011276,-0.170775,-0.0276375,0.0334125
1679930056235,1110044590513353,-0.175725,-0.0155375,0.032449998
1679930056238,1110044593015276,-0.1827375,-0.0105875,0.0334125
1679930056241,1110044595517425,-0.1837,-0.0066,0.0303875
1679930056243,1110044598019579,-0.1918125,-5.5E-4,0.0303875
1679930056245,1110044600521425,-0.1967625,0.0053625,0.03135
1679930056248,1110044603023579,-0.198825,0.0163625,0.03135
1679930056250,1110044605525645,-0.2057,0.0224125,0.0303875
1679930056257,1110044608027569,-0.2127125,0.0364375,0.029424999
1679930056258,1110044610529722,-0.2138125,0.043449998,0.0303875
1679930056259,1110044613031799,-0.220825,0.0504625,0.03135
1679930056261,1110044615533737,-0.2267375,0.0614625,0.032449998
1679930056263,1110044618035814,-0.2327875,0.0724625,0.03135
1679930056269,1110044620537694,-0.236775,0.0814,0.03135
1679930056270,1110044623039848,-0.242825,0.0884125,0.03135
1679930056272,1110044625541925,-0.2487375,0.0994125,0.028324999
1679930056274,1110044628044079,-0.2567125,0.106425,0.028324999
1679930056276,1110044630546002,-0.2607,0.113437496,0.0273625
1679930056279,1110044633048079,-0.264825,0.1233375,0.028324999
1679930056281,1110044635550002,-0.274725,0.133375,0.0264
1679930056283,1110044638052079,-0.27981248,0.1434125,0.0273625
1679930056285,1110044640554002,-0.2897125,0.15235,0.0243375
1679930056288,1110044643056156,-0.2908125,0.1563375,0.0224125
1679930056291,1110044645558257,-0.2987875,0.166375,0.0224125
1679930056293,1110044648060180,-0.3058,0.177375,0.02035
1679930056295,1110044650562257,-0.3097875,0.1824625,0.0193875
1679930056298,1110044653064411,-0.318725,0.18933749,0.0193875
1679930056300,1110044655566565,-0.3278,0.194425,0.017324999
1679930056303,1110044658068483,-0.33275,0.2003375,0.0163625
1679930056307,1110044660570560,-0.340725,0.20845,0.0154
1679930056310,1110044663072483,-0.352825,0.210375,0.0154
1679930056312,1110044665574560,-0.3608,0.2143625,0.012375
1679930056318,1110044668076488,-0.368775,0.2063875,0.0144375
1679930056318,1110044670578565,-0.374825,0.2094125,0.017324999
1679930056319,1110044673080795,-0.3867875,0.2063875,0.0144375
1679930056322,1110044675582642,-0.3947625,0.20845,0.0133375
1679930056324,1110044678084771,-0.4027375,0.2044625,0.0144375
1679930056326,1110044680586848,-0.40974998,0.2003375,0.0154
1679930056329,1110044683088771,-0.418825,0.1984125,0.0163625
1679930056332,1110044685590848,-0.429825,0.1923625,0.0193875
1679930056333,1110044688093002,-0.4378,0.1874125,0.017324999
1679930056335,1110044690594925,-0.450725,0.18535,0.017324999
1679930056339,1110044693097079,-0.4607625,0.1794375,0.0163625
1679930056341,1110044695598925,-0.4697,0.1714625,0.0154
1679930056342,1110044698101002,-0.4797375,0.1684375,0.017324999
1679930056345,1110044700602891,-0.4917,0.1593625,0.0154
1679930056349,1110044703105045,-0.5017375,0.1494625,0.0163625
1679930056351,1110044705607199,-0.5097125,0.1403875,0.0144375
1679930056353,1110044708109276,-0.517825,0.13035,0.0144375
1679930056357,1110044710611195,-0.5267625,0.1263625,0.0144375
1679930056359,1110044713113272,-0.5357,0.1183875,0.0144375
1679930056361,1110044715615195,-0.544775,0.113437496,0.0144375
1679930056363,1110044718117349,-0.555775,0.106425,0.0133375
1679930056366,1110044720619488,-0.5627875,0.09845,0.0144375
1679930056369,1110044723121565,-0.572825,0.08745,0.0144375
1679930056371,1110044725623488,-0.5847875,0.07535,0.0144375
1679930056373,1110044728125565,-0.59675,0.06435,0.0114124995
1679930056375,1110044730627488,-0.6087125,0.0504625,0.0114124995
1679930056378,1110044733129599,-0.6208125,0.0374,0.01045
1679930056380,1110044735631522,-0.62975,0.02035,0.0114124995
1679930056383,1110044738133906,-0.64075,0.012375,0.0133375
1679930056386,1110044740635830,-0.65174997,4.125E-4,0.0114124995
1679930056389,1110044743137901,-0.659725,-0.01265,0.0144375
1679930056391,1110044745639825,-0.670725,-0.0265375,0.0114124995
1679930056393,1110044748141901,-0.68282497,-0.036575,0.00935
1679930056395,1110044750643825,-0.6897,-0.0485375,0.012375
1679930056399,1110044753145901,-0.6997375,-0.0616,0.0114124995
1679930056401,1110044755648050,-0.7088125,-0.0746625,0.01045
1679930056404,1110044758149973,-0.7198125,-0.0815375,0.00935
1679930056406,1110044760652127,-0.7277875,-0.093637496,0.01045
1679930056409,1110044763153973,-0.7357625,-0.1016125,0.00935
1679930056410,1110044765656117,-0.74181247,-0.108625,0.007425
1679930056412,1110044768158194,-0.747725,-0.1186625,0.0053625
1679930056415,1110044770660348,-0.753775,-0.12265,0.006325
1679930056419,1110044773162271,-0.758725,-0.1296625,0.0044
1679930056421,1110044775664363,-0.7638125,-0.13859999,0.0023375
1679930056423,1110044778166286,-0.76669997,-0.1376375,0.0023375
1679930056425,1110044780668363,-0.7717875,-0.1425875,4.125E-4
1679930056429,1110044783170517,-0.775775,-0.14355,4.125E-4
1679930056431,1110044785672449,-0.7797625,-0.1456125,4.125E-4
1679930056433,1110044788174603,-0.7847125,-0.146575,-0.00165
1679930056435,1110044790676680,-0.7877375,-0.1505625,-0.0026125
1679930056439,1110044793178603,-0.7896625,-0.1486375,-0.003575
1679930056442,1110044795680733,-0.7907625,-0.151525,-0.003575
1679930056443,1110044798182656,-0.7957125,-0.1475375,-0.0066
1679930056445,1110044800684733,-0.7997,-0.14465,-0.0066
1679930056449,1110044803186656,-0.802725,-0.1456125,-0.0105875
1679930056451,1110044805689041,-0.808775,-0.140525,-0.01265
1679930056453,1110044808190964,-0.8177125,-0.13653749,-0.0166375
1679930056456,1110044810693041,-0.8207375,-0.1315875,-0.020624999
1679930056458,1110044813194964,-0.824725,-0.1266375,-0.02255
1679930056462,1110044815697041,-0.829675,-0.124575,-0.02365
1679930056463,1110044818198950,-0.8336625,-0.1145375,-0.0246125
1679930056465,1110044820701104,-0.8336625,-0.108625,-0.0295625
1679930056469,1110044823203180,-0.8347625,-0.1056,-0.0325875
1679930056472,1110044825705334,-0.8347625,-0.09955,-0.0325875
1679930056474,1110044828207185,-0.8336625,-0.0925375,-0.034649998
1679930056475,1110044830709339,-0.8327,-0.0845625,-0.0356125
1679930056480,1110044833211262,-0.8327,-0.0815375,-0.0386375
1679930056482,1110044835713416,-0.8336625,-0.069575,-0.0396
1679930056483,1110044838215493,-0.8327,-0.058575,-0.0416625
1679930056485,1110044840717449,-0.82774997,-0.05555,-0.0405625
1679930056489,1110044843219526,-0.8267875,-0.0466125,-0.0416625
1679930056491,1110044845721449,-0.82568747,-0.03355,-0.042625
1679930056493,1110044848223603,-0.824725,-0.025575,-0.0435875
1679930056495,1110044850725781,-0.82568747,-0.019524999,-0.047575
1679930056499,1110044853227627,-0.82568747,-0.01155,-0.0515625
1679930056501,1110044855729781,-0.8237625,-0.0066,-0.053625
1679930056503,1110044858231858,-0.82774997,-5.5E-4,-0.0545875
1679930056506,1110044860733767,-0.8327,0.007425,-0.053625
1679930056510,1110044863235844,-0.8366875,0.013475,-0.0526625
1679930056511,1110044865737998,-0.8397125,0.024475,-0.056649998
1679930056514,1110044868239921,-0.8427375,0.032449998,-0.059675
1679930056517,1110044870742118,-0.846725,0.0374,-0.058575
1679930056519,1110044873243964,-0.8487875,0.045375,-0.0625625
1679930056522,1110044875746118,-0.8457625,0.056375,-0.070675
1679930056525,1110044878248195,-0.8457625,0.06545,-0.0716375
1679930056526,1110044880750348,-0.846725,0.07535,-0.0726
1679930056529,1110044883252296,-0.8446625,0.08745,-0.0765875
1679930056530,1110044885754373,-0.8397125,0.09735,-0.0826375
1679930056533,1110044888256296,-0.835725,0.111375,-0.0845625
1679930056535,1110044890758373,-0.8327,0.12045,-0.092675
1679930056539,1110044893260301,-0.8237625,0.1263625,-0.097625
1679930056541,1110044895762454,-0.818675,0.134475,-0.102575
1679930056543,1110044898264608,-0.8107,0.14245,-0.1056
1679930056545,1110044900766454,-0.8036875,0.1464375,-0.108625
1679930056550,1110044903268574,-0.7926875,0.1483625,-0.115637496
1679930056551,1110044905770651,-0.7847125,0.150425,-0.1175625
1679930056554,1110044908272574,-0.7767375,0.150425,-0.1205875
1679930056556,1110044910774651,-0.7676625,0.1494625,-0.12155
1679930056559,1110044913276574,-0.7566625,0.150425,-0.124575
1679930056561,1110044915778743,-0.7456625,0.1403875,-0.124575
1679930056563,1110044918280897,-0.7357625,0.134475,-0.1276
1679930056566,1110044920782743,-0.725725,0.13035,-0.130625
1679930056570,1110044923284892,-0.7187125,0.1214125,-0.13255
1679930056571,1110044925786969,-0.719675,0.1144,-0.13365
1679930056573,1110044928288892,-0.719675,0.106425,-0.1346125
1679930056576,1110044930791046,-0.7217375,0.0933625,-0.135575
1679930056579,1110044933293123,-0.7277875,0.079475,-0.135575
1679930056581,1110044935795041,-0.736725,0.0704,-0.141625
1679930056585,1110044938297118,-0.742775,0.0664125,-0.1406625
1679930056586,1110044940799041,-0.7566625,0.054449998,-0.136675
1679930056590,1110044943301195,-0.774675,0.0474375,-0.136675
1679930056593,1110044945803272,-0.79667497,0.034375,-0.135575
1679930056595,1110044948305426,-0.82774997,0.0273625,-0.1285625
1679930056597,1110044950807349,-0.85469997,0.024475,-0.124575
1679930056600,1110044953309426,-0.8837125,0.012375,-0.1175625
1679930056601,1110044955811349,-0.9057125,0.0044,-0.1065625
1679930056603,1110044958313431,-0.923725,0.0053625,-0.097625
1679930056605,1110044960815354,-0.939675,0.0064625,-0.086625
1679930056609,1110044963317738,-0.945725,0.012375,-0.0726
1679930056611,1110044965819661,-0.94476247,0.02035,-0.0625625
1679930056613,1110044968321738,-0.9436625,0.0334125,-0.0545875
1679930056616,1110044970823661,-0.9387125,0.05335,-0.047575
1679930056619,1110044973325738,-0.9227625,0.078375,-0.037675
1679930056622,1110044975827661,-0.9106625,0.102437496,-0.0276375
1679930056623,1110044978329728,-0.901725,0.1293875,-0.0176
1679930056626,1110044980831882,-0.8916875,0.1604625,-0.0056375
1679930056633,1110044983334036,-0.88275,0.1923625,0.0044
1679930056634,1110044985835887,-0.8757375,0.216425,0.0114124995
1679930056635,1110044988406656,-0.8776625,0.2374625,0.02145
1679930056637,1110044990839964,-0.8757375,0.2564375,0.0264
1679930056641,1110044993342041,-0.8767,0.276375,0.029424999
1679930056642,1110044995843964,-0.88275,0.2913625,0.0303875
1679930056643,1110044998346118,-0.88673747,0.298375,0.03135
1679930056647,1110045000848186,-0.8897625,0.3023625,0.032449998
1679930056649,1110045003350340,-0.890725,0.3053875,0.0254375
1679930056651,1110045005852186,-0.8927875,0.3004375,0.02035
1679930056653,1110045008354340,-0.89375,0.29645,0.0133375
1679930056659,1110045010856243,-0.8987,0.2803625,0.0034375
1679930056660,1110045013358397,-0.8987,0.26235,-0.0066
1679930056661,1110045015860474,-0.8987,0.2424125,-0.020624999
1679930056664,1110045018362397,-0.8996625,0.2143625,-0.031625
1679930056667,1110045020864455,-0.8996625,0.188375,-0.042625
1679930056674,1110045023366609,-0.90475,0.1654125,-0.0576125
1679930056674,1110045025868532,-0.9106625,0.1384625,-0.06655
1679930056675,1110045028370609,-0.91368747,0.1144,-0.0746625
1679930056677,1110045030872508,-0.9197375,0.0944625,-0.0826375
1679930056679,1110045033374585,-0.9246875,0.0724625,-0.08965
1679930056681,1110045035876508,-0.929775,0.051425,-0.0955625
1679930056685,1110045038378585,-0.9387125,0.035475,-0.1016125
1679930056690,1110045040880815,-0.9417375,0.0224125,-0.11165
1679930056690,1110045043382863,-0.940775,0.0034375,-0.114675
1679930056691,1110045045884786,-0.940775,-0.003575,-0.1166
1679930056693,1110045048386863,-0.940775,-0.0045375,-0.1186625
1679930056695,1110045050888786,-0.9356875,-0.0105875,-0.1186625
1679930056699,1110045053390849,-0.9356875,-0.014575,-0.119625
1679930056701,1110045055892772,-0.9337625,-0.013612499,-0.119625
1679930056704,1110045058394926,-0.934725,-0.0105875,-0.1186625
1679930056706,1110045060897080,-0.9367875,-0.0075625,-0.119625
1679930056711,1110045063398892,-0.9387125,-0.0045375,-0.1205875
1679930056711,1110045065901046,-0.9367875,0.0034375,-0.1205875
1679930056713,1110045068403123,-0.939675,0.007425,-0.1175625
1679930056715,1110045070905046,-0.940775,0.0174625,-0.1166
1679930056719,1110045073407200,-0.940775,0.024475,-0.1126125
1679930056724,1110045075909296,-0.9356875,0.0364375,-0.11165
1679930056725,1110045078411219,-0.9356875,0.0484,-0.1056
1679930056726,1110045080913373,-0.9367875,0.056375,-0.1065625
1679930056730,1110045083415219,-0.934725,0.0694375,-0.102575
1679930056731,1110045085917364,-0.9326625,0.078375,-0.097625
1679930056734,1110045088419441,-0.929775,0.0884125,-0.092675
1679930056735,1110045090921595,-0.929775,0.09845,-0.08965
1679930056743,1110045093423542,-0.9326625,0.1073875,-0.086625
1679930056743,1110045095925619,-0.9326625,0.1164625,-0.0845625
1679930056745,1110045098427542,-0.9337625,0.122375,-0.0826375
1679930056747,1110045100929619,-0.9317,0.13035,-0.0845625
1679930056751,1110045103431542,-0.9326625,0.1384625,-0.07865
1679930056752,1110045105933619,-0.9337625,0.145475,-0.07755
1679930056754,1110045108435839,-0.9317,0.15345,-0.0765875
1679930056756,1110045110937686,-0.928675,0.1623875,-0.075625
1679930056759,1110045113439839,-0.9227625,0.1703625,-0.07755
1679930056761,1110045115941916,-0.912725,0.172425,-0.07755
1679930056766,1110045118443820,-0.9026875,0.183425,-0.07755
1679930056766,1110045120945897,-0.8947125,0.1953875,-0.07865
1679930056771,1110045123448051,-0.88275,0.20047499,-0.07865
1679930056772,1110045125949974,-0.8727125,0.210375,-0.081675
1679930056774,1110045128452128,-0.8597875,0.221375,-0.080575
1679930056776,1110045130953945,-0.846725,0.23045,-0.0856625
1679930056781,1110045133456099,-0.840675,0.233475,-0.08965
1679930056782,1110045135958176,-0.8267875,0.2424125,-0.0875875
1679930056784,1110045138460099,-0.8177125,0.249425,-0.08965
1679930056786,1110045140962243,-0.8116625,0.2534125,-0.093637496
1679930056791,1110045143464320,-0.802725,0.26235,-0.0946
1679930056792,1110045145966243,-0.7926875,0.2693625,-0.0946
1679930056793,1110045148468320,-0.786775,0.2693625,-0.102575
1679930056796,1110045150970248,-0.780725,0.277475,-0.1056
1679930056799,1110045153472325,-0.77275,0.282425,-0.108625
1679930056801,1110045155974479,-0.763675,0.2913625,-0.11165
1679930056804,1110045158476633,-0.7557,0.3014,-0.1166
1679930056806,1110045160978551,-0.7456625,0.3053875,-0.119625
1679930056809,1110045163480628,-0.73768747,0.310475,-0.12155
1679930056811,1110045165982551,-0.7266875,0.3144625,-0.1205875
1679930056814,1110045168484628,-0.714725,0.31845,-0.1236125
1679930056817,1110045170986541,-0.7046875,0.31735,-0.1236125
1679930056820,1110045173488695,-0.6936875,0.3163875,-0.124575
1679930056823,1110045175990849,-0.6826875,0.3144625,-0.125675
1679930056824,1110045178492925,-0.6686625,0.3144625,-0.125675
1679930056826,1110045180994849,-0.654775,0.3144625,-0.124575
1679930056830,1110045183496944,-0.64075,0.3114375,-0.1266375
1679930056831,1110045185998868,-0.626725,0.310475,-0.1266375
1679930056834,1110045188500944,-0.6197125,0.309375,-0.1266375
1679930056836,1110045191003098,-0.6067875,0.3034625,-0.1276
1679930056842,1110045193505007,-0.5946875,0.29947498,-0.1266375
1679930056842,1110045196007161,-0.58575,0.29947498,-0.130625
1679930056843,1110045198509007,-0.5757125,0.29535,-0.13255
1679930056846,1110045201011161,-0.5696625,0.288475,-0.1346125
1679930056849,1110045203513238,-0.5647125,0.2833875,-0.1406625
1679930056851,1110045206015429,-0.560725,0.276375,-0.147675
1679930056855,1110045208517352,-0.5567375,0.2684,-0.1505625
1679930056857,1110045211019429,-0.5506875,0.2613875,-0.1535875
1679930056859,1110045213521352,-0.543675,0.25245,-0.1606
1679930056861,1110045216023439,-0.5396875,0.243375,-0.1645875
1679930056863,1110045218525593,-0.5286875,0.23045,-0.16555
1679930056866,1110045221027516,-0.51975,0.21835,-0.169675
1679930056870,1110045223529593,-0.5137,0.205425,-0.1706375
1679930056874,1110045226031747,-0.5036625,0.194425,-0.174625
1679930056874,1110045228533670,-0.4926625,0.177375,-0.1755875
1679930056876,1110045231035747,-0.4846875,0.16445,-0.174625
1679930056879,1110045233537901,-0.4767125,0.1483625,-0.174625
1679930056881,1110045236039824,-0.467775,0.13035,-0.174625
1679930056885,1110045238541935,-0.461725,0.12045,-0.1736625
1679930056886,1110045241043858,-0.4547125,0.09845,-0.1725625
1679930056892,1110045243545935,-0.4467375,0.084425,-0.1725625
1679930056893,1110045246047858,-0.4367,0.0713625,-0.1706375
1679930056894,1110045248550040,-0.42473748,0.0603625,-0.16665
1679930056896,1110045251052117,-0.4197875,0.045375,-0.16555
1679930056899,1110045253554270,-0.40974998,0.032449998,-0.1615625
1679930056901,1110045256056193,-0.401775,0.018424999,-0.15565
1679930056904,1110045258558270,-0.3927,0.0053625,-0.152625
1679930056907,1110045261060198,-0.389675,-0.0075625,-0.1486375
1679930056910,1110045263562275,-0.38073748,-0.019524999,-0.141625
1679930056912,1110045266064198,-0.37675,-0.031625,-0.1346125
1679930056914,1110045268566352,-0.3707,-0.0496375,-0.1266375
1679930056916,1110045271068405,-0.3606625,-0.0606375,-0.1186625
1679930056918,1110045273570559,-0.3537875,-0.069575,-0.11165
1679930056925,1110045276072482,-0.3447125,-0.0815375,-0.102575
1679930056925,1110045278574559,-0.3306875,-0.093637496,-0.09955
1679930056926,1110045281076501,-0.3196875,-0.104637496,-0.0906125
1679930056930,1110045283578655,-0.307725,-0.115637496,-0.080575
1679930056932,1110045286080732,-0.2957625,-0.124575,-0.0686125
1679930056933,1110045288582655,-0.2836625,-0.13255,-0.0606375
1679930056935,1110045291084732,-0.2728,-0.1406625,-0.053625
1679930056940,1110045293586675,-0.26675,-0.14465,-0.047575
1679930056941,1110045296088829,-0.2627625,-0.1516625,-0.037675
1679930056944,1110045298590906,-0.2608375,-0.1516625,-0.0295625
1679930056946,1110045301093060,-0.2618,-0.152625,-0.02255
1679930056950,1110045303594993,-0.2618,-0.1505625,-0.0166375
1679930056952,1110045306097070,-0.2597375,-0.14355,-0.01265
1679930056954,1110045308598993,-0.2597375,-0.13365,-0.0066
1679930056957,1110045311101070,-0.2567125,-0.1285625,-0.0026125
1679930056960,1110045313603008,-0.252725,-0.115637496,4.125E-4
1679930056961,1110045316105162,-0.2487375,-0.104637496,0.0034375
1679930056963,1110045318607239,-0.2468125,-0.097625,0.006325
1679930056968,1110045321109392,-0.241725,-0.0845625,0.007425
1679930056970,1110045323611316,-0.23773749,-0.0705375,0.0083875
1679930056972,1110045326113392,-0.236775,-0.05555,0.0114124995
1679930056974,1110045328615316,-0.230725,-0.0386375,0.00935
1679930056975,1110045331117392,-0.2248125,-0.031625,0.0114124995
1679930056979,1110045333619565,-0.2168375,-0.02255,0.00935
1679930056981,1110045336121488,-0.209825,-0.01265,0.00935
1679930056983,1110045338623565,-0.1997875,-0.0045375,0.012375
1679930056986,1110045341125719,-0.1918125,0.0034375,0.0114124995
1679930056990,1110045343627642,-0.1827375,0.0053625,0.0163625
1679930056992,1110045346129719,-0.1777875,0.007425,0.02035
1679930056993,1110045348631642,-0.170775,0.0053625,0.0224125
1679930056996,1110045351133796,-0.1637625,0.001375,0.0243375
1679930056999,1110045353635873,-0.159775,-0.003575,0.028324999
1679930057001,1110045356137805,-0.154825,-0.0086624995,0.034375
1679930057009,1110045358639882,-0.1527625,-0.014575,0.034375
1679930057009,1110045361142036,-0.14575,-0.0246125,0.039325
1679930057010,1110045363643959,-0.142725,-0.0386375,0.0444125
1679930057012,1110045366146156,-0.1398375,-0.053625,0.0463375
1679930057013,1110045368648233,-0.1408,-0.0686125,0.0444125
1679930057016,1110045371150156,-0.1447875,-0.086625,0.040425
1679930057019,1110045373652233,-0.1447875,-0.1056,0.0413875
1679930057021,1110045376154156,-0.14575,-0.1276,0.040425
1679930057023,1110045378656242,-0.1478125,-0.13859999,0.0374
1679930057026,1110045381158165,-0.1467125,-0.1606,0.034375
1679930057030,1110045383660319,-0.142725,-0.18053749,0.029424999
1679930057031,1110045386162406,-0.1398375,-0.1926375,0.028324999
1679930057034,1110045388664329,-0.1337875,-0.2085875,0.0254375
1679930057035,1110045391166483,-0.1307625,-0.2165625,0.02145
1679930057042,1110045393668536,-0.1258125,-0.2275625,0.0163625
1679930057043,1110045396170459,-0.1227875,-0.2385625,0.0133375
1679930057045,1110045398672536,-0.117837496,-0.24365,0.0114124995
1679930057046,1110045401174689,-0.115775,-0.24255,0.01045
1679930057049,1110045403676613,-0.1137125,-0.24653749,0.0053625
1679930057051,1110045406178689,-0.1137125,-0.24365,0.001375
1679930057054,1110045408680608,-0.1117875,-0.240625,0.001375
1679930057056,1110045411182761,-0.104775,-0.23155,0.0023375
1679930057059,1110045413684838,-0.099825,-0.2176625,0.001375
1679930057061,1110045416186761,-0.095837496,-0.2085875,0.001375
1679930057063,1110045418688891,-0.093775,-0.196625,0.0034375
1679930057066,1110045421190968,-0.0928125,-0.1786125,0.006325
1679930057070,1110045423692814,-0.0867625,-0.15565,0.0114124995
1679930057073,1110045426195045,-0.0787875,-0.1346125,0.0163625
1679930057074,1110045428697118,-0.076725,-0.11165,0.02145
1679930057076,1110045431199041,-0.0727375,-0.08855,0.029424999
1679930057081,1110045433701118,-0.0708125,-0.064625,0.034375
1679930057082,1110045436203041,-0.065725,-0.03355,0.0413875
1679930057084,1110045438705127,-0.060775,-0.0066,0.0484
1679930057086,1110045441207050,-0.0567875,0.02035,0.05335
1679930057091,1110045443709204,-0.0567875,0.05335,0.0603625
1679930057092,1110045446211358,-0.055825,0.0814,0.0664125
1679930057094,1110045448713435,-0.0507375,0.1104125,0.0743875
1679930057096,1110045451215358,-0.0477125,0.1364,0.0774125
1679930057099,1110045453717435,-0.0418,0.1694,0.08635
1679930057101,1110045456219358,-0.0347875,0.1984125,0.0924
1679930057103,1110045458721435,-0.032725,0.22935,0.09735
1679930057106,1110045461223575,-0.0308,0.260425,0.102437496
1679930057110,1110045463725498,-0.0257125,0.28545,0.106425
1679930057112,1110045466227652,-0.02475,0.3133625,0.1104125
1679930057114,1110045468729729,-0.0237875,0.3433375,0.113437496
1679930057118,1110045471231565,-0.0268125,0.3694625,0.1144
1679930057120,1110045473733719,-0.0257125,0.38334998,0.117425
1679930057123,1110045476235872,-0.0268125,0.4134625,0.117425
1679930057126,1110045478858026,-0.032725,0.4334,0.11935
1679930057127,1110045481239872,-0.0317625,0.4483875,0.116325
1679930057130,1110045483741780,-0.033825,0.4654375,0.116325
1679930057132,1110045486243857,-0.0378125,0.4783625,0.1214125
1679930057134,1110045488745780,-0.033825,0.4904625,0.122375
1679930057136,1110045491247857,-0.038775,0.4954125,0.122375
1679930057140,1110045493750098,-0.0397375,0.4973375,0.116325
1679930057141,1110045496252175,-0.0378125,0.5003625,0.116325
1679930057144,1110045498754098,-0.0347875,0.4994,0.116325
1679930057147,1110045501256175,-0.033825,0.491425,0.116325
1679930057149,1110045503758069,-0.0367125,0.485375,0.117425
1679930057151,1110045506260146,-0.0367125,0.4774,0.1214125
1679930057157,1110045508762069,-0.038775,0.4654375,0.1254
1679930057158,1110045511264223,-0.0397375,0.4514125,0.1263625
1679930057160,1110045513766410,-0.044825,0.4373875,0.1293875
1679930057162,1110045516268487,-0.0518375,0.4203375,0.128425
1679930057164,1110045518770410,-0.0507375,0.4024625,0.1324125
1679930057166,1110045521272487,-0.055825,0.381425,0.1364
1679930057169,1110045523774401,-0.0598125,0.36245,0.133375
1679930057172,1110045526276555,-0.0598125,0.342375,0.133375
1679930057174,1110045528778632,-0.0598125,0.31735,0.1354375
1679930057177,1110045531280555,-0.060775,0.29741248,0.1354375
1679930057180,1110045533782632,-0.0628375,0.2794,0.1324125
1679930057181,1110045536284555,-0.060775,0.2613875,0.1354375
1679930057184,1110045538786632,-0.055825,0.2503875,0.1364
1679930057187,1110045541288786,-0.0537625,0.232375,0.1354375
1679930057190,1110045543790920,-0.054725,0.2173875,0.133375
1679930057193,1110045546292844,-0.0507375,0.2124375,0.13145
1679930057195,1110045548794920,-0.0457875,0.2024,0.13035
1679930057196,1110045551296844,-0.04675,0.2014375,0.128425
1679930057200,1110045553798920,-0.0477125,0.19635,0.128425
1679930057201,1110045556300849,-0.044825,0.194425,0.128425
1679930057204,1110045558803002,-0.0408375,0.194425,0.127325
1679930057208,1110045561305156,-0.0397375,0.1923625,0.127325
1679930057210,1110045563807233,-0.0347875,0.1923625,0.1214125
1679930057211,1110045566309165,-0.0287375,0.194425,0.12045
1679930057214,1110045568811242,-0.02475,0.18535,0.116325
1679930057217,1110045571313165,-0.0198,0.1953875,0.1123375
1679930057219,1110045573815242,-0.01375,0.1953875,0.10945
1679930057221,1110045576317396,-0.010725,0.19635,0.1034
1679930057224,1110045578819305,-0.0048125,0.2014375,0.09845
1679930057227,1110045581321382,2.75E-4,0.1984125,0.0933625
1679930057231,1110045583823536,0.0022,0.2003375,0.089375
1679930057233,1110045586325377,0.005225,0.2063875,0.08745
1679930057235,1110045588827531,0.0092124995,0.20845,0.078375
1679930057236,1110045591329454,0.0092124995,0.2134,0.07535
1679930057240,1110045593831608,0.0092124995,0.2124375,0.072325
1679930057241,1110045596333685,0.014162499,0.21945,0.0713625
1679930057243,1110045598835622,0.014162499,0.221375,0.0694375
1679930057247,1110045601337699,0.0182875,0.2253625,0.072325
1679930057249,1110045603839853,0.016224999,0.232375,0.0713625
1679930057252,1110045606341776,0.0182875,0.2374625,0.072325
1679930057253,1110045608843863,0.0182875,0.2443375,0.073425
1679930057258,1110045611345786,0.0232375,0.2503875,0.0774125
1679930057261,1110045613847863,0.021175,0.25245,0.0804375
1679930057262,1110045616349786,0.021175,0.2594625,0.0804375
1679930057264,1110045618851930,0.0262625,0.2644125,0.0804375
1679930057269,1110045621354083,0.0232375,0.26633748,0.0853875
1679930057271,1110045623856160,0.0242,0.2693625,0.08745
1679930057273,1110045626784468,0.0251625,0.2773375,0.0884125
1679930057275,1110045628900483,0.0232375,0.2814625,0.0903375
1679930057278,1110045631362099,0.022275,0.2864125,0.0924
1679930057281,1110045633864175,0.0202125,0.2924625,0.0903375
1679930057282,1110045636366406,0.0202125,0.298375,0.08635
1679930057283,1110045638868252,0.0182875,0.298375,0.08635
1679930057286,1110045641370416,0.015262499,0.3034625,0.0853875
1679930057291,1110045643872493,0.0122375,0.3034625,0.0804375
1679930057292,1110045646374416,0.0072875,0.3053875,0.0804375
1679930057294,1110045648876498,0.0061875,0.3084125,0.0713625
1679930057296,1110045651378421,0.0031625,0.3034625,0.0713625
1679930057299,1110045653880575,2.75E-4,0.29645,0.0664125
1679930057302,1110045656382652,-0.00275,0.2924625,0.0594
1679930057309,1110045658884536,-0.0078375,0.28435,0.05335
1679930057310,1110045661386690,-0.010725,0.27445,0.0484
1679930057313,1110045663888767,-0.010725,0.2594625,0.0444125
1679930057316,1110045666390690,-0.0097624995,0.2424125,0.04235
1679930057316,1110045668892844,-0.0097624995,0.2223375,0.0374
1679930057317,1110045671394912,-0.0127875,0.2024,0.0303875
1679930057318,1110045673896835,-0.0127875,0.1813625,0.0264
1679930057322,1110045676398912,-0.0127875,0.1593625,0.0193875
1679930057323,1110045678900835,-0.011825,0.1343375,0.012375
1679930057326,1110045681402965,-0.010725,0.113437496,0.01045
1679930057329,1110045683905042,-0.0127875,0.0853875,0.0023375
1679930057331,1110045686406965,-0.0088,0.0614625,-0.0026125
1679930057334,1110045688909042,-0.010725,0.0383625,-0.0086624995
1679930057336,1110045691411186,-0.0097624995,0.0114124995,-0.0166375
1679930057343,1110045693913109,-0.0097624995,-0.0075625,-0.0246125
1679930057343,1110045696415186,-0.0078375,-0.0265375,-0.0325875
1679930057345,1110045698917109,-0.0088,-0.0466125,-0.0416625
1679930057347,1110045701419176,-0.0097624995,-0.0625625,-0.0515625
1679930057350,1110045703921329,-0.0097624995,-0.0765875,-0.056649998
1679930057352,1110045706423252,-0.0097624995,-0.086625,-0.0625625
1679930057354,1110045708925406,-0.0078375,-0.10065,-0.0726
1679930057357,1110045711427483,-0.005775,-0.11055,-0.081675
1679930057359,1110045713929402,-0.0067375,-0.119625,-0.08855
1679930057361,1110045716431479,-8.25E-4,-0.1276,-0.08855
1679930057364,1110045718933633,0.0012375,-0.130625,-0.093637496
1679930057366,1110045721435556,2.75E-4,-0.1346125,-0.097625
1679930057369,1110045723937647,0.0012375,-0.13365,-0.10065
1679930057371,1110045726439570,0.0031625,-0.1315875,-0.103675
1679930057374,1110045728941647,0.0042625,-0.1276,-0.104637496
1679930057376,1110045731443801,0.0061875,-0.1186625,-0.108625
1679930057381,1110045733945671,0.0012375,-0.1126125,-0.11055
1679930057383,1110045736447902,0.0022,-0.1035375,-0.11165
1679930057385,1110045738949979,0.0012375,-0.0946,-0.11165
1679930057388,1110045741451902,-0.0017875,-0.0815375,-0.11055
1679930057390,1110045743953979,-0.00275,-0.06765,-0.11165
1679930057391,1110045746455902,-0.0067375,-0.0545875,-0.1126125
1679930057393,1110045748957979,-0.005775,-0.042625,-0.1095875
1679930057396,1110045751459902,-0.0078375,-0.031625,-0.1076625
1679930057399,1110045753962065,-0.0088,-0.0176,-0.1065625
1679930057401,1110045756464142,-0.011825,-0.0105875,-0.103675
1679930057404,1110045758966296,-0.0188375,0.0023375,-0.102575
1679930057407,1110045761468142,-0.021724999,0.0163625,-0.09955
1679930057410,1110045763970287,-0.0207625,0.023375,-0.097625
1679930057411,1110045766472210,-0.02475,0.03135,-0.097625
1679930057414,1110045768974364,-0.032725,0.040425,-0.097625
1679930057418,1110045771476440,-0.032725,0.0493625,-0.093637496
1679930057421,1110045773978349,-0.0298375,0.0554125,-0.0875875
1679930057424,1110045776480425,-0.0378125,0.0664125,-0.0856625
1679930057425,1110045778982579,-0.0397375,0.073425,-0.080575
1679930057427,1110045781484425,-0.0427625,0.0724625,-0.07755
1679930057430,1110045783986598,-0.043725,0.0793375,-0.0735625
1679930057431,1110045786488521,-0.0418,0.0823625,-0.0686125
1679930057434,1110045788990675,-0.044825,0.0834625,-0.0686125
1679930057436,1110045791492521,-0.0427625,0.08635,-0.070675
1679930057440,1110045793994675,-0.04675,0.0834625,-0.0686125
1679930057442,1110045796496829,-0.0477125,0.0834625,-0.06765
1679930057445,1110045798998906,-0.049775,0.0804375,-0.06765
1679930057447,1110045801500829,-0.048675,0.0804375,-0.0686125
1679930057449,1110045804002906,-0.049775,0.0804375,-0.070675
1679930057451,1110045806504814,-0.0517,0.073425,-0.0716375
1679930057457,1110045809006891,-0.0517,0.0724625,-0.075625
1679930057458,1110045811508814,-0.054725,0.068475,-0.080575
1679930057461,1110045814011199,-0.0537625,0.062425,-0.0836
1679930057462,1110045816513141,-0.0517,0.0614625,-0.0856625
1679930057463,1110045819014987,-0.0517,0.0554125,-0.08965
1679930057469,1110045821517141,-0.049775,0.05335,-0.091575
1679930057470,1110045824019218,-0.0446875,0.05335,-0.0946
1679930057472,1110045826521165,-0.0446875,0.05335,-0.0955625
1679930057474,1110045829023319,-0.0418,0.054449998,-0.097625
1679930057477,1110045831525396,-0.037675,0.05335,-0.093637496
1679930057479,1110045834027319,-0.0317625,0.0554125,-0.092675
1679930057483,1110045836529497,-0.027775,0.0594,-0.0906125
1679930057484,1110045839031343,-0.0226875,0.0594,-0.08965
1679930057486,1110045841533497,-0.0198,0.0603625,-0.0856625
1679930057492,1110045844035584,-0.0177375,0.057475,-0.0836
1679930057493,1110045846537737,-0.0177375,0.0633875,-0.081675
1679930057495,1110045849039660,-0.0177375,0.068475,-0.0826375
1679930057497,1110045851541737,-0.0177375,0.0724625,-0.0836
1679930057500,1110045854043661,-0.015675,0.079475,-0.080575
1679930057501,1110045856545814,-0.0187,0.0823625,-0.080575
1679930057504,1110045859047666,-0.0187,0.090475,-0.081675
1679930057507,1110045861549742,-0.021724999,0.09735,-0.080575
1679930057510,1110045864051973,-0.0207625,0.0994125,-0.080575
1679930057511,1110045866553819,-0.0207625,0.106425,-0.080575
1679930057514,1110045869055973,-0.0226875,0.10945,-0.07755
1679930057516,1110045871558045,-0.0237875,0.112475,-0.0735625
1679930057519,1110045874059968,-0.0237875,0.112475,-0.0716375
1679930057524,1110045876562045,-0.02475,0.117425,-0.070675
1679930057525,1110045879064199,-0.021724999,0.1164625,-0.06765
1679930057526,1110045881566122,-0.0226875,0.1183875,-0.0625625
1679930057531,1110045884068276,-0.021724999,0.1144,-0.0616
1679930057533,1110045886570122,-0.0237875,0.111375,-0.058575
1679930057534,1110045889072184,-0.021724999,0.10945,-0.0576125
1679930057536,1110045891574338,-0.0207625,0.1034,-0.056649998
1679930057540,1110045894076184,-0.0187,0.0944625,-0.05555
1679930057542,1110045896578415,-0.0198,0.08635,-0.053625
1679930057544,1110045899080492,-0.0177375,0.078375,-0.0515625
1679930057547,1110045901582391,-0.015675,0.073425,-0.0435875
1679930057550,1110045904084545,-0.0177375,0.0603625,-0.0405625
1679930057551,1110045906586391,-0.0198,0.046475,-0.037675
1679930057554,1110045909088468,-0.015675,0.032449998,-0.03355
1679930057557,1110045911590699,-0.015675,0.0193875,-0.0276375
1679930057560,1110045914092560,-0.015675,0.001375,-0.025575
1679930057561,1110045916594714,-0.0127875,-0.014575,-0.02255
1679930057564,1110045919096791,-0.0116875,-0.0286,-0.0196625
1679930057568,1110045921598714,-0.0077,-0.0396,-0.0176
1679930057571,1110045924100786,-0.0067375,-0.052525,-0.0185625
1679930057573,1110045926602709,-0.004675,-0.063525,-0.0185625
1679930057575,1110045929104862,-6.875E-4,-0.0726,-0.020624999
1679930057577,1110045931606939,-6.875E-4,-0.080575,-0.0196625
1679930057579,1110045934108881,-6.875E-4,-0.0875875,-0.02255
1679930057582,1110045936611035,0.0012375,-0.093637496,-0.02365
1679930057584,1110045939113112,2.75E-4,-0.1035375,-0.026675
1679930057587,1110045941615035,0.0022,-0.104637496,-0.0276375
1679930057591,1110045944117117,-6.875E-4,-0.108625,-0.0286
1679930057592,1110045946619271,-0.004675,-0.1126125,-0.0325875
1679930057594,1110045949121194,-6.875E-4,-0.118525,-0.031625
1679930057596,1110045951623271,2.75E-4,-0.1145375,-0.0295625
1679930057600,1110045954125194,2.75E-4,-0.115637496,-0.0295625
1679930057602,1110045956627247,-6.875E-4,-0.1175625,-0.0325875
1679930057606,1110045959129401,-0.00275,-0.12155,-0.026675
1679930057607,1110045961631555,-0.0067375,-0.119625,-0.026675
1679930057610,1110045964133478,-0.0017875,-0.1205875,-0.02255
1679930057611,1110045966635540,-6.875E-4,-0.1205875,-0.020624999
1679930057614,1110045969137463,2.75E-4,-0.115637496,-0.0176
1679930057617,1110045971639540,-0.0017875,-0.113575,-0.009625
1679930057619,1110045974141463,-6.875E-4,-0.1145375,-0.0075625
1679930057621,1110045976643617,2.75E-4,-0.113575,-0.0056375
1679930057624,1110045979145710,-0.00275,-0.1095875,-5.5E-4
1679930057627,1110045981647633,-0.00275,-0.102575,0.0034375
1679930057630,1110045984149710,-0.0088,-0.1016125,0.0083875
1679930057632,1110045986651618,-0.0127875,-0.1016125,0.0144375
1679930057634,1110045989153772,-0.014712499,-0.093637496,0.0114124995
1679930057637,1110045991655926,-0.0207625,-0.0925375,0.0193875
1679930057639,1110045994158002,-0.021724999,-0.093637496,0.0224125
1679930057643,1110045996659912,-0.021724999,-0.0925375,0.0264
1679930057645,1110045999161988,-0.0226875,-0.08855,0.0254375
1679930057647,1110046001663912,-0.02475,-0.08855,0.0264
1679930057650,1110046004165988,-0.0257125,-0.0875875,0.0243375
1679930057651,1110046006668142,-0.02475,-0.085525,0.0254375
1679930057654,1110046009170070,-0.02475,-0.085525,0.0254375
1679930057657,1110046011672224,-0.0226875,-0.0836,0.02035
1679930057660,1110046014174301,-0.0198,-0.07755,0.017324999
1679930057661,1110046016676224,-0.0187,-0.0765875,0.0163625
1679930057665,1110046019178301,-0.015675,-0.0726,0.0144375
1679930057668,1110046021680455,-0.0116875,-0.0726,0.012375
1679930057670,1110046024182378,-0.010725,-0.0716375,0.00935
1679930057672,1110046026684455,-0.00275,-0.0655875,0.0083875
1679930057674,1110046029186363,-0.0017875,-0.0616,0.007425
1679930057676,1110046031688440,2.75E-4,-0.0576125,0.007425
1679930057681,1110046034190363,0.0042625,-0.0466125,0.0083875
1679930057683,1110046036692517,0.005225,-0.0396,0.0083875
1679930057685,1110046039194676,0.00825,-0.036575,0.0083875
1679930057686,1110046041696753,0.0122375,-0.03355,0.0114124995
1679930057692,1110046044198676,0.0103124995,-0.0295625,0.012375
1679930057693,1110046046700753,0.0143,-0.031625,0.0133375
1679930057694,1110046049202676,0.015262499,-0.0286,0.0163625
1679930057697,1110046051704758,0.01925,-0.0215875,0.0154
1679930057700,1110046054206681,0.0253,-0.02255,0.0163625
1679930057702,1110046056708835,0.0242,-0.019524999,0.0154
1679930057704,1110046059210989,0.0213125,-0.01155,0.0193875
1679930057707,1110046061713066,0.0202125,-0.0056375,0.0193875
1679930057711,1110046064214989,0.0253,-0.0026125,0.0193875
1679930057711,1110046066717066,0.0213125,4.125E-4,0.017324999
1679930057714,1110046069218989,0.016224999,0.0034375,0.02145
1679930057718,1110046071721142,0.0202125,0.00935,0.02035
1679930057721,1110046074223219,0.022275,0.0154,0.0193875
1679930057725,1110046076724181,0.0213125,0.02035,0.0193875
1679930057725,1110046079225144,0.015262499,0.0273625,0.017324999
1679930057727,1110046081729143,0.015262499,0.035475,0.0224125
1679930057730,1110046084231223,0.0202125,0.043449998,0.02145
1679930057733,1110046086733147,0.01925,0.0504625,0.02035
1679930057734,1110046089235531,0.017324999,0.0603625,0.0193875
1679930057737,1110046091737454,0.0103124995,0.0664125,0.02035
1679930057740,1110046094239527,0.006325,0.0704,0.0193875
1679930057741,1110046096741450,0.00825,0.073425,0.0193875
1679930057744,1110046099243527,0.005225,0.0834625,0.02145
1679930057747,1110046101745450,0.0033,0.0884125,0.023375
1679930057750,1110046104247522,0.0072875,0.0933625,0.0224125
1679930057752,1110046106749753,0.0033,0.0963875,0.023375
1679930057756,1110046109251830,0.005225,0.09735,0.0254375
1679930057758,1110046111753753,0.00825,0.101475,0.0254375
1679930057760,1110046114255839,0.0072875,0.102437496,0.0273625
1679930057762,1110046116757762,0.0072875,0.102437496,0.0303875
1679930057764,1110046119259839,0.0042625,0.1034,0.029424999
1679930057768,1110046121761993,0.005225,0.102437496,0.029424999
1679930057770,1110046124263916,0.0042625,0.095425,0.03135
1679930057772,1110046126766080,0.0033,0.0933625,0.0334125
1679930057774,1110046129268157,0.005225,0.0924,0.0374
1679930057776,1110046131770003,0.005225,0.0853875,0.039325
1679930057780,1110046134272157,0.0042625,0.0774125,0.0413875
1679930057783,1110046136774094,0.0072875,0.0664125,0.040425
1679930057785,1110046139276248,0.0072875,0.054449998,0.043449998
1679930057787,1110046141778325,0.00825,0.0474375,0.0463375
1679930057790,1110046144280248,0.00825,0.04235,0.0493625
1679930057794,1110046146782305,0.0092124995,0.03135,0.050325
1679930057795,1110046149284228,0.006325,0.0163625,0.0474375
1679930057797,1110046151786305,0.0072875,0.01045,0.045375
1679930057800,1110046154288535,0.005225,0.002475,0.0474375
1679930057802,1110046156790612,0.0042625,-0.008525,0.0463375
1679930057804,1110046159292540,0.005225,-0.0185625,0.0444125
1679930057807,1110046161794617,0.0033,-0.0276375,0.0413875
1679930057810,1110046164296540,0.0012375,-0.0325875,0.040425
1679930057811,1110046166798694,0.0012375,-0.0396,0.0383625
1679930057814,1110046169300809,0.006325,-0.047575,0.034375
1679930057816,1110046171802732,0.005225,-0.053625,0.0334125
1679930057820,1110046174304809,0.0072875,-0.0625625,0.034375
1679930057823,1110046176806732,0.017324999,-0.0716375,0.034375
1679930057825,1110046179308805,0.0202125,-0.0836,0.0364375
1679930057828,1110046181810959,0.0202125,-0.08855,0.039325
1679930057832,1110046184312882,0.0232375,-0.0906125,0.040425
1679930057834,1110046186814959,0.0253,-0.0955625,0.04235
1679930057835,1110046189316877,0.028324999,-0.09955,0.0474375
1679930057837,1110046191819031,0.028324999,-0.1016125,0.0493625
1679930057840,1110046194321108,0.0253,-0.09955,0.050325
1679930057842,1110046196823031,0.0253,-0.09955,0.054449998
1679930057844,1110046199325185,0.022275,-0.096525,0.0554125
1679930057847,1110046201827295,0.01925,-0.091575,0.056375
1679930057850,1110046204329218,0.01925,-0.085525,0.0573375
1679930057852,1110046206831295,0.0202125,-0.086625,0.0603625
1679930057854,1110046209333218,0.015262499,-0.0845625,0.0573375
1679930057857,1110046211835387,0.017324999,-0.0845625,0.05335
1679930057860,1110046214337233,0.0182875,-0.085525,0.0554125
1679930057862,1110046216839617,0.0182875,-0.085525,0.054449998
1679930057864,1110046219341541,0.01925,-0.0826375,0.0554125
1679930057869,1110046221843626,0.0202125,-0.0845625,0.0554125
1679930057872,1110046226845550,0.01925,-0.086625,0.0554125
1679930057874,1110046227301550,0.01925,-0.0826375,0.0594
1679930057876,1110046229530396,0.0232375,-0.0836,0.0554125
1679930057878,1110046231851703,0.0253,-0.0836,0.056375
1679930057880,1110046234353838,0.0202125,-0.080575,0.056375
1679930057883,1110046236855684,0.022275,-0.075625,0.0584375
1679930057886,1110046239357838,0.0232375,-0.0765875,0.0584375
1679930057888,1110046241859915,0.0242,-0.07755,0.056375
1679930057890,1110046244361862,0.022275,-0.074525,0.0554125
1679930057892,1110046246863939,0.0213125,-0.0716375,0.056375
1679930057894,1110046249366093,0.0213125,-0.0705375,0.0554125
1679930057897,1110046251868016,0.0232375,-0.0625625,0.0523875
1679930057900,1110046254370083,0.0213125,-0.063525,0.0484
1679930057902,1110046256872006,0.0242,-0.0625625,0.0493625
1679930057908,1110046259374160,0.0242,-0.0576125,0.0493625
1679930057909,1110046261876237,0.0232375,-0.05555,0.0493625
1679930057911,1110046264378401,0.022275,-0.0515625,0.0463375
1679930057913,1110046266880324,0.027224999,-0.0496375,0.0484
1679930057915,1110046269382401,0.022275,-0.0466125,0.0493625
1679930057917,1110046271884324,0.0213125,-0.045649998,0.05335
1679930057921,1110046274386401,0.0253,-0.0435875,0.056375
1679930057924,1110046276888300,0.0202125,-0.045649998,0.0594
1679930057926,1110046279390377,0.0202125,-0.036575,0.061325
1679930057927,1110046281892608,0.01925,-0.0375375,0.06435
1679930057930,1110046284394459,0.01925,-0.042625,0.067375
1679930057932,1110046286896613,0.0122375,-0.041525,0.0704
1679930057936,1110046289398690,0.015262499,-0.036575,0.072325
1679930057940,1110046291900613,0.0171875,-0.03355,0.072325
1679930057940,1110046294402690,0.0182875,-0.0265375,0.073425
1679930057944,1110046296904594,0.0122375,-0.0246125,0.073425
1679930057945,1110046299406747,0.011275,-0.0215875,0.072325
1679930057947,1110046301908824,0.014162499,-0.0185625,0.072325
1679930057950,1110046304410748,0.021175,-0.0166375,0.0713625
1679930057952,1110046306912901,0.0242,-0.014575,0.073425
1679930057954,1110046309414992,0.0251625,-0.0166375,0.0743875
1679930057956,1110046311916915,0.0312125,-0.013612499,0.0704
1679930057960,1110046314419069,0.0281875,-0.01265,0.0664125
1679930057961,1110046316921146,0.027224999,-0.013612499,0.06435
1679930057964,1110046319423069,0.033275,-0.01265,0.0633875
1679930057969,1110046321925165,0.03025,-0.0155375,0.0633875
1679930057970,1110046324427088,0.027224999,-0.013612499,0.062425
1679930057972,1110046326929165,0.027224999,-0.01265,0.0603625
1679930057975,1110046329431319,0.0262625,-0.01155,0.0584375
1679930057977,1110046331933228,0.0251625,-0.009625,0.0594
1679930057983,1110046334435382,0.0232375,-0.014575,0.061325
1679930057984,1110046336937459,0.0202125,-0.0105875,0.061325
1679930057985,1110046339439382,0.022275,-0.01155,0.0603625
1679930057990,1110046341941459,0.021175,-0.014575,0.0594
1679930057991,1110046344443382,0.0232375,-0.0196625,0.0594
1679930057993,1110046346945459,0.0202125,-0.0155375,0.0603625
1679930057994,1110046349447690,0.0202125,-0.0176,0.0603625
1679930057997,1110046351949545,0.0171875,-0.0185625,0.0603625
1679930058000,1110046354451699,0.014162499,-0.0166375,0.0633875
1679930058005,1110046356953545,0.0122375,-0.0155375,0.062425
1679930058007,1110046359455920,0.016224999,-0.014575,0.0633875
1679930058007,1110046361957844,0.014162499,-0.013612499,0.06545
1679930058010,1110046364459920,0.016224999,-0.013612499,0.06545
1679930058011,1110046366961844,0.0092124995,-0.013612499,0.0664125
1679930058014,1110046369463921,0.0022,-0.0155375,0.0633875
1679930058018,1110046371965829,0.0022,-0.013612499,0.06545
1679930058021,1110046374467982,0.0042625,-0.009625,0.0664125
1679930058025,1110046376970059,-0.00275,-0.0056375,0.06545
1679930058025,1110046379471982,-0.005775,-0.0026125,0.0694375
1679930058028,1110046381974059,-0.005775,-5.5E-4,0.08635
1679930058031,1110046384476190,-0.0188375,0.0383625,0.1584
1679930058032,1110046386978113,-0.0507375,0.122375,0.24035
1679930058034,1110046389480190,-0.0567875,0.1153625,0.22935
1679930058036,1110046391982344,-0.0427625,0.073425,0.1794375
1679930058040,1110046394484253,-0.0347875,0.078375,0.15235
1679930058042,1110046396986330,-0.0257125,0.0994125,0.150425
1679930058044,1110046399488253,-0.014712499,0.1144,0.14739999
1679930058048,1110046401990407,-0.010725,0.12045,0.1403875
1679930058050,1110046404492271,-0.0067375,0.128425,0.133375
1679930058052,1110046406994425,-0.0088,0.1343375,0.128425
1679930058058,1110046409496579,-0.0158125,0.1403875,0.12045
1679930058059,1110046411998656,-0.022824999,0.1434125,0.113437496
1679930058061,1110046414500570,-0.0287375,0.139425,0.10835
1679930058063,1110046417002647,-0.033825,0.1354375,0.102437496
1679930058064,1110046419504570,-0.0378125,0.128425,0.1034
1679930058069,1110046422006647,-0.0427625,0.12045,0.100375
1679930058071,1110046424508815,-0.043725,0.1123375,0.1034
1679930058074,1110046427010969,-0.038775,0.1043625,0.1043625
1679930058075,1110046429512892,-0.0347875,0.0994125,0.1043625
1679930058077,1110046432014738,-0.0347875,0.0793375,0.111375
1679930058080,1110046434516892,-0.033825,0.073425,0.1144
1679930058082,1110046437018960,-0.0308,0.0664125,0.1144
1679930058084,1110046439520883,-0.0287375,0.054449998,0.12045
1679930058090,1110046442023037,-0.022824999,0.0493625,0.122375
1679930058091,1110046444525113,-0.0198,0.043449998,0.1233375
1679930058094,1110046447027060,-0.0207625,0.0394625,0.1263625
1679930058095,1110046449529213,-0.0158125,0.0364375,0.128425
1679930058097,1110046452031060,-0.0127875,0.029424999,0.128425
1679930058099,1110046454533213,-0.0127875,0.0243375,0.127325
1679930058101,1110046457035290,-0.0097624995,0.0243375,0.1293875
1679930058104,1110046459537213,-0.0078375,0.02035,0.124437496
1679930058107,1110046462039367,-0.0088,0.018424999,0.1233375
1679930058110,1110046464541213,-0.00275,0.02035,0.1263625
1679930058114,1110046467043367,0.0012375,0.0163625,0.124437496
1679930058115,1110046469545463,0.0042625,0.0174625,0.11935
1679930058117,1110046472047386,0.0072875,0.0163625,0.1153625
1679930058119,1110046474549540,0.0092124995,0.0174625,0.10835
1679930058124,1110046477051694,0.015262499,0.0193875,0.1043625
1679930058125,1110046479553535,0.01925,0.0224125,0.1034
1679930058127,1110046482055689,0.0251625,0.0193875,0.102437496
1679930058133,1110046484557766,0.0251625,0.0284625,0.09735
1679930058137,1110046487059675,0.0281875,0.0284625,0.095425
1679930058138,1110046489561752,0.03025,0.0284625,0.089375
1679930058140,1110046492063906,0.0312125,0.0273625,0.083325
1679930058141,1110046494565829,0.032175,0.02145,0.0804375
1679930058142,1110046497067983,0.032175,0.02145,0.0743875
1679930058144,1110046499569829,0.032175,0.0224125,0.072325
1679930058149,1110046502071896,0.0312125,0.0243375,0.0713625
1679930058151,1110046504574050,0.03025,0.0224125,0.0664125
1679930058152,1110046507076204,0.0262625,0.02035,0.06435
1679930058154,1110046509578127,0.027224999,0.02145,0.062425
1679930058157,1110046512080204,0.0262625,0.02035,0.062425
1679930058160,1110046514582113,0.0262625,0.0174625,0.061325
1679930058162,1110046517084190,0.0312125,0.0154,0.0633875
1679930058164,1110046519586113,0.0242,0.0163625,0.0633875
1679930058171,1110046522088170,0.0202125,0.0133375,0.062425
1679930058173,1110046524590400,0.0232375,0.0163625,0.062425
1679930058174,1110046527092246,0.027224999,0.0193875,0.0573375
1679930058176,1110046529594400,0.022275,0.0163625,0.061325
1679930058178,1110046532096247,0.022275,0.0154,0.0633875
1679930058181,1110046534598410,0.021175,0.0163625,0.0633875
1679930058183,1110046537100487,0.021175,0.0154,0.06435
1679930058185,1110046539602410,0.0202125,0.0114124995,0.0664125
1679930058188,1110046542104564,0.0171875,0.0154,0.0704
1679930058192,1110046544606704,0.0171875,0.018424999,0.0713625
1679930058192,1110046547108550,0.0232375,0.018424999,0.073425
1679930058194,1110046549610627,0.0232375,0.02035,0.072325
1679930058199,1110046552112781,0.01925,0.0174625,0.0743875
1679930058201,1110046554614704,0.0182875,0.02035,0.073425
1679930058203,1110046557116776,0.021175,0.023375,0.073425
1679930058208,1110046559618699,0.0242,0.02035,0.0804375
1679930058210,1110046562120853,0.0251625,0.023375,0.0814
1679930058212,1110046564622699,0.027224999,0.0224125,0.0793375
1679930058213,1110046567124862,0.0312125,0.0243375,0.0793375
1679930058215,1110046569627016,0.027224999,0.0243375,0.0774125
1679930058217,1110046572129093,0.0262625,0.0273625,0.07645
1679930058220,1110046574631016,0.0281875,0.034375,0.072325
1679930058223,1110046577133093,0.0262625,0.0364375,0.0713625
1679930058225,1110046579635016,0.0262625,0.04235,0.0704
1679930058228,1110046582137170,0.0251625,0.0394625,0.067375
1679930058230,1110046584639247,0.0242,0.043449998,0.06435
1679930058232,1110046587141400,0.022275,0.0504625,0.0633875
1679930058234,1110046589643257,0.01925,0.051425,0.06545
1679930058237,1110046592145410,0.01925,0.0493625,0.061325
1679930058241,1110046594647334,0.0202125,0.0484,0.0603625
1679930058244,1110046597149411,0.021175,0.0493625,0.0594
1679930058245,1110046599651329,0.0202125,0.0504625,0.0584375
1679930058247,1110046602153482,0.0202125,0.045375,0.0603625
1679930058250,1110046604655559,0.0202125,0.040425,0.0584375
1679930058252,1110046607157482,0.01925,0.0374,0.05335
1679930058254,1110046609659559,0.016224999,0.0374,0.056375
1679930058257,1110046612161492,0.016224999,0.0353375,0.0523875
1679930058260,1110046614663646,0.014162499,0.0303875,0.0463375
1679930058262,1110046617165800,0.014162499,0.0273625,0.0484
1679930058265,1110046619667877,0.0122375,0.0243375,0.045375
1679930058268,1110046622169800,0.010175,0.0264,0.0463375
1679930058271,1110046624671877,0.0031625,0.02145,0.045375
1679930058273,1110046627173800,0.0042625,0.018424999,0.043449998
1679930058275,1110046629675954,0.0042625,0.018424999,0.04235
1679930058277,1110046632177800,0.00825,0.0174625,0.040425
1679930058283,1110046634680180,0.010175,0.0163625,0.040425
1679930058284,1110046637182103,0.0092124995,0.012375,0.039325
1679930058286,1110046639684180,0.0072875,0.0144375,0.039325
1679930058287,1110046642186103,0.010175,0.01045,0.034375
1679930058290,1110046644688185,0.010175,0.0044,0.034375
1679930058292,1110046647190108,0.0122375,4.125E-4,0.0374
1679930058295,1110046649692185,0.011275,0.001375,0.040425
1679930058297,1110046652194339,0.0122375,-0.0045375,0.0383625
1679930058300,1110046654696233,0.016224999,-0.009625,0.0383625
1679930058302,1110046657198387,0.0182875,-0.009625,0.034375
1679930058305,1110046659700233,0.0202125,-0.009625,0.032449998
1679930058308,1110046662202387,0.01925,-0.009625,0.03135
1679930058311,1110046664704479,0.0182875,-0.0056375,0.029424999
1679930058312,1110046667206632,0.0171875,-0.0086624995,0.0273625
1679930058314,1110046669708556,0.016224999,-0.0066,0.0243375
1679930058319,1110046672210632,0.015262499,-0.003575,0.0163625
1679930058321,1110046674712551,0.011275,4.125E-4,0.0144375
1679930058324,1110046677214704,0.00825,-0.00165,0.0163625
1679930058326,1110046679716551,0.0072875,-0.003575,0.017324999
1679930058329,1110046682218704,0.005225,-0.0056375,0.0133375
1679930058331,1110046684720853,0.0031625,-0.003575,0.0114124995
1679930058333,1110046687222930,0.0012375,-0.0075625,0.00935
1679930058334,1110046689724853,0.0031625,-0.00165,0.0114124995
1679930058337,1110046692226930,0.0031625,0.001375,0.00935
1679930058341,1110046694728853,2.75E-4,0.0023375,0.01045
1679930058343,1110046697230926,0.0031625,0.0023375,0.012375
1679930058345,1110046699732849,0.0031625,0.0023375,0.0114124995
1679930058348,1110046702235003,0.0012375,0.0023375,0.0083875
1679930058351,1110046704737157,0.005225,0.0053625,0.01045
1679930058352,1110046707239022,0.0061875,0.007425,0.0114124995
1679930058357,1110046709741176,0.0031625,0.0044,0.0133375
1679930058358,1110046712243253,0.0022,0.0034375,0.0133375
1679930058360,1110046714745176,0.0042625,0.0023375,0.0133375
1679930058363,1110046717247344,0.005225,4.125E-4,0.0114124995
1679930058365,1110046719749421,0.0022,0.001375,0.0083875
1679930058367,1110046722251344,0.0022,0.0034375,0.007425
1679930058374,1110046724753421,0.0022,-0.0026125,0.0083875
1679930058375,1110046727255575,0.005225,-0.0045375,0.00935
1679930058377,1110046729757421,0.005225,-0.0026125,0.006325
1679930058378,1110046732259575,0.0031625,-0.003575,0.0053625
1679930058380,1110046734761498,0.0061875,0.001375,0.0053625
1679930058382,1110046737263652,0.0072875,0.0053625,0.0023375
1679930058385,1110046739765720,0.005225,0.0053625,4.125E-4
1679930058388,1110046742267643,0.0022,0.0034375,0.001375
1679930058392,1110046744769796,0.0022,0.007425,4.125E-4
1679930058394,1110046747271873,0.0042625,0.0064625,-5.5E-4
1679930058396,1110046749773796,0.0072875,0.01045,-0.0026125
1679930058398,1110046752275873,0.005225,0.0064625,-0.0056375
1679930058401,1110046754777797,0.0042625,0.0044,-0.003575
1679930058403,1110046757279950,0.0031625,0.0064625,-0.00165
1679930058405,1110046759782027,0.0012375,0.0163625,-0.004675
1679930058407,1110046762284181,-8.25E-4,0.0174625,-0.0075625
1679930058410,1110046764786104,-0.0017875,0.02035,-0.0086624995
1679930058412,1110046767288181,-0.0017875,0.02145,-0.009625
1679930058416,1110046769790104,-0.00275,0.0243375,-0.009625
1679930058418,1110046772292181,-0.0078375,0.029424999,-0.0105875
1679930058419,1110046774794104,-0.0088,0.029424999,-0.01155
1679930058422,1110046777296258,-0.010725,0.0264,-0.01265
1679930058425,1110046779798412,-0.010725,0.0273625,-0.01265
1679930058428,1110046782300276,-0.0078375,0.03135,-0.015675
1679930058432,1110046784802430,-0.01375,0.034375,-0.014575
1679930058434,1110046787304507,-0.0188375,0.0383625,-0.015675
1679930058436,1110046789806430,-0.021724999,0.0374,-0.0166375
1679930058437,1110046792308507,-0.0237875,0.032449998,-0.0176
1679930058440,1110046794810661,-0.02475,0.0243375,-0.0105875
1679930058442,1110046797312584,-0.02475,0.02145,-0.0066
1679930058445,1110046799814661,-0.021724999,0.0193875,-0.0056375
1679930058447,1110046802316584,-0.02475,0.02145,-0.0056375
1679930058450,1110046804818657,-0.02585,0.018424999,-0.00165
1679930058452,1110046807320811,-0.022824999,0.018424999,0.0023375
1679930058455,1110046809822657,-0.0198,0.0174625,0.0083875
1679930058457,1110046812324888,-0.0158125,0.0224125,0.006325
1679930058460,1110046814826968,-0.0177375,0.0303875,0.0083875
1679930058463,1110046817328892,-0.0177375,0.0303875,0.00935
1679930058465,1110046819830969,-0.01485,0.032449998,0.012375
1679930058471,1110046822332878,-0.01375,0.04235,0.012375
1679930058474,1110046824833917,-0.010725,0.043449998,0.0133375
1679930058474,1110046827334956,-0.0088,0.0493625,0.00935
1679930058476,1110046829839031,-0.0078375,0.056375,0.007425
1679930058478,1110046832341185,-0.005775,0.0594,0.00935
1679930058480,1110046834843021,-0.00275,0.0633875,0.00935
1679930058482,1110046837345175,2.75E-4,0.0633875,0.00935
1679930058485,1110046839847252,-8.25E-4,0.0724625,0.006325
1679930058488,1110046842349175,2.75E-4,0.0823625,0.0044
1679930058490,1110046844851329,0.0012375,0.08635,0.0044
1679930058492,1110046847353425,2.75E-4,0.0884125,0.0044
1679930058496,1110046849855348,0.005225,0.0924,0.007425
1679930058497,1110046852357425,0.00715,0.0903375,0.00935
1679930058500,1110046854859579,0.011275,0.0963875,0.007425
1679930058502,1110046857361415,0.015262499,0.1013375,0.006325
1679930058506,1110046859863646,0.015262499,0.1073875,0.0044
1679930058509,1110046862365492,0.0122375,0.111375,0.0023375
1679930058511,1110046864867646,0.0122375,0.1153625,4.125E-4
1679930058513,1110046867369718,0.011275,0.117425,-0.00165
1679930058515,1110046869871641,0.011275,0.1183875,-0.003575
1679930058517,1110046872373718,0.011275,0.1153625,-5.5E-4
1679930058520,1110046874875872,0.015262499,0.1123375,0.001375
1679930058523,1110046877377795,0.01925,0.1144,-0.00165
1679930058525,1110046879879949,0.016224999,0.1183875,-0.004675
1679930058527,1110046882382026,0.01815,0.1214125,-0.0066
1679930058530,1110046884883949,0.022275,0.1214125,-0.0086624995
1679930058532,1110046887386026,0.022275,0.1183875,-0.0086624995
1679930058535,1110046889887964,0.022275,0.1183875,-0.009625
1679930058538,1110046892390041,0.0232375,0.1153625,-0.0086624995
1679930058541,1110046894892194,0.0262625,0.1164625,-0.0086624995
1679930058544,1110046897394118,0.0251625,0.12045,-0.0105875
1679930058546,1110046899896208,0.0262625,0.12045,-0.0105875
1679930058548,1110046902398362,0.0242,0.111375,-0.0086624995
1679930058551,1110046904900208,0.0251625,0.1104125,-0.0086624995
1679930058553,1110046907402362,0.0262625,0.113437496,-0.0105875
1679930058555,1110046909904516,0.022275,0.1144,-0.01155
1679930058557,1110046912406448,0.0232375,0.10945,-0.0105875
1679930058562,1110046914908525,0.0251625,0.106425,-0.01155
1679930058569,1110046917410448,0.0242,0.1073875,-0.0086624995
1679930058569,1110046919912525,0.0251625,0.1043625,-0.0066
1679930058570,1110046922414453,0.0281875,0.1034,-0.003575
1679930058571,1110046924916607,0.0281875,0.10945,-0.0026125
1679930058574,1110046927418684,0.0262625,0.10945,-0.004675
1679930058575,1110046929920607,0.0251625,0.1104125,-0.004675
1679930058578,1110046932422684,0.0242,0.10945,-0.00165
1679930058581,1110046934924607,0.0251625,0.1043625,-0.0026125
1679930058583,1110046937426761,0.027224999,0.102437496,-0.0026125
1679930058585,1110046939928915,0.027224999,0.100375,-0.00165
1679930058587,1110046942431002,0.0251625,0.09735,-0.00165
1679930058591,1110046944932925,0.0251625,0.0994125,4.125E-4
1679930058592,1110046947435002,0.0251625,0.102437496,-0.00165
1679930058594,1110046949936925,0.0251625,0.09735,-0.0026125
1679930058597,1110046952439002,0.022275,0.09735,-0.0026125
1679930058600,1110046954941136,0.022275,0.0933625,-5.5E-4
1679930058603,1110046957443059,0.027224999,0.0884125,0.0034375
1679930058607,1110046959945213,0.0251625,0.0933625,0.001375
1679930058608,1110046962447059,0.022275,0.095425,0.001375
1679930058610,1110046964949199,0.022275,0.095425,0.0044
1679930058612,1110046967451045,0.0202125,0.0924,0.0034375
1679930058615,1110046969953199,0.01815,0.08745,0.001375
1679930058619,1110046972455376,0.01925,0.08635,0.0053625
1679930058622,1110046974957453,0.0202125,0.0853875,0.007425
1679930058627,1110046977459376,0.01925,0.0804375,0.007425
1679930058627,1110046979961453,0.0122375,0.0814,0.0083875
1679930058628,1110046982463377,0.011275,0.078375,0.0083875
1679930058630,1110046984965444,0.010175,0.0774125,0.007425
1679930058632,1110046987467675,0.0092124995,0.07645,0.0083875
1679930058635,1110046989969752,0.0031625,0.0694375,0.00935
1679930058639,1110046992471675,0.0042625,0.06545,0.01045
1679930058641,1110046994973785,0.0042625,0.062425,0.0114124995
1679930058642,1110046997475708,0.00825,0.062425,0.0114124995
1679930058647,1110046999977785,0.010175,0.0603625,0.012375
1679930058648,1110047002479708,0.011275,0.056375,0.0144375
1679930058650,1110047004981862,0.010175,0.0594,0.0133375
1679930058652,1110047007483939,0.0122375,0.0493625,0.012375
1679930058659,1110047009986093,0.0171875,0.045375,0.0114124995
1679930058660,1110047012487939,0.0122375,0.045375,0.0083875
1679930058662,1110047014990093,0.0122375,0.043449998,0.00935
1679930058663,1110047017491939,0.016224999,0.0364375,0.00935
1679930058665,1110047019994170,0.0122375,0.034375,0.0083875
1679930058668,1110047022496247,0.015262499,0.032449998,0.0023375
1679930058671,1110047024998189,0.0171875,0.03135,0.0023375
1679930058673,1110047027500266,0.01815,0.029424999,0.0044
1679930058676,1110047030002189,0.014162499,0.0243375,-0.00165
1679930058677,1110047032504266,0.011275,0.0224125,-0.004675
1679930058680,1110047035006420,0.011275,0.0224125,-0.003575
1679930058682,1110047037508363,0.00825,0.02035,-0.0075625
1679930058685,1110047040010517,0.00715,0.02035,-0.009625
1679930058687,1110047042512593,0.00825,0.02035,-0.009625
1679930058690,1110047045014517,0.00825,0.0163625,-0.0075625
1679930058694,1110047047516560,0.00715,0.007425,-0.009625
1679930058695,1110047050018483,0.0031625,0.0023375,-0.015675
1679930058698,1110047052520560,0.0012375,-0.0026125,-0.015675
1679930058700,1110047055022713,-0.0017875,-0.009625,-0.0176
1679930058702,1110047057524867,-0.00275,-0.01265,-0.0185625
1679930058705,1110047060026694,-0.0017875,-0.0246125,-0.0185625
1679930058708,1110047062528848,-8.25E-4,-0.0295625,-0.0185625
1679930058711,1110047065030771,-8.25E-4,-0.0375375,-0.0176
1679930058713,1110047067532848,-0.0017875,-0.045649998,-0.0166375
1679930058714,1110047070034978,-8.25E-4,-0.0485375,-0.015675
1679930058718,1110047072536901,-8.25E-4,-0.053625,-0.015675
1679930058722,1110047075038978,-0.0048125,-0.0576125,-0.01265
1679930058725,1110047077540901,-0.0048125,-0.0595375,-0.01265
1679930058726,1110047080042982,-0.0067375,-0.05555,-0.0105875
1679930058728,1110047082544905,-0.0067375,-0.0595375,-0.0086624995
1679930058733,1110047085047059,-0.00275,-0.0595375,-0.0066
1679930058735,1110047087549136,-0.0048125,-0.0576125,-0.0056375
1679930058736,1110047090127271,-0.005775,-0.0515625,-0.0026125
1679930058741,1110047092553194,-0.0048125,-0.0506,-0.0026125
1679930058743,1110047095055271,-0.0017875,-0.0515625,-0.0026125
1679930058744,1110047097557194,-8.25E-4,-0.0485375,-0.00165
1679930058745,1110047100059271,-0.0017875,-0.0435875,-5.5E-4
1679930058748,1110047102561425,2.75E-4,-0.0356125,4.125E-4
1679930058751,1110047105063579,-8.25E-4,-0.0295625,-5.5E-4
1679930058753,1110047107565425,0.0012375,-0.0215875,0.001375
1679930058755,1110047110067579,0.0031625,-0.0176,0.001375
1679930058757,1110047112569502,0.0031625,-0.01265,-5.5E-4
1679930058760,1110047115071632,0.0042625,-0.0105875,-5.5E-4
1679930058763,1110047117573708,0.00715,-0.0066,-0.003575
1679930058765,1110047120075632,0.00715,-5.5E-4,-0.0056375
1679930058769,1110047122577699,0.0031625,0.007425,-0.0075625
1679930058772,1110047125079623,0.00715,0.0144375,-0.009625
1679930058774,1110047127581699,0.0061875,0.018424999,-0.014575
1679930058776,1110047130083853,0.0092124995,0.0273625,-0.014575
1679930058778,1110047132585776,0.00825,0.0303875,-0.0185625
1679930058782,1110047135087848,0.010175,0.0364375,-0.02365
1679930058783,1110047137590002,0.011275,0.043449998,-0.02365
1679930058785,1110047140091848,0.0122375,0.0493625,-0.025575
1679930058788,1110047142594002,0.0092124995,0.054449998,-0.031625
1679930058792,1110047145095920,0.011275,0.0594,-0.034649998
1679930058793,1110047147598074,0.0122375,0.0603625,-0.034649998
1679930058794,1110047150100151,0.011275,0.0614625,-0.0356125
1679930058797,1110047152602074,0.010175,0.0614625,-0.0405625
1679930058803,1110047155104146,0.010175,0.06545,-0.0405625
1679930058804,1110047157606300,0.011275,0.0664125,-0.0435875
1679930058807,1110047160108146,0.0042625,0.0664125,-0.0435875
1679930058810,1110047162610300,0.0031625,0.062425,-0.045649998
1679930058811,1110047165112449,0.00715,0.0614625,-0.04455
1679930058813,1110047167614372,0.0031625,0.0554125,-0.045649998
1679930058815,1110047170116449,2.75E-4,0.05335,-0.0506
1679930058817,1110047172618372,2.75E-4,0.0523875,-0.0515625
1679930058821,1110047175120449,-0.00275,0.0493625,-0.0496375
1679930058823,1110047177622372,-0.0078375,0.0463375,-0.045649998
1679930058825,1110047180124526,-0.0078375,0.0374,-0.047575
1679930058828,1110047182626603,-0.0097624995,0.0353375,-0.04455
1679930058831,1110047185128757,-0.0097624995,0.0374,-0.0435875
1679930058832,1110047187630603,-0.010725,0.032449998,-0.042625
1679930058835,1110047190132757,-0.01485,0.0273625,-0.037675
1679930058837,1110047192634680,-0.0127875,0.0224125,-0.036575
1679930058840,1110047195136757,-0.0158125,0.018424999,-0.0325875
1679930058844,1110047197638905,-0.0188375,0.0133375,-0.0286
1679930058846,1110047200140828,-0.0198,0.0133375,-0.025575
1679930058847,1110047202642905,-0.0177375,0.007425,-0.02365
1679930058850,1110047205144828,-0.0198,0.0044,-0.0215875
1679930058852,1110047207646905,-0.0198,0.001375,-0.0196625
1679930058855,1110047210148820,-0.0207625,4.125E-4,-0.0185625
1679930058857,1110047212651204,-0.021724999,-0.00165,-0.0166375
1679930058860,1110047215153127,-0.0198,-0.00165,-0.01265
1679930058862,1110047217655204,-0.0177375,-0.0045375,-0.0166375
1679930058868,1110047220157107,-0.0198,-0.0075625,-0.015675
1679930058870,1110047222659184,-0.0198,-0.0066,-0.01265
1679930058873,1110047225161107,-0.016775,-0.01155,-0.0166375
1679930058874,1110047227663184,-0.016775,-0.0166375,-0.0176
1679930058876,1110047230165338,-0.0207625,-0.0166375,-0.0166375
1679930058878,1110047232667483,-0.0188375,-0.0155375,-0.020624999
1679930058883,1110047235169329,-0.0177375,-0.0166375,-0.02365
1679930058885,1110047237671252,-0.0177375,-0.020624999,-0.0215875
1679930058886,1110047240173425,-0.0188375,-0.025575,-0.0215875
1679930058888,1110047242675502,-0.0158125,-0.0276375,-0.0246125
1679930058891,1110047245177425,-0.016775,-0.0265375,-0.025575
1679930058893,1110047247679579,-0.0188375,-0.0265375,-0.0276375
1679930058895,1110047250181656,-0.0188375,-0.0246125,-0.0286
1679930058897,1110047252683579,-0.0188375,-0.025575,-0.026675
1679930058900,1110047255185656,-0.0198,-0.0215875,-0.0286
1679930058902,1110047257687579,-0.0177375,-0.020624999,-0.0286
1679930058908,1110047260189656,-0.0207625,-0.0185625,-0.0295625
1679930058909,1110047262691901,-0.0207625,-0.0246125,-0.0295625
1679930058911,1110047265193977,-0.0177375,-0.0265375,-0.0295625
1679930058913,1110047267695901,-0.021724999,-0.0265375,-0.0295625
1679930058915,1110047270197977,-0.0268125,-0.0295625,-0.0276375
1679930058919,1110047272699873,-0.0237875,-0.0295625,-0.0286
1679930058923,1110047275201950,-0.0207625,-0.0286,-0.0215875
1679930058925,1110047277727796,-0.022824999,-0.0295625,-0.0215875
1679930058927,1110047280206026,-0.0207625,-0.0325875,-0.02255
1679930058930,1110047282708127,-0.0198,-0.034649998,-0.02255
1679930058931,1110047285210050,-0.016775,-0.03355,-0.0215875
1679930058933,1110047287712204,-0.0158125,-0.034649998,-0.0196625
1679930058935,1110047290214281,-0.0177375,-0.0375375,-0.015675
1679930058938,1110047292716204,-0.0198,-0.042625,-0.0185625
1679930058940,1110047295218281,-0.0207625,-0.0466125,-0.0185625
1679930058942,1110047297720435,-0.0198,-0.045649998,-0.015675
1679930058945,1110047300222358,-0.0188375,-0.047575,-0.0176
1679930058948,1110047302724435,-0.0207625,-0.0485375,-0.015675
1679930058951,1110047305226362,-0.021724999,-0.04455,-0.015675
1679930058953,1110047307728516,-0.022824999,-0.047575,-0.015675
1679930058957,1110047310230593,-0.0207625,-0.0435875,-0.0166375
1679930058960,1110047312732516,-0.0207625,-0.0396,-0.01265
1679930058962,1110047315234579,-0.0207625,-0.0396,-0.014575
1679930058963,1110047317736502,-0.0198,-0.0386375,-0.014575
1679930058965,1110047320238656,-0.0177375,-0.0356125,-0.01265
1679930058967,1110047322740733,-0.016775,-0.0295625,-0.014575
1679930058970,1110047325242887,-0.01375,-0.0265375,-0.01265
1679930058973,1110047327744728,-0.010725,-0.02255,-0.014575
1679930058975,1110047330246882,-0.0097624995,-0.0185625,-0.01155
1679930058977,1110047332748805,-0.011825,-0.01155,-0.01265
1679930058980,1110047335250882,-0.0088,-0.009625,-0.01265
1679930058983,1110047337752791,-0.0088,-0.0075625,-0.01155
1679930058985,1110047340254945,-0.0088,-0.0045375,-0.01155
1679930058988,1110047342757022,-0.0067375,-0.00165,-0.01265
1679930058992,1110047345258945,-0.0078375,0.001375,-0.0105875
1679930058995,1110047347761099,-0.0067375,0.0034375,-0.009625
1679930058996,1110047350262945,-0.00275,0.01045,-0.0086624995
1679930058999,1110047352765099,0.0012375,0.0114124995,-0.0086624995
1679930059001,1110047355267175,0.0022,0.012375,-0.0075625
1679930059003,1110047357769329,0.0031625,0.0163625,-0.0075625
1679930059005,1110047360271237,0.005225,0.0193875,-0.0105875
1679930059008,1110047362773314,0.0061875,0.0273625,-0.0105875
1679930059011,1110047365275237,0.0072875,0.0303875,-0.01155
1679930059013,1110047367777391,0.0061875,0.034375,-0.0105875
1679930059015,1110047370279242,0.00825,0.034375,-0.01155
1679930059018,1110047372781627,0.00825,0.0394625,-0.01265
1679930059020,1110047375283550,0.00825,0.04235,-0.014575
1679930059023,1110047377785627,0.011275,0.0493625,-0.01265
1679930059025,1110047380287564,0.011275,0.054449998,-0.014575
1679930059029,1110047382789641,0.010175,0.056375,-0.01265
1679930059033,1110047385291564,0.0122375,0.056375,-0.015675
1679930059035,1110047387793718,0.0122375,0.0594,-0.0176
1679930059036,1110047390295843,0.0122375,0.0603625,-0.0166375
1679930059040,1110047392797766,0.0092124995,0.0603625,-0.0166375
1679930059043,1110047395299920,0.0092124995,0.0603625,-0.015675
1679930059045,1110047397801766,0.0072875,0.05335,-0.01265
1679930059047,1110047400303920,0.00825,0.0523875,-0.015675
1679930059049,1110047402805997,0.0092124995,0.0493625,-0.014575
1679930059051,1110047405307920,0.0061875,0.043449998,-0.015675
1679930059052,1110047407810074,0.005225,0.0394625,-0.0176
1679930059055,1110047410312151,0.0022,0.0364375,-0.0185625
1679930059057,1110047412814074,0.0012375,0.032449998,-0.0185625
1679930059060,1110047415316228,0.0042625,0.0334125,-0.0196625
1679930059062,1110047417818074,0.0042625,0.0303875,-0.020624999
1679930059065,1110047420320228,0.0022,0.0264,-0.0185625
1679930059070,1110047422822291,0.0061875,0.0224125,-0.0176
1679930059074,1110047425323368,0.0072875,0.02145,-0.0176
1679930059074,1110047427824445,0.00825,0.0174625,-0.0176
1679930059076,1110047430328444,0.010175,0.0193875,-0.015675
1679930059078,1110047432830368,0.010175,0.018424999,-0.0166375
1679930059081,1110047435332444,0.0092124995,0.02035,-0.0185625
1679930059083,1110047437834368,0.010175,0.02145,-0.0196625
1679930059086,1110047440336521,0.010175,0.0224125,-0.0215875
1679930059088,1110047442838675,0.010175,0.0243375,-0.02365
1679930059090,1110047445340521,0.010175,0.0224125,-0.02255
1679930059093,1110047447842689,0.011275,0.0224125,-0.02365
1679930059095,1110047450344766,0.0092124995,0.02035,-0.0246125
1679930059098,1110047452846689,0.010175,0.02145,-0.025575
1679930059100,1110047455348843,0.0092124995,0.0243375,-0.0295625
1679930059103,1110047457850882,0.00825,0.0193875,-0.026675
1679930059107,1110047460352805,0.0072875,0.0174625,-0.031625
1679930059111,1110047462854882,0.0072875,0.0174625,-0.0295625
1679930059112,1110047465356805,0.0072875,0.0174625,-0.0276375
1679930059113,1110047467858896,0.010175,0.0114124995,-0.0286
1679930059115,1110047470361050,0.0072875,0.0144375,-0.026675
1679930059118,1110047472863204,0.0072875,0.0163625,-0.025575
1679930059121,1110047475365127,0.010175,0.0163625,-0.025575
1679930059124,1110047477867218,0.0072875,0.0163625,-0.02255
1679930059126,1110047480369141,0.0042625,0.0114124995,-0.02365
1679930059129,1110047482871218,0.0092124995,0.0133375,-0.02365
1679930059131,1110047485373141,0.0072875,0.0174625,-0.0246125
1679930059133,1110047487875218,0.005225,0.0174625,-0.0246125
1679930059144,1110047490377454,0.0022,0.02145,-0.026675
1679930059145,1110047492879530,0.005225,0.0243375,-0.026675
1679930059145,1110047495381454,0.005225,0.018424999,-0.0246125
1679930059147,1110047497883531,0.0042625,0.02035,-0.02255
1679930059153,1110047500385454,0.0061875,0.0193875,-0.02255
1679930059154,1110047502887607,0.011275,0.02035,-0.0196625
1679930059154,1110047505389684,0.0092124995,0.0273625,-0.0166375
1679930059156,1110047507891607,0.0092124995,0.0303875,-0.0185625
1679930059157,1110047510393684,0.011275,0.0334125,-0.015675
1679930059158,1110047512895626,0.010175,0.0364375,-0.015675
1679930059160,1110047515397703,0.0092124995,0.0364375,-0.0185625
1679930059162,1110047517899857,0.010175,0.034375,-0.014575
1679930059165,1110047520401780,0.011275,0.034375,-0.0105875
1679930059168,1110047522903945,0.0092124995,0.034375,-0.014575
1679930059171,1110047525405791,0.00825,0.032449998,-0.0166375
1679930059173,1110047527907945,0.00825,0.0303875,-0.01155
1679930059175,1110047530410022,0.0072875,0.0334125,-0.015675
1679930059178,1110047532912194,0.0072875,0.034375,-0.0176
1679930059182,1110047535414117,0.0072875,0.029424999,-0.015675
1679930059184,1110047537916194,0.0072875,0.0303875,-0.015675
1679930059186,1110047540418117,0.0072875,0.03135,-0.014575
1679930059192,1110047542920194,0.0072875,0.029424999,-0.014575
1679930059192,1110047545422348,0.010175,0.023375,-0.01155
1679930059193,1110047547924194,0.011275,0.02035,-0.0105875
1679930059195,1110047550426425,0.0122375,0.0224125,-0.0086624995
1679930059197,1110047552928502,0.014162499,0.023375,-0.0075625
1679930059200,1110047555430412,0.0122375,0.023375,-0.0086624995
1679930059202,1110047557932489,0.0122375,0.023375,-0.01155
1679930059205,1110047560434412,0.0171875,0.02145,-0.0075625
1679930059207,1110047562936489,0.0182875,0.0144375,-0.0056375
1679930059210,1110047565438628,0.021175,0.0163625,-0.0056375
1679930059212,1110047567940551,0.0251625,0.0174625,-0.0075625
1679930059215,1110047570442705,0.0242,0.02035,-0.0086624995
1679930059219,1110047572944791,0.0232375,0.0243375,-0.009625
1679930059223,1110047575446638,0.022275,0.0264,-0.01155
1679930059224,1110047577948791,0.021175,0.02035,-0.01265
1679930059226,1110047580450715,0.022275,0.018424999,-0.01155
1679930059228,1110047582952868,0.021175,0.0193875,-0.015675
1679930059231,1110047585454935,0.021175,0.02145,-0.0176
1679930059233,1110047587956858,0.0202125,0.0193875,-0.0166375
1679930059235,1110047590458935,0.0182875,0.0193875,-0.015675
1679930059238,1110047592961089,0.015262499,0.0193875,-0.0166375
1679930059241,1110047595462945,0.0122375,0.0174625,-0.0166375
1679930059243,1110047597965099,0.0122375,0.0174625,-0.015675
1679930059245,1110047600467253,0.0092124995,0.0154,-0.014575
1679930059248,1110047602969176,0.005225,0.0133375,-0.014575
1679930059250,1110047605471253,0.0061875,0.00935,-0.01155
1679930059253,1110047607973176,0.005225,0.0114124995,-0.0185625
1679930059258,1110047610475253,0.0022,0.012375,-0.0185625
1679930059260,1110047612977176,0.0012375,0.0133375,-0.0176
1679930059262,1110047615479330,0.0031625,0.0064625,-0.015675
1679930059263,1110047617981407,0.0012375,0.012375,-0.01155
1679930059265,1110047620483561,-8.25E-4,0.0144375,-0.014575
1679930059268,1110047622985484,0.0042625,0.018424999,-0.0086624995
1679930059272,1110047625487579,0.0042625,0.0133375,-0.0105875
1679930059274,1110047627989502,0.0042625,0.02035,-0.014575
1679930059275,1110047630491579,0.0022,0.02145,-0.0066
1679930059278,1110047632993733,0.005225,0.02145,-0.0056375
1679930059280,1110047635495656,0.0061875,0.018424999,-0.0066
1679930059282,1110047637997719,0.0042625,0.0193875,-0.0066
1679930059285,1110047640499873,0.0061875,0.02145,-0.0066
1679930059287,1110047643001719,0.0031625,0.0224125,-0.009625
1679930059290,1110047645503642,0.0042625,0.02145,-0.009625
1679930059294,1110047648005791,0.005225,0.0174625,-0.0086624995
1679930059296,1110047650507944,0.0061875,0.0144375,-0.0066
1679930059298,1110047653010021,0.0061875,0.0174625,-0.009625
1679930059301,1110047655511944,0.00825,0.02145,-0.014575
1679930059303,1110047658014021,0.011275,0.0144375,-0.015675
1679930059305,1110047660515931,0.015262499,0.012375,-0.01265
1679930059309,1110047663018007,0.015262499,0.01045,-0.0176
1679930059311,1110047665520161,0.015262499,0.012375,-0.0185625
1679930059313,1110047668022315,0.016224999,0.0114124995,-0.020624999
1679930059315,1110047670524180,0.0171875,0.0064625,-0.02365
1679930059318,1110047673026334,0.0171875,0.0034375,-0.0215875
1679930059321,1110047675528257,0.0182875,0.0023375,-0.02255
1679930059323,1110047678030334,0.0182875,0.0044,-0.025575
1679930059326,1110047680532252,0.01925,0.001375,-0.026675
1679930059328,1110047683034406,0.0202125,4.125E-4,-0.026675
1679930059332,1110047685536483,0.0202125,0.001375,-0.025575
1679930059334,1110047688038406,0.01925,-5.5E-4,-0.0276375
1679930059336,1110047690540473,0.0182875,4.125E-4,-0.0276375
1679930059338,1110047693042627,0.0182875,-5.5E-4,-0.02365
1679930059341,1110047695544550,0.016224999,-0.00165,-0.0215875
1679930059343,1110047698046627,0.015262499,-5.5E-4,-0.0246125
1679930059345,1110047700548550,0.011275,-0.00165,-0.02255
1679930059348,1110047703050617,0.0092124995,-5.5E-4,-0.0215875
1679930059351,1110047705552771,0.0031625,-5.5E-4,-0.020624999
1679930059353,1110047708054694,-8.25E-4,0.0034375,-0.015675
1679930059355,1110047710556848,-0.00275,0.0023375,-0.0166375
1679930059358,1110047713058925,-0.005775,0.0053625,-0.015675
1679930059361,1110047715560848,-0.010725,0.0053625,-0.009625
1679930059363,1110047718062925,-0.0158125,4.125E-4,-0.009625
1679930059367,1110047720564848,-0.0207625,0.0023375,-0.0075625
1679930059373,1110047723066915,-0.021724999,0.001375,-0.0056375
1679930059375,1110047728069145,-0.0198,-5.5E-4,-0.00165
1679930059376,1110047728384530,-0.0188375,0.0034375,-5.5E-4
1679930059377,1110047730573069,-0.0188375,0.0044,0.0044
1679930059380,1110047733075222,-0.0188375,-5.5E-4,0.0114124995
1679930059382,1110047735577165,-0.0158125,-0.0026125,0.00935
1679930059384,1110047738079242,-0.01375,-0.0045375,0.012375
1679930059385,1110047740581165,-0.010725,-0.0026125,0.0154
1679930059388,1110047743083319,-0.010725,-0.003575,0.0163625
1679930059392,1110047745585396,-0.011825,-0.0026125,0.012375
1679930059393,1110047748087309,-0.010725,-5.5E-4,0.0114124995
1679930059395,1110047750589386,-0.011825,0.001375,0.0114124995
1679930059398,1110047753091540,-0.0097624995,0.0053625,0.007425
1679930059400,1110047755593463,-0.010725,0.007425,0.0034375
1679930059403,1110047758095309,-0.010725,0.007425,0.0023375
1679930059407,1110047760597708,-0.01375,0.0154,0.0023375
1679930059409,1110047763099631,-0.014712499,0.018424999,4.125E-4
1679930059411,1110047765601708,-0.011825,0.0193875,-5.5E-4
1679930059413,1110047768103651,-0.010725,0.02035,-0.00165
1679930059416,1110047770605728,-0.0127875,0.0243375,-0.0056375
1679930059418,1110047773107651,-0.0097624995,0.03135,-0.00165
1679930059420,1110047775610036,-0.010725,0.0273625,-0.00165
1679930059423,1110047778111882,-0.0078375,0.0273625,-0.0026125
1679930059426,1110047780614036,-0.0097624995,0.032449998,-0.00165
1679930059429,1110047783115959,-0.0127875,0.0334125,4.125E-4
1679930059433,1110047785618036,-0.0078375,0.0353375,0.0023375
1679930059434,1110047788119963,-0.011825,0.0374,0.001375
1679930059436,1110047790622040,-0.0088,0.0474375,0.0044
1679930059441,1110047793124194,-0.0127875,0.0463375,0.006325
1679930059443,1110047795626117,-0.0088,0.0474375,0.0044
1679930059445,1110047798128190,-0.0088,0.0493625,0.0023375
1679930059446,1110047800630343,-0.0088,0.0554125,0.0053625
1679930059449,1110047803132267,-0.0088,0.056375,0.0083875
1679930059451,1110047805634113,-0.0097624995,0.0554125,0.006325
1679930059453,1110047808136497,-0.0097624995,0.054449998,0.00935
1679930059455,1110047810638444,-0.011825,0.0554125,0.00935
1679930059459,1110047813140521,-0.0158125,0.051425,0.007425
1679930059461,1110047815642444,-0.016775,0.0474375,0.0044
1679930059463,1110047818144521,-0.01485,0.0484,0.0044
1679930059465,1110047820646458,-0.0177375,0.045375,0.0034375
1679930059469,1110047823148612,-0.022824999,0.043449998,0.001375
1679930059472,1110047825650689,-0.022824999,0.0374,0.0023375
1679930059474,1110047828152843,-0.022824999,0.034375,0.001375
1679930059475,1110047830654766,-0.02475,0.0334125,0.001375
1679930059478,1110047833156843,-0.021724999,0.0243375,4.125E-4
1679930059482,1110047835658766,-0.0188375,0.0224125,-5.5E-4
1679930059484,1110047838160843,-0.021724999,0.0224125,0.001375
1679930059486,1110047840662756,-0.022824999,0.0174625,0.0044
1679930059490,1110047843164910,-0.0188375,0.0144375,0.0034375
1679930059491,1110047845666987,-0.016775,0.01045,0.0044
1679930059493,1110047848169141,-0.0188375,0.001375,0.0053625
1679930059495,1110047850671064,-0.0188375,0.001375,0.00935
1679930059500,1110047853172910,-0.016775,0.001375,0.01045
1679930059502,1110047855675064,-0.01485,-0.003575,0.0083875
1679930059503,1110047858177218,-0.01375,-0.0066,0.00935
1679930059505,1110047860679295,-0.0097624995,-0.0105875,0.0083875
1679930059510,1110047863181234,-0.010725,-0.0155375,0.0083875
1679930059512,1110047865683311,-0.0127875,-0.0166375,0.006325
1679930059514,1110047868185234,-0.0158125,-0.014575,0.0044
1679930059516,1110047870687388,-0.016775,-0.01265,0.0034375
1679930059520,1110047873189450,-0.0207625,-0.0196625,4.125E-4
1679930059525,1110047875690526,-0.022824999,-0.020624999,-0.003575
1679930059525,1110047878191603,-0.02585,-0.0185625,-0.0056375
1679930059527,1110047880695373,-0.0268125,-0.02255,-0.0066
1679930059528,1110047883197526,-0.0287375,-0.02255,-0.0086624995
1679930059531,1110047885699675,-0.032725,-0.0215875,-0.0066
1679930059533,1110047888201752,-0.0347875,-0.0325875,-0.003575
1679930059535,1110047890703675,-0.033825,-0.031625,-0.0056375
1679930059539,1110047893205752,-0.0347875,-0.0295625,-0.003575
1679930059543,1110047895707690,-0.033825,-0.0386375,-5.5E-4
1679930059544,1110047898209767,-0.033825,-0.042625,4.125E-4
1679930059545,1110047900711690,-0.033825,-0.042625,0.0044
1679930059550,1110047903214075,-0.0317625,-0.0515625,0.0034375
1679930059553,1110047905715921,-0.027775,-0.0526625,0.0023375
1679930059555,1110047908218075,-0.027775,-0.0576125,0.0044
1679930059558,1110047910719998,-0.0268125,-0.0526625,0.006325
1679930059562,1110047913222075,-0.02475,-0.0526625,0.0044
1679930059563,1110047915724012,-0.0237875,-0.0576125,0.0053625
1679930059564,1110047918226166,-0.0237875,-0.0545875,0.0034375
1679930059566,1110047920728243,-0.02585,-0.0526625,0.0034375
1679930059570,1110047923230166,-0.0237875,-0.047575,0.001375
1679930059572,1110047925732229,-0.0207625,-0.045649998,-0.00165
1679930059574,1110047928234152,-0.0207625,-0.042625,-0.003575
1679930059575,1110047930736306,-0.016775,-0.036575,-0.0026125
1679930059579,1110047933238383,-0.0127875,-0.031625,-0.0066
1679930059582,1110047935740537,-0.0097624995,-0.0286,-0.0075625
1679930059583,1110047938242455,-0.0078375,-0.0265375,-0.009625
1679930059585,1110047940744532,-0.00275,-0.0215875,-0.015675
1679930059591,1110047943246455,-0.0048125,-0.01265,-0.01265
1679930059594,1110047945748532,-0.0067375,-0.009625,-0.0105875
1679930059595,1110047948250440,-0.0048125,-0.0075625,-0.015675
1679930059597,1110047950752517,0.0012375,-0.0026125,-0.015675
1679930059599,1110047953254671,2.75E-4,0.0064625,-0.01155
1679930059601,1110047955756824,0.0031625,0.0114124995,-0.01265
1679930059604,1110047958258747,0.0031625,0.018424999,-0.0105875
1679930059607,1110047960760815,0.0042625,0.0224125,-0.0105875
1679930059609,1110047963262738,0.0042625,0.0224125,-0.0066
1679930059611,1110047965764815,0.0061875,0.0303875,-0.003575
1679930059613,1110047968266969,0.00825,0.0353375,-0.0056375
1679930059615,1110047970768906,0.00715,0.0383625,-0.0066
1679930059619,1110047973270983,0.00825,0.045375,-0.0066
1679930059621,1110047975772906,0.0092124995,0.0484,-0.0075625
1679930059623,1110047978275060,0.0061875,0.0484,-0.004675
1679930059626,1110047980777113,0.005225,0.0474375,-0.0056375
1679930059630,1110047983279036,0.00825,0.0504625,-0.003575
1679930059633,1110047985781190,0.00715,0.054449998,-0.00165
1679930059635,1110047988283267,0.005225,0.0523875,-0.0026125
1679930059637,1110047990785181,0.0061875,0.054449998,-0.003575
1679930059639,1110047993287258,0.005225,0.0554125,4.125E-4
1679930059641,1110047995789181,0.0031625,0.054449998,0.0023375
1679930059643,1110047998291258,-0.0017875,0.0523875,0.001375
1679930059646,1110048000793181,-0.0017875,0.0523875,0.0023375
1679930059649,1110048003295363,-8.25E-4,0.05335,0.0044
1679930059651,1110048005797440,2.75E-4,0.0523875,0.006325
1679930059653,1110048008299594,-8.25E-4,0.051425,0.0083875
1679930059656,1110048010801517,-0.00275,0.0493625,0.0083875
1679930059660,1110048013303619,-0.005775,0.0523875,0.00935
1679930059661,1110048015805542,-0.0017875,0.0493625,0.0114124995
1679930059664,1110048018307696,-8.25E-4,0.051425,0.012375
1679930059665,1110048020809773,-8.25E-4,0.0523875,0.012375
1679930059672,1110048023311700,-8.25E-4,0.0504625,0.012375
1679930059675,1110048025812777,-0.0017875,0.0493625,0.0133375
1679930059675,1110048028313854,-0.0017875,0.0493625,0.01045
1679930059676,1110048030817777,0.0022,0.0523875,0.00935
1679930059680,1110048033319930,0.0012375,0.0554125,0.0083875
1679930059682,1110048035822084,2.75E-4,0.0523875,0.0083875
1679930059683,1110048038324007,-0.0048125,0.054449998,0.007425
1679930059686,1110048040826084,-0.00275,0.0614625,0.006325
1679930059690,1110048043328007,-0.00275,0.0603625,0.006325
1679930059692,1110048045830084,-0.0067375,0.0594,0.0053625
1679930059694,1110048048331998,-0.0048125,0.06435,0.0034375
1679930059696,1110048050834152,-8.25E-4,0.0594,0.0034375
1679930059699,1110048053336306,-0.00275,0.062425,0.0044
1679930059701,1110048055838383,-0.0048125,0.062425,0.0053625
1679930059703,1110048058340306,-0.00275,0.062425,0.007425
1679930059708,1110048060842387,-0.0048125,0.06545,0.0034375
1679930059711,1110048063344541,-0.0067375,0.0664125,0.0044
1679930059713,1110048065846464,-0.0067375,0.06545,0.0044
1679930059714,1110048068348306,-0.0088,0.062425,0.0023375
1679930059716,1110048070850460,-0.010725,0.062425,0.0034375
1679930059719,1110048073352537,-0.0078375,0.0573375,0.006325
1679930059724,1110048075854460,-0.0067375,0.0504625,0.0044
1679930059725,1110048078356585,-0.010725,0.0493625,0.0053625
1679930059726,1110048080858662,-0.011825,0.045375,0.007425
1679930059730,1110048083360585,-0.010725,0.0394625,0.0053625
1679930059731,1110048085862739,-0.0127875,0.032449998,0.006325
1679930059733,1110048088364585,-0.011825,0.0273625,0.007425
1679930059736,1110048090866719,-0.0097624995,0.023375,0.0044
1679930059741,1110048093368796,-0.0088,0.02145,0.001375
1679930059742,1110048095870950,-0.0088,0.0163625,0.0023375
1679930059745,1110048098372873,-0.0097624995,0.0114124995,0.0034375
1679930059747,1110048100874965,-0.0088,0.00935,4.125E-4
1679930059752,1110048103376888,-0.010725,0.0053625,4.125E-4
1679930059753,1110048105879041,-0.010725,0.0023375,4.125E-4
1679930059754,1110048108380888,-0.010725,4.125E-4,-0.0026125
1679930059756,1110048110882965,-0.010725,4.125E-4,4.125E-4
1679930059760,1110048113385185,-0.01375,-0.0026125,0.001375
1679930059761,1110048115887032,-0.01485,4.125E-4,0.0023375
1679930059764,1110048118389185,-0.011825,0.001375,4.125E-4
1679930059766,1110048120891262,-0.011825,0.0034375,0.0044
1679930059770,1110048123393195,-0.0127875,0.0064625,0.007425
1679930059771,1110048125895272,-0.0088,0.007425,0.0053625
1679930059773,1110048128397426,-0.0097624995,0.01045,0.01045
1679930059776,1110048130899349,-0.0097624995,0.0144375,0.012375
1679930059780,1110048133401507,-0.0078375,0.0154,0.0144375
1679930059783,1110048135903353,-0.0067375,0.018424999,0.0144375
1679930059784,1110048138405507,-0.0067375,0.023375,0.0154
1679930059787,1110048140907584,-0.0088,0.0243375,0.017324999
1679930059792,1110048143409488,-0.010725,0.0303875,0.0163625
1679930059794,1110048145911642,-0.0097624995,0.032449998,0.0144375
1679930059795,1110048148413719,-0.0088,0.0353375,0.0154
1679930059796,1110048150915642,-0.011825,0.0364375,0.0154
1679930059801,1110048153417705,-0.0097624995,0.0334125,0.012375
1679930059802,1110048155919628,-0.0127875,0.0374,0.0114124995
1679930059804,1110048158421705,-0.011825,0.0394625,0.0083875
1679930059806,1110048160923936,-0.01485,0.0394625,0.0083875
1679930059810,1110048163425782,-0.01375,0.0374,0.006325
1679930059811,1110048165927936,-0.01485,0.0364375,0.0053625
1679930059816,1110048168430008,-0.01485,0.0394625,0.0034375
1679930059816,1110048170931931,-0.01375,0.0374,0.0034375
1679930059821,1110048173434008,-0.01375,0.0383625,0.0023375
1679930059822,1110048175935902,-0.0127875,0.034375,0.0053625
1679930059824,1110048178438056,-0.010725,0.032449998,0.0034375
1679930059826,1110048180940209,-0.011825,0.0364375,0.0034375
1679930059830,1110048183442056,-0.011825,0.0374,0.007425
1679930059831,1110048185944123,-0.0127875,0.0334125,0.00935
1679930059834,1110048188446276,-0.010725,0.034375,0.00935
1679930059836,1110048190948199,-0.0127875,0.0353375,0.0083875
1679930059840,1110048193450276,-0.0088,0.0334125,0.01045
1679930059841,1110048195952430,-0.0078375,0.032449998,0.00935
1679930059843,1110048198454320,-0.005775,0.0303875,0.01045
1679930059846,1110048200956397,-0.005775,0.029424999,0.0133375
1679930059850,1110048203458320,-0.0088,0.0284625,0.0154
1679930059851,1110048205960397,-0.011825,0.023375,0.0133375
1679930059854,1110048208462546,-0.0097624995,0.0224125,0.0144375
1679930059857,1110048210964469,-0.010725,0.0174625,0.0133375
1679930059859,1110048213466623,-0.0127875,0.02145,0.0163625
1679930059862,1110048215968469,-0.0097624995,0.02145,0.0133375
1679930059863,1110048218470637,-0.0078375,0.0193875,0.0114124995
1679930059866,1110048220972714,-0.0067375,0.02145,0.0114124995
1679930059870,1110048223474637,-0.0088,0.02145,0.007425
1679930059873,1110048225976714,-0.010725,0.029424999,0.006325
1679930059874,1110048228478931,-0.0097624995,0.0243375,0.0044
1679930059876,1110048230980777,-0.010725,0.023375,0.0053625
1679930059882,1110048233482854,-0.0097624995,0.0264,4.125E-4
1679930059882,1110048235985008,-0.011825,0.0264,4.125E-4
1679930059884,1110048238486931,-0.0097624995,0.0273625,-0.00165
1679930059887,1110048240988979,-0.010725,0.02035,-0.0026125
1679930059893,1110048243490902,-0.01375,0.0224125,-5.5E-4
1679930059893,1110048245993056,-0.01485,0.0174625,0.0023375
1679930059895,1110048248495133,-0.01375,0.0154,0.001375
1679930059897,1110048250997056,-0.0158125,0.0144375,0.001375
1679930059900,1110048253499133,-0.016775,0.0114124995,0.001375
1679930059901,1110048256001286,-0.0158125,0.001375,0.0053625
1679930059903,1110048258503210,-0.0177375,-5.5E-4,0.0034375
1679930059907,1110048261005377,-0.016775,-0.00165,0.007425
1679930059910,1110048263507454,-0.016775,-0.003575,0.0133375
1679930059912,1110048266009300,-0.0198,-0.00165,0.0114124995
1679930059913,1110048268511454,-0.022824999,-0.00165,0.012375
1679930059915,1110048271013608,-0.0268125,4.125E-4,0.01045
1679930059918,1110048273515522,-0.0268125,0.001375,0.007425
1679930059923,1110048276017599,-0.0268125,0.001375,0.0083875
1679930059925,1110048278519522,-0.027775,4.125E-4,0.0053625
1679930059926,1110048281021599,-0.0287375,0.001375,0.0053625
1679930059930,1110048283523507,-0.0268125,0.0034375,0.006325
1679930059934,1110048286025584,-0.02585,4.125E-4,0.0044
1679930059935,1110048288527738,-0.02475,0.001375,0.0034375
1679930059937,1110048291029892,-0.02475,0.0034375,0.007425
1679930059941,1110048293531815,-0.02475,0.0064625,0.007425
1679930059942,1110048296033892,-0.021724999,0.001375,0.006325
1679930059943,1110048298535815,-0.0188375,-0.00165,0.00935
1679930059946,1110048301037892,-0.0198,-0.00165,0.012375
1679930059950,1110048303539815,-0.0198,-5.5E-4,0.0133375
1679930059951,1110048306041984,-0.0188375,-5.5E-4,0.0144375
1679930059953,1110048308544138,-0.0127875,-0.00165,0.0154
1679930059956,1110048311046215,-0.0097624995,-0.0026125,0.0154
1679930059959,1110048313548061,-0.0127875,-0.0045375,0.0144375
1679930059961,1110048316050234,-0.01375,-0.0026125,0.0133375
1679930059963,1110048318552157,-0.0127875,0.0044,0.012375
1679930059966,1110048321054311,-0.011825,0.0053625,0.00935
1679930059970,1110048323556388,-0.011825,0.0034375,0.00935
1679930059972,1110048326058325,-0.010725,0.0034375,0.007425
1679930059975,1110048328560402,-0.0097624995,0.007425,0.0053625
1679930059977,1110048331062325,-0.0078375,0.01045,0.006325
1679930059979,1110048333564402,-0.0088,0.012375,0.0053625
1679930059981,1110048336066565,-0.0067375,0.0133375,4.125E-4
1679930059983,1110048338568719,-0.0048125,0.0193875,-0.00165
1679930059986,1110048341070642,-0.0048125,0.0193875,-0.0026125
1679930059991,1110048343572743,-0.0017875,0.0224125,-0.003575
1679930059992,1110048346074666,-0.005775,0.0284625,-0.004675
1679930059994,1110048348576743,-0.0048125,0.029424999,-0.0056375
1679930059996,1110048351078666,-0.00275,0.03135,-0.0056375
1679930059999,1110048353580743,-0.0017875,0.0303875,-0.0056375
1679930060001,1110048356082974,-8.25E-4,0.029424999,-0.0056375
1679930060004,1110048358585032,2.75E-4,0.0303875,-0.0086624995
1679930060008,1110048361086878,-0.00275,0.03135,-0.0075625
1679930060010,1110048363589032,-0.00275,0.0303875,-0.0075625
1679930060012,1110048366090955,-0.0017875,0.032449998,-0.0086624995
1679930060014,1110048368593065,-0.0067375,0.0353375,-0.0086624995
1679930060016,1110048371095219,-0.0067375,0.034375,-0.0086624995
1679930060020,1110048373597142,-0.005775,0.0303875,-0.0066
1679930060023,1110048376099219,-0.0017875,0.0303875,-0.0066
1679930060024,1110048378601142,-8.25E-4,0.0284625,-0.0056375
1679930060026,1110048381103234,-0.00275,0.0303875,-0.004675
1679930060030,1110048383605157,-0.0067375,0.0273625,-0.00165
1679930060032,1110048386107311,-0.00275,0.0243375,-0.00165
1679930060033,1110048388609388,-0.0017875,0.0303875,4.125E-4
1679930060036,1110048391111551,-0.0067375,0.0303875,4.125E-4
1679930060040,1110048393613474,-0.00275,0.034375,-5.5E-4
1679930060041,1110048396115551,-0.0048125,0.0364375,-0.00165
1679930060045,1110048398617474,-0.0088,0.0364375,4.125E-4
1679930060047,1110048401119561,-0.0088,0.0353375,4.125E-4
1679930060050,1110048403621715,-0.005775,0.0353375,0.0023375
1679930060051,1110048406123868,-0.0088,0.0394625,0.0023375
1679930060054,1110048408625715,-0.0097624995,0.0444125,0.0023375
1679930060056,1110048411127868,-0.0088,0.0444125,0.0023375
1679930060059,1110048413629815,-0.0078375,0.040425,0.0034375
1679930060061,1110048416131892,-0.011825,0.0383625,0.006325
1679930060063,1110048418633815,-0.0078375,0.0353375,0.0034375
1679930060066,1110048421135969,-0.0067375,0.0383625,0.0044
1679930060070,1110048423638060,-0.0097624995,0.0364375,0.0044
1679930060072,1110048426139983,-0.0088,0.034375,0.0023375
1679930060074,1110048428642060,-0.0078375,0.0353375,0.001375
1679930060076,1110048431144214,-0.0088,0.034375,4.125E-4
1679930060079,1110048433646123,-0.005775,0.032449998,-0.00165
1679930060083,1110048436147969,-0.005775,0.029424999,-0.0026125
1679930060085,1110048438650354,-0.0088,0.0224125,-0.00165
1679930060086,1110048441152277,-0.0088,0.0243375,-0.0026125
1679930060092,1110048443654344,-0.005775,0.0224125,-0.003575
1679930060094,1110048446156190,-0.0078375,0.0114124995,-0.003575
1679930060095,1110048448658421,-0.0097624995,0.012375,-0.0056375
1679930060097,1110048451160498,-0.0127875,0.012375,-0.0056375
1679930060099,1110048453662421,-0.011825,0.0144375,-0.0056375
1679930060101,1110048456164513,-0.011825,0.00935,-0.0066
1679930060103,1110048458666436,-0.014712499,0.0034375,-0.0066
1679930060108,1110048461168513,-0.0158125,0.0064625,-0.0056375
1679930060111,1110048463670667,-0.01375,0.0044,-0.003575
1679930060114,1110048466172570,-0.01375,0.0053625,-0.003575
1679930060115,1110048468674724,-0.0127875,0.0034375,-5.5E-4
1679930060117,1110048471176801,-0.0127875,4.125E-4,-5.5E-4
1679930060121,1110048473678724,-0.01375,-0.00165,4.125E-4
1679930060123,1110048476180772,-0.014712499,4.125E-4,0.001375
1679930060125,1110048478682695,-0.0158125,0.0023375,0.0034375
1679930060127,1110048481184849,-0.01375,-0.00165,0.0044
1679930060130,1110048483686925,-0.0127875,-0.0066,0.0044
1679930060131,1110048486188849,-0.011825,-5.5E-4,0.0053625
1679930060134,1110048488690925,-0.010725,-0.00165,0.0053625
1679930060136,1110048491193079,-0.011825,-0.0026125,0.006325
1679930060140,1110048493694925,-0.010725,4.125E-4,0.0044
1679930060141,1110048496197079,-0.011825,-0.0026125,0.0023375
1679930060144,1110048498699257,-0.0158125,-0.0056375,0.0023375
1679930060146,1110048501201180,-0.0158125,-0.00165,0.001375
1679930060151,1110048503703257,-0.014712499,-0.00165,4.125E-4
1679930060152,1110048506205180,-0.01375,-5.5E-4,-0.00165
1679930060154,1110048508707248,-0.01375,-5.5E-4,0.001375
1679930060158,1110048511209171,-0.0158125,0.0023375,-0.00165
1679930060160,1110048513711325,-0.0158125,0.0114124995,-0.003575
1679930060162,1110048516213402,-0.0158125,0.00935,-0.0026125
1679930060164,1110048518715561,-0.0158125,0.00935,-0.003575
1679930060166,1110048521217484,-0.0158125,0.012375,-0.003575
1679930060169,1110048523719561,-0.01375,0.0133375,-0.0026125
1679930060174,1110048526221484,-0.0127875,0.0133375,-0.003575
1679930060174,1110048528723565,-0.0127875,0.0174625,-0.004675
1679930060177,1110048531225719,-0.0127875,0.02145,-0.0056375
1679930060179,1110048533727642,-0.01375,0.0193875,-0.003575
1679930060181,1110048536229719,-0.0127875,0.02035,-0.003575
1679930060184,1110048538731873,-0.014712499,0.018424999,-0.004675
1679930060186,1110048541233782,-0.014712499,0.0133375,-0.003575
1679930060190,1110048543735628,-0.014712499,0.01045,-0.00165
1679930060192,1110048546237705,-0.016775,0.00935,0.001375
1679930060195,1110048548739931,-0.0158125,0.001375,0.001375
1679930060197,1110048551242008,-0.0188375,0.0023375,4.125E-4
1679930060201,1110048553743931,-0.0188375,0.0034375,4.125E-4
1679930060202,1110048556246008,-0.0198,-5.5E-4,0.0034375
1679930060204,1110048558748161,-0.0207625,-0.0026125,0.0023375
1679930060206,1110048561250018,-0.0198,-0.0066,0.0023375
1679930060209,1110048563752171,-0.0177375,-0.0075625,0.006325
1679930060211,1110048566254325,-0.016775,-0.0045375,0.0044
1679930060213,1110048568756248,-0.0177375,-0.0066,0.0044
1679930060216,1110048571258325,-0.0177375,-0.009625,0.0034375
1679930060219,1110048573760248,-0.016775,-0.0075625,0.0034375
1679930060221,1110048576262325,-0.0188375,-0.0075625,0.0023375
1679930060223,1110048578764248,-0.0177375,-0.0086624995,0.0034375
1679930060227,1110048581266397,-0.01375,-0.009625,0.0034375
1679930060229,1110048583768474,-0.0097624995,-0.0056375,0.0034375
1679930060233,1110048586270628,-0.014712499,-0.00165,0.0034375
1679930060235,1110048588772551,-0.014712499,-0.0026125,0.0023375
1679930060236,1110048591274638,-0.0127875,-0.00165,4.125E-4
1679930060240,1110048593776561,-0.010725,4.125E-4,0.001375
1679930060241,1110048596278638,-0.0127875,0.001375,0.0023375
1679930060243,1110048598780792,-0.014712499,0.0064625,0.0044
1679930060246,1110048601282715,-0.0158125,0.01045,0.0023375
1679930060249,1110048603784820,-0.0158125,0.01045,4.125E-4
1679930060251,1110048606286743,-0.011825,0.012375,0.001375
1679930060253,1110048608788820,-0.01375,0.01045,0.001375
1679930060257,1110048611290743,-0.0158125,0.007425,0.001375
1679930060259,1110048613793114,-0.0127875,0.0144375,4.125E-4
1679930060261,1110048616295037,-0.011825,0.0154,4.125E-4
1679930060263,1110048618797114,-0.01375,0.0154,-5.5E-4
1679930060267,1110048621299037,-0.011825,0.012375,0.0034375
1679930060271,1110048623801114,-0.01375,0.00935,0.0034375
1679930060273,1110048626303037,-0.0158125,0.00935,0.0044
1679930060275,1110048628886960,-0.0158125,0.01045,0.0023375
1679930060277,1110048631307268,-0.014712499,0.01045,0.0044
1679930060280,1110048633809210,-0.0158125,0.01045,0.0044
1679930060282,1110048636311287,-0.0127875,0.0114124995,0.006325
1679930060284,1110048638813440,-0.011825,0.0144375,0.0034375
1679930060286,1110048641315594,-0.010725,0.0133375,0.0044
1679930060289,1110048643817440,-0.0097624995,0.0154,0.0044
1679930060291,1110048646319594,-0.0097624995,0.0163625,4.125E-4
1679930060293,1110048648821517,-0.0088,0.0174625,0.001375
1679930060296,1110048651323594,-0.0088,0.0154,-5.5E-4
1679930060300,1110048653825517,-0.0078375,0.0163625,4.125E-4
1679930060302,1110048656327594,-0.0048125,0.018424999,-0.0066
1679930060303,1110048658829748,-8.25E-4,0.0174625,-0.0086624995
1679930060310,1110048661331671,-0.0017875,0.0163625,-0.009625
1679930060313,1110048663833748,2.75E-4,0.0144375,-0.0075625
1679930060314,1110048666630979,-0.0017875,0.0133375,-0.0105875
1679930060315,1110048668837825,-0.005775,0.0114124995,-0.01155
1679930060316,1110048671339902,-0.0017875,0.0064625,-0.0176
1679930060319,1110048673842056,-0.0017875,-5.5E-4,-0.0176
1679930060322,1110048676343998,-0.0088,-0.00165,-0.0196625
1679930060325,1110048678846075,-0.0088,-0.0056375,-0.0196625
1679930060326,1110048681347998,-0.005775,-0.0105875,-0.020624999
1679930060330,1110048683850075,-0.0048125,-0.009625,-0.0176
1679930060331,1110048686351984,-0.0067375,-0.0105875,-0.0196625
1679930060334,1110048688854138,-0.0067375,-0.01155,-0.015675
1679930060336,1110048691356215,-0.0067375,-0.0176,-0.014575
1679930060339,1110048693858369,-0.005775,-0.0196625,-0.014575
1679930060341,1110048696360301,-0.0048125,-0.0215875,-0.01155
1679930060345,1110048698862378,-0.0048125,-0.0166375,-0.0105875
1679930060347,1110048701364301,-0.005775,-0.014575,-0.01155
1679930060350,1110048703866378,-0.0097624995,-0.0185625,-0.01155
1679930060352,1110048706368316,-0.0097624995,-0.014575,-0.009625
1679930060353,1110048708870470,-0.005775,-0.014575,-0.0066
1679930060356,1110048711372546,-0.005775,-0.0155375,-0.0075625
1679930060359,1110048713874700,-0.0067375,-0.01155,-0.0056375
1679930060361,1110048716376623,-0.005775,-0.0105875,-0.0066
1679930060363,1110048718878679,-0.0048125,-0.01155,-0.004675
1679930060366,1110048721380602,-0.005775,-0.01265,-0.0075625
1679930060369,1110048723882756,-0.005775,-0.01155,-0.0075625
1679930060371,1110048726384833,-0.0048125,-0.0105875,-0.0075625
1679930060373,1110048728886747,-0.0048125,-0.0056375,-0.0105875
1679930060377,1110048731388824,-0.0078375,-0.0086624995,-0.009625
1679930060379,1110048733890747,-0.005775,-0.0105875,-0.009625
1679930060383,1110048736392901,-0.00275,-0.0105875,-0.0105875
1679930060385,1110048738894761,-0.005775,-0.0075625,-0.01155
1679930060389,1110048741397146,-0.0067375,-0.0105875,-0.01155
