system_ts_ms, sensor_ts_ns, gyrX, gyrY, gyrZ
1680015481651,1195470004828295,-0.0501875,-0.4158,-9.625E-4
1680015481651,1195470007330530,-0.0441375,-0.4258375,-0.003025
1680015481654,1195470009832991,-0.0422125,-0.4508625,-0.0070125
1680015481658,1195470012335376,-0.038225,-0.4758875,-0.0039875
1680015481661,1195470014837617,-0.0352,-0.50888747,-0.003025
1680015481663,1195470017339770,-0.0342375,-0.5269,0.0050875
1680015481671,1195470019842155,-0.0342375,-0.5308875,0.0100375
1680015481671,1195470022344386,-0.02915,-0.533775,0.0160875
1680015481672,1195470024846847,-0.0251625,-0.539825,0.025024999
1680015481672,1195470027349256,-0.0221375,-0.5407875,0.0270875
1680015481674,1195470029851410,-0.0242,-0.539825,0.033
1680015481676,1195470032353641,-0.0232375,-0.5438125,0.033
1680015481683,1195470034856025,-0.0191125,-0.545875,0.033
1680015481683,1195470037358251,-0.015125,-0.5517875,0.036025
1680015481685,1195470039860713,-0.015125,-0.5489,0.0339625
1680015481687,1195470042363097,-0.01815,-0.5438125,0.031075
1680015481689,1195470044865328,-0.015125,-0.539825,0.031075
1680015481692,1195470047367497,-0.010175,-0.5278625,0.0290125
1680015481696,1195470049869881,-0.005225,-0.511775,0.0290125
1680015481700,1195470052372112,0.0028875,-0.4928,0.029975
1680015481701,1195470054874574,0.0127875,-0.4747875,0.029975
1680015481702,1195470057376958,0.0188375,-0.4618625,0.0270875
1680015481705,1195470059879112,0.0248875,-0.4448125,0.02805
1680015481707,1195470062381343,0.028875,-0.435875,0.029975
1680015481709,1195470064883728,0.036849998,-0.4378,0.031075
1680015481712,1195470067385958,0.039875,-0.4279,0.0320375
1680015481716,1195470069888410,0.0438625,-0.4178625,0.0290125
1680015481718,1195470072390795,0.0468875,-0.41085,0.031075
1680015481720,1195470074893025,0.0457875,-0.401775,0.029975
1680015481723,1195470077395169,0.0457875,-0.3938,0.0270875
1680015481725,1195470079897554,0.044825,-0.3839,0.025024999
1680015481727,1195470082399785,0.0468875,-0.3738625,0.022
1680015481729,1195470084902246,0.0457875,-0.36781248,0.01705
1680015481733,1195470087404391,0.0457875,-0.36781248,0.0149875
1680015481736,1195470089906776,0.0438625,-0.36781248,0.013062499
1680015481738,1195470092409006,0.0427625,-0.3718,0.0100375
1680015481740,1195470094911391,0.038775,-0.36781248,0.007975
1680015481742,1195470097413622,0.033825,-0.36781248,0.0039875
1680015481745,1195470099916092,0.0298375,-0.3729,0.0020625
1680015481750,1195470102418477,0.0268125,-0.374825,9.625E-4
1680015481750,1195470104920708,0.022824999,-0.368775,-0.001925
1680015481753,1195470107422862,0.0198,-0.368775,-9.625E-4
1680015481756,1195470109925242,0.0207625,-0.3619,-0.0059125
1680015481757,1195470112427473,0.0207625,-0.3608,-0.0070125
1680015481759,1195470114929935,0.011825,-0.352825,-0.0070125
1680015481762,1195470117432088,0.0108624995,-0.3458125,-0.007975
1680015481767,1195470119934458,0.0097624995,-0.335775,-0.012925
1680015481767,1195470122436689,0.0048125,-0.324775,-0.01595
1680015481771,1195470124939073,0.005775,-0.3179,-0.0149875
1680015481773,1195470127441304,0.00385,-0.3078625,-0.0180125
1680015481775,1195470129943776,0.0017875,-0.29479998,-0.018975
1680015481777,1195470132446160,0.0028875,-0.2778875,-0.022
1680015481783,1195470134948391,8.25E-4,-0.26785,-0.0259875
1680015481784,1195470137450545,8.25E-4,-0.2519,-0.0290125
1680015481785,1195470139952930,0.0028875,-0.23485,-0.034925
1680015481787,1195470142455126,8.25E-4,-0.2198625,-0.0400125
1680015481789,1195470144957511,0.0017875,-0.203775,-0.0419375
1680015481792,1195470147459742,0.0048125,-0.187825,-0.045925
1680015481795,1195470149962126,0.006875,-0.176825,-0.04895
1680015481800,1195470152464357,0.0088,-0.1648625,-0.0510125
1680015481801,1195470154966737,0.01485,-0.148775,-0.0559625
1680015481802,1195470157468968,0.01485,-0.13585,-0.055
1680015481806,1195470159971429,0.0158125,-0.126775,-0.0559625
1680015481809,1195470162473800,0.0198,-0.110825,-0.055
1680015481810,1195470164975954,0.0268125,-0.0988625,-0.0559625
1680015481812,1195470167478184,0.0268125,-0.0878625,-0.056925
1680015481819,1195470169980569,0.0308,-0.0787875,-0.0540375
1680015481820,1195470172482800,0.033825,-0.06985,-0.05995
1680015481820,1195470174985184,0.0358875,-0.0638,-0.058025
1680015481822,1195470177487415,0.039875,-0.0598125,-0.0559625
1680015481825,1195470179989800,0.0427625,-0.0548625,-0.058025
1680015481827,1195470182492031,0.050875,-0.049775,-0.0589875
1680015481829,1195470184994415,0.0548625,-0.044825,-0.058025
1680015481835,1195470187496636,0.0578875,-0.0438625,-0.056925
1680015481835,1195470189999097,0.0578875,-0.0457875,-0.058025
1680015481838,1195470192501251,0.0628375,-0.0438625,-0.0589875
1680015481840,1195470195003636,0.066825,-0.0457875,-0.0589875
1680015481842,1195470197505838,0.071775,-0.0408375,-0.058025
1680015481846,1195470200008222,0.0768625,-0.044825,-0.0589875
1680015481852,1195470202510376,0.077825,-0.0438625,-0.062975
1680015481853,1195470205012607,0.0787875,-0.0457875,-0.0620125
1680015481854,1195470207515063,0.0798875,-0.047849998,-0.0589875
1680015481856,1195470210017448,0.0798875,-0.0468875,-0.0609125
1680015481857,1195470212519679,0.0798875,-0.049775,-0.0650375
1680015481860,1195470215022064,0.0798875,-0.0518375,-0.066
1680015481862,1195470217524299,0.083875,-0.0548625,-0.067925
1680015481867,1195470220026684,0.0848375,-0.0578875,-0.067925
1680015481867,1195470222528915,0.0848375,-0.0628375,-0.066
1680015481870,1195470225031299,0.0818125,-0.0677875,-0.069025
1680015481872,1195470227533516,0.0818125,-0.0738375,-0.0699875
1680015481875,1195470230035901,0.0818125,-0.0818125,-0.0719125
1680015481877,1195470232538055,0.083875,-0.0897875,-0.0730125
1680015481879,1195470235040285,0.0787875,-0.0979,-0.0749375
1680015481884,1195470237542752,0.0738375,-0.1007875,-0.0779625
1680015481887,1195470240045136,0.066825,-0.1078,-0.078925
1680015481889,1195470242547367,0.060775,-0.117837496,-0.0749375
1680015481891,1195470245049752,0.055825,-0.126775,-0.0760375
1680015481892,1195470247551983,0.044825,-0.137775,-0.08195
1680015481895,1195470250054141,0.036849998,-0.1458875,-0.0829125
1680015481902,1195470252556602,0.0308,-0.15785,-0.084975
1680015481903,1195470255058987,0.022824999,-0.16885,-0.088
1680015481903,1195470257561217,0.0158125,-0.1788875,-0.0889625
1680015481906,1195470260063410,0.0088,-0.187825,-0.088
1680015481907,1195470262565795,0.0017875,-0.1978625,-0.088
1680015481910,1195470265068026,-0.0061875,-0.2088625,-0.089925
1680015481912,1195470267570487,-0.015125,-0.22385,-0.089925
1680015481919,1195470270072857,-0.0242,-0.2299,-0.089925
1680015481920,1195470272575088,-0.0312125,-0.237875,-0.091025
1680015481921,1195470275077472,-0.037125,-0.24585,-0.0919875
1680015481924,1195470277579703,-0.0422125,-0.2528625,-0.0939125
1680015481926,1195470280082088,-0.05115,-0.259875,-0.09295
1680015481927,1195470282584318,-0.0581625,-0.264825,-0.0950125
1680015481930,1195470285086472,-0.06215,-0.270875,-0.098037496
1680015481934,1195470287588934,-0.0682,-0.275825,-0.09295
1680015481936,1195470290091318,-0.07315,-0.2728,-0.0939125
1680015481938,1195470292593544,-0.0771375,-0.2767875,-0.091025
1680015481940,1195470295095929,-0.0792,-0.2767875,-0.087037496
1680015481942,1195470297598160,-0.0792,-0.2767875,-0.087037496
1680015481945,1195470300100313,-0.0831875,-0.270875,-0.087037496
1680015481950,1195470302602698,-0.08415,-0.270875,-0.0829125
1680015481951,1195470305104929,-0.0831875,-0.275825,-0.0809875
1680015481952,1195470307607390,-0.0831875,-0.2748625,-0.08195
1680015481956,1195470310109775,-0.0831875,-0.2748625,-0.0829125
1680015481959,1195470312611997,-0.08525,-0.2728,-0.0840125
1680015481961,1195470315114151,-0.08415,-0.264825,-0.088
1680015481962,1195470317616535,-0.0862125,-0.259875,-0.0859375
1680015481969,1195470320118766,-0.0881375,-0.2519,-0.084975
1680015481970,1195470322621228,-0.08525,-0.24585,-0.0829125
1680015481971,1195470325123617,-0.0831875,-0.2437875,-0.0840125
1680015481975,1195470327625771,-0.08415,-0.2398,-0.0809875
1680015481976,1195470330128002,-0.0801625,-0.2327875,-0.0809875
1680015481978,1195470332630386,-0.0752125,-0.22687499,-0.0779625
1680015481984,1195470335132631,-0.07315,-0.2198625,-0.078925
1680015481985,1195470337635093,-0.071225,-0.2107875,-0.077
1680015481985,1195470340137477,-0.0682,-0.2028125,-0.0760375
1680015481987,1195470342639708,-0.0661375,-0.1969,-0.0749375
1680015481990,1195470345141862,-0.06325,-0.187825,-0.0760375
1680015481992,1195470347644252,-0.054175,-0.1848,-0.073975
1680015481996,1195470350146482,-0.05115,-0.17985,-0.073975
1680015482000,1195470352648944,-0.0462,-0.1728375,-0.073975
1680015482001,1195470355151329,-0.04015,-0.1667875,-0.0749375
1680015482002,1195470357653477,-0.0361625,-0.1628,-0.0809875
1680015482005,1195470360155708,-0.0342375,-0.1529,-0.0809875
1680015482007,1195470362658093,-0.026124999,-0.1478125,-0.0840125
1680015482010,1195470365160324,-0.0202125,-0.1447875,-0.0840125
1680015482012,1195470367662790,-0.0171875,-0.1368125,-0.09295
1680015482017,1195470370165175,-0.0122375,-0.12979999,-0.099
1680015482019,1195470372667406,-0.0092124995,-0.1238875,-0.102025
1680015482020,1195470375169559,-0.0061875,-0.1238875,-0.1049125
1680015482023,1195470377671944,-0.0031625,-0.1148125,-0.1109625
1680015482025,1195470380174184,-0.0022,-0.108899996,-0.113025
1680015482027,1195470382676645,0.0017875,-0.108899996,-0.1189375
1680015482030,1195470385178799,0.006875,-0.10285,-0.121
1680015482035,1195470387681189,0.0108624995,-0.0979,-0.122925
1680015482037,1195470390183420,0.011825,-0.1007875,-0.1280125
1680015482038,1195470392685804,0.017875,-0.0988625,-0.1280125
1680015482040,1195470395188035,0.0198,-0.099825,-0.1280125
1680015482044,1195470397690420,0.02475,-0.1038125,-0.1310375
1680015482045,1195470400192669,0.028875,-0.106837496,-0.1329625
1680015482047,1195470402695054,0.027775,-0.1098625,-0.128975
1680015482049,1195470405197285,0.0298375,-0.1159125,-0.12595
1680015482052,1195470407699669,0.0317625,-0.116875,-0.1280125
1680015482056,1195470410201880,0.0298375,-0.1188,-0.1269125
1680015482057,1195470412704265,0.0298375,-0.1238875,-0.124025
1680015482060,1195470415206496,0.028875,-0.1288375,-0.124025
1680015482062,1195470417708880,0.027775,-0.12979999,-0.1219625
1680015482065,1195470420211125,0.0237875,-0.1368125,-0.117975
1680015482067,1195470422713510,0.0198,-0.1419,-0.1189375
1680015482073,1195470425215740,0.017875,-0.1458875,-0.11495
1680015482075,1195470427718202,0.01375,-0.1538625,-0.11
1680015482076,1195470430220347,0.0108624995,-0.1648625,-0.106975
1680015482078,1195470432722731,0.006875,-0.176825,-0.100925
1680015482080,1195470435224962,0.0017875,-0.1898875,-0.095975
1680015482082,1195470437727347,-0.0022,-0.198825,-0.0919875
1680015482085,1195470440229578,-0.0061875,-0.2088625,-0.0859375
1680015482087,1195470442731976,-0.00715,-0.2189,-0.0779625
1680015482090,1195470445234207,-0.010175,-0.2327875,-0.073975
1680015482093,1195470447736592,-0.01815,-0.2468125,-0.067925
1680015482097,1195470450238822,-0.0221375,-0.2558875,-0.067925
1680015482098,1195470452741221,-0.0232375,-0.2657875,-0.062975
1680015482100,1195470455243452,-0.0221375,-0.2688125,-0.058025
1680015482104,1195470457745836,-0.0251625,-0.275825,-0.0540375
1680015482106,1195470460248067,-0.027224999,-0.2828375,-0.051975
1680015482109,1195470462750443,-0.026124999,-0.2809125,-0.0499125
1680015482111,1195470465252674,-0.027224999,-0.2828375,-0.0449625
1680015482113,1195470467755058,-0.027224999,-0.2908125,-0.0419375
1680015482115,1195470470257212,-0.0281875,-0.292875,-0.0430375
1680015482118,1195470472759674,-0.0251625,-0.2968625,-0.044
1680015482120,1195470475261894,-0.0242,-0.297825,-0.0419375
1680015482123,1195470477764279,-0.01925,-0.29479998,-0.040975
1680015482125,1195470480266510,-0.01925,-0.2959,-0.0419375
1680015482128,1195470482768664,-0.01815,-0.2998875,-0.0430375
1680015482131,1195470485271048,-0.0171875,-0.30085,-0.0430375
1680015482133,1195470487773549,-0.0132,-0.297825,-0.0419375
1680015482136,1195470490275780,-0.00715,-0.2987875,-0.0430375
1680015482138,1195470492778164,-0.00715,-0.303875,-0.044
1680015482141,1195470495280395,-0.005225,-0.303875,-0.0479875
1680015482142,1195470497782784,-0.0031625,-0.2998875,-0.0499125
1680015482147,1195470500284937,-0.005225,-0.2987875,-0.0510125
1680015482149,1195470502787399,-0.005225,-0.3018125,-0.0540375
1680015482150,1195470505289630,-0.0031625,-0.3018125,-0.0559625
1680015482152,1195470507791995,-0.004125,-0.30085,-0.058025
1680015482155,1195470510294226,8.25E-4,-0.2998875,-0.062975
1680015482157,1195470512796380,0.0017875,-0.2968625,-0.066
1680015482160,1195470515298765,0.0017875,-0.2938375,-0.0650375
1680015482162,1195470517801226,-0.0012375,-0.28985,-0.069025
1680015482165,1195470520303457,-0.00715,-0.2908125,-0.0699875
1680015482168,1195470522805842,-0.0061875,-0.2828375,-0.073975
1680015482170,1195470525308072,-0.00715,-0.28187498,-0.077
1680015482173,1195470527810226,-0.0092124995,-0.275825,-0.0779625
1680015482175,1195470530312616,-0.0111375,-0.2728,-0.0809875
1680015482177,1195470532815077,-0.014162499,-0.2699125,-0.0829125
1680015482181,1195470535317308,-0.014162499,-0.2638625,-0.0859375
1680015482184,1195470537819702,-0.016224999,-0.2618,-0.087037496
1680015482188,1195470540321933,-0.01925,-0.25685,-0.088
1680015482189,1195470542872394,-0.021175,-0.2528625,-0.089925
1680015482191,1195470545326471,-0.0251625,-0.2468125,-0.091025
1680015482193,1195470547828933,-0.02915,-0.242825,-0.0919875
1680015482196,1195470550331163,-0.0281875,-0.23485,-0.09295
1680015482198,1195470552833548,-0.0251625,-0.231825,-0.09295
1680015482200,1195470555335779,-0.03025,-0.22687499,-0.089925
1680015482203,1195470557837933,-0.03025,-0.2198625,-0.0889625
1680015482205,1195470560340313,-0.0312125,-0.21779999,-0.087037496
1680015482207,1195470562842775,-0.0342375,-0.215875,-0.084975
1680015482211,1195470565345006,-0.0342375,-0.2107875,-0.0840125
1680015482212,1195470567847390,-0.0331375,-0.2088625,-0.08195
1680015482217,1195470570349621,-0.037125,-0.2039125,-0.077
1680015482218,1195470572851775,-0.037125,-0.198825,-0.0730125
1680015482224,1195470575354159,-0.0331375,-0.193875,-0.0669625
1680015482225,1195470577856621,-0.0331375,-0.187825,-0.0620125
1680015482227,1195470580557616,-0.0331375,-0.1898875,-0.058025
1680015482229,1195470582861231,-0.03025,-0.1838375,-0.0529375
1680015482231,1195470585363385,-0.0281875,-0.176825,-0.0479875
1680015482233,1195470587865616,-0.027224999,-0.1777875,-0.0430375
1680015482235,1195470590368001,-0.027224999,-0.176825,-0.03795
1680015482237,1195470592870462,-0.026124999,-0.1709125,-0.034925
1680015482240,1195470595372616,-0.0242,-0.1698125,-0.029975
1680015482243,1195470597874847,-0.027224999,-0.165825,-0.0229625
1680015482245,1195470600377231,-0.0281875,-0.1678875,-0.018975
1680015482248,1195470602879476,-0.0242,-0.1648625,-0.01595
1680015482250,1195470605381861,-0.021175,-0.160875,-0.0089375
1680015482253,1195470607884322,-0.0221375,-0.160875,-0.0070125
1680015482256,1195470610386553,-0.01815,-0.15785,-0.0059125
1680015482259,1195470612888938,-0.0171875,-0.15785,9.625E-4
1680015482262,1195470615391092,-0.015125,-0.1538625,0.003025
1680015482264,1195470617893322,-0.016224999,-0.1518,0.0039875
1680015482266,1195470620395707,-0.0171875,-0.1538625,0.007975
1680015482268,1195470622898168,-0.016224999,-0.1538625,0.007975
1680015482270,1195470625400269,-0.015125,-0.1568875,0.0119624995
1680015482274,1195470627902731,-0.01925,-0.154825,0.014025
1680015482280,1195470630404885,-0.015125,-0.1588125,0.01705
1680015482280,1195470632907116,-0.0111375,-0.1628,0.0210375
1680015482281,1195470635409500,-0.010175,-0.1678875,0.0240625
1680015482282,1195470637911996,-0.010175,-0.1758625,0.0270875
1680015482285,1195470640414226,-0.00715,-0.1819125,0.0210375
1680015482288,1195470642916380,-0.00825,-0.1859,0.0210375
1680015482290,1195470645418750,-0.010175,-0.1929125,0.022
1680015482292,1195470647920981,-0.0132,-0.1969,0.01705
1680015482297,1195470650423365,-0.0122375,-0.1997875,0.01705
1680015482298,1195470652925827,-0.014162499,-0.209825,0.0119624995
1680015482301,1195470655427986,-0.0171875,-0.2107875,0.011
1680015482303,1195470657930216,-0.0202125,-0.21285,0.011
1680015482306,1195470660432601,-0.021175,-0.215875,0.0039875
1680015482307,1195470662934832,-0.026124999,-0.2228875,9.625E-4
1680015482310,1195470665437217,-0.02915,-0.22687499,-0.003025
1680015482312,1195470667939673,-0.03025,-0.2278375,-0.0059125
1680015482315,1195470670441904,-0.0352,-0.2338875,-0.0100375
1680015482318,1195470672944058,-0.037125,-0.2369125,-0.01595
1680015482323,1195470675446442,-0.0391875,-0.2369125,-0.022
1680015482323,1195470677948678,-0.0441375,-0.2398,-0.02695
1680015482325,1195470680450832,-0.0501875,-0.2418625,-0.029975
1680015482327,1195470682953293,-0.054175,-0.2398,-0.033
1680015482330,1195470685455755,-0.0562375,-0.2418625,-0.036025
1680015482335,1195470687957928,-0.0572,-0.23485,-0.0389125
1680015482339,1195470690460312,-0.0611875,-0.2308625,-0.0389125
1680015482339,1195470692962543,-0.06325,-0.2259125,-0.0419375
1680015482341,1195470695464928,-0.0682,-0.2189,-0.0400125
1680015482344,1195470697967389,-0.0691625,-0.2138125,-0.03795
1680015482346,1195470700469543,-0.071225,-0.2058375,-0.036025
1680015482348,1195470702971774,-0.070125,-0.1948375,-0.033
1680015482350,1195470705474159,-0.071225,-0.17985,-0.0290125
1680015482352,1195470707976389,-0.070125,-0.165825,-0.0259875
1680015482358,1195470710478784,-0.0691625,-0.1568875,-0.023924999
1680015482358,1195470712981015,-0.0661375,-0.1419,-0.022
1680015482360,1195470715483399,-0.059125,-0.1208625,-0.0199375
1680015482364,1195470717985630,-0.0581625,-0.1128875,-0.0180125
1680015482366,1195470720488015,-0.054175,-0.0968,-0.0119624995
1680015482368,1195470722990236,-0.0462,-0.0829125,-0.0059125
1680015482374,1195470725492620,-0.0391875,-0.0677875,-0.001925
1680015482375,1195470727994851,-0.0352,-0.058849998,0.0
1680015482376,1195470730497236,-0.02915,-0.0468875,0.00605
1680015482380,1195470732999437,-0.0232375,-0.0358875,0.0100375
1680015482381,1195470735501822,-0.01815,-0.0279125,0.013062499
1680015482383,1195470738004053,-0.015125,-0.0198,0.014025
1680015482386,1195470740506437,-0.0122375,-0.01485,0.01705
1680015482390,1195470743008668,-0.0111375,-0.0078375,0.0240625
1680015482391,1195470745511063,-0.005225,-0.0048125,0.0240625
1680015482393,1195470748013294,-0.0012375,-0.0048125,0.02805
1680015482396,1195470750515678,-0.0012375,-0.00385,0.031075
1680015482397,1195470753017909,0.00385,-0.0028875,0.033
1680015482400,1195470755520308,0.00275,-0.0099,0.0369875
1680015482403,1195470758022538,0.0048125,-0.0099,0.0380875
1680015482405,1195470760524923,0.0078375,-0.01485,0.0380875
1680015482409,1195470763027154,0.0127875,-0.02585,0.039049998
1680015482411,1195470765529534,0.017875,-0.0347875,0.039049998
1680015482413,1195470768031765,0.0158125,-0.044825,0.040975
1680015482415,1195470770533919,0.0108624995,-0.0598125,0.039049998
1680015482418,1195470773036381,0.006875,-0.0738375,0.0380875
1680015482420,1195470775538765,0.00275,-0.0858,0.039049998
1680015482422,1195470778040976,-0.0012375,-0.0979,0.0369875
1680015482425,1195470780543361,-0.004125,-0.11385,0.036025
1680015482427,1195470783045591,-0.0061875,-0.1348875,0.0380875
1680015482430,1195470785547976,-0.00715,-0.1447875,0.036025
1680015482432,1195470788050207,-0.0092124995,-0.15785,0.0339625
1680015482436,1195470790552591,-0.0122375,-0.17379999,0.036025
1680015482438,1195470793054822,-0.014162499,-0.18287499,0.0380875
1680015482441,1195470795557207,-0.0171875,-0.187825,0.0369875
1680015482443,1195470798059405,-0.0221375,-0.2008875,0.0400125
1680015482448,1195470800561635,-0.0242,-0.2118875,0.0430375
1680015482449,1195470803064097,-0.02915,-0.220825,0.044
1680015482451,1195470805566482,-0.03025,-0.2299,0.0460625
1680015482453,1195470808068697,-0.03025,-0.2308625,0.050049998
1680015482456,1195470810571082,-0.0342375,-0.2299,0.053075
1680015482459,1195470813073313,-0.0361625,-0.2327875,0.0559625
1680015482461,1195470815575467,-0.037125,-0.236775,0.0559625
1680015482464,1195470818077957,-0.0352,-0.231825,0.058025
1680015482465,1195470820580342,-0.037125,-0.225775,0.0570625
1680015482468,1195470823082573,-0.0391875,-0.2228875,0.0600875
1680015482471,1195470825584726,-0.0352,-0.21285,0.064075
1680015482473,1195470828087111,-0.0361625,-0.2008875,0.062975
1680015482475,1195470830589308,-0.0352,-0.1918125,0.066
1680015482478,1195470833091769,-0.0331375,-0.1808125,0.0650375
1680015482482,1195470835594154,-0.0312125,-0.170775,0.066
1680015482486,1195470838096371,-0.0281875,-0.1568875,0.0699875
1680015482488,1195470840598755,-0.0251625,-0.1447875,0.069025
1680015482491,1195470843111448,-0.0232375,-0.1337875,0.069025
1680015482492,1195470845603371,-0.0232375,-0.1208625,0.07205
1680015482494,1195470848105602,-0.016224999,-0.110825,0.0699875
1680015482496,1195470850607750,-0.0132,-0.094875,0.07205
1680015482499,1195470853110135,-0.0122375,-0.083875,0.07205
1680015482500,1195470855612366,-0.0092124995,-0.0759,0.0730125
1680015482503,1195470858114827,-0.0061875,-0.066825,0.07205
1680015482506,1195470860617212,-0.0022,-0.058849998,0.0730125
1680015482508,1195470863119415,-0.0012375,-0.044825,0.073975
1680015482511,1195470865621799,0.005775,-0.036849998,0.075075
1680015482513,1195470868123953,0.0108624995,-0.0319,0.077
1680015482517,1195470870626184,0.0127875,-0.0268125,0.075075
1680015482519,1195470873128656,0.0188375,-0.0237875,0.075075
1680015482523,1195470875631040,0.0237875,-0.01485,0.080025
1680015482525,1195470878133271,0.027775,-0.011825,0.080025
1680015482527,1195470880737271,0.0317625,-0.011825,0.0809875
1680015482529,1195470883137785,0.0358875,-0.0127875,0.080025
1680015482531,1195470885640016,0.038775,-0.017875,0.077
1680015482533,1195470888142478,0.0438625,-0.0198,0.0779625
1680015482536,1195470890644862,0.0468875,-0.0268125,0.0779625
1680015482540,1195470893147112,0.050875,-0.033825,0.0790625
1680015482541,1195470895649266,0.0537625,-0.0429,0.0790625
1680015482543,1195470898151651,0.0528,-0.0528,0.0809875
1680015482545,1195470900653881,0.0488125,-0.0638,0.0820875
1680015482548,1195470903156343,0.0457875,-0.0759,0.0809875
1680015482552,1195470905658723,0.050875,-0.0858,0.077
1680015482553,1195470908160953,0.050875,-0.1018875,0.0779625
1680015482557,1195470910663338,0.050875,-0.1199,0.077
1680015482560,1195470913165492,0.0457875,-0.1318625,0.075075
1680015482561,1195470915667723,0.0488125,-0.1508375,0.075075
1680015482563,1195470918170174,0.0457875,-0.1648625,0.075075
1680015482566,1195470920672559,0.0468875,-0.1749,0.0699875
1680015482568,1195470923174790,0.0438625,-0.187825,0.07205
1680015482571,1195470925676943,0.0408375,-0.2008875,0.0710875
1680015482573,1195470928179318,0.0358875,-0.21285,0.0699875
1680015482576,1195470930681549,0.0317625,-0.21779999,0.0669625
1680015482580,1195470933183933,0.027775,-0.2308625,0.064075
1680015482581,1195470935686164,0.0268125,-0.242825,0.061049998
1680015482583,1195470938188554,0.0248875,-0.24585,0.0570625
1680015482586,1195470940690785,0.0198,-0.24887499,0.0559625
1680015482588,1195470943193169,0.017875,-0.2578125,0.055
1680015482591,1195470945695400,0.011825,-0.2638625,0.0540375
1680015482594,1195470948197794,0.0088,-0.264825,0.051975
1680015482597,1195470950700255,0.0078375,-0.2629,0.0490875
1680015482599,1195470953202409,0.0048125,-0.2629,0.047025
1680015482601,1195470955704640,0.0028875,-0.264825,0.047025
1680015482603,1195470958207024,0.0017875,-0.2638625,0.047025
1680015482606,1195470960709270,-0.0012375,-0.2608375,0.0449625
1680015482608,1195470963211424,-0.004125,-0.2608375,0.0449625
1680015482610,1195470965713886,-0.005225,-0.2578125,0.0460625
1680015482613,1195470968216270,-0.0061875,-0.247775,0.0449625
1680015482615,1195470970718491,-0.0022,-0.2468125,0.047025
1680015482620,1195470973220876,-0.0012375,-0.2437875,0.0460625
1680015482622,1195470975723106,-0.0012375,-0.2418625,0.0460625
1680015482623,1195470978225491,-0.0012375,-0.231825,0.0449625
1680015482626,1195470980727947,8.25E-4,-0.225775,0.0449625
1680015482628,1195470983230101,8.25E-4,-0.2228875,0.044
1680015482631,1195470985732332,-0.0012375,-0.215875,0.042075
1680015482636,1195470988234703,0.0028875,-0.2118875,0.042075
1680015482640,1195470990736934,0.0078375,-0.2079,0.0449625
1680015482640,1195470993239087,0.0108624995,-0.2079,0.0369875
1680015482642,1195470995741549,0.011825,-0.2028125,0.0320375
1680015482644,1195470998243934,0.0108624995,-0.20185,0.033
1680015482646,1195471000746178,0.0138875,-0.2068,0.0320375
1680015482649,1195471003248563,0.011825,-0.20185,0.025024999
1680015482650,1195471005750794,0.011825,-0.2008875,0.0229625
1680015482653,1195471008253178,0.01485,-0.203775,0.020075
1680015482656,1195471010755428,0.01485,-0.2088625,0.0160875
1680015482659,1195471013257813,0.0138875,-0.2107875,0.013062499
1680015482660,1195471015760044,0.01485,-0.2088625,0.0070125
1680015482666,1195471018262428,0.0188375,-0.2107875,9.625E-4
1680015482666,1195471020764582,0.0198,-0.215875,-0.001925
1680015482668,1195471023266847,0.0158125,-0.220825,-0.003025
1680015482672,1195471025769308,0.0127875,-0.2278375,-0.007975
1680015482675,1195471028271693,0.0127875,-0.2338875,-0.011
1680015482676,1195471030773924,0.011825,-0.2358125,-0.0169125
1680015482678,1195471033276318,0.0088,-0.2418625,-0.018975
1680015482682,1195471035778549,0.005775,-0.24887499,-0.0210375
1680015482683,1195471038280934,0.00385,-0.253825,-0.023924999
1680015482686,1195471040783164,-0.0031625,-0.253825,-0.023924999
1680015482689,1195471043285563,-0.00715,-0.259875,-0.0279125
1680015482691,1195471045787794,-0.0122375,-0.2657875,-0.029975
1680015482693,1195471048289948,-0.01815,-0.2688125,-0.0339625
1680015482695,1195471050792332,-0.0251625,-0.2748625,-0.0339625
1680015482699,1195471053294573,-0.026124999,-0.275825,-0.0339625
1680015482700,1195471055797035,-0.0301125,-0.275825,-0.03795
1680015482704,1195471058299419,-0.0342375,-0.2748625,-0.034925
1680015482706,1195471060801650,-0.038225,-0.2739,-0.0369875
1680015482710,1195471063304015,-0.0422125,-0.2688125,-0.036025
1680015482711,1195471065806245,-0.0452375,-0.2618,-0.033
1680015482714,1195471068308399,-0.0501875,-0.258775,-0.0290125
1680015482716,1195471070810861,-0.0532125,-0.2498375,-0.0259875
1680015482719,1195471073313245,-0.0562375,-0.2398,-0.02695
1680015482721,1195471075815524,-0.0562375,-0.231825,-0.023924999
1680015482724,1195471078317678,-0.0581625,-0.2189,-0.0210375
1680015482726,1195471080820063,-0.059125,-0.2079,-0.0210375
1680015482728,1195471083322294,-0.0562375,-0.192775,-0.0180125
1680015482730,1195471085824760,-0.0572,-0.176825,-0.012925
1680015482733,1195471088327145,-0.0572,-0.1639,-0.007975
1680015482736,1195471090829375,-0.0572,-0.1538625,-9.625E-4
1680015482740,1195471093331780,-0.0562375,-0.1428625,0.0
1680015482741,1195471095834011,-0.0562375,-0.1309,0.003025
1680015482744,1195471098336165,-0.0562375,-0.1148125,0.0070125
1680015482747,1195471100838626,-0.059125,-0.0968,0.011
1680015482749,1195471103341011,-0.0572,-0.082775,0.0149875
1680015482750,1195471105843242,-0.054175,-0.071775,0.018975
1680015482753,1195471108345395,-0.0532125,-0.0567875,0.0240625
1680015482756,1195471110847780,-0.0521125,-0.0418,0.02805
1680015482758,1195471113350011,-0.0501875,-0.0308,0.029975
1680015482761,1195471115852482,-0.0452375,-0.01485,0.0320375
1680015482764,1195471118354867,-0.043175,-0.006875,0.0339625
1680015482766,1195471120857098,-0.0422125,0.0022,0.0339625
1680015482769,1195471123359252,-0.0391875,0.0111375,0.0380875
1680015482770,1195471125861636,-0.04015,0.0202125,0.039049998
1680015482774,1195471128363829,-0.038225,0.0242,0.039049998
1680015482776,1195471130866291,-0.037125,0.027224999,0.042075
1680015482779,1195471133368675,-0.037125,0.02915,0.0449625
1680015482781,1195471135870829,-0.0352,0.0301125,0.044
1680015482785,1195471138373064,-0.0312125,0.02915,0.044
1680015482787,1195471140875448,-0.0281875,0.027224999,0.044
1680015482790,1195471143377679,-0.026124999,0.01815,0.042075
1680015482791,1195471145880112,-0.0281875,0.0171875,0.0400125
1680015482795,1195471148382496,-0.0251625,0.005225,0.044
1680015482796,1195471150884727,-0.026124999,1.375E-4,0.0430375
1680015482798,1195471153387112,-0.026124999,-0.011825,0.044
1680015482802,1195471155889271,-0.026124999,-0.0237875,0.040975
1680015482805,1195471158391501,-0.0281875,-0.0328625,0.040975
1680015482806,1195471160893963,-0.02915,-0.0488125,0.042075
1680015482808,1195471163396117,-0.0312125,-0.0638,0.0460625
1680015482811,1195471165898501,-0.02915,-0.077825,0.0449625
1680015482814,1195471168400703,-0.0312125,-0.0858,0.0449625
1680015482816,1195471170903088,-0.0352,-0.1038125,0.047025
1680015482823,1195471173405319,-0.037125,-0.1208625,0.0479875
1680015482824,1195471175907780,-0.04015,-0.1309,0.050049998
1680015482825,1195471178410160,-0.0462,-0.14685,0.0479875
1680015482827,1195471180912391,-0.0471625,-0.15785,0.0460625
1680015482829,1195471183414544,-0.05115,-0.1749,0.051975
1680015482830,1195471185916929,-0.0532125,-0.1859,0.047025
1680015482834,1195471188419146,-0.0562375,-0.1948375,0.051975
1680015482835,1195471190921607,-0.0572,-0.2058375,0.0559625
1680015482838,1195471193423761,-0.059125,-0.2079,0.058025
1680015482840,1195471195926146,-0.060225,-0.214775,0.0589875
1680015482844,1195471198428377,-0.0631125,-0.220825,0.0589875
1680015482846,1195471200930751,-0.0661375,-0.2278375,0.062975
1680015482848,1195471203432982,-0.0642125,-0.231825,0.0650375
1680015482850,1195471205935444,-0.0661375,-0.23485,0.066
1680015482855,1195471208437819,-0.0661375,-0.23485,0.069025
1680015482856,1195471210939973,-0.070125,-0.2358125,0.0730125
1680015482860,1195471213442204,-0.07315,-0.237875,0.075075
1680015482862,1195471215944588,-0.0721875,-0.2338875,0.0790625
1680015482865,1195471218446809,-0.0721875,-0.2338875,0.0790625
1680015482867,1195471220949194,-0.0721875,-0.2338875,0.0790625
1680015482869,1195471223451425,-0.071225,-0.2278375,0.086075
1680015482871,1195471225953809,-0.0752125,-0.2228875,0.087037496
1680015482875,1195471228456040,-0.07315,-0.215875,0.091025
1680015482876,1195471230958208,-0.071225,-0.2068,0.091025
1680015482878,1195471233460669,-0.070125,-0.198825,0.091025
1680015482881,1195471235963131,-0.0661375,-0.193875,0.0919875
1680015482884,1195471238465285,-0.0611875,-0.1868625,0.09405
1680015482886,1195471240967636,-0.0631125,-0.1788875,0.0950125
1680015482889,1195471243469867,-0.059125,-0.165825,0.0950125
1680015482891,1195471245972252,-0.054175,-0.1529,0.0950125
1680015482894,1195471248474483,-0.0521125,-0.148775,0.0919875
1680015482897,1195471250976867,-0.05115,-0.143825,0.0930875
1680015482901,1195471253479098,-0.05115,-0.1337875,0.095975
1680015482906,1195471255981483,-0.0471625,-0.1208625,0.097075
1680015482906,1195471258483713,-0.0441375,-0.1148125,0.098037496
1680015482906,1195471260985867,-0.0411125,-0.1148125,0.099
1680015482908,1195471263488242,-0.038225,-0.104775,0.1040875
1680015482911,1195471265990703,-0.0361625,-0.0988625,0.106975
1680015482914,1195471268492934,-0.0342375,-0.09185,0.11
1680015482916,1195471270995319,-0.0301125,-0.093775,0.1120625
1680015482918,1195471273497545,-0.0331375,-0.083875,0.120037496
1680015482921,1195471275999929,-0.0281875,-0.0858,0.1219625
1680015482923,1195471278502083,-0.0251625,-0.082775,0.128975
1680015482926,1195471281004545,-0.0251625,-0.077825,0.1359875
1680015482928,1195471283506775,-0.0221375,-0.0798875,0.13805
1680015482930,1195471286009146,-0.01815,-0.0768625,0.1370875
1680015482936,1195471288511377,-0.014162499,-0.071775,0.141075
1680015482938,1195471291013531,-0.016224999,-0.0748,0.1390125
1680015482940,1195471293515915,-0.0171875,-0.0708125,0.139975
1680015482942,1195471296018415,-0.015125,-0.0738375,0.141075
1680015482945,1195471298520646,-0.014162499,-0.0748,0.139975
1680015482948,1195471301023030,-0.0171875,-0.0787875,0.1390125
1680015482949,1195471303525261,-0.015125,-0.0858,0.1359875
1680015482951,1195471306027646,-0.016224999,-0.09185,0.13805
1680015482956,1195471308529799,-0.0191125,-0.0979,0.1359875
1680015482956,1195471311032261,-0.0191125,-0.106837496,0.1359875
1680015482959,1195471313534492,-0.0221375,-0.1148125,0.13805
1680015482961,1195471316036894,-0.0242,-0.1269125,0.1370875
1680015482964,1195471318539048,-0.026124999,-0.1419,0.135025
1680015482966,1195471321041279,-0.026124999,-0.149875,0.1359875
1680015482968,1195471323543664,-0.0281875,-0.1599125,0.1359875
1680015482973,1195471326046117,-0.0312125,-0.1709125,0.13805
1680015482975,1195471328548348,-0.037125,-0.17985,0.1359875
1680015482977,1195471331050733,-0.0352,-0.1948375,0.141075
1680015482979,1195471333552963,-0.038225,-0.2107875,0.141075
1680015482981,1195471336055117,-0.0411125,-0.2138125,0.141075
1680015482986,1195471338557529,-0.0441375,-0.220825,0.1420375
1680015482987,1195471341059990,-0.0462,-0.2299,0.1439625
1680015482989,1195471343562221,-0.0462,-0.2398,0.1439625
1680015482991,1195471346064606,-0.0501875,-0.2468125,0.1439625
1680015482994,1195471348566760,-0.0501875,-0.2508,0.1420375
1680015482997,1195471351068986,-0.0532125,-0.25685,0.143
1680015482999,1195471353571371,-0.0551375,-0.259875,0.1420375
1680015483002,1195471356073833,-0.054175,-0.2608375,0.1469875
1680015483006,1195471358576063,-0.0521125,-0.259875,0.146025
1680015483007,1195471361078448,-0.054175,-0.2589125,0.141075
1680015483010,1195471363580674,-0.0551375,-0.2558875,0.143
1680015483013,1195471366082828,-0.054175,-0.2508,0.143
1680015483015,1195471368585212,-0.05115,-0.24887499,0.141075
1680015483016,1195471371087674,-0.048125,-0.2398,0.141075
1680015483021,1195471373589805,-0.0441375,-0.2278375,0.139975
1680015483022,1195471376092035,-0.0441375,-0.22385,0.139975
1680015483025,1195471378594420,-0.043175,-0.2138125,0.139975
1680015483026,1195471381096651,-0.0391875,-0.2058375,0.139975
1680015483030,1195471383599035,-0.037125,-0.193875,0.1420375
1680015483031,1195471386101497,-0.0352,-0.1819125,0.139975
1680015483036,1195471388603728,-0.0352,-0.16885,0.13805
1680015483037,1195471391106112,-0.02915,-0.15785,0.13805
1680015483042,1195471393608275,-0.0242,-0.1518,0.13805
1680015483042,1195471396110506,-0.0242,-0.1368125,0.139975
1680015483044,1195471398612891,-0.0232375,-0.127875,0.141075
1680015483048,1195471401115352,-0.01815,-0.1148125,0.1420375
1680015483050,1195471403617506,-0.015125,-0.1098625,0.141075
1680015483053,1195471406119732,-0.014162499,-0.094875,0.141075
1680015483060,1195471408622116,-0.014162499,-0.0798875,0.1420375
1680015483060,1195471411124578,-0.010175,-0.06985,0.139975
1680015483061,1195471413626732,-0.0092124995,-0.064899996,0.141075
1680015483062,1195471416128963,-0.0061875,-0.0539,0.141075
1680015483064,1195471418631366,-0.0022,-0.0528,0.141075
1680015483068,1195471421133597,-0.0031625,-0.0429,0.141075
1680015483070,1195471423635982,-0.0022,-0.036849998,0.13805
1680015483071,1195471426138443,-0.0012375,-0.036849998,0.1359875
1680015483075,1195471428640578,8.25E-4,-0.036849998,0.1359875
1680015483076,1195471431142809,0.0028875,-0.0347875,0.130075
1680015483080,1195471433645193,0.0028875,-0.0347875,0.1280125
1680015483081,1195471436147424,0.00385,-0.0358875,0.1260875
1680015483086,1195471438649794,0.0028875,-0.0378125,0.124025
1680015483090,1195471441152025,8.25E-4,-0.0408375,0.1219625
1680015483090,1195471443654409,0.0017875,-0.0457875,0.120037496
1680015483092,1195471446156640,0.005775,-0.0488125,0.1170125
1680015483097,1195471448659006,0.0048125,-0.0499125,0.1150875
1680015483098,1195471451161159,0.0017875,-0.0548625,0.1120625
1680015483100,1195471453663390,-0.0031625,-0.0598125,0.11
1680015483101,1195471456165852,-0.0012375,-0.0609125,0.10505
1680015483104,1195471458668236,-0.004125,-0.0688875,0.102025
1680015483106,1195471461170467,-0.010175,-0.0759,0.0999625
1680015483108,1195471463672852,-0.0122375,-0.0748,0.098037496
1680015483111,1195471466175082,-0.0132,-0.0768625,0.095975
1680015483114,1195471468677467,-0.016224999,-0.0829125,0.0919875
1680015483116,1195471471179698,-0.0202125,-0.083875,0.088
1680015483119,1195471473682073,-0.0221375,-0.0928125,0.087037496
1680015483123,1195471476184303,-0.021175,-0.1007875,0.0809875
1680015483125,1195471478686688,-0.0242,-0.0979,0.077
1680015483127,1195471481188847,-0.0242,-0.0988625,0.0730125
1680015483128,1195471483691078,-0.0312125,-0.0988625,0.0650375
1680015483131,1195471486193539,-0.0301125,-0.1038125,0.062975
1680015483137,1195471488695924,-0.0352,-0.1018875,0.0589875
1680015483137,1195471491198154,-0.0391875,-0.099825,0.053075
1680015483139,1195471493700549,-0.0391875,-0.1007875,0.0449625
1680015483141,1195471496202780,-0.043175,-0.0979,0.0449625
1680015483144,1195471498704934,-0.0441375,-0.094875,0.036025
1680015483146,1195471501207395,-0.043175,-0.0858,0.029975
1680015483148,1195471503709799,-0.0441375,-0.0858,0.025024999
1680015483150,1195471506212030,-0.0422125,-0.08085,0.0210375
1680015483154,1195471508714184,-0.0471625,-0.0738375,0.014025
1680015483156,1195471511216568,-0.0462,-0.0677875,0.011
1680015483159,1195471513718794,-0.0462,-0.0638,0.0070125
1680015483162,1195471516221255,-0.0452375,-0.0578875,0.0020625
1680015483164,1195471518723640,-0.0452375,-0.047849998,-0.001925
1680015483166,1195471521225871,-0.0452375,-0.0358875,-0.0059125
1680015483168,1195471523728255,-0.0422125,-0.0298375,-0.007975
1680015483170,1195471526230471,-0.0411125,-0.0198,-0.007975
1680015483174,1195471528732625,-0.0452375,-0.0108624995,-0.007975
1680015483176,1195471531235087,-0.0441375,-0.0078375,-0.00495
1680015483179,1195471533737471,-0.0422125,-0.0017875,-0.001925
1680015483181,1195471536239712,-0.04015,0.0031625,9.625E-4
1680015483184,1195471538741866,-0.038225,0.0061875,0.0039875
1680015483186,1195471541244251,-0.04015,0.0111375,0.007975
1680015483189,1195471543746481,-0.0411125,0.0191125,0.011
1680015483191,1195471546248967,-0.043175,0.0231,0.014025
1680015483194,1195471548751121,-0.0391875,0.0281875,0.018975
1680015483198,1195471551253582,-0.037125,0.0341,0.018975
1680015483200,1195471553755967,-0.04015,0.0361625,0.01705
1680015483202,1195471556258131,-0.0411125,0.0411125,0.0160875
1680015483204,1195471558760361,-0.0411125,0.0441375,0.018975
1680015483206,1195471561262823,-0.0411125,0.0462,0.020075
1680015483209,1195471563765208,-0.038225,0.0471625,0.01705
1680015483211,1195471566267366,-0.0391875,0.0441375,0.018975
1680015483215,1195471568769596,-0.0422125,0.0441375,0.018975
1680015483216,1195471571271981,-0.043175,0.0411125,0.014025
1680015483219,1195471573774212,-0.0462,0.0411125,0.0119624995
1680015483221,1195471576276596,-0.0501875,0.0380875,0.0100375
1680015483224,1195471578779054,-0.0532125,0.0331375,0.0070125
1680015483226,1195471581281285,-0.0532125,0.0270875,0.00605
1680015483228,1195471583783438,-0.0572,0.01815,0.0070125
1680015483231,1195471586285808,-0.059125,0.0132,0.0039875
1680015483236,1195471588788039,-0.0631125,0.00715,-0.001925
1680015483237,1195471591290423,-0.06215,-0.0028875,0.0
1680015483239,1195471593792654,-0.0672375,-0.006875,0.0
1680015483241,1195471596295039,-0.070125,-0.0198,9.625E-4
1680015483245,1195471598797270,-0.0721875,-0.028875,-9.625E-4
1680015483246,1195471601299654,-0.076175,-0.0358875,-9.625E-4
1680015483249,1195471603801885,-0.0792,-0.0488125,-0.001925
1680015483251,1195471606304270,-0.081125,-0.0578875,-0.003025
1680015483254,1195471608806505,-0.0831875,-0.0677875,-0.001925
1680015483256,1195471611308890,-0.0851125,-0.0798875,-0.00495
1680015483260,1195471613811121,-0.0862125,-0.0897875,-0.00495
1680015483261,1195471616313505,-0.0881375,-0.0968,-0.001925
1680015483264,1195471618815750,-0.0902,-0.1098625,-0.001925
1680015483266,1195471621318135,-0.092125,-0.116875,-0.003025
1680015483268,1195471623820366,-0.093225,-0.1288375,-0.001925
1680015483273,1195471626322750,-0.0961125,-0.1337875,-0.0039875
1680015483275,1195471628824967,-0.0961125,-0.1458875,-0.0059125
1680015483277,1195471631327352,-0.0972125,-0.149875,-0.0089375
1680015483279,1195471633829506,-0.100237496,-0.1568875,-0.007975
1680015483281,1195471636331736,-0.0991375,-0.1628,-0.01595
1680015483285,1195471638834179,-0.1012,-0.1667875,-0.012925
1680015483288,1195471641336563,-0.1021625,-0.1709125,-0.0149875
1680015483289,1195471643838794,-0.103125,-0.1709125,-0.0180125
1680015483292,1195471646341179,-0.0991375,-0.1749,-0.0210375
1680015483296,1195471648843381,-0.100237496,-0.1749,-0.023924999
1680015483296,1195471651345765,-0.100237496,-0.1788875,-0.0259875
1680015483301,1195471653847996,-0.1021625,-0.1777875,-0.025024999
1680015483302,1195471656350381,-0.103125,-0.176825,-0.02695
1680015483304,1195471658852611,-0.1012,-0.17379999,-0.0320375
1680015483306,1195471661354770,-0.1012,-0.17379999,-0.0369875
1680015483310,1195471663857232,-0.0991375,-0.1698125,-0.0369875
1680015483312,1195471666359386,-0.0961125,-0.165825,-0.0369875
1680015483315,1195471668861847,-0.0991375,-0.1639,-0.03795
1680015483317,1195471671364227,-0.0991375,-0.1568875,-0.03795
1680015483319,1195471673866458,-0.0941875,-0.149875,-0.0389125
1680015483322,1195471676368842,-0.0972125,-0.1508375,-0.040975
1680015483324,1195471678871073,-0.09515,-0.1428625,-0.040975
1680015483326,1195471681373227,-0.09515,-0.13585,-0.03795
1680015483329,1195471683875683,-0.09515,-0.13585,-0.040975
1680015483331,1195471686378068,-0.0961125,-0.132825,-0.0430375
1680015483334,1195471688880299,-0.0961125,-0.1258125,-0.040975
1680015483336,1195471691382453,-0.093225,-0.1238875,-0.0369875
1680015483340,1195471693884832,-0.0941875,-0.116875,-0.0369875
1680015483341,1195471696387063,-0.0911625,-0.1117875,-0.036025
1680015483344,1195471698889525,-0.092125,-0.108899996,-0.033
1680015483349,1195471701391899,-0.092125,-0.1038125,-0.0320375
1680015483351,1195471703894130,-0.0902,-0.095837496,-0.0290125
1680015483352,1195471706396515,-0.0911625,-0.095837496,-0.025024999
1680015483357,1195471708898668,-0.0911625,-0.0928125,-0.022
1680015483359,1195471711400899,-0.087175,-0.0858,-0.0210375
1680015483359,1195471713903361,-0.08415,-0.0858,-0.0180125
1680015483361,1195471716405774,-0.0862125,-0.08085,-0.0180125
1680015483364,1195471718907928,-0.0801625,-0.077825,-0.01595
1680015483367,1195471721410159,-0.0792,-0.0719125,-0.012925
1680015483368,1195471723912544,-0.0752125,-0.0658625,-0.012925
1680015483371,1195471726414765,-0.070125,-0.0628375,-0.012925
1680015483375,1195471728917227,-0.0691625,-0.061875,-0.0089375
1680015483376,1195471731419612,-0.0672375,-0.0567875,-0.0119624995
1680015483380,1195471733921842,-0.0581625,-0.0539,-0.012925
1680015483381,1195471736424227,-0.0551375,-0.0528,-0.012925
1680015483386,1195471738926385,-0.0532125,-0.0528,-0.0169125
1680015483388,1195471741428616,-0.0551375,-0.0528,-0.0149875
1680015483391,1195471743931077,-0.0521125,-0.0548625,-0.012925
1680015483392,1195471746433477,-0.05115,-0.0609125,-0.012925
1680015483395,1195471748935631,-0.0471625,-0.058849998,-0.011
1680015483396,1195471751437861,-0.0452375,-0.0628375,-0.0149875
1680015483399,1195471753940246,-0.0452375,-0.0677875,-0.011
1680015483401,1195471756442477,-0.0452375,-0.0738375,-0.011
1680015483406,1195471758944947,-0.0441375,-0.077825,-0.012925
1680015483406,1195471761447332,-0.043175,-0.0858,-0.0119624995
1680015483409,1195471763949563,-0.0422125,-0.09185,-0.011
1680015483411,1195471766451717,-0.0441375,-0.099825,-0.0089375
1680015483415,1195471768954116,-0.0441375,-0.1038125,-0.0070125
1680015483416,1195471771456347,-0.048125,-0.1098625,-0.007975
1680015483420,1195471773958809,-0.05115,-0.1208625,-0.0100375
1680015483423,1195471776460962,-0.0532125,-0.1188,-0.0119624995
1680015483426,1195471778963377,-0.0532125,-0.1258125,-0.0100375
1680015483428,1195471781465608,-0.0551375,-0.13585,-0.012925
1680015483429,1195471783967992,-0.0581625,-0.1368125,-0.011
1680015483431,1195471786470223,-0.0611875,-0.1408,-0.011
1680015483435,1195471788972608,-0.06215,-0.1458875,-0.0119624995
1680015483436,1195471791474839,-0.0631125,-0.1508375,-0.0119624995
1680015483439,1195471793977223,-0.0672375,-0.154825,-0.011
1680015483441,1195471796479454,-0.071225,-0.1538625,-0.0119624995
1680015483445,1195471798981839,-0.07315,-0.1529,-0.011
1680015483446,1195471801484083,-0.076175,-0.149875,-0.011
1680015483449,1195471803986545,-0.0741125,-0.1489125,-0.011
1680015483451,1195471806488699,-0.076175,-0.149875,-0.011
1680015483457,1195471808991083,-0.0801625,-0.1478125,-0.011
1680015483457,1195471811493314,-0.0771375,-0.1428625,-0.011
1680015483463,1195471813995468,-0.076175,-0.137775,-0.011
1680015483464,1195471816497853,-0.0752125,-0.12979999,-0.0100375
1680015483466,1195471819000314,-0.076175,-0.1208625,-0.0100375
1680015483468,1195471821502550,-0.076175,-0.1117875,-0.0119624995
1680015483469,1195471824004935,-0.07315,-0.106837496,-0.011
1680015483472,1195471826507165,-0.0721875,-0.1007875,-0.0149875
1680015483475,1195471829009550,-0.07315,-0.093775,-0.0169125
1680015483476,1195471831511781,-0.070125,-0.08085,-0.018975
1680015483479,1195471834014155,-0.0661375,-0.0738375,-0.0169125
1680015483481,1195471836516386,-0.0661375,-0.0658625,-0.0149875
1680015483485,1195471839018771,-0.0661375,-0.0598125,-0.01595
1680015483487,1195471841521002,-0.0672375,-0.050875,-0.0100375
1680015483489,1195471844023150,-0.06215,-0.0408375,-0.0089375
1680015483491,1195471846525535,-0.0581625,-0.033825,-0.011
1680015483495,1195471849027997,-0.059125,-0.0298375,-0.0070125
1680015483499,1195471851530227,-0.0572,-0.0209,-0.00495
1680015483501,1195471854032627,-0.0572,-0.016775,0.0
1680015483502,1195471856534858,-0.0532125,-0.016775,0.0039875
1680015483505,1195471859037242,-0.0532125,-0.0108624995,0.00605
1680015483506,1195471861539473,-0.0521125,-0.005775,0.007975
1680015483509,1195471864041858,-0.0471625,-0.0048125,0.0070125
1680015483511,1195471866544108,-0.0462,-0.0078375,0.011
1680015483516,1195471869046492,-0.0471625,-0.0078375,0.0149875
1680015483518,1195471871548646,-0.0422125,-0.0099,0.0160875
1680015483520,1195471874050877,-0.038225,-0.006875,0.0149875
1680015483521,1195471876553261,-0.0352,-0.0099,0.0160875
1680015483526,1195471879055728,-0.0342375,-0.0078375,0.0210375
1680015483529,1195471881557959,-0.0331375,-0.0099,0.022
1680015483529,1195471884060343,-0.0312125,-0.0108624995,0.0210375
1680015483531,1195471886562545,-0.0301125,-0.017875,0.0229625
1680015483536,1195471889064930,-0.0281875,-0.0218625,0.025024999
1680015483538,1195471891567084,-0.0312125,-0.02585,0.0240625
1680015483540,1195471894069545,-0.0301125,-0.0347875,0.025024999
1680015483542,1195471896571766,-0.02915,-0.0468875,0.025024999
1680015483545,1195471899074151,-0.0331375,-0.0539,0.0259875
1680015483547,1195471901576304,-0.0352,-0.0628375,0.025024999
1680015483548,1195471904078535,-0.0342375,-0.0738375,0.0270875
1680015483551,1195471906580920,-0.0352,-0.086899996,0.0259875
1680015483554,1195471909083367,-0.0361625,-0.095837496,0.0240625
1680015483556,1195471911585598,-0.037125,-0.106837496,0.025024999
1680015483559,1195471914087983,-0.0391875,-0.1188,0.0259875
1680015483561,1195471916590213,-0.0452375,-0.12979999,0.0259875
1680015483564,1195471919092343,-0.048125,-0.1337875,0.025024999
1680015483566,1195471921594728,-0.05115,-0.1478125,0.025024999
1680015483569,1195471924097190,-0.054175,-0.1618375,0.025024999
1680015483573,1195471926599410,-0.0562375,-0.1648625,0.0259875
1680015483575,1195471929101564,-0.0581625,-0.17379999,0.0259875
1680015483577,1195471931603949,-0.0581625,-0.1788875,0.0259875
1680015483580,1195471934106180,-0.060225,-0.1859,0.0240625
1680015483582,1195471936608564,-0.0611875,-0.192775,0.0270875
1680015483584,1195471939111007,-0.0631125,-0.1958,0.0259875
1680015483586,1195471941613237,-0.0661375,-0.1958,0.0240625
1680015483589,1195471944115622,-0.0682,-0.1969,0.02805
1680015483591,1195471946617776,-0.0682,-0.1997875,0.02805
1680015483594,1195471949119992,-0.0691625,-0.1948375,0.025024999
1680015483596,1195471951622376,-0.0682,-0.1918125,0.025024999
1680015483598,1195471954124838,-0.0691625,-0.187825,0.025024999
1680015483601,1195471956627069,-0.0682,-0.181775,0.0270875
1680015483604,1195471959129223,-0.0672375,-0.17379999,0.0240625
1680015483606,1195471961631617,-0.0682,-0.1618375,0.020075
1680015483611,1195471964133848,-0.0672375,-0.148775,0.01705
1680015483612,1195471966636233,-0.0631125,-0.137775,0.013062499
1680015483616,1195471969138694,-0.060225,-0.1288375,0.0119624995
1680015483617,1195471971640925,-0.059125,-0.1128875,0.0100375
1680015483621,1195471974143079,-0.0562375,-0.094875,0.007975
1680015483622,1195471976645463,-0.0532125,-0.082775,0.0070125
1680015483626,1195471979147925,-0.0521125,-0.06985,0.0070125
1680015483627,1195471981650079,-0.0501875,-0.060775,0.0050875
1680015483628,1195471984152310,-0.043175,-0.0488125,0.0039875
1680015483632,1195471986654694,-0.0391875,-0.038775,0.00605
1680015483634,1195471989156925,-0.037125,-0.0268125,0.0050875
1680015483636,1195471991659343,-0.02915,-0.01485,0.00605
1680015483641,1195471994161804,-0.026124999,-0.0088,0.0039875
1680015483642,1195471996663958,-0.021175,-0.0017875,0.0050875
1680015483645,1195471999166189,-0.016224999,0.005225,0.00605
1680015483650,1195472001668544,-0.016224999,0.0061875,0.0050875
1680015483650,1195472004170775,-0.0111375,0.0121,0.0050875
1680015483653,1195472006673160,-0.0111375,0.015125,0.00605
1680015483656,1195472009175621,-0.00715,0.0171875,0.009075
1680015483656,1195472011677775,-0.00715,0.01815,0.00605
1680015483660,1195472014179987,-0.0061875,0.01815,0.0050875
1680015483661,1195472016682372,-0.0012375,0.0191125,0.003025
1680015483664,1195472019184602,8.25E-4,0.016224999,0.0050875
1680015483666,1195472021686987,8.25E-4,0.0132,0.0039875
1680015483669,1195472024189448,-0.0022,0.010175,0.0020625
1680015483673,1195472026691583,-0.0022,0.00715,0.0020625
1680015483675,1195472029193814,-0.0061875,0.0011,0.0
1680015483676,1195472031696199,-0.0061875,-0.0028875,0.0020625
1680015483679,1195472034198429,-0.004125,-0.0108624995,0.0020625
1680015483681,1195472036700814,-0.0022,-0.016775,-9.625E-4
1680015483687,1195472039203040,-0.004125,-0.0237875,-9.625E-4
1680015483689,1195472041705424,-0.004125,-0.027775,0.0
1680015483690,1195472044207655,-0.005225,-0.0319,0.0
1680015483692,1195472046710040,-0.0061875,-0.0378125,-9.625E-4
1680015483695,1195472049212189,-0.005225,-0.0457875,-0.001925
1680015483697,1195472051714420,-0.0061875,-0.050875,-0.003025
1680015483700,1195472054216881,-0.00715,-0.0528,-9.625E-4
1680015483701,1195472056719266,-0.005225,-0.061875,-0.001925
1680015483706,1195472059221477,-0.005225,-0.0677875,-9.625E-4
1680015483707,1195472061723862,-0.0061875,-0.0768625,-0.001925
1680015483709,1195472064226093,-0.0061875,-0.08085,9.625E-4
1680015483713,1195472066728477,-0.00715,-0.0908875,0.0020625
1680015483715,1195472069230708,-0.005225,-0.0928125,-9.625E-4
1680015483717,1195472071733093,-0.0061875,-0.0988625,0.0
1680015483719,1195472074235324,-0.00715,-0.1007875,9.625E-4
1680015483724,1195472076737477,-0.0061875,-0.0988625,9.625E-4
1680015483727,1195472079239862,-0.0031625,-0.1018875,-9.625E-4
1680015483728,1195472081906636,-0.004125,-0.104775,0.0039875
1680015483730,1195472084244559,-0.005225,-0.1018875,0.0039875
1680015483732,1195472086746944,-0.0022,-0.0968,0.0050875
1680015483735,1195472089249175,-0.0022,-0.095837496,0.00605
1680015483737,1195472091751559,8.25E-4,-0.0979,0.0070125
1680015483740,1195472094253799,0.0028875,-0.0928125,0.0070125
1680015483742,1195472096755953,0.006875,-0.0858,0.007975
1680015483745,1195472099258415,0.006875,-0.08085,0.011
1680015483747,1195472101760799,0.0097624995,-0.0768625,0.009075
1680015483749,1195472104263030,0.0097624995,-0.0738375,0.007975
1680015483752,1195472106765179,0.0108624995,-0.064899996,0.011
1680015483755,1195472109267563,0.011825,-0.0598125,0.009075
1680015483757,1195472111769794,0.0138875,-0.0567875,0.0070125
1680015483761,1195472114272256,0.017875,-0.0518375,0.011
1680015483762,1195472116774669,0.0198,-0.047849998,0.0119624995
1680015483765,1195472119276900,0.0218625,-0.0429,0.0119624995
1680015483767,1195472121779285,0.0237875,-0.0378125,0.0119624995
1680015483769,1195472124281516,0.027775,-0.036849998,0.0119624995
1680015483772,1195472126783669,0.027775,-0.0298375,0.0149875
1680015483775,1195472129286116,0.028875,-0.0237875,0.0149875
1680015483776,1195472131788501,0.0308,-0.0248875,0.014025
1680015483779,1195472134290654,0.0308,-0.02585,0.01705
1680015483781,1195472136792885,0.0308,-0.0268125,0.0210375
1680015483784,1195472139295270,0.0317625,-0.017875,0.0210375
1680015483787,1195472141797501,0.0308,-0.0209,0.022
1680015483789,1195472144299962,0.033825,-0.0188375,0.0229625
1680015483792,1195472146802347,0.033825,-0.0138875,0.018975
1680015483795,1195472149304563,0.033825,-0.011825,0.0210375
1680015483798,1195472151806716,0.0308,-0.0127875,0.018975
1680015483800,1195472154309101,0.0298375,-0.0127875,0.0149875
1680015483802,1195472156811332,0.0298375,-0.0127875,0.0149875
1680015483806,1195472159313803,0.0317625,-0.0108624995,0.0149875
1680015483807,1195472161816188,0.033825,-0.0088,0.014025
1680015483809,1195472164318342,0.033825,-0.0078375,0.0119624995
1680015483812,1195472166820573,0.0317625,-0.0099,0.011
1680015483815,1195472169322942,0.0358875,-0.0099,0.0100375
1680015483817,1195472171825173,0.0347875,-0.0048125,0.0100375
1680015483820,1195472174327635,0.0358875,-0.006875,0.0149875
1680015483822,1195472176829788,0.0378125,-0.0088,0.0160875
1680015483824,1195472179332173,0.0378125,-0.0127875,0.014025
1680015483827,1195472181834443,0.036849998,-0.0138875,0.0149875
1680015483829,1195472184336827,0.0378125,-0.0158125,0.018975
1680015483832,1195472186839058,0.038775,-0.0218625,0.018975
1680015483837,1195472189341520,0.036849998,-0.0248875,0.0210375
1680015483840,1195472191843698,0.0358875,-0.0268125,0.025024999
1680015483842,1195472194346082,0.038775,-0.033825,0.022
1680015483843,1195472196848313,0.033825,-0.0358875,0.0229625
1680015483845,1195472199350698,0.033825,-0.0418,0.0210375
1680015483847,1195472201852865,0.0317625,-0.0457875,0.0229625
1680015483849,1195472204355327,0.0358875,-0.050875,0.0240625
1680015483852,1195472206857558,0.0378125,-0.0548625,0.022
1680015483856,1195472209359942,0.0347875,-0.060775,0.0270875
1680015483857,1195472211862173,0.0317625,-0.0628375,0.0270875
1680015483860,1195472214364573,0.0347875,-0.0658625,0.0270875
1680015483862,1195472216866804,0.0317625,-0.066825,0.029975
1680015483865,1195472219369188,0.0308,-0.071775,0.031075
1680015483867,1195472221871419,0.0317625,-0.0768625,0.0290125
1680015483869,1195472224373809,0.033825,-0.083875,0.0320375
1680015483874,1195472226876039,0.0308,-0.0858,0.036025
1680015483877,1195472229378424,0.033825,-0.0908875,0.0400125
1680015483879,1195472231880602,0.0298375,-0.094875,0.0400125
1680015483880,1195472234382833,0.0298375,-0.0968,0.0400125
1680015483882,1195472236885294,0.033825,-0.0968,0.0380875
1680015483885,1195472239387679,0.0347875,-0.0979,0.039049998
1680015483890,1195472241889881,0.036849998,-0.095837496,0.0400125
1680015483892,1195472244392265,0.0347875,-0.0968,0.0400125
1680015483894,1195472246894496,0.033825,-0.093775,0.040975
1680015483896,1195472249396650,0.0358875,-0.0928125,0.0400125
1680015483897,1195472251899111,0.0378125,-0.095837496,0.040975
1680015483900,1195472254401510,0.0378125,-0.099825,0.0430375
1680015483902,1195472256903741,0.038775,-0.093775,0.042075
1680015483905,1195472259405895,0.0418,-0.0928125,0.0369875
1680015483907,1195472261908279,0.039875,-0.0897875,0.036025
1680015483911,1195472264410520,0.0408375,-0.0878625,0.039049998
1680015483913,1195472266912982,0.0408375,-0.086899996,0.0400125
1680015483918,1195472269415366,0.038775,-0.086899996,0.0400125
1680015483920,1195472271917597,0.0378125,-0.08085,0.039049998
1680015483923,1195472274420001,0.0358875,-0.077825,0.036025
1680015483925,1195472276922154,0.0378125,-0.077825,0.039049998
1680015483928,1195472279424385,0.0347875,-0.077825,0.0400125
1680015483929,1195472281926847,0.0308,-0.0768625,0.039049998
1680015483930,1195472284429231,0.033825,-0.0768625,0.0380875
1680015483932,1195472286931457,0.0317625,-0.0748,0.0380875
1680015483935,1195472289433611,0.0298375,-0.0738375,0.039049998
1680015483937,1195472291935996,0.0298375,-0.0738375,0.0380875
1680015483940,1195472294438226,0.0248875,-0.0738375,0.0380875
1680015483942,1195472296940708,0.022824999,-0.06985,0.0380875
1680015483945,1195472299443093,0.022824999,-0.0708125,0.0369875
1680015483948,1195472301945246,0.0237875,-0.0708125,0.0369875
1680015483951,1195472304447477,0.0218625,-0.0748,0.0380875
1680015483952,1195472306949862,0.01485,-0.0759,0.0380875
1680015483956,1195472309452093,0.01485,-0.0708125,0.039049998
1680015483959,1195472311954554,0.01485,-0.0759,0.0400125
1680015483960,1195472314456939,0.0138875,-0.0787875,0.0400125
1680015483962,1195472316959093,0.0127875,-0.0748,0.040975
1680015483966,1195472319461323,0.0088,-0.0768625,0.0430375
1680015483968,1195472321963708,0.006875,-0.0787875,0.0400125
1680015483970,1195472324465939,0.0078375,-0.08085,0.040975
1680015483973,1195472326968333,0.005775,-0.0818125,0.042075
1680015483976,1195472329470564,0.00385,-0.0858,0.044
1680015483978,1195472331972949,0.0017875,-0.086899996,0.0460625
1680015483980,1195472334475180,-0.0011,-0.09185,0.0449625
1680015483982,1195472336977564,0.0028875,-0.09185,0.0449625
1680015483987,1195472339479780,-0.0022,-0.0979,0.0449625
1680015483989,1195472341982242,-0.005225,-0.095837496,0.047025
1680015483991,1195472344484395,-0.004125,-0.095837496,0.0449625
1680015483992,1195472346986780,-0.0031625,-0.099825,0.044
1680015483995,1195472349489011,8.25E-4,-0.1007875,0.0430375
1680015483997,1195472351991395,8.25E-4,-0.10285,0.042075
1680015483999,1195472354493549,-0.0031625,-0.1038125,0.0430375
1680015484002,1195472356996011,0.0028875,-0.110825,0.039049998
1680015484005,1195472359498228,-0.0022,-0.1128875,0.0400125
1680015484007,1195472362000612,-0.0022,-0.1128875,0.039049998
1680015484009,1195472364502843,8.25E-4,-0.116875,0.0380875
1680015484012,1195472367005228,-0.0011,-0.1188,0.033
1680015484015,1195472369507477,8.25E-4,-0.121825,0.031075
1680015484017,1195472372009939,-0.0011,-0.1258125,0.033
1680015484020,1195472374512093,-0.0022,-0.1288375,0.036025
1680015484025,1195472377014453,0.0028875,-0.12979999,0.033
1680015484026,1195472379516684,0.0028875,-0.1318625,0.036025
1680015484028,1195472382019069,8.25E-4,-0.1348875,0.0320375
1680015484029,1195472384521223,-0.005225,-0.13585,0.029975
1680015484033,1195472387023684,-0.005225,-0.1368125,0.0320375
1680015484035,1195472389525915,-0.0061875,-0.137775,0.0369875
1680015484037,1195472392028300,-0.005225,-0.137775,0.036025
1680015484039,1195472394530530,-0.005225,-0.1337875,0.036025
1680015484042,1195472397032915,-0.0061875,-0.1318625,0.033
1680015484045,1195472399535059,-0.00715,-0.1309,0.036025
1680015484047,1195472402037520,-0.0022,-0.1309,0.0380875
1680015484049,1195472404539751,8.25E-4,-0.12485,0.040975
1680015484052,1195472407042136,-0.0022,-0.1208625,0.039049998
1680015484055,1195472409544391,8.25E-4,-0.117837496,0.0400125
1680015484057,1195472412046544,0.0017875,-0.115775,0.040975
1680015484062,1195472414548929,0.0028875,-0.1098625,0.040975
1680015484064,1195472417051391,0.005775,-0.1018875,0.042075
1680015484066,1195472419553617,0.005775,-0.095837496,0.0430375
1680015484068,1195472422056002,0.006875,-0.0908875,0.0430375
1680015484070,1195472424558156,0.006875,-0.083875,0.0430375
1680015484074,1195472427060387,0.0099,-0.0768625,0.044
1680015484076,1195472429562771,0.0127875,-0.06985,0.0430375
1680015484077,1195472432065223,0.01485,-0.0677875,0.042075
1680015484079,1195472434567454,0.0209,-0.061875,0.040975
1680015484082,1195472437069838,0.0218625,-0.0548625,0.040975
1680015484085,1195472439572069,0.0248875,-0.0518375,0.040975
1680015484087,1195472442074223,0.0268125,-0.0468875,0.040975
1680015484090,1195472444576607,0.0268125,-0.044825,0.0380875
1680015484092,1195472447079069,0.0268125,-0.0438625,0.039049998
1680015484095,1195472449581300,0.027775,-0.038775,0.033
1680015484099,1195472452083449,0.0319,-0.0378125,0.0290125
1680015484102,1195472454585833,0.0347875,-0.036849998,0.0290125
1680015484103,1195472457088064,0.033825,-0.036849998,0.0270875
1680015484105,1195472459590449,0.0378125,-0.0358875,0.025024999
1680015484108,1195472462092910,0.0418,-0.033825,0.0229625
1680015484110,1195472464595130,0.0418,-0.033825,0.018975
1680015484113,1195472467097515,0.044825,-0.0347875,0.0149875
1680015484115,1195472469599668,0.0468875,-0.0328625,0.014025
1680015484118,1195472472101899,0.047849998,-0.0328625,0.0100375
1680015484120,1195472474604275,0.0518375,-0.0308,0.0070125
1680015484122,1195472477106736,0.0548625,-0.0319,0.003025
1680015484125,1195472479608890,0.0578875,-0.033825,-0.001925
1680015484127,1195472482111121,0.055825,-0.036849998,-0.0039875
1680015484130,1195472484613506,0.0578875,-0.0408375,-0.0059125
1680015484132,1195472487115750,0.060775,-0.0429,-0.0089375
1680015484137,1195472489618135,0.0628375,-0.044825,-0.007975
1680015484139,1195472492120596,0.0638,-0.044825,-0.0119624995
1680015484141,1195472494622832,0.0677875,-0.0528,-0.012925
1680015484143,1195472497124986,0.0677875,-0.058849998,-0.0169125
1680015484145,1195472499627371,0.0677875,-0.0598125,-0.0199375
1680015484147,1195472502129602,0.06985,-0.0677875,-0.023924999
1680015484153,1195472504631986,0.0708125,-0.0759,-0.023924999
1680015484159,1195472507134231,0.0688875,-0.0787875,-0.025024999
1680015484159,1195472509636616,0.06985,-0.0897875,-0.0290125
1680015484160,1195472512138846,0.0677875,-0.093775,-0.033
1680015484160,1195472514641231,0.0628375,-0.0988625,-0.034925
1680015484162,1195472517143462,0.064899996,-0.1038125,-0.03795
1680015484165,1195472519645616,0.0638,-0.104775,-0.044
1680015484167,1195472522148077,0.060775,-0.1117875,-0.0449625
1680015484169,1195472524650462,0.058849998,-0.11385,-0.045925
1680015484173,1195472527152702,0.0548625,-0.1188,-0.0540375
1680015484176,1195472529654856,0.055825,-0.1238875,-0.0559625
1680015484178,1195472532157318,0.0528,-0.12485,-0.0559625
1680015484180,1195472534659703,0.0518375,-0.12485,-0.058025
1680015484182,1195472537161933,0.0468875,-0.12485,-0.05995
1680015484186,1195472539664304,0.0418,-0.12485,-0.0650375
1680015484188,1195472542166535,0.0408375,-0.1188,-0.0669625
1680015484190,1195472544668689,0.038775,-0.1238875,-0.0699875
1680015484192,1195472547171150,0.0378125,-0.1199,-0.0749375
1680015484195,1195472549673535,0.039875,-0.11385,-0.073975
1680015484196,1195472552175765,0.036849998,-0.1038125,-0.077
1680015484199,1195472554678150,0.0319,-0.095837496,-0.078925
1680015484202,1195472557180304,0.0347875,-0.0878625,-0.0809875
1680015484206,1195472559682544,0.0358875,-0.08085,-0.08195
1680015484207,1195472562185005,0.033825,-0.0759,-0.0840125
1680015484211,1195472564687390,0.0347875,-0.0688875,-0.084975
1680015484213,1195472567189621,0.0347875,-0.0628375,-0.0859375
1680015484216,1195472569691785,0.033825,-0.0518375,-0.087037496
1680015484217,1195472572194169,0.033825,-0.0457875,-0.0840125
1680015484220,1195472574696400,0.0358875,-0.0298375,-0.084975
1680015484222,1195472577198861,0.039875,-0.02585,-0.087037496
1680015484225,1195472579701246,0.039875,-0.017875,-0.0829125
1680015484227,1195472582203501,0.0418,-0.0078375,-0.08195
1680015484230,1195472584705655,0.0418,-0.0017875,-0.08195
1680015484232,1195472587208039,0.0418,0.0081124995,-0.0829125
1680015484234,1195472589710270,0.0429,0.0121,-0.08195
1680015484237,1195472592212722,0.0457875,0.0221375,-0.077
1680015484239,1195472594714875,0.047849998,0.032175,-0.0760375
1680015484242,1195472597217260,0.0539,0.032175,-0.08195
1680015484245,1195472599719491,0.0567875,0.037125,-0.0760375
1680015484249,1195472602221876,0.058849998,0.043175,-0.0760375
1680015484250,1195472604724106,0.058849998,0.048125,-0.077
1680015484252,1195472607226568,0.0598125,0.0501875,-0.0760375
1680015484255,1195472609728952,0.0638,0.0471625,-0.078925
1680015484257,1195472612231183,0.061875,0.0532125,-0.077
1680015484260,1195472614733337,0.064899996,0.048125,-0.0760375
1680015484263,1195472617235722,0.06985,0.043175,-0.078925
1680015484265,1195472619737952,0.06985,0.0391875,-0.0840125
1680015484267,1195472622240337,0.0708125,0.0361625,-0.0829125
1680015484270,1195472624742568,0.0708125,0.02915,-0.0829125
1680015484273,1195472627244952,0.066825,0.0202125,-0.0840125
1680015484274,1195472629747183,0.066825,0.010175,-0.088
1680015484277,1195472632249568,0.0688875,1.375E-4,-0.0859375
1680015484279,1195472634751799,0.0628375,-0.0099,-0.087037496
1680015484282,1195472637254246,0.060775,-0.0188375,-0.0859375
1680015484287,1195472639756631,0.0578875,-0.0308,-0.087037496
1680015484290,1195472642258785,0.0518375,-0.0457875,-0.087037496
1680015484291,1195472644761015,0.0438625,-0.0638,-0.084975
1680015484293,1195472647263414,0.039875,-0.0818125,-0.0889625
1680015484296,1195472649765645,0.0347875,-0.094875,-0.089925
1680015484297,1195472652268029,0.0298375,-0.108899996,-0.088
1680015484302,1195472654770260,0.0237875,-0.121825,-0.084975
1680015484303,1195472657272631,0.017875,-0.1348875,-0.0859375
1680015484306,1195472659774862,0.0099,-0.1508375,-0.084975
1680015484307,1195472662277246,0.0028875,-0.1639,-0.0829125
1680015484310,1195472664779400,-0.010175,-0.17379999,-0.0809875
1680015484312,1195472667281862,-0.016224999,-0.1838375,-0.0809875
1680015484315,1195472669784077,-0.0221375,-0.192775,-0.077
1680015484317,1195472672286462,-0.0281875,-0.2008875,-0.073975
1680015484319,1195472674788693,-0.038225,-0.2058375,-0.0760375
1680015484324,1195472677291072,-0.0462,-0.2088625,-0.0760375
1680015484328,1195472679793226,-0.0471625,-0.2068,-0.073975
1680015484329,1195472682295688,-0.05115,-0.2107875,-0.0730125
1680015484330,1195472684797919,-0.0561,-0.2079,-0.0719125
1680015484332,1195472687300303,-0.0572,-0.2028125,-0.0730125
1680015484337,1195472689802443,-0.0581625,-0.2008875,-0.0719125
1680015484338,1195472692304674,-0.059125,-0.1918125,-0.07095
1680015484341,1195472694807059,-0.059125,-0.1808125,-0.0699875
1680015484342,1195472697309520,-0.059125,-0.1728375,-0.073975
1680015484345,1195472699811760,-0.0611875,-0.160875,-0.0719125
1680015484347,1195472702314144,-0.0581625,-0.1508375,-0.0760375
1680015484349,1195472704816375,-0.0551375,-0.1368125,-0.0749375
1680015484352,1195472707318760,-0.0551375,-0.12485,-0.073975
1680015484356,1195472709820900,-0.05115,-0.110825,-0.07095
1680015484357,1195472712323361,-0.0501875,-0.094875,-0.0699875
1680015484361,1195472714825592,-0.0471625,-0.0768625,-0.07095
1680015484363,1195472717327977,-0.043175,-0.0628375,-0.0719125
1680015484366,1195472719830144,-0.038225,-0.0457875,-0.07095
1680015484367,1195472722332375,-0.0341,-0.033825,-0.069025
1680015484370,1195472724834760,-0.0331375,-0.011825,-0.066
1680015484373,1195472727337221,-0.026124999,0.0022,-0.066
1680015484375,1195472729839452,-0.021175,0.0132,-0.0650375
1680015484377,1195472732341823,-0.014162499,0.027224999,-0.0620125
1680015484380,1195472734843977,-0.0121,0.043175,-0.0609125
1680015484382,1195472737346207,-0.0092124995,0.0532125,-0.0589875
1680015484385,1195472739848592,-0.0061875,0.0581625,-0.0540375
1680015484387,1195472742351059,-0.005225,0.0661375,-0.0529375
1680015484390,1195472744853289,-0.0011,0.0741125,-0.0510125
1680015484392,1195472747355443,-0.0022,0.0792,-0.044
1680015484395,1195472749857828,8.25E-4,0.08415,-0.0430375
1680015484400,1195472752360063,0.0028875,0.0881375,-0.044
1680015484401,1195472754862447,0.005775,0.0851125,-0.044
1680015484403,1195472757364909,0.005775,0.0881375,-0.040975
1680015484405,1195472759867063,0.0028875,0.0902,-0.03795
1680015484407,1195472762369293,0.0048125,0.087175,-0.03795
1680015484410,1195472764871683,0.0048125,0.081125,-0.0369875
1680015484412,1195472767373914,0.00385,0.0771375,-0.029975
1680015484415,1195472769876298,0.00385,0.071225,-0.0279125
1680015484417,1195472772378760,-0.0031625,0.0642125,-0.0279125
1680015484420,1195472774880914,-0.0061875,0.0521125,-0.0259875
1680015484423,1195472777383145,-0.0081124995,0.043175,-0.0259875
1680015484425,1195472779885529,-0.0132,0.037125,-0.0229625
1680015484427,1195472782387760,-0.015125,0.0281875,-0.0210375
1680015484430,1195472784889914,-0.0171875,0.0132,-0.01595
1680015484432,1195472787392361,-0.0242,0.005225,-0.0119624995
1680015484437,1195472789894746,-0.026124999,-0.0017875,-0.0119624995
1680015484439,1195472792396977,-0.0301125,-0.017875,-0.011
1680015484441,1195472794899361,-0.0352,-0.028875,-0.0089375
1680015484442,1195472797401582,-0.038225,-0.036849998,-0.0089375
1680015484445,1195472799903967,-0.04015,-0.047849998,-0.007975
1680015484447,1195472802406428,-0.0441375,-0.058849998,-0.007975
1680015484450,1195472804908582,-0.048125,-0.066825,-0.0059125
1680015484453,1195472807410833,-0.0462,-0.071775,-0.0070125
1680015484455,1195472809913218,-0.0471625,-0.0818125,-0.0059125
1680015484457,1195472812415448,-0.0521125,-0.0908875,-0.0059125
1680015484460,1195472814917602,-0.0532125,-0.093775,-0.0059125
1680015484462,1195472817420045,-0.0551375,-0.099825,-0.0059125
1680015484465,1195472819922429,-0.0551375,-0.1007875,-0.0059125
1680015484468,1195472822424660,-0.0572,-0.1038125,-0.007975
1680015484470,1195472824927045,-0.0572,-0.104775,-0.0070125
1680015484475,1195472827429209,-0.0572,-0.104775,-0.003025
1680015484476,1195472829931439,-0.0551375,-0.106837496,-0.0039875
1680015484478,1195472832433901,-0.05115,-0.099825,-0.0059125
1680015484480,1195472834936286,-0.048125,-0.095837496,-0.0070125
1680015484483,1195472837438516,-0.05115,-0.0979,-0.011
1680015484485,1195472839940896,-0.0501875,-0.0928125,-0.0119624995
1680015484487,1195472842443050,-0.05115,-0.0878625,-0.012925
1680015484490,1195472844945281,-0.05115,-0.083875,-0.0089375
1680015484492,1195472847447665,-0.0501875,-0.0787875,-0.0119624995
1680015484495,1195472849950112,-0.048125,-0.0748,-0.0149875
1680015484497,1195472852452343,-0.0441375,-0.06985,-0.0180125
1680015484500,1195472854954496,-0.0422125,-0.0677875,-0.01595
1680015484502,1195472857456881,-0.0422125,-0.061875,-0.01595
1680015484505,1195472859959112,-0.0391875,-0.0528,-0.0169125
1680015484507,1195472862461506,-0.038225,-0.0468875,-0.018975
1680015484512,1195472864963968,-0.0391875,-0.0457875,-0.018975
1680015484514,1195472867466199,-0.0361625,-0.038775,-0.0199375
1680015484516,1195472869968583,-0.0361625,-0.036849998,-0.018975
1680015484521,1195472872470694,-0.037125,-0.0347875,-0.0199375
1680015484522,1195472874972925,-0.0331375,-0.0298375,-0.0199375
1680015484524,1195472877475310,-0.0341,-0.028875,-0.0210375
1680015484526,1195472879977771,-0.02915,-0.0198,-0.0199375
1680015484528,1195472882479925,-0.027224999,-0.016775,-0.0210375
1680015484530,1195472884982185,-0.0251625,-0.0158125,-0.022
1680015484532,1195472887484569,-0.0251625,-0.017875,-0.0229625
1680015484535,1195472889986800,-0.0231,-0.0188375,-0.023924999
1680015484537,1195472892489185,-0.0202125,-0.016775,-0.023924999
1680015484540,1195472894991646,-0.021175,-0.01485,-0.023924999
1680015484543,1195472897493800,-0.0191125,-0.0158125,-0.025024999
1680015484547,1195472899996031,-0.015125,-0.0138875,-0.025024999
1680015484549,1195472902498416,-0.016224999,-0.0127875,-0.023924999
1680015484553,1195472905000650,-0.0171875,-0.01485,-0.0229625
1680015484554,1195472907503035,-0.0121,-0.0218625,-0.023924999
1680015484557,1195472910005266,-0.0121,-0.0268125,-0.0229625
1680015484559,1195472912507650,-0.010175,-0.0237875,-0.018975
1680015484560,1195472915009881,-0.0111375,-0.0237875,-0.018975
1680015484563,1195472917512257,-0.0092124995,-0.0268125,-0.022
1680015484565,1195472920014488,-0.0061875,-0.028875,-0.0180125
1680015484567,1195472922516641,-0.004125,-0.028875,-0.0169125
1680015484570,1195472925019103,-0.004125,-0.033825,-0.0169125
1680015484572,1195472927521469,-0.0011,-0.036849998,-0.0119624995
1680015484575,1195472930023699,8.25E-4,-0.038775,-0.01595
1680015484577,1195472932526084,8.25E-4,-0.0418,-0.0100375
1680015484581,1195472935028315,0.0048125,-0.0438625,-0.011
1680015484583,1195472937530469,0.0078375,-0.049775,-0.0119624995
1680015484587,1195472940032930,0.0108624995,-0.049775,-0.011
1680015484590,1195472942535315,0.0108624995,-0.0578875,-0.0149875
1680015484592,1195472945037546,0.0078375,-0.0658625,-0.0100375
1680015484595,1195472947539689,0.0108624995,-0.0658625,-0.011
1680015484596,1195472950042074,0.0099,-0.071775,-0.01595
1680015484598,1195472952544305,0.0048125,-0.0787875,-0.012925
1680015484600,1195472955046766,0.005775,-0.082775,-0.012925
1680015484603,1195472957549151,0.0028875,-0.0928125,-0.012925
1680015484605,1195472960051382,0.00385,-0.1007875,-0.0089375
1680015484607,1195472962553766,0.0028875,-0.108899996,-0.0100375
1680015484610,1195472965055997,0.0017875,-0.1148125,-0.011
1680015484612,1195472967558151,-0.004125,-0.11385,-0.0089375
1680015484615,1195472970060632,-0.005225,-0.1238875,-0.0059125
1680015484617,1195472972563016,-0.00715,-0.1318625,-0.0039875
1680015484620,1195472975065247,-0.010175,-0.1368125,-0.0039875
1680015484624,1195472977567401,-0.0111375,-0.1447875,-0.003025
1680015484627,1195472980069780,-0.0132,-0.1478125,-0.001925
1680015484628,1195472982572011,-0.0132,-0.148775,-0.001925
1680015484630,1195472985074473,-0.016224999,-0.1518,-9.625E-4
1680015484632,1195472987576857,-0.010175,-0.1538625,-9.625E-4
1680015484635,1195472990079093,-0.0132,-0.1529,-9.625E-4
1680015484637,1195472992581247,-0.015125,-0.154825,-0.001925
1680015484640,1195472995083632,-0.0132,-0.154825,-9.625E-4
1680015484643,1195472997585862,-0.010175,-0.149875,-0.001925
1680015484645,1195473000088324,-0.0132,-0.1478125,-0.00495
1680015484647,1195473002590714,-0.010175,-0.1447875,-0.00495
1680015484651,1195473005092867,-0.010175,-0.1408,-0.00495
1680015484653,1195473007595098,-0.0061875,-0.1398375,-0.0059125
1680015484657,1195473010097483,-0.0061875,-0.1337875,-0.0070125
1680015484658,1195473012599714,-0.005225,-0.1309,-0.007975
1680015484663,1195473015102175,-0.004125,-0.12485,-0.0070125
1680015484665,1195473017604329,-0.0011,-0.1208625,-0.0070125
1680015484667,1195473020201560,-0.0011,-0.1208625,-0.007975
1680015484669,1195473022608976,0.00385,-0.116875,-0.0089375
1680015484673,1195473025111361,0.0028875,-0.110825,-0.0119624995
1680015484674,1195473027613592,0.0048125,-0.1007875,-0.0169125
1680015484676,1195473030116053,0.0048125,-0.1018875,-0.0169125
1680015484678,1195473032618438,0.0048125,-0.093775,-0.01595
1680015484680,1195473035120579,0.006875,-0.0897875,-0.0180125
1680015484683,1195473037622810,0.0048125,-0.086899996,-0.0210375
1680015484685,1195473040125194,0.00385,-0.083875,-0.0210375
1680015484689,1195473042627425,0.006875,-0.0759,-0.0210375
1680015484691,1195473045129819,0.0099,-0.0677875,-0.0229625
1680015484693,1195473047632049,0.0088,-0.0628375,-0.0229625
1680015484696,1195473050134434,0.0099,-0.058849998,-0.0229625
1680015484699,1195473052636665,0.0108624995,-0.0548625,-0.022
1680015484704,1195473055139030,0.0138875,-0.049775,-0.02695
1680015484707,1195473057641261,0.0127875,-0.0429,-0.0290125
1680015484708,1195473060143723,0.0138875,-0.033825,-0.0290125
1680015484709,1195473062645877,0.0138875,-0.0319,-0.033
1680015484710,1195473065148261,0.0138875,-0.0268125,-0.034925
1680015484712,1195473067650478,0.0127875,-0.0237875,-0.034925
1680015484715,1195473070152863,0.017875,-0.016775,-0.0339625
1680015484718,1195473072655016,0.0188375,-0.0138875,-0.036025
1680015484720,1195473075157478,0.0158125,-0.0138875,-0.0389125
1680015484723,1195473077659704,0.0198,-0.0099,-0.03795
1680015484726,1195473080162088,0.0209,-0.005775,-0.0369875
1680015484727,1195473082664319,0.0158125,1.375E-4,-0.03795
1680015484730,1195473085166473,0.01485,0.0011,-0.03795
1680015484732,1195473087668872,0.0127875,0.0011,-0.034925
1680015484737,1195473090171333,0.0127875,1.375E-4,-0.036025
1680015484739,1195473092673564,0.0138875,0.004125,-0.0339625
1680015484742,1195473095175718,0.01485,0.0061875,-0.033
1680015484744,1195473097678102,0.0127875,0.005225,-0.0320375
1680015484746,1195473100180564,0.0127875,0.016224999,-0.0279125
1680015484748,1195473102682795,0.0138875,0.0202125,-0.025024999
1680015484750,1195473105184949,0.0138875,0.0231,-0.025024999
1680015484753,1195473107687333,0.0127875,0.0312125,-0.0229625
1680015484756,1195473110189569,0.0127875,0.038225,-0.0180125
1680015484758,1195473112691954,0.0138875,0.0391875,-0.01595
1680015484760,1195473115194415,0.01485,0.0441375,-0.0149875
1680015484763,1195473117696646,0.01485,0.05115,-0.011
1680015484765,1195473120199041,0.01485,0.0521125,-0.0089375
1680015484768,1195473122701271,0.0138875,0.0532125,-0.0089375
1680015484770,1195473125203425,0.0198,0.0581625,-0.007975
1680015484774,1195473127705810,0.022824999,0.0611875,-0.00495
1680015484779,1195473130208266,0.022824999,0.065175,-0.0039875
1680015484786,1195473132710497,0.0188375,0.0661375,-0.003025
1680015484786,1195473135212651,0.022824999,0.0642125,-0.001925
1680015484786,1195473137715036,0.0248875,0.0642125,-0.001925
1680015484786,1195473140217251,0.0218625,0.060225,-9.625E-4
1680015484788,1195473142719636,0.0209,0.0551375,0.0
1680015484790,1195473145222098,0.0218625,0.0532125,-9.625E-4
1680015484792,1195473147724328,0.0248875,0.0521125,0.0
1680015484795,1195473150226482,0.0237875,0.0471625,9.625E-4
1680015484797,1195473152728852,0.02585,0.04015,9.625E-4
1680015484800,1195473155231083,0.0237875,0.0361625,9.625E-4
1680015484802,1195473157733467,0.0237875,0.0312125,9.625E-4
1680015484805,1195473160235929,0.0237875,0.0251625,9.625E-4
1680015484808,1195473162738102,0.0248875,0.0171875,-9.625E-4
1680015484811,1195473165240332,0.0188375,0.0081124995,-9.625E-4
1680015484814,1195473167742717,0.0209,-8.25E-4,9.625E-4
1680015484816,1195473170244948,0.0188375,-0.006875,0.0
1680015484818,1195473172747088,0.0198,-0.0108624995,-9.625E-4
1680015484821,1195473175249549,0.0209,-0.0209,-0.001925
1680015484823,1195473177751934,0.0198,-0.02585,-0.001925
1680015484826,1195473180254165,0.0198,-0.033825,-0.003025
1680015484827,1195473182756549,0.017875,-0.0429,-0.003025
1680015484830,1195473185258775,0.01485,-0.050875,-0.0039875
1680015484832,1195473187761160,0.017875,-0.0548625,-0.0070125
1680015484835,1195473190263621,0.0138875,-0.058849998,-0.0089375
1680015484838,1195473192765775,0.0108624995,-0.0658625,-0.0089375
1680015484840,1195473195267996,0.0088,-0.0677875,-0.0100375
1680015484842,1195473197770380,0.0078375,-0.0708125,-0.0089375
1680015484845,1195473200272611,0.0078375,-0.0748,-0.0100375
1680015484849,1195473202774765,0.0078375,-0.0787875,-0.0119624995
1680015484851,1195473205277245,0.006875,-0.0787875,-0.0100375
1680015484853,1195473207779630,0.006875,-0.083875,-0.0119624995
1680015484856,1195473210281861,0.0099,-0.0798875,-0.0119624995
1680015484858,1195473212784246,0.0108624995,-0.0759,-0.0100375
1680015484861,1195473215286476,0.0088,-0.0768625,-0.0100375
1680015484863,1195473217788654,0.0108624995,-0.0759,-0.011
1680015484865,1195473220291116,0.0099,-0.071775,-0.012925
1680015484867,1195473222793500,0.0078375,-0.0658625,-0.0119624995
1680015484870,1195473225295731,0.005775,-0.0638,-0.007975
1680015484872,1195473227798107,0.0088,-0.0578875,-0.011
1680015484875,1195473230300261,0.0078375,-0.0528,-0.0100375
1680015484878,1195473232802491,0.0088,-0.0488125,-0.0089375
1680015484880,1195473235304953,0.011825,-0.0429,-0.0089375
1680015484883,1195473237807351,0.0127875,-0.036849998,-0.007975
1680015484887,1195473240309582,0.011825,-0.0298375,-0.0089375
1680015484890,1195473242811967,0.0188375,-0.0198,-0.0089375
1680015484891,1195473245314121,0.0198,-0.0138875,-0.0119624995
1680015484893,1195473247816338,0.0209,-0.006875,-0.0100375
1680015484896,1195473250318799,0.0248875,1.375E-4,-0.007975
1680015484898,1195473252821184,0.0237875,0.00715,-0.003025
1680015484900,1195473255323414,0.0268125,0.01815,-0.001925
1680015484903,1195473257825568,0.0298375,0.0251625,-0.0059125
1680015484905,1195473260327933,0.0319,0.02915,9.625E-4
1680015484907,1195473262830164,0.0319,0.0361625,9.625E-4
1680015484910,1195473265332625,0.0347875,0.0441375,0.0
1680015484913,1195473267834779,0.039875,0.0451,0.003025
1680015484916,1195473270337160,0.0418,0.0521125,0.0039875
1680015484918,1195473272839390,0.0418,0.0572,0.0050875
1680015484923,1195473275341775,0.047849998,0.0611875,0.00605
1680015484925,1195473277843982,0.0488125,0.06215,0.00605
1680015484928,1195473280345213,0.0488125,0.0661375,0.0070125
1680015484928,1195473282846444,0.0518375,0.070125,0.007975
1680015484930,1195473285351059,0.0528,0.070125,0.0070125
1680015484932,1195473287853213,0.0578875,0.070125,0.0050875
1680015484935,1195473290355582,0.060775,0.0721875,0.0039875
1680015484938,1195473292857813,0.060775,0.070125,0.003025
1680015484941,1195473295360275,0.060775,0.0631125,0.003025
1680015484943,1195473297862428,0.0638,0.0611875,0.0020625
1680015484945,1195473300364813,0.0628375,0.0561,9.625E-4
1680015484948,1195473302867044,0.066825,0.05115,9.625E-4
1680015484950,1195473305369429,0.066825,0.0451,0.0
1680015484953,1195473307871582,0.0688875,0.0361625,-9.625E-4
1680015484956,1195473310374049,0.064899996,0.0301125,0.0
1680015484958,1195473312876280,0.0638,0.0202125,-9.625E-4
1680015484962,1195473315378664,0.0677875,0.0111375,0.0
1680015484965,1195473317880895,0.066825,1.375E-4,-0.001925
1680015484967,1195473320383310,0.0647625,-0.0078375,-0.003025
1680015484969,1195473322885540,0.0628375,-0.0209,-0.003025
1680015484970,1195473325387925,0.0598125,-0.028875,-0.00495
1680015484973,1195473327890156,0.061875,-0.0358875,-0.0039875
1680015484976,1195473330392540,0.0567875,-0.0468875,-0.003025
1680015484978,1195473332894771,0.0537625,-0.060775,-0.001925
1680015484981,1195473335396925,0.0528,-0.071775,-0.003025
1680015484983,1195473337899310,0.0488125,-0.0768625,-0.00495
1680015484986,1195473340401771,0.044825,-0.083875,-0.003025
1680015484988,1195473342904030,0.0408375,-0.0968,-0.001925
1680015484990,1195473345406415,0.0408375,-0.106837496,-9.625E-4
1680015484993,1195473347908569,0.039875,-0.110825,-9.625E-4
1680015484996,1195473350411030,0.0378125,-0.115775,-9.625E-4
1680015484999,1195473352913199,0.0347875,-0.1238875,-9.625E-4
1680015485001,1195473355415660,0.028875,-0.12485,-0.001925
1680015485003,1195473357917891,0.02585,-0.1258125,-0.001925
1680015485006,1195473360420276,0.02585,-0.126775,-0.001925
1680015485009,1195473362922507,0.022824999,-0.12979999,-0.0039875
1680015485010,1195473365424665,0.0198,-0.1318625,-0.0039875
1680015485013,1195473367927050,0.0127875,-0.1258125,-0.001925
1680015485015,1195473370429512,0.0108624995,-0.1208625,-0.001925
1680015485018,1195473372931666,0.0078375,-0.121825,-0.0039875
1680015485021,1195473375433891,0.005775,-0.116875,-0.003025
1680015485023,1195473377936276,0.0048125,-0.110825,0.0
1680015485026,1195473380438507,0.0017875,-0.1007875,0.0
1680015485028,1195473382940891,-0.0012375,-0.093775,-9.625E-4
1680015485030,1195473385443353,8.25E-4,-0.0858,0.0020625
1680015485033,1195473387945579,0.00385,-0.0738375,9.625E-4
1680015485037,1195473390447963,0.0048125,-0.0628375,0.003025
1680015485039,1195473392950117,0.0028875,-0.0548625,0.0039875
1680015485041,1195473395452348,0.0017875,-0.044825,0.0020625
1680015485043,1195473397954756,0.005775,-0.0308,0.0039875
1680015485045,1195473400457218,0.0078375,-0.0198,0.0050875
1680015485048,1195473402959372,0.0088,-0.0078375,0.0070125
1680015485050,1195473405461603,0.0078375,0.00715,0.0100375
1680015485053,1195473407963982,0.011825,0.0221375,0.007975
1680015485056,1195473410466213,0.0158125,0.0331375,0.00605
1680015485058,1195473412968598,0.0207625,0.043175,0.00605
1680015485061,1195473415471059,0.0207625,0.0551375,0.003025
1680015485063,1195473417973290,0.02585,0.0642125,0.0050875
1680015485065,1195473420475444,0.0268125,0.071225,0.0050875
1680015485067,1195473422977828,0.028875,0.0831875,0.00605
1680015485070,1195473425480059,0.0317625,0.087175,0.0039875
1680015485074,1195473427982473,0.0308,0.0961125,9.625E-4
1680015485077,1195473430484704,0.033825,0.1012,0.0020625
1680015485079,1195473432987088,0.0378125,0.103125,-9.625E-4
1680015485080,1195473435489319,0.036849998,0.1012,-0.001925
1680015485082,1195473437991704,0.0378125,0.1021625,-9.625E-4
1680015485086,1195473440493853,0.0378125,0.100099996,-0.0039875
1680015485090,1195473442996083,0.038775,0.0972125,-0.0059125
1680015485091,1195473445498545,0.038775,0.0961125,-0.0059125
1680015485093,1195473448000929,0.0378125,0.087175,-0.0070125
1680015485096,1195473450503189,0.0378125,0.081125,-0.0070125
1680015485098,1195473453005574,0.036849998,0.071225,-0.007975
1680015485101,1195473455507805,0.036849998,0.060225,-0.0089375
1680015485103,1195473458010189,0.0358875,0.054175,-0.0089375
1680015485106,1195473460512420,0.0347875,0.0441375,-0.0100375
1680015485108,1195473463014824,0.033825,0.0361625,-0.011
1680015485112,1195473465517054,0.028875,0.027224999,-0.0119624995
1680015485117,1195473468019439,0.028875,0.0121,-0.0119624995
1680015485120,1195473470521598,0.022824999,0.0011,-0.0100375
1680015485123,1195473473023829,0.0188375,-0.0088,-0.011
1680015485124,1195473475526213,0.0198,-0.0218625,-0.011
1680015485125,1195473478028675,0.017875,-0.028875,-0.011
1680015485128,1195473480530906,0.0158125,-0.0358875,-0.011
1680015485129,1195473483033059,0.0158125,-0.050875,-0.011
1680015485131,1195473485535444,0.0097624995,-0.0548625,-0.0119624995
1680015485133,1195473488037675,0.005775,-0.061875,-0.0089375
1680015485136,1195473490540059,0.0028875,-0.066825,-0.0100375
1680015485141,1195473493042477,8.25E-4,-0.0748,-0.011
1680015485143,1195473495544708,-0.00715,-0.082775,-0.0100375
1680015485144,1195473498046862,-0.0132,-0.086899996,-0.0100375
1680015485146,1195473500549246,-0.0122375,-0.0878625,-0.012925
1680015485151,1195473503051443,-0.016224999,-0.0858,-0.0100375
1680015485152,1195473505553828,-0.0191125,-0.0848375,-0.0100375
1680015485154,1195473508056058,-0.0191125,-0.0858,-0.007975
1680015485158,1195473510558443,-0.0202125,-0.0798875,-0.0089375
1680015485159,1195473513060674,-0.01815,-0.0798875,-0.0070125
1680015485161,1195473515563034,-0.016224999,-0.071775,-0.0070125
1680015485163,1195473518065265,-0.01815,-0.061875,-0.0059125
1680015485166,1195473520567650,-0.0191125,-0.0567875,-0.003025
1680015485168,1195473523070111,-0.021175,-0.050875,-0.003025
1680015485171,1195473525572332,-0.01815,-0.0408375,9.625E-4
1680015485173,1195473528074486,-0.0171875,-0.028875,0.0020625
1680015485176,1195473530576871,-0.0191125,-0.0218625,0.0020625
1680015485178,1195473533079101,-0.0171875,-0.0138875,0.0039875
1680015485180,1195473535581255,-0.015125,-0.0028875,0.0100375
1680015485183,1195473538083717,-0.014162499,0.0061875,0.009075
1680015485188,1195473540586101,-0.0111375,0.015125,0.009075
1680015485190,1195473543088332,-0.00715,0.0242,0.0119624995
1680015485192,1195473545590717,-0.0061875,0.032175,0.0149875
1680015485194,1195473548092871,-0.004125,0.04015,0.01705
1680015485196,1195473550595101,0.0028875,0.049225,0.020075
1680015485198,1195473553097563,0.0017875,0.0581625,0.0210375
1680015485200,1195473555599948,0.0028875,0.0661375,0.022
1680015485203,1195473558102164,0.006875,0.0671,0.0259875
1680015485207,1195473560604549,0.0097624995,0.0691625,0.0240625
1680015485208,1195473563106780,0.0097624995,0.0691625,0.025024999
1680015485211,1195473565608934,0.0108624995,0.0741125,0.0229625
1680015485213,1195473568111371,0.0188375,0.0682,0.025024999
1680015485216,1195473570613756,0.0198,0.0682,0.025024999
1680015485218,1195473573115987,0.0198,0.0691625,0.0210375
1680015485220,1195473575618140,0.022824999,0.065175,0.018975
1680015485224,1195473578120515,0.0237875,0.0611875,0.018975
1680015485227,1195473580622746,0.0268125,0.0561,0.020075
1680015485229,1195473583125207,0.0308,0.048125,0.014025
1680015485231,1195473585627592,0.0308,0.0361625,0.007975
1680015485233,1195473588129823,0.033825,0.0331375,0.007975
1680015485236,1195473590632236,0.0298375,0.0231,0.0100375
1680015485238,1195473593134390,0.02585,0.010175,0.007975
1680015485240,1195473595636621,0.0308,-0.0048125,0.007975
1680015485243,1195473598139083,0.0308,-0.0108624995,0.003025
1680015485246,1195473600641472,0.027775,-0.02585,0.0
1680015485248,1195473603143626,0.0237875,-0.038775,0.0039875
1680015485250,1195473605645857,0.0218625,-0.0518375,0.003025
1680015485253,1195473608148241,0.0127875,-0.064899996,0.0
1680015485256,1195473610650472,0.0097624995,-0.0768625,0.0
1680015485259,1195473613152938,0.0097624995,-0.09185,9.625E-4
1680015485262,1195473615655092,0.00385,-0.1038125,9.625E-4
1680015485265,1195473618157476,-0.0031625,-0.115775,0.0
1680015485268,1195473620659698,-0.00715,-0.1288375,-9.625E-4
1680015485270,1195473623162083,-0.0092124995,-0.137775,0.0
1680015485273,1195473625664313,-0.014162499,-0.143825,0.0020625
1680015485274,1195473628166775,-0.016224999,-0.148775,0.0050875
1680015485277,1195473630669160,-0.016224999,-0.15785,0.0039875
1680015485278,1195473633171327,-0.0202125,-0.1628,0.0070125
1680015485280,1195473635673558,-0.021175,-0.1628,0.009075
1680015485283,1195473638175943,-0.021175,-0.15785,0.009075
1680015485286,1195473640678097,-0.0232375,-0.154825,0.009075
1680015485288,1195473643180572,-0.0301125,-0.1568875,0.007975
1680015485291,1195473645682803,-0.02915,-0.154825,0.0100375
1680015485294,1195473648185188,-0.02915,-0.149875,0.009075
1680015485296,1195473650687341,-0.0312125,-0.1419,0.0070125
1680015485301,1195473653189808,-0.0342375,-0.1348875,0.0070125
1680015485302,1195473655692039,-0.0352,-0.127875,0.0070125
1680015485304,1195473658194423,-0.0342375,-0.117837496,0.00605
1680015485306,1195473660696577,-0.0331375,-0.10285,0.00605
1680015485308,1195473663198808,-0.0312125,-0.0928125,0.0050875
1680015485310,1195473665701228,-0.0301125,-0.0818125,0.0050875
1680015485313,1195473668203689,-0.0342375,-0.06985,0.00605
1680015485316,1195473670705920,-0.0342375,-0.0598125,0.0070125
1680015485319,1195473673208305,-0.0312125,-0.0457875,0.0039875
1680015485321,1195473675710544,-0.0281875,-0.0358875,0.0070125
1680015485323,1195473678212698,-0.027224999,-0.0237875,0.00605
1680015485326,1195473680715083,-0.0251625,-0.0127875,0.007975
1680015485328,1195473683217544,-0.0232375,-0.0017875,0.0039875
1680015485331,1195473685719785,-0.0232375,0.0081124995,0.0050875
1680015485333,1195473688222170,-0.0202125,0.021175,0.007975
1680015485338,1195473690724324,-0.0202125,0.032175,0.00605
1680015485340,1195473693226554,-0.0171875,0.0451,0.00605
1680015485342,1195473695728949,-0.014162499,0.0521125,0.0050875
1680015485345,1195473698231411,-0.0122375,0.0642125,0.0050875
1680015485347,1195473700733564,-0.0122375,0.0691625,0.00605
1680015485349,1195473703235795,-0.010175,0.076175,0.00605
1680015485351,1195473705738180,-0.004125,0.0862125,0.00605
1680015485353,1195473708240391,-0.004125,0.09515,0.007975
1680015485356,1195473710742775,-0.005225,0.09515,0.009075
1680015485358,1195473713245237,-0.0031625,0.0991375,0.007975
1680015485361,1195473715747468,-0.0012375,0.1021625,0.0100375
1680015485363,1195473718249626,0.0028875,0.1071125,0.0119624995
1680015485367,1195473720752011,8.25E-4,0.10615,0.0160875
1680015485369,1195473723254242,0.005775,0.103125,0.01705
1680015485371,1195473725756626,0.0088,0.1021625,0.0149875
1680015485375,1195473728258857,0.006875,0.100099996,0.0160875
1680015485378,1195473730761242,0.0108624995,0.103125,0.022
1680015485380,1195473733263473,0.0108624995,0.098175,0.01705
1680015485382,1195473735765857,0.0108624995,0.0881375,0.020075
1680015485384,1195473738268088,0.0127875,0.0862125,0.0210375
1680015485387,1195473740770492,0.011825,0.076175,0.018975
1680015485390,1195473743272722,0.0108624995,0.0691625,0.0229625
1680015485391,1195473745775107,0.0088,0.0581625,0.025024999
1680015485393,1195473748277338,0.0108624995,0.049225,0.022
1680015485396,1195473750779750,0.0088,0.0331375,0.025024999
1680015485398,1195473753281981,0.0088,0.0202125,0.025024999
1680015485405,1195473755784135,0.005775,0.004125,0.025024999
1680015485411,1195473758286597,-0.0012375,-0.0108624995,0.02805
1680015485412,1195473760788963,-0.005225,-0.028875,0.02805
1680015485412,1195473763291194,-0.0092124995,-0.038775,0.02805
1680015485412,1195473765793348,-0.016224999,-0.0539,0.031075
1680015485414,1195473768295732,-0.0171875,-0.071775,0.033
1680015485416,1195473770797963,-0.0221375,-0.0897875,0.033
1680015485419,1195473773300410,-0.0281875,-0.10285,0.036025
1680015485421,1195473775802794,-0.0301125,-0.117837496,0.033
1680015485423,1195473778305025,-0.0361625,-0.1288375,0.033
1680015485426,1195473780807410,-0.038225,-0.1408,0.029975
1680015485428,1195473783309651,-0.0411125,-0.1508375,0.029975
1680015485430,1195473785811804,-0.0462,-0.159775,0.029975
1680015485433,1195473788314266,-0.0501875,-0.1667875,0.0270875
1680015485435,1195473790816651,-0.0521125,-0.16885,0.025024999
1680015485441,1195473793318862,-0.0562375,-0.1758625,0.0240625
1680015485442,1195473795821016,-0.060225,-0.1777875,0.022
1680015485445,1195473798323401,-0.0611875,-0.1758625,0.0210375
1680015485446,1195473800825632,-0.059125,-0.1728375,0.01705
1680015485450,1195473803328059,-0.0611875,-0.17379999,0.0160875
1680015485451,1195473805830444,-0.0661375,-0.1678875,0.014025
1680015485454,1195473808332598,-0.0642125,-0.165825,0.0119624995
1680015485456,1195473810834828,-0.06215,-0.1568875,0.013062499
1680015485459,1195473813337213,-0.06215,-0.148775,0.0119624995
1680015485460,1195473815839444,-0.0611875,-0.1408,0.013062499
1680015485463,1195473818341905,-0.0581625,-0.1309,0.013062499
1680015485465,1195473820844290,-0.0572,-0.1188,0.0149875
1680015485467,1195473823346444,-0.0551375,-0.1098625,0.013062499
1680015485470,1195473825848670,-0.0471625,-0.0988625,0.0149875
1680015485474,1195473828351054,-0.0501875,-0.0848375,0.0160875
1680015485476,1195473830853285,-0.043175,-0.06985,0.0160875
1680015485478,1195473833355670,-0.038225,-0.0598125,0.018975
1680015485480,1195473835857885,-0.0361625,-0.047849998,0.022
1680015485483,1195473838360270,-0.0301125,-0.0328625,0.0240625
1680015485487,1195473840862501,-0.0242,-0.0198,0.0259875
1680015485490,1195473843364885,-0.01815,-0.0088,0.0290125
1680015485492,1195473845867121,-0.0111375,-0.0017875,0.031075
1680015485496,1195473848369583,-0.0061875,0.014162499,0.029975
1680015485496,1195473850871737,-0.0011,0.0251625,0.033
1680015485499,1195473853374121,0.00385,0.0361625,0.033
1680015485501,1195473855876352,0.0088,0.0441375,0.0339625
1680015485503,1195473858378722,0.0198,0.0521125,0.0369875
1680015485507,1195473860880875,0.022824999,0.0561,0.039049998
1680015485508,1195473863383337,0.0298375,0.06215,0.0400125
1680015485511,1195473865885568,0.0308,0.0642125,0.040975
1680015485514,1195473868387947,0.0347875,0.0671,0.042075
1680015485516,1195473870890101,0.0378125,0.065175,0.0430375
1680015485518,1195473873392332,0.038775,0.0642125,0.0460625
1680015485520,1195473875894717,0.044825,0.06215,0.047025
1680015485526,1195473878397174,0.0468875,0.054175,0.0430375
1680015485528,1195473880899405,0.047849998,0.048125,0.044
1680015485529,1195473883401790,0.0488125,0.037125,0.0449625
1680015485531,1195473885904020,0.0518375,0.0301125,0.0430375
1680015485534,1195473888406405,0.0528,0.0191125,0.0449625
1680015485536,1195473890908549,0.0518375,0.0111375,0.0449625
1680015485540,1195473893411010,0.0518375,-8.25E-4,0.0430375
1680015485541,1195473895913241,0.0468875,-0.01485,0.0400125
1680015485545,1195473898415626,0.044825,-0.0209,0.0369875
1680015485547,1195473900917799,0.039875,-0.036849998,0.0380875
1680015485548,1195473903420029,0.036849998,-0.0539,0.036025
1680015485551,1195473905922414,0.033825,-0.0688875,0.033
1680015485554,1195473908424876,0.027775,-0.0818125,0.0290125
1680015485557,1195473910927087,0.0248875,-0.09185,0.02805
1680015485558,1195473913429241,0.022824999,-0.104775,0.0259875
1680015485564,1195473915931626,0.017875,-0.116875,0.0229625
1680015485567,1195473918433857,0.0127875,-0.1238875,0.0259875
1680015485568,1195473920936212,0.0108624995,-0.12979999,0.025024999
1680015485569,1195473923438674,0.0078375,-0.13585,0.0259875
1680015485571,1195473925940905,0.005775,-0.13585,0.0270875
1680015485575,1195473928443058,0.0048125,-0.1368125,0.0270875
1680015485577,1195473930945443,0.0017875,-0.1408,0.031075
1680015485579,1195473933447669,-0.0011,-0.1368125,0.0380875
1680015485581,1195473935950053,-0.0022,-0.1348875,0.039049998
1680015485586,1195473938452284,-0.0031625,-0.12485,0.040975
1680015485588,1195473940954669,-0.0031625,-0.117837496,0.042075
1680015485590,1195473943456900,0.0017875,-0.110825,0.0449625
1680015485591,1195473945959279,0.0017875,-0.10285,0.047025
1680015485595,1195473948461510,0.0017875,-0.093775,0.0479875
1680015485596,1195473950963895,0.0088,-0.077825,0.051975
1680015485601,1195473953466125,0.0108624995,-0.0677875,0.051975
1680015485603,1195473955968510,0.0127875,-0.060775,0.053075
1680015485607,1195473958470741,0.01485,-0.047849998,0.050049998
1680015485608,1195473960973125,0.0209,-0.0378125,0.0540375
1680015485609,1195473963475356,0.0218625,-0.02585,0.0570625
1680015485611,1195473965977510,0.028875,-0.0158125,0.058025
1680015485615,1195473968479992,0.0268125,-0.0088,0.055
1680015485616,1195473970982376,0.0308,1.375E-4,0.053075
1680015485619,1195473973484607,0.0347875,0.005225,0.053075
1680015485621,1195473975986761,0.038775,0.0121,0.051975
1680015485624,1195473978489154,0.0438625,0.01815,0.051975
1680015485627,1195473980991385,0.0438625,0.0221375,0.051975
1680015485628,1195473983493847,0.0518375,0.0231,0.0460625
1680015485631,1195473985996231,0.0518375,0.0251625,0.044
1680015485635,1195473988498457,0.0518375,0.0251625,0.039049998
1680015485638,1195473991000842,0.0539,0.0221375,0.039049998
1680015485640,1195473993503073,0.055825,0.0171875,0.033
1680015485642,1195473996005226,0.0548625,0.0111375,0.0270875
1680015485645,1195473998507688,0.055825,1.375E-4,0.0240625
1680015485647,1195474001010054,0.055825,-0.006875,0.018975
1680015485648,1195474003512284,0.055825,-0.011825,0.013062499
1680015485651,1195474006014438,0.0578875,-0.0218625,0.0070125
1680015485656,1195474008516823,0.0548625,-0.0328625,0.0
1680015485659,1195474011019054,0.0518375,-0.0429,-0.00495
1680015485661,1195474013521515,0.0468875,-0.0567875,-0.0089375
1680015485662,1195474016023900,0.0429,-0.066825,-0.0119624995
1680015485665,1195474018526054,0.0438625,-0.08085,-0.0180125
1680015485667,1195474021028275,0.0418,-0.0897875,-0.0229625
1680015485668,1195474023530660,0.036849998,-0.108899996,-0.025024999
1680015485672,1195474026032891,0.0268125,-0.1208625,-0.0259875
1680015485676,1195474028535361,0.0308,-0.1318625,-0.02695
1680015485678,1195474031037746,0.0237875,-0.1458875,-0.0259875
1680015485679,1195474033539900,0.0237875,-0.1568875,-0.02695
1680015485681,1195474036042131,0.0188375,-0.1667875,-0.022
1680015485684,1195474038544515,0.0127875,-0.1777875,-0.0199375
1680015485686,1195474041046736,0.0108624995,-0.1788875,-0.0210375
1680015485689,1195474043549121,0.0099,-0.18287499,-0.018975
1680015485691,1195474046051351,0.0099,-0.19085,-0.0180125
1680015485695,1195474048553736,0.005775,-0.1969,-0.0149875
1680015485697,1195474051055967,0.0028875,-0.1958,-0.011
1680015485699,1195474053558351,0.006875,-0.193875,-0.0070125
1680015485701,1195474056060505,0.0078375,-0.1898875,-0.0070125
1680015485706,1195474058562967,0.005775,-0.1898875,-0.0059125
1680015485707,1195474061065198,0.0028875,-0.1848,-9.625E-4
1680015485709,1195474063567592,0.005775,-0.1788875,9.625E-4
1680015485712,1195474066069823,0.006875,-0.176825,0.003025
1680015485715,1195474068572208,0.005775,-0.1678875,0.00605
1680015485717,1195474071074361,0.005775,-0.1648625,0.009075
1680015485720,1195474073576582,0.0078375,-0.1628,0.0100375
1680015485724,1195474076079044,0.0078375,-0.1529,0.014025
1680015485727,1195474078581428,0.0088,-0.14685,0.018975
1680015485728,1195474081083582,0.0078375,-0.1398375,0.022
1680015485729,1195474083585813,0.0099,-0.12979999,0.0259875
1680015485731,1195474086088208,0.0078375,-0.126775,0.02805
1680015485735,1195474088590438,0.0088,-0.117837496,0.0290125
1680015485740,1195474091092900,0.0078375,-0.11385,0.0320375
1680015485741,1195474093595299,0.006875,-0.1078,0.0339625
1680015485742,1195474096097529,0.006875,-0.095837496,0.033
1680015485744,1195474098599914,0.005775,-0.0908875,0.033
1680015485747,1195474101102068,0.006875,-0.0848375,0.031075
1680015485750,1195474103604299,0.006875,-0.0787875,0.02805
1680015485752,1195474106106770,0.0078375,-0.06985,0.0259875
1680015485755,1195474108609155,0.0088,-0.0628375,0.025024999
1680015485758,1195474111111309,0.006875,-0.0598125,0.0210375
1680015485759,1195474113613539,0.005775,-0.0567875,0.014025
1680015485761,1195474116115924,0.0088,-0.049775,0.0070125
1680015485766,1195474118618083,0.006875,-0.0488125,0.0020625
1680015485768,1195474121120544,0.0108624995,-0.047849998,0.0
1680015485770,1195474123622775,0.011825,-0.0438625,-0.012925
1680015485772,1195474126125160,0.0138875,-0.0438625,-0.0210375
1680015485776,1195474128627376,0.0198,-0.0457875,-0.02695
1680015485777,1195474131129760,0.022824999,-0.047849998,-0.034925
1680015485779,1195474133631991,0.0268125,-0.0548625,-0.0419375
1680015485781,1195474136134452,0.028875,-0.060775,-0.045925
1680015485790,1195474138636592,0.027775,-0.0708125,-0.055
1680015485791,1195474141138977,0.0298375,-0.0818125,-0.0620125
1680015485794,1195474143641208,0.038775,-0.086899996,-0.066
1680015485795,1195474146143592,0.038775,-0.1007875,-0.0699875
1680015485798,1195474148645746,0.038775,-0.116875,-0.073975
1680015485799,1195474151148208,0.038775,-0.13585,-0.0760375
1680015485800,1195474153650439,0.033825,-0.148775,-0.0779625
1680015485802,1195474156152823,0.0358875,-0.165825,-0.0840125
1680015485807,1195474158655054,0.0378125,-0.1808125,-0.078925
1680015485808,1195474161157222,0.038775,-0.1997875,-0.077
1680015485810,1195474163659606,0.033825,-0.2248125,-0.0779625
1680015485811,1195474166162068,0.028875,-0.2288,-0.078925
1680015485816,1195474168664299,0.0298375,-0.237875,-0.0779625
1680015485817,1195474171166683,0.028875,-0.2508,-0.0760375
1680015485819,1195474173668928,0.0268125,-0.2618,-0.0760375
1680015485821,1195474176171313,0.0268125,-0.264825,-0.0730125
1680015485828,1195474178673467,0.028875,-0.269775,-0.073975
1680015485830,1195474181175928,0.0268125,-0.2748625,-0.0779625
1680015485831,1195474183678170,0.022824999,-0.270875,-0.077
1680015485833,1195474186180324,0.022824999,-0.2748625,-0.0730125
1680015485836,1195474188682708,0.0237875,-0.26785,-0.073975
1680015485837,1195474191184939,0.0248875,-0.2638625,-0.073975
1680015485839,1195474193687324,0.0268125,-0.258775,-0.07095
1680015485841,1195474196189804,0.0218625,-0.24887499,-0.0730125
1680015485847,1195474198692035,0.0237875,-0.2437875,-0.0730125
1680015485848,1195474201194189,0.022824999,-0.2338875,-0.0669625
1680015485850,1195474203696574,0.0237875,-0.2198625,-0.069025
1680015485852,1195474206199040,0.0268125,-0.215875,-0.062975
1680015485857,1195474208701271,0.027775,-0.2028125,-0.056925
1680015485859,1195474211203425,0.0347875,-0.19085,-0.0499125
1680015485861,1195474213705809,0.0378125,-0.1788875,-0.040975
1680015485863,1195474216208035,0.0358875,-0.1678875,-0.034925
1680015485865,1195474218710420,0.039875,-0.159775,-0.023924999
1680015485867,1195474221212881,0.0429,-0.14685,-0.012925
1680015485868,1195474223715035,0.047849998,-0.13585,-0.00495
1680015485871,1195474226217266,0.0548625,-0.1188,0.003025
1680015485874,1195474228719664,0.060775,-0.0988625,0.011
1680015485876,1195474231221894,0.0677875,-0.0818125,0.020075
1680015485878,1195474233724279,0.0748,-0.064899996,0.0259875
1680015485881,1195474236226740,0.0787875,-0.0468875,0.033
1680015485884,1195474238728909,0.0848375,-0.028875,0.042075
1680015485886,1195474241231140,0.0897875,-0.0127875,0.047025
1680015485889,1195474243733525,0.0968,-0.0048125,0.0540375
1680015485891,1195474246235756,0.10285,0.0171875,0.0589875
1680015485894,1195474248737914,0.110825,0.02915,0.0669625
1680015485896,1195474251240376,0.11385,0.0391875,0.07205
1680015485901,1195474253742761,0.1188,0.0532125,0.0699875
1680015485903,1195474256244991,0.12485,0.065175,0.0730125
1680015485905,1195474258747366,0.1288375,0.07315,0.0760375
1680015485908,1195474261249520,0.1309,0.0851125,0.080025
1680015485909,1195474263751751,0.1368125,0.0881375,0.0790625
1680015485911,1195474266254212,0.1398375,0.09515,0.0790625
1680015485914,1195474268756587,0.137775,0.1012,0.080025
1680015485916,1195474271258817,0.1368125,0.1082125,0.0779625
1680015485919,1195474273761202,0.137775,0.1111,0.0779625
1680015485922,1195474276263433,0.13585,0.1161875,0.0779625
1680015485925,1195474278765592,0.1337875,0.11715,0.0790625
1680015485926,1195474281268053,0.127875,0.1181125,0.0779625
1680015485929,1195474283770438,0.12485,0.11715,0.0790625
1680015485931,1195474286272592,0.121825,0.1122,0.0790625
1680015485934,1195474288774828,0.1208625,0.1082125,0.077
1680015485939,1195474291277212,0.11385,0.10615,0.0779625
1680015485940,1195474293779443,0.104775,0.0991375,0.0760375
1680015485942,1195474296281904,0.10285,0.098175,0.0730125
1680015485945,1195474298784308,0.0928125,0.09515,0.069025
1680015485947,1195474301286539,0.0848375,0.081125,0.069025
1680015485950,1195474303788693,0.0798875,0.076175,0.062975
1680015485952,1195474306291077,0.071775,0.070125,0.058025
1680015485955,1195474308793308,0.066825,0.0642125,0.0559625
1680015485957,1195474311295770,0.0567875,0.0561,0.053075
1680015485959,1195474313798154,0.0457875,0.0501875,0.0449625
1680015485962,1195474316300308,0.0418,0.0411125,0.0380875
1680015485964,1195474318802539,0.036849998,0.0331375,0.02805
1680015485966,1195474321304914,0.0279125,0.0251625,0.020075
1680015485970,1195474323807144,0.022824999,0.015125,0.013062499
1680015485971,1195474326309529,0.0138875,0.0061875,0.0070125
1680015485976,1195474328811733,0.0108624995,0.0022,-9.625E-4
1680015485978,1195474331314117,0.0017875,-0.0108624995,-0.0059125
1680015485980,1195474333816348,-0.0050875,-0.017875,-0.011
1680015485982,1195474336318733,-0.0081124995,-0.0308,-0.01595
1680015485985,1195474338820964,-0.0160875,-0.036849998,-0.018975
1680015485987,1195474341323433,-0.0221375,-0.0457875,-0.0279125
1680015485989,1195474343825587,-0.0270875,-0.0578875,-0.0320375
1680015485991,1195474346327972,-0.0312125,-0.0628375,-0.0400125
1680015485995,1195474348830202,-0.0361625,-0.0677875,-0.044
1680015485996,1195474351332587,-0.04015,-0.0748,-0.0499125
1680015485999,1195474353834727,-0.0451,-0.0759,-0.0540375
1680015486003,1195474356337188,-0.0462,-0.0759,-0.0609125
1680015486004,1195474358839419,-0.048125,-0.0738375,-0.069025
1680015486007,1195474361341804,-0.0471625,-0.0688875,-0.077
1680015486009,1195474363843958,-0.048125,-0.061875,-0.084975
1680015486013,1195474366346188,-0.048125,-0.0539,-0.091025
1680015486015,1195474368848573,-0.0422125,-0.0408375,-0.098037496
1680015486018,1195474371351035,-0.0441375,-0.0248875,-0.102025
1680015486020,1195474373853265,-0.0422125,-0.0127875,-0.113025
1680015486022,1195474376355650,-0.0380875,-8.25E-4,-0.117975
1680015486025,1195474378857881,-0.0352,0.014162499,-0.1280125
1680015486028,1195474381360265,-0.0341,0.0312125,-0.1329625
1680015486037,1195474383862419,-0.02915,0.0521125,-0.1390125
1680015486037,1195474386364900,-0.0231,0.070125,-0.144925
1680015486038,1195474388867130,-0.0202125,0.081125,-0.14795
1680015486038,1195474391369284,-0.0191125,0.098175,-0.1549625
1680015486041,1195474393871669,-0.015125,0.1181125,-0.1530375
1680015486041,1195474396373890,-0.0092124995,0.1342,-0.155925
1680015486044,1195474398876274,-0.0061875,0.147125,-0.1599125
1680015486046,1195474401378736,0.0017875,0.1651375,-0.161975
1680015486050,1195474403880890,0.0059125,0.180125,-0.16499999
1680015486052,1195474406383341,0.0108624995,0.19415,-0.16499999
1680015486054,1195474408885495,0.0158125,0.2112,-0.161975
1680015486056,1195474411387726,0.0198,0.230175,-0.16499999
1680015486059,1195474413890111,0.02585,0.2371875,-0.1640375
1680015486061,1195474416392572,0.0298375,0.2512125,-0.16499999
1680015486064,1195474418894794,0.0347875,0.2671625,-0.1659625
1680015486066,1195474421396948,0.0358875,0.280225,-0.166925
1680015486069,1195474423899332,0.0438625,0.2831125,-0.16499999
1680015486074,1195474426401563,0.0518375,0.2882,-0.1610125
1680015486075,1195474428903957,0.058849998,0.296175,-0.1599125
1680015486076,1195474431406187,0.0638,0.301125,-0.15895
1680015486080,1195474433908572,0.064899996,0.30621248,-0.1599125
1680015486082,1195474436410803,0.072875,0.30415,-0.157025
1680015486085,1195474438913164,0.0787875,0.302225,-0.1610125
1680015486090,1195474441415394,0.08085,0.2981,-0.15895
1680015486090,1195474443917779,0.083875,0.290125,-0.1640375
1680015486092,1195474446420010,0.0878625,0.2842125,-0.161975
1680015486095,1195474448922404,0.0878625,0.2732125,-0.1640375
1680015486097,1195474451424635,0.0908875,0.257125,-0.1689875
1680015486101,1195474453927020,0.094875,0.2451625,-0.1720125
1680015486102,1195474456429250,0.094875,0.2321,-0.176
1680015486104,1195474458931404,0.0988625,0.2121625,-0.1830125
1680015486106,1195474461433861,0.1007875,0.19415,-0.187
1680015486109,1195474463936245,0.1018875,0.1742125,-0.1929125
1680015486111,1195474466438476,0.1038125,0.1571625,-0.1989625
1680015486115,1195474468940630,0.1049125,0.1412125,-0.20693749
1680015486117,1195474471442991,0.1078,0.1232,-0.2190375
1680015486119,1195474473945222,0.1098625,0.1071125,-0.22495
1680015486123,1195474476447683,0.1098625,0.0941875,-0.2319625
1680015486126,1195474478950068,0.1117875,0.078099996,-0.2410375
1680015486128,1195474481452298,0.108899996,0.0691625,-0.249975
1680015486130,1195474483954683,0.1078,0.060225,-0.25795
1680015486132,1195474486456837,0.105875,0.0501875,-0.2679875
1680015486135,1195474488959068,0.10285,0.0411125,-0.271975
1680015486136,1195474491461548,0.1007875,0.04015,-0.276925
1680015486141,1195474493963933,0.095837496,0.0391875,-0.282975
1680015486142,1195474496466164,0.094875,0.0411125,-0.28393748
1680015486144,1195474498968317,0.0928125,0.0441375,-0.282975
1680015486146,1195474501470712,0.088825,0.0521125,-0.2809125
1680015486149,1195474503972943,0.0858,0.0631125,-0.2759625
1680015486153,1195474506475404,0.086899996,0.07315,-0.276925
1680015486155,1195474508977558,0.086899996,0.0881375,-0.27101249
1680015486157,1195474511479938,0.088825,0.1082125,-0.265925
1680015486159,1195474513982169,0.0928125,0.1291125,-0.2589125
1680015486163,1195474516484553,0.0968,0.15413749,-0.254925
1680015486165,1195474518986784,0.10285,0.18315,-0.2509375
1680015486169,1195474521489241,0.1078,0.2091375,-0.2479125
1680015486170,1195474523991394,0.1148125,0.2402125,-0.2429625
1680015486171,1195474526493779,0.1227875,0.27513748,-0.2369125
1680015486175,1195474528996010,0.127875,0.302225,-0.232925
1680015486176,1195474531498395,0.13585,0.3331625,-0.2319625
1680015486179,1195474534000611,0.143825,0.362175,-0.22893749
1680015486181,1195474536502996,0.1538625,0.3931125,-0.227975
1680015486184,1195474539005227,0.15785,0.4211625,-0.231
1680015486187,1195474541507611,0.1639,0.4492125,-0.234025
1680015486189,1195474544009842,0.1728375,0.472175,-0.234025
1680015486191,1195474546511996,0.1808125,0.4921125,-0.2380125
1680015486194,1195474549014381,0.187825,0.5141125,-0.242
1680015486196,1195474551516842,0.1898875,0.53515,-0.243925
1680015486200,1195474554019073,0.1929125,0.5501375,-0.2479125
1680015486202,1195474556521438,0.2008875,0.5641625,-0.2509375
1680015486206,1195474559023669,0.20185,0.576125,-0.253
1680015486207,1195474561526054,0.2058375,0.5911125,-0.256025
1680015486209,1195474564028208,0.2079,0.59015,-0.2589125
1680015486211,1195474566530669,0.21285,0.598125,-0.264
1680015486215,1195474569032895,0.220825,0.60115,-0.2699125
1680015486216,1195474571535280,0.2248125,0.6001875,-0.275
1680015486221,1195474574037434,0.2248125,0.60115,-0.276925
1680015486222,1195474576539664,0.2288,0.598125,-0.2850375
1680015486225,1195474579042054,0.2259125,0.5941375,-0.29095
1680015486226,1195474581544515,0.2248125,0.5852,-0.2979625
1680015486229,1195474584046746,0.2217875,0.57915,-0.30195
1680015486231,1195474586548900,0.21779999,0.5641625,-0.3040125
1680015486235,1195474589051280,0.2138125,0.5522,-0.309925
1680015486238,1195474591553510,0.2058375,0.5361125,-0.311025
1680015486240,1195474594055895,0.2028125,0.5181,-0.3139125
1680015486242,1195474596558357,0.1969,0.4961,-0.3139125
1680015486245,1195474599060577,0.19085,0.4752,-0.315975
1680015486246,1195474601562731,0.1868625,0.4541625,-0.3139125
1680015486249,1195474604065116,0.18287499,0.433125,-0.31295
1680015486251,1195474606567347,0.1777875,0.411125,-0.3139125
1680015486255,1195474609069765,0.17379999,0.389125,-0.31295
1680015486257,1195474611571996,0.1678875,0.37015,-0.3040125
1680015486259,1195474614074381,0.1628,0.346225,-0.2979625
1680015486261,1195474616576611,0.1628,0.3282125,-0.2919125
1680015486265,1195474619078996,0.1628,0.3102,-0.2899875
1680015486266,1195474621581231,0.160875,0.2921875,-0.282975
1680015486269,1195474624083385,0.15785,0.2732125,-0.276925
1680015486271,1195474626585846,0.1588125,0.2641375,-0.271975
1680015486276,1195474629088231,0.1599125,0.2552,-0.265925
1680015486278,1195474631590458,0.1648625,0.246125,-0.2589125
1680015486280,1195474634092842,0.1639,0.2371875,-0.2589125
1680015486281,1195474636595073,0.1648625,0.2332,-0.260975
1680015486285,1195474639097458,0.16885,0.2321,-0.260975
1680015486287,1195474641599707,0.171875,0.2292125,-0.265925
1680015486290,1195474644102092,0.17379999,0.2261875,-0.26895
1680015486292,1195474646604323,0.1777875,0.2292125,-0.2759625
1680015486295,1195474649106707,0.1808125,0.2311375,-0.2869625
1680015486296,1195474651608861,0.18287499,0.22715,-0.2949375
1680015486300,1195474654111111,0.1868625,0.2321,-0.309925
1680015486302,1195474656613573,0.1929125,0.2311375,-0.32395
1680015486305,1195474659115957,0.1978625,0.2292125,-0.337975
1680015486307,1195474661618111,0.20185,0.2332,-0.352
1680015486311,1195474664120342,0.2028125,0.2341625,-0.36795
1680015486314,1195474666622727,0.2039125,0.2261875,-0.381975
1680015486317,1195474669124957,0.209825,0.2222,-0.38995
1680015486318,1195474671627419,0.2138125,0.2151875,-0.3999875
1680015486320,1195474674129793,0.2138125,0.2061125,-0.408925
1680015486323,1195474676632024,0.2107875,0.1991,-0.41799998
1680015486327,1195474679134178,0.209825,0.1881,-0.41799998
1680015486328,1195474681636563,0.2058375,0.1782,-0.41593748
1680015486329,1195474684138793,0.2058375,0.1672,-0.4170375
1680015486331,1195474686641241,0.2008875,0.1522125,-0.4109875
1680015486334,1195474689143395,0.1978625,0.1381875,-0.403975
1680015486337,1195474691645779,0.1918125,0.1271875,-0.3939375
1680015486341,1195474694148010,0.187825,0.1122,-0.385
1680015486343,1195474696650420,0.1859,0.0972125,-0.3689125
1680015486346,1195474699152574,0.1758625,0.0891,-0.35694999
1680015486347,1195474701654805,0.1639,0.078099996,-0.3449875
1680015486351,1195474704157266,0.1557875,0.07315,-0.333025
1680015486353,1195474706659651,0.1447875,0.0691625,-0.3169375
1680015486356,1195474709161881,0.1318625,0.0642125,-0.30195
1680015486357,1195474711664266,0.1208625,0.0581625,-0.2850375
1680015486359,1195474714166497,0.1078,0.054175,-0.2740375
1680015486362,1195474716668651,0.0939125,0.054175,-0.2569875
1680015486365,1195474719171098,0.08085,0.0581625,-0.2399375
1680015486366,1195474721673483,0.0759,0.060225,-0.22893749
1680015486369,1195474724175714,0.0688875,0.0682,-0.216975
1680015486373,1195474726677868,0.061875,0.078099996,-0.205975
1680015486376,1195474729180261,0.0528,0.0891,-0.198
1680015486378,1195474731682492,0.0418,0.1021625,-0.18493749
1680015486380,1195474734184953,0.0347875,0.1181125,-0.179025
1680015486381,1195474736687107,0.0308,0.13915,-0.1720125
1680015486385,1195474739189511,0.0209,0.1651375,-0.161975
1680015486390,1195474741691742,0.0108624995,0.1841125,-0.154
1680015486391,1195474744194126,0.0099,0.2041875,-0.1500125
1680015486393,1195474746696357,0.0048125,0.2292125,-0.144925
1680015486398,1195474749198795,8.25E-4,0.2481875,-0.14093749
1680015486400,1195474751701179,-0.0031625,0.2721125,-0.1379125
1680015486402,1195474754203333,-0.0061875,0.296175,-0.133925
1680015486404,1195474756705564,-0.00715,0.31913748,-0.1329625
1680015486407,1195474759207964,-0.010175,0.345125,-0.132
1680015486408,1195474761710194,-0.0111375,0.362175,-0.1280125
1680015486410,1195474764212579,-0.0081124995,0.3851375,-0.1280125
1680015486411,1195474766714810,-0.0050875,0.4081,-0.132
1680015486415,1195474769217208,0.0028875,0.4272125,-0.1310375
1680015486416,1195474771719439,0.00385,0.4461875,-0.1310375
1680015486420,1195474774221824,0.0078375,0.4701125,-0.1310375
1680015486423,1195474776724054,0.011825,0.48221248,-0.133925
1680015486428,1195474779226425,0.0138875,0.49115,-0.1329625
1680015486430,1195474781728656,0.0198,0.505175,-0.132
1680015486431,1195474784230810,0.0218625,0.5152125,-0.132
1680015486433,1195474786733271,0.0237875,0.5251125,-0.1329625
1680015486435,1195474789235656,0.0279125,0.5291,-0.128975
1680015486437,1195474791737887,0.033825,0.5311625,-0.1329625
1680015486439,1195474794240031,0.0319,0.5302,-0.1269125
1680015486442,1195474796742415,0.0347875,0.527175,-0.124025
1680015486445,1195474799244646,0.0408375,0.522225,-0.122925
1680015486447,1195474801747031,0.0438625,0.51315,-0.121
1680015486451,1195474804249463,0.047849998,0.5031125,-0.117975
1680015486453,1195474806751617,0.0518375,0.494175,-0.113025
1680015486457,1195474809253848,0.0518375,0.4811125,-0.109037496
1680015486459,1195474811756232,0.0567875,0.466125,-0.11
1680015486460,1195474814258463,0.0598125,0.45113748,-0.109037496
1680015486463,1195474816760853,0.0598125,0.4371125,-0.1049125
1680015486467,1195474819263314,0.0628375,0.4202,-0.1029875
1680015486468,1195474821765468,0.064899996,0.401225,-0.0999625
1680015486469,1195474824267699,0.066825,0.3821125,-0.099
1680015486471,1195474826770084,0.0638,0.367125,-0.098037496
1680015486475,1195474829272304,0.0638,0.34814999,-0.098037496
1680015486477,1195474831774458,0.0578875,0.3251875,-0.09295
1680015486479,1195474834276920,0.0548625,0.301125,-0.091025
1680015486481,1195474836779304,0.050875,0.280225,-0.088
1680015486485,1195474839281516,0.0418,0.2591875,-0.087037496
1680015486487,1195474841783670,0.0347875,0.2332,-0.0809875
1680015486489,1195474844286055,0.02585,0.2121625,-0.0760375
1680015486491,1195474846788285,0.0188375,0.1931875,-0.0730125
1680015486495,1195474849290781,0.0127875,0.170225,-0.067925
1680015486497,1195474851793165,0.0088,0.15413749,-0.05995
1680015486503,1195474854295396,-0.004125,0.1302125,-0.056925
1680015486504,1195474856797781,-0.0132,0.1082125,-0.0540375
1680015486508,1195474859299949,-0.0202125,0.0941875,-0.0510125
1680015486511,1195474861802180,-0.0231,0.0671,-0.0449625
1680015486514,1195474864304641,-0.0281875,0.0451,-0.0419375
1680015486516,1195474866807026,-0.037125,0.032175,-0.040975
1680015486518,1195474869309256,-0.04015,0.016224999,-0.0369875
1680015486520,1195474871811410,-0.0441375,0.0022,-0.0339625
1680015486522,1195474874313795,-0.048125,-0.01485,-0.0339625
1680015486524,1195474876816026,-0.0581625,-0.028875,-0.033
1680015486526,1195474879318487,-0.0631125,-0.0438625,-0.0279125
1680015486527,1195474881820656,-0.0682,-0.0548625,-0.022
1680015486529,1195474884323041,-0.07315,-0.066825,-0.0210375
1680015486532,1195474886825272,-0.0771375,-0.082775,-0.0169125
1680015486539,1195474889327636,-0.0771375,-0.095837496,-0.011
1680015486542,1195474891829867,-0.081125,-0.1117875,-0.0039875
1680015486542,1195474894332252,-0.0831875,-0.126775,-9.625E-4
1680015486543,1195474896834482,-0.0851125,-0.1368125,0.003025
1680015486546,1195474899336867,-0.0881375,-0.149875,0.007975
1680015486547,1195474901839098,-0.0961125,-0.1628,0.0119624995
1680015486549,1195474904341482,-0.09515,-0.18287499,0.01705
1680015486553,1195474906843646,-0.0961125,-0.1948375,0.018975
1680015486556,1195474909346108,-0.100099996,-0.2058375,0.0270875
1680015486557,1195474911848338,-0.104225,-0.22385,0.031075
1680015486560,1195474914350728,-0.1071125,-0.23485,0.033
1680015486562,1195474916852959,-0.109175,-0.2498375,0.039049998
1680015486565,1195474919355113,-0.1131625,-0.2657875,0.039049998
1680015486567,1195474921857497,-0.11715,-0.2849,0.040975
1680015486569,1195474924359959,-0.1161875,-0.30085,0.0430375
1680015486572,1195474926862190,-0.11715,-0.3128125,0.0400125
1680015486576,1195474929364344,-0.120175,-0.330825,0.039049998
1680015486578,1195474931866728,-0.125125,-0.346775,0.039049998
1680015486581,1195474934368944,-0.1271875,-0.3568125,0.0320375
1680015486582,1195474936871329,-0.1291125,-0.3729,0.031075
1680015486586,1195474939373790,-0.1302125,-0.3928375,0.02805
1680015486587,1195474941876021,-0.1351625,-0.407825,0.0259875
1680015486589,1195474944378175,-0.137225,-0.42185,0.0240625
1680015486591,1195474946880564,-0.1401125,-0.4378,0.0210375
