system_ts_ms, sensor_ts_ns, gyrX, gyrY, gyrZ
1679933804629,1113792982336726,-0.011275,-0.080025,0.0460625
1679933804631,1113792984838879,-0.0103124995,-0.0589875,0.042075
1679933804633,1113792987341023,-0.006325,-0.0419375,0.036025
1679933804635,1113792989843177,-0.0033,-0.0259875,0.036025
1679933804636,1113792992345100,6.875E-4,-0.00495,0.0341
1679933804646,1113792994847254,6.875E-4,0.0121,0.031075
1679933804647,1113792997349639,6.875E-4,0.0240625,0.0341
1679933804647,1113792999851586,0.0026125,0.0341,0.0320375
1679933804647,1113793002353970,0.00165,0.0460625,0.0320375
1679933804650,1113793004855893,6.875E-4,0.051975,0.0320375
1679933804652,1113793007358047,0.00165,0.064075,0.033
1679933804654,1113793009860210,0.0026125,0.0710875,0.0320375
1679933804658,1113793012362595,0.0037125,0.080025,0.0320375
1679933804660,1113793014864749,0.004675,0.0840125,0.0320375
1679933804662,1113793017366672,0.0037125,0.091025,0.031075
1679933804664,1113793019868826,0.0077,0.098037496,0.0290125
1679933804669,1113793022370984,0.009625,0.1040875,0.02805
1679933804672,1113793024873138,0.0056375,0.106975,0.025024999
1679933804676,1113793027375292,0.0037125,0.11605,0.0240625
1679933804677,1113793029877702,0.004675,0.122099996,0.022
1679933804679,1113793032379625,0.00165,0.122099996,0.0210375
1679933804682,1113793034881779,0.0037125,0.124025,0.020075
1679933804683,1113793037383932,0.0056375,0.124025,0.0121
1679933804684,1113793039886086,-2.75E-4,0.1260875,0.0081124995
1679933804687,1113793042388235,6.875E-4,0.117975,0.0070125
1679933804693,1113793044890389,0.0037125,0.1150875,0.0
1679933804693,1113793047392543,-0.001375,0.1120625,0.0
1679933804695,1113793049894697,-0.0042625,0.1029875,-0.0028875
1679933804697,1113793052396837,-0.0042625,0.095975,-0.007975
1679933804700,1113793054898990,-0.0042625,0.084975,-0.0089375
1679933804702,1113793057401144,-0.0072875,0.073975,-0.0119624995
1679933804709,1113793059903298,-0.012375,0.069025,-0.01595
1679933804710,1113793062405452,-0.0133375,0.0600875,-0.0199375
1679933804711,1113793064907606,-0.0143,0.050049998,-0.0199375
1679933804712,1113793067409760,-0.0213125,0.0430375,-0.0199375
1679933804715,1113793069911914,-0.0213125,0.031075,-0.0248875
1679933804717,1113793072414067,-0.0243375,0.025024999,-0.029975
1679933804719,1113793074916158,-0.028324999,0.0149875,-0.0279125
1679933804727,1113793077418389,-0.0323125,0.00605,-0.029975
1679933804727,1113793079920543,-0.033275,-0.0039875,-0.0339625
1679933804727,1113793082422697,-0.033275,-0.0169125,-0.0369875
1679933804730,1113793084924832,-0.039325,-0.029975,-0.03795
1679933804733,1113793087426986,-0.039325,-0.045925,-0.040975
1679933804735,1113793089929139,-0.0413875,-0.058025,-0.0419375
1679933804737,1113793092431216,-0.0463375,-0.073975,-0.044
1679933804743,1113793094933423,-0.0482625,-0.088,-0.0499125
1679933804744,1113793097435577,-0.05335,-0.100925,-0.0559625
1679933804745,1113793099937731,-0.0573375,-0.1139875,-0.056925
1679933804747,1113793102439808,-0.0583,-0.1269125,-0.062975
1679933804750,1113793104941947,-0.0622875,-0.1359875,-0.0699875
1679933804753,1113793107444100,-0.0633875,-0.14795,-0.0749375
1679933804754,1113793109946331,-0.0633875,-0.1599125,-0.077
1679933804759,1113793112448485,-0.0653125,-0.166925,-0.078925
1679933804760,1113793114950639,-0.066275,-0.1709125,-0.084975
1679933804762,1113793117452793,-0.0683375,-0.18095,-0.089925
1679933804765,1113793119954947,-0.069299996,-0.1859,-0.0889625
1679933804767,1113793122457100,-0.0713625,-0.187,-0.0939125
1679933804770,1113793124959259,-0.0713625,-0.1940125,-0.0950125
1679933804778,1113793127461413,-0.0713625,-0.194975,-0.0939125
1679933804779,1113793129963490,-0.0713625,-0.1969,-0.0939125
1679933804780,1113793132465644,-0.07535,-0.199925,-0.0950125
1679933804781,1113793134967856,-0.0732875,-0.199925,-0.099
1679933804783,1113793137470010,-0.0743875,-0.201025,-0.095975
1679933804785,1113793139972163,-0.077275,-0.20693749,-0.095975
1679933804788,1113793142474317,-0.0743875,-0.201025,-0.099
1679933804793,1113793144976394,-0.072325,-0.2079,-0.0939125
1679933804793,1113793147478538,-0.07535,-0.210925,-0.095975
1679933804795,1113793149980692,-0.07535,-0.2099625,-0.099
1679933804798,1113793152482923,-0.0732875,-0.20899999,-0.0979
1679933804800,1113793154985077,-0.0713625,-0.2099625,-0.0979
1679933804802,1113793157487139,-0.0743875,-0.212025,-0.1018875
1679933804805,1113793159989293,-0.0732875,-0.2129875,-0.1018875
1679933804809,1113793162491447,-0.0732875,-0.210925,-0.100925
1679933804810,1113793164993601,-0.0713625,-0.212025,-0.1029875
1679933804814,1113793167495822,-0.0653125,-0.2129875,-0.1018875
1679933804815,1113793169997976,-0.069299996,-0.2079,-0.099
1679933804819,1113793172500130,-0.0713625,-0.20295,-0.1029875
1679933804821,1113793175002206,-0.0653125,-0.20693749,-0.10395
1679933804826,1113793177504365,-0.0633875,-0.2019875,-0.10395
1679933804827,1113793180006519,-0.0622875,-0.2039125,-0.1049125
1679933804828,1113793182508673,-0.061325,-0.20295,-0.1060125
1679933804830,1113793185010904,-0.0583,-0.1969,-0.106975
1679933804832,1113793187513058,-0.0573375,-0.198,-0.11
1679933804835,1113793190015149,-0.0583,-0.194975,-0.1079375
1679933804838,1113793192517302,-0.0573375,-0.194975,-0.1079375
1679933804843,1113793195019456,-0.055275,-0.1929125,-0.1079375
1679933804844,1113793197521610,-0.05335,-0.1959375,-0.108899996
1679933804845,1113793200023832,-0.0543125,-0.1929125,-0.1079375
1679933804847,1113793202525909,-0.0523875,-0.1879625,-0.1079375
1679933804850,1113793205028063,-0.0493625,-0.18493749,-0.11
1679933804853,1113793207530217,-0.0493625,-0.187,-0.108899996
1679933804862,1113793210032365,-0.0482625,-0.18493749,-0.1060125
1679933804862,1113793212534519,-0.0463375,-0.1830125,-0.106975
1679933804864,1113793215036673,-0.045375,-0.1830125,-0.10395
1679933804865,1113793217538904,-0.0463375,-0.1830125,-0.1029875
1679933804866,1113793220041058,-0.045375,-0.18493749,-0.0979
1679933804868,1113793222543145,-0.0433125,-0.187,-0.099
1679933804871,1113793225045298,-0.044275,-0.18095,-0.0999625
1679933804875,1113793227547452,-0.044275,-0.183975,-0.0999625
1679933804876,1113793230049606,-0.0402875,-0.18493749,-0.099
1679933804878,1113793232551740,-0.04235,-0.1819125,-0.099
1679933804881,1113793235053894,-0.039325,-0.18493749,-0.100925
1679933804882,1113793237556048,-0.0383625,-0.1859,-0.0999625
1679933804885,1113793240058202,-0.0372625,-0.1799875,-0.099
1679933804887,1113793242560350,-0.0433125,-0.1819125,-0.0999625
1679933804893,1113793245062504,-0.045375,-0.1819125,-0.100925
1679933804895,1113793247564735,-0.04235,-0.176,-0.0979
1679933804896,1113793250066812,-0.04235,-0.172975,-0.0950125
1679933804899,1113793252568981,-0.0463375,-0.1749,-0.095975
1679933804901,1113793255071135,-0.044275,-0.1709125,-0.099
1679933804903,1113793257573289,-0.045375,-0.166925,-0.0950125
1679933804905,1113793260075212,-0.0433125,-0.1639,-0.100925
1679933804910,1113793262577365,-0.04235,-0.15895,-0.1018875
1679933804911,1113793265079745,-0.0473,-0.1529,-0.099
1679933804912,1113793267581899,-0.0473,-0.1489125,-0.0999625
1679933804915,1113793270084053,-0.0473,-0.146025,-0.1018875
1679933804918,1113793272586207,-0.0433125,-0.135025,-0.10395
1679933804921,1113793275088356,-0.0463375,-0.1269125,-0.1018875
1679933804927,1113793277590509,-0.0413875,-0.1219625,-0.1049125
1679933804929,1113793280092663,-0.0402875,-0.113025,-0.1049125
1679933804930,1113793282594817,-0.039325,-0.109037496,-0.10395
1679933804932,1113793285096981,-0.0383625,-0.0999625,-0.10395
1679933804934,1113793287599135,-0.0323125,-0.0919875,-0.10395
1679933804936,1113793290101289,-0.0323125,-0.08195,-0.10395
1679933804938,1113793292603212,-0.0292875,-0.0699875,-0.1049125
1679933804942,1113793295105366,-0.0273625,-0.0609125,-0.1029875
1679933804943,1113793297607759,-0.0292875,-0.0510125,-0.0999625
1679933804945,1113793300109913,-0.0292875,-0.040975,-0.1060125
1679933804947,1113793302612067,-0.0253,-0.02695,-0.1049125
1679933804950,1113793305114221,-0.0213125,-0.0149875,-0.106975
1679933804953,1113793307616144,-0.0193875,-0.003025,-0.1029875
1679933804955,1113793310118317,-0.02035,0.0070125,-0.1018875
1679933804962,1113793312620701,-0.017324999,0.0180125,-0.1029875
1679933804964,1113793315122855,-0.0163625,0.031075,-0.1029875
1679933804966,1113793317625009,-0.0163625,0.040975,-0.100925
1679933804967,1113793320127168,-0.0154,0.0490875,-0.099
1679933804969,1113793322629091,-0.0163625,0.0600875,-0.0999625
1679933804976,1113793325131476,-0.0154,0.0710875,-0.0999625
1679933804977,1113793327722571,-0.0133375,0.080025,-0.100925
1679933804977,1113793330135802,-0.0103124995,0.084975,-0.100925
1679933804980,1113793332637956,-0.0114124995,0.091025,-0.0979
1679933804982,1113793335140110,-0.012375,0.098037496,-0.095975
1679933804983,1113793337642033,-0.0154,0.1040875,-0.099
1679933804986,1113793340144173,-0.012375,0.1060125,-0.095975
1679933804987,1113793342646327,-0.0114124995,0.11,-0.095975
1679933804993,1113793345148711,-0.0103124995,0.1150875,-0.0950125
1679933804994,1113793347650865,-0.00935,0.11605,-0.0919875
1679933804995,1113793350153019,-0.00935,0.11605,-0.0908875
1679933804997,1113793352655183,-0.0083875,0.11605,-0.089925
1679933805000,1113793355157106,-0.00935,0.1170125,-0.0889625
1679933805002,1113793357659260,-0.006325,0.1120625,-0.088
1679933805008,1113793360161648,-0.0044,0.1040875,-0.086899996
1679933805009,1113793362663802,-0.0033,0.106975,-0.086899996
1679933805011,1113793365165725,-0.0033,0.10505,-0.0859375
1679933805014,1113793367667879,-0.0044,0.095975,-0.08195
1679933805016,1113793370170033,-0.001375,0.091025,-0.0809875
1679933805017,1113793372672162,-0.0033,0.084975,-0.0829125
1679933805020,1113793375174316,-0.001375,0.077,-0.08195
1679933805022,1113793377676700,-0.0033,0.0669625,-0.08195
1679933805025,1113793380178854,-0.0033,0.0559625,-0.0809875
1679933805027,1113793382681013,-0.0072875,0.051975,-0.0779625
1679933805031,1113793385182936,-0.006325,0.040975,-0.078925
1679933805032,1113793387685321,-0.006325,0.0320375,-0.0779625
1679933805035,1113793390187475,-0.0072875,0.022,-0.0809875
1679933805037,1113793392689398,-0.0114124995,0.0149875,-0.078925
1679933805040,1113793395191571,-0.00935,0.0039875,-0.08195
1679933805044,1113793397693725,-0.0103124995,-0.00495,-0.0809875
1679933805045,1113793400195878,-0.0114124995,-0.0119624995,-0.08195
1679933805048,1113793402698263,-0.0114124995,-0.023924999,-0.0829125
1679933805050,1113793405200186,-0.0163625,-0.0320375,-0.08195
1679933805053,1113793407702340,-0.0163625,-0.0419375,-0.08195
1679933805055,1113793410204494,-0.017324999,-0.0529375,-0.0829125
1679933805057,1113793412706648,-0.0243375,-0.0620125,-0.0829125
1679933805060,1113793415208816,-0.0243375,-0.069025,-0.0859375
1679933805062,1113793417710970,-0.0253,-0.078925,-0.084975
1679933805065,1113793420213355,-0.0243375,-0.0859375,-0.084975
1679933805068,1113793422715278,-0.0264,-0.09295,-0.086899996
1679933805071,1113793425217422,-0.0264,-0.102025,-0.086899996
1679933805073,1113793427719576,-0.0273625,-0.109037496,-0.088
1679933805075,1113793430221730,-0.0273625,-0.113025,-0.086899996
1679933805080,1113793432723827,-0.0292875,-0.1170125,-0.084975
1679933805082,1113793435226057,-0.0334125,-0.12595,-0.0840125
1679933805084,1113793437728211,-0.03135,-0.1299375,-0.0829125
1679933805086,1113793440230365,-0.028324999,-0.1310375,-0.0840125
1679933805088,1113793442732519,-0.03135,-0.1359875,-0.0829125
1679933805091,1113793445234673,-0.0323125,-0.139975,-0.0809875
1679933805093,1113793447736827,-0.0334125,-0.143,-0.0840125
1679933805095,1113793450239211,-0.0363,-0.139975,-0.0829125
1679933805099,1113793452741134,-0.0353375,-0.1379125,-0.08195
1679933805100,1113793455243283,-0.0363,-0.139975,-0.077
1679933805103,1113793457745437,-0.0353375,-0.139975,-0.073975
1679933805105,1113793460247591,-0.0334125,-0.133925,-0.077
1679933805107,1113793462749668,-0.0334125,-0.1329625,-0.0749375
1679933805112,1113793465251903,-0.0383625,-0.1329625,-0.0688875
1679933805113,1113793467754056,-0.0383625,-0.1329625,-0.067925
1679933805115,1113793470256210,-0.0323125,-0.1280125,-0.066
1679933805120,1113793472758364,-0.0323125,-0.124025,-0.064899996
1679933805123,1113793475260504,-0.0334125,-0.1189375,-0.0609125
1679933805125,1113793478145658,-0.0323125,-0.1170125,-0.0589875
1679933805126,1113793480264735,-0.028324999,-0.1170125,-0.0578875
1679933805129,1113793482766965,-0.0264,-0.113025,-0.0559625
1679933805132,1113793485269119,-0.023375,-0.1049125,-0.0539
1679933805134,1113793487771273,-0.0224125,-0.102025,-0.0539
1679933805136,1113793490273427,-0.0193875,-0.098037496,-0.055
1679933805137,1113793492775581,-0.0163625,-0.0939125,-0.0529375
1679933805140,1113793495277735,-0.0163625,-0.087037496,-0.0499125
1679933805143,1113793497779894,-0.012375,-0.08195,-0.0499125
1679933805146,1113793500282047,-0.0114124995,-0.0760375,-0.051975
1679933805148,1113793502784201,-0.0083875,-0.07095,-0.0510125
1679933805155,1113793505286355,-0.006325,-0.0650375,-0.04895
1679933805155,1113793507788528,-0.0033,-0.062975,-0.0529375
1679933805157,1113793510290605,-0.0033,-0.0620125,-0.0510125
1679933805159,1113793512792759,6.875E-4,-0.056925,-0.0499125
1679933805161,1113793515294990,0.0037125,-0.051975,-0.0479875
1679933805163,1113793517797143,0.004675,-0.0449625,-0.04895
1679933805165,1113793520299297,0.0066,-0.0389125,-0.04895
1679933805169,1113793522801451,0.0105875,-0.0369875,-0.051975
1679933805172,1113793525303605,0.013612499,-0.034925,-0.0499125
1679933805173,1113793527805672,0.01265,-0.0320375,-0.045925
1679933805176,1113793530307903,0.015675,-0.0290125,-0.0499125
1679933805178,1113793532810057,0.0196625,-0.0279125,-0.04895
1679933805182,1113793535312210,0.0215875,-0.0259875,-0.045925
1679933805183,1113793537814287,0.0257125,-0.022,-0.0499125
1679933805185,1113793540316446,0.0276375,-0.0259875,-0.0499125
1679933805189,1113793542818600,0.026675,-0.025024999,-0.051975
1679933805191,1113793545320754,0.0276375,-0.018975,-0.0539
1679933805194,1113793547822985,0.0336875,-0.023924999,-0.051975
1679933805196,1113793550325148,0.034649998,-0.018975,-0.0510125
1679933805198,1113793552827302,0.0356125,-0.022,-0.0539
1679933805201,1113793555329456,0.0356125,-0.0199375,-0.055
1679933805202,1113793557831533,0.0356125,-0.0210375,-0.0539
1679933805206,1113793560333687,0.0336875,-0.02695,-0.056925
1679933805207,1113793562835908,0.0367125,-0.0259875,-0.0539
1679933805211,1113793565338062,0.034649998,-0.02695,-0.0529375
1679933805213,1113793567840215,0.0336875,-0.0279125,-0.0539
1679933805215,1113793570342292,0.0325875,-0.0309375,-0.051975
1679933805218,1113793572844451,0.034649998,-0.033,-0.051975
1679933805221,1113793575346605,0.0356125,-0.0369875,-0.0510125
1679933805223,1113793577848759,0.0336875,-0.040975,-0.051975
1679933805225,1113793580350990,0.034649998,-0.0369875,-0.0510125
1679933805228,1113793582853134,0.0367125,-0.034925,-0.0499125
1679933805232,1113793585355210,0.034649998,-0.03795,-0.0449625
1679933805234,1113793587857364,0.0325875,-0.0389125,-0.045925
1679933805235,1113793590359518,0.034649998,-0.036025,-0.045925
1679933805238,1113793592861696,0.0356125,-0.034925,-0.0419375
1679933805240,1113793595363927,0.034649998,-0.0339625,-0.0429
1679933805242,1113793597866081,0.0325875,-0.029975,-0.0429
1679933805245,1113793600368235,0.0325875,-0.0279125,-0.0400125
1679933805248,1113793602870369,0.0297,-0.02695,-0.03795
1679933805255,1113793605372446,0.0286,-0.023924999,-0.0358875
1679933805261,1113793607874600,0.0276375,-0.0199375,-0.034925
1679933805261,1113793610376754,0.0286,-0.022,-0.033
1679933805261,1113793612879004,0.0297,-0.01595,-0.029975
1679933805261,1113793615381081,0.0297,-0.0059125,-0.0290125
1679933805262,1113793617883235,0.026675,0.0,-0.0279125
1679933805265,1113793620385388,0.026675,0.003025,-0.0248875
1679933805270,1113793622887552,0.0215875,0.0039875,-0.018975
1679933805272,1113793625389706,0.0257125,0.0100375,-0.018975
1679933805274,1113793627891937,0.02365,0.014025,-0.0180125
1679933805276,1113793630394091,0.0226875,0.0149875,-0.0119624995
1679933805279,1113793632896240,0.0226875,0.0149875,-0.0089375
1679933805282,1113793635398317,0.0215875,0.0149875,-0.0089375
1679933805283,1113793637900470,0.0226875,0.0210375,-0.0059125
1679933805285,1113793640402624,0.0257125,0.029975,-0.00495
1679933805288,1113793642904778,0.0246125,0.02805,-0.00495
1679933805291,1113793645406937,0.0276375,0.0270875,-0.0028875
1679933805294,1113793647909091,0.031625,0.0290125,0.0
1679933805295,1113793650411245,0.0297,0.0339625,0.0
1679933805299,1113793652913475,0.0276375,0.0369875,-0.001925
1679933805301,1113793655415639,0.0257125,0.036025,-0.001925
1679933805302,1113793657917716,0.0257125,0.0369875,0.0011
1679933805307,1113793660419870,0.0257125,0.0380875,-0.001925
1679933805310,1113793662922024,0.0257125,0.040975,-0.0028875
1679933805311,1113793665424173,0.0257125,0.047025,-0.001925
1679933805314,1113793667926327,0.0246125,0.047025,-0.001925
1679933805315,1113793670428557,0.02365,0.047025,-0.00495
1679933805318,1113793672930711,0.02365,0.050049998,-0.0070125
1679933805322,1113793675432846,0.02365,0.0479875,-0.0099
1679933805325,1113793677934923,0.0246125,0.050049998,-0.0149875
1679933805326,1113793680437077,0.0226875,0.050049998,-0.0180125
1679933805328,1113793682939231,0.0215875,0.0479875,-0.022
1679933805333,1113793685441385,0.0246125,0.050049998,-0.022
1679933805334,1113793687943528,0.020624999,0.040975,-0.0248875
1679933805335,1113793690445682,0.0166375,0.039049998,-0.0279125
1679933805338,1113793692947836,0.020624999,0.040975,-0.029975
1679933805340,1113793695449990,0.0187,0.0369875,-0.0358875
1679933805346,1113793697952153,0.0187,0.0290125,-0.0400125
1679933805348,1113793700454307,0.015675,0.02805,-0.0389125
1679933805349,1113793702956537,0.015675,0.0229625,-0.044
1679933805351,1113793705458691,0.0187,0.01705,-0.04895
1679933805353,1113793707960845,0.0196625,0.013062499,-0.04895
1679933805355,1113793710462943,0.0176,0.0039875,-0.0510125
1679933805360,1113793712965097,0.0196625,-9.625E-4,-0.0559625
1679933805360,1113793715467020,0.0196625,-0.0089375,-0.0539
1679933805363,1113793717969405,0.0215875,-0.012925,-0.0559625
1679933805366,1113793720471544,0.02365,-0.0210375,-0.0589875
1679933805368,1113793722973697,0.0187,-0.0309375,-0.05995
1679933805372,1113793725475851,0.0215875,-0.0389125,-0.0578875
1679933805374,1113793727978005,0.0246125,-0.045925,-0.0578875
1679933805376,1113793730480164,0.026675,-0.055,-0.0578875
1679933805378,1113793732982087,0.0257125,-0.062975,-0.05995
1679933805385,1113793735484472,0.0297,-0.069025,-0.05995
1679933805385,1113793737986625,0.031625,-0.08195,-0.0578875
1679933805386,1113793740488793,0.0325875,-0.0859375,-0.0559625
1679933805388,1113793742990947,0.034649998,-0.091025,-0.051975
1679933805391,1113793745493101,0.0325875,-0.0939125,-0.0510125
1679933805393,1113793747995255,0.0356125,-0.102025,-0.04895
1679933805395,1113793750497486,0.0325875,-0.1079375,-0.0479875
1679933805400,1113793752999554,0.031625,-0.11495,-0.0429
1679933805401,1113793755501707,0.0325875,-0.11495,-0.0400125
1679933805403,1113793758003861,0.0276375,-0.120037496,-0.0400125
1679933805406,1113793760506015,0.0286,-0.1269125,-0.0369875
1679933805407,1113793763007938,0.0297,-0.128975,-0.033
1679933805411,1113793765510318,0.0257125,-0.133925,-0.0319
1679933805413,1113793768012472,0.0226875,-0.1329625,-0.029975
1679933805416,1113793770514626,0.02365,-0.1299375,-0.0290125
1679933805419,1113793773016779,0.0246125,-0.1299375,-0.0290125
1679933805422,1113793775518957,0.0226875,-0.1280125,-0.0248875
1679933805424,1113793778021111,0.0187,-0.1269125,-0.0248875
1679933805425,1113793780523265,0.0176,-0.1269125,-0.023924999
1679933805428,1113793783025419,0.0166375,-0.1249875,-0.022
1679933805433,1113793785527573,0.0166375,-0.120037496,-0.022
1679933805433,1113793788029712,0.013612499,-0.11495,-0.0199375
1679933805436,1113793790531865,0.0086624995,-0.11,-0.018975
1679933805438,1113793793034019,0.0116875,-0.10395,-0.0199375
1679933805441,1113793795535942,0.0105875,-0.0969375,-0.01595
1679933805444,1113793798038332,0.0086624995,-0.095975,-0.0169125
1679933805446,1113793800540486,0.009625,-0.084975,-0.0149875
1679933805449,1113793803042640,0.0105875,-0.0719125,-0.012925
1679933805452,1113793805544793,0.0116875,-0.0669625,-0.012925
1679933805453,1113793808046928,0.009625,-0.055,-0.0119624995
1679933805457,1113793810548851,0.0105875,-0.047025,-0.011
1679933805460,1113793813051005,0.0086624995,-0.03795,-0.011
1679933805462,1113793815553390,0.0116875,-0.0309375,-0.0099
1679933805464,1113793818055520,0.009625,-0.0199375,-0.0099
1679933805466,1113793820557674,0.0077,-0.0070125,-0.012925
1679933805468,1113793823059827,0.0077,0.0039875,-0.0119624995
1679933805471,1113793825561981,0.0077,0.0119624995,-0.0119624995
1679933805473,1113793828064135,0.0077,0.020075,-0.0119624995
1679933805477,1113793830566279,0.0077,0.029975,-0.0149875
1679933805478,1113793833068433,0.0086624995,0.040975,-0.0149875
1679933805481,1113793835570587,0.009625,0.0540375,-0.0169125
1679933805483,1113793838072741,0.0077,0.0620125,-0.0199375
1679933805485,1113793840574659,0.009625,0.0699875,-0.0209
1679933805488,1113793843076812,0.0086624995,0.073975,-0.022
1679933805492,1113793845579197,0.0056375,0.0760375,-0.0229625
1679933805497,1113793848081385,0.0037125,0.086075,-0.02695
1679933805498,1113793850583539,0.0026125,0.0889625,-0.0259875
1679933805500,1113793853085693,-4.125E-4,0.0930875,-0.0259875
1679933805502,1113793855587847,-0.0033,0.0950125,-0.0290125
1679933805503,1113793858090000,-0.0044,0.098037496,-0.0290125
1679933805505,1113793860591923,-0.0044,0.102025,-0.0319
1679933805508,1113793863094322,-0.006325,0.1029875,-0.033
1679933805511,1113793865596476,-0.0103124995,0.0999625,-0.0319
1679933805513,1113793868098399,-0.0133375,0.1010625,-0.034925
1679933805515,1113793870600553,-0.0114124995,0.098037496,-0.0369875
1679933805519,1113793873102659,-0.0143,0.0950125,-0.0369875
1679933805521,1113793875604813,-0.0163625,0.0930875,-0.03795
1679933805524,1113793878107197,-0.0163625,0.0900625,-0.03795
1679933805526,1113793880609351,-0.0163625,0.084975,-0.0389125
1679933805528,1113793883111505,-0.0182875,0.08305,-0.0419375
1679933805533,1113793885613654,-0.023375,0.0779625,-0.03795
1679933805535,1113793888115577,-0.0253,0.073975,-0.0369875
1679933805536,1113793890617731,-0.0243375,0.062975,-0.0389125
1679933805538,1113793893119904,-0.0303875,0.0620125,-0.03795
1679933805541,1113793895622288,-0.0334125,0.053075,-0.0358875
1679933805543,1113793898124442,-0.0334125,0.0460625,-0.034925
1679933805545,1113793900626596,-0.0374,0.0369875,-0.0339625
1679933805548,1113793903128750,-0.0413875,0.031075,-0.0319
1679933805551,1113793905630664,-0.0444125,0.025024999,-0.0339625
1679933805553,1113793908132818,-0.0463375,0.020075,-0.033
1679933805555,1113793910635202,-0.0523875,0.0100375,-0.0290125
1679933805558,1113793913137356,-0.0523875,-9.625E-4,-0.0279125
1679933805560,1113793915639264,-0.0573375,-0.003025,-0.0290125
1679933805563,1113793918141418,-0.0622875,-0.0100375,-0.0248875
1679933805565,1113793920643803,-0.0653125,-0.0199375,-0.022
1679933805569,1113793923145967,-0.069299996,-0.023924999,-0.022
1679933805573,1113793925647890,-0.0732875,-0.0309375,-0.022
1679933805575,1113793928150043,-0.07535,-0.0339625,-0.018975
1679933805577,1113793930688197,-0.0774125,-0.036025,-0.0180125
1679933805580,1113793933154341,-0.0803,-0.0430375,-0.018975
1679933805582,1113793935656495,-0.083325,-0.047025,-0.0169125
1679933805584,1113793938158880,-0.08635,-0.051975,-0.0169125
1679933805585,1113793940661033,-0.08635,-0.0540375,-0.0180125
1679933805588,1113793943163187,-0.0903375,-0.0589875,-0.012925
1679933805590,1113793945665110,-0.0933625,-0.058025,-0.011
1679933805594,1113793948167264,-0.0963875,-0.0620125,-0.0099
1679933805596,1113793950669418,-0.0963875,-0.0620125,-0.007975
1679933805599,1113793953171572,-0.0963875,-0.062975,-0.007975
1679933805601,1113793955673716,-0.0994125,-0.066,-0.0070125
1679933805603,1113793958175870,-0.1013375,-0.0609125,-0.0059125
1679933805607,1113793960678024,-0.1043625,-0.058025,-0.0039875
1679933805610,1113793963180177,-0.1034,-0.058025,0.0011
1679933805613,1113793965682283,-0.105325,-0.05995,0.0
1679933805615,1113793968184668,-0.1043625,-0.055,0.0039875
1679933805616,1113793970686822,-0.1023,-0.0540375,0.00605
1679933805618,1113793973188745,-0.1034,-0.0510125,0.0100375
1679933805621,1113793975690899,-0.105325,-0.04895,0.0121
1679933805623,1113793978193077,-0.1023,-0.0479875,0.014025
1679933805626,1113793980695230,-0.1023,-0.0449625,0.0149875
1679933805628,1113793983197384,-0.1023,-0.0419375,0.0210375
1679933805632,1113793985699538,-0.1013375,-0.036025,0.0191125
1679933805633,1113793988201707,-0.1013375,-0.0309375,0.0210375
1679933805636,1113793990703861,-0.0994125,-0.0309375,0.0231
1679933805638,1113793993206015,-0.1013375,-0.0339625,0.0231
1679933805640,1113793995708168,-0.1013375,-0.029975,0.025024999
1679933805645,1113793998210303,-0.1023,-0.022,0.02805
1679933805647,1113794000712688,-0.0994125,-0.0259875,0.02805
1679933805648,1113794003214611,-0.0983125,-0.0210375,0.0290125
1679933805651,1113794005716765,-0.0994125,-0.0199375,0.0290125
1679933805653,1113794008218919,-0.1013375,-0.0169125,0.0320375
1679933805655,1113794010721073,-0.1013375,-0.0169125,0.033
1679933805658,1113794013223226,-0.1023,-0.0180125,0.0341
1679933805661,1113794015725380,-0.1043625,-0.0149875,0.039049998
1679933805663,1113794018227765,-0.1023,-0.014025,0.0400125
1679933805666,1113794020729683,-0.1062875,-0.012925,0.042075
1679933805668,1113794023231837,-0.105325,-0.012925,0.047025
1679933805670,1113794025733991,-0.1062875,-0.014025,0.050049998
1679933805673,1113794028236145,-0.1062875,-0.0089375,0.0460625
1679933805675,1113794030738221,-0.105325,-0.0070125,0.053075
1679933805678,1113794033240447,-0.105325,-0.0039875,0.058025
1679933805682,1113794035742601,-0.1034,-0.00495,0.058025
1679933805684,1113794038244755,-0.1034,-0.001925,0.0600875
1679933805686,1113794040746962,-0.1034,9.625E-4,0.064075
1679933805689,1113794043249116,-0.1034,-9.625E-4,0.066
1679933805692,1113794045751270,-0.1023,0.0039875,0.069025
1679933805693,1113794048253423,-0.1034,0.0039875,0.0710875
1679933805696,1113794050755577,-0.1043625,0.003025,0.07205
1679933805698,1113794053257720,-0.1013375,0.0119624995,0.0730125
1679933805701,1113794055759874,-0.105325,0.0160875,0.0741125
1679933805704,1113794058262028,-0.1034,0.0160875,0.075075
1679933805706,1113794060764149,-0.0963875,0.0180125,0.080025
1679933805708,1113794063266302,-0.0963875,0.0210375,0.0790625
1679933805711,1113794065768456,-0.0994125,0.0240625,0.0809875
1679933805715,1113794068270610,-0.0933625,0.02805,0.0809875
1679933805716,1113794070772764,-0.0924,0.029975,0.0809875
1679933805721,1113794073274937,-0.0924,0.0339625,0.0820875
1679933805723,1113794075777091,-0.0903375,0.0369875,0.087037496
1679933805726,1113794078496783,-0.091299996,0.0369875,0.087037496
1679933805728,1113794080781412,-0.091299996,0.040975,0.0820875
1679933805730,1113794083283566,-0.0853875,0.0479875,0.0900625
1679933805733,1113794085785720,-0.083325,0.0490875,0.0919875
1679933805735,1113794088287874,-0.0814,0.0490875,0.088
1679933805736,1113794090790028,-0.0814,0.055,0.0900625
1679933805738,1113794093292187,-0.0803,0.0559625,0.088
1679933805741,1113794095794341,-0.0803,0.0600875,0.0900625
1679933805743,1113794098296494,-0.0793375,0.061049998,0.0930875
1679933805748,1113794100798648,-0.0774125,0.0650375,0.0919875
1679933805749,1113794103300816,-0.0763125,0.069025,0.0919875
1679933805751,1113794105802970,-0.0774125,0.0730125,0.091025
1679933805753,1113794108305047,-0.0743875,0.0760375,0.088
1679933805757,1113794110807201,-0.072325,0.0730125,0.088
1679933805762,1113794113309437,-0.072325,0.0779625,0.088
1679933805762,1113794115811590,-0.0653125,0.0820875,0.0891
1679933805764,1113794118313744,-0.0664125,0.08305,0.087037496
1679933805765,1113794120815898,-0.0653125,0.0790625,0.0851125
1679933805768,1113794123318052,-0.0622875,0.084975,0.087037496
1679933805772,1113794125820110,-0.0603625,0.0840125,0.087037496
1679933805774,1113794128322264,-0.0603625,0.0809875,0.087037496
1679933805776,1113794130824494,-0.0573375,0.0809875,0.0851125
1679933805778,1113794133326648,-0.0554125,0.0790625,0.0851125
1679933805783,1113794135828821,-0.056375,0.0809875,0.087037496
1679933805784,1113794138330975,-0.0554125,0.0790625,0.091025
1679933805786,1113794140833129,-0.0523875,0.0790625,0.0891
1679933805788,1113794143335206,-0.050325,0.07205,0.0851125
1679933805791,1113794145837437,-0.050325,0.066,0.086075
1679933805795,1113794148339585,-0.0473,0.0680625,0.086075
1679933805796,1113794150841739,-0.0473,0.064075,0.087037496
1679933805798,1113794153343893,-0.0444125,0.0570625,0.086075
1679933805802,1113794155845970,-0.0413875,0.055,0.087037496
1679933805803,1113794158348124,-0.04235,0.0510125,0.0851125
1679933805806,1113794160850341,-0.039325,0.047025,0.0820875
1679933805809,1113794163352495,-0.0402875,0.040975,0.087037496
1679933805812,1113794165854648,-0.039325,0.039049998,0.0891
1679933805816,1113794168356802,-0.0383625,0.033,0.0851125
1679933805817,1113794170858970,-0.039325,0.031075,0.087037496
1679933805819,1113794173361047,-0.0374,0.033,0.087037496
1679933805822,1113794175863201,-0.0374,0.025024999,0.088
1679933805823,1113794178365432,-0.0363,0.0270875,0.087037496
1679933805826,1113794180867567,-0.0363,0.0240625,0.0891
1679933805829,1113794183369720,-0.0353375,0.020075,0.091025
1679933805833,1113794185871874,-0.0353375,0.018975,0.0900625
1679933805835,1113794188374028,-0.0363,0.0240625,0.088
1679933805836,1113794190876172,-0.0323125,0.018975,0.087037496
1679933805838,1113794193378326,-0.0323125,0.020075,0.0891
1679933805843,1113794195880480,-0.0334125,0.0210375,0.0900625
1679933805844,1113794198382633,-0.0353375,0.0210375,0.091025
1679933805846,1113794200884710,-0.0334125,0.0210375,0.088
1679933805850,1113794203386946,-0.0323125,0.0229625,0.0891
1679933805852,1113794205889100,-0.03135,0.0229625,0.087037496
1679933805854,1113794208391254,-0.0292875,0.0229625,0.086075
1679933805856,1113794210893408,-0.0292875,0.020075,0.0851125
1679933805859,1113794213395528,-0.0253,0.0210375,0.08305
1679933805862,1113794215897681,-0.0224125,0.022,0.08305
1679933805864,1113794218399758,-0.0253,0.0210375,0.0820875
1679933805866,1113794220901989,-0.0224125,0.02805,0.0809875
1679933805870,1113794223404143,-0.0213125,0.029975,0.080025
1679933805873,1113794225906220,-0.0182875,0.0290125,0.078099996
1679933805875,1113794228408451,-0.0154,0.02805,0.0790625
1679933805878,1113794230910528,-0.0133375,0.029975,0.077
1679933805884,1113794233412681,-0.0133375,0.033,0.075075
1679933805885,1113794235914922,-0.0163625,0.0350625,0.075075
1679933805885,1113794238417076,-0.012375,0.036025,0.0741125
1679933805885,1113794240919230,-0.0103124995,0.039049998,0.0730125
1679933805888,1113794243421384,-0.0114124995,0.0400125,0.0699875
1679933805891,1113794245923461,-0.00935,0.036025,0.0699875
1679933805893,1113794248425615,-0.006325,0.039049998,0.0671
1679933805895,1113794250927768,-0.0083875,0.039049998,0.0650375
1679933805898,1113794253429999,-0.006325,0.0400125,0.064075
1679933805901,1113794255932153,-0.0033,0.0380875,0.064075
1679933805902,1113794258434307,-0.0033,0.0380875,0.0620125
1679933805907,1113794260936461,-0.001375,0.0350625,0.0570625
1679933805909,1113794263438615,6.875E-4,0.031075,0.0561
1679933805911,1113794265940692,-0.001375,0.031075,0.055
1679933805913,1113794268442917,0.00165,0.029975,0.053075
1679933805915,1113794270945071,6.875E-4,0.025024999,0.0490875
1679933805918,1113794273447148,0.004675,0.022,0.0479875
1679933805921,1113794275949302,0.0066,0.0180125,0.0430375
1679933805923,1113794278451456,0.0037125,0.013062499,0.0430375
1679933805926,1113794280953600,0.004675,0.007975,0.0430375
1679933805928,1113794283455830,0.003575,0.0039875,0.0411125
1679933805933,1113794285957984,0.0026125,-9.625E-4,0.0380875
1679933805933,1113794288460138,0.003575,-0.007975,0.0341
1679933805935,1113794290962278,0.003575,-0.0119624995,0.033
1679933805938,1113794293464355,0.0056375,-0.022,0.0301125
1679933805941,1113794295966509,0.009625,-0.029975,0.0290125
1679933805945,1113794298468687,0.0105875,-0.034925,0.0290125
1679933805946,1113794300970917,0.013612499,-0.0389125,0.02805
1679933805948,1113794303473071,0.015675,-0.0479875,0.0259875
1679933805951,1113794305975225,0.020624999,-0.058025,0.025024999
1679933805953,1113794308477302,0.0215875,-0.062975,0.0231
1679933805955,1113794310979480,0.020624999,-0.062975,0.0231
1679933805958,1113794313481634,0.0196625,-0.067925,0.01705
1679933805961,1113794315983865,0.0246125,-0.066,0.0149875
1679933805963,1113794318486018,0.0246125,-0.066,0.0149875
1679933805966,1113794320988148,0.0246125,-0.067925,0.0149875
1679933805968,1113794323490225,0.0246125,-0.0699875,0.0149875
1679933805972,1113794325992379,0.0286,-0.07095,0.0149875
1679933805974,1113794328494533,0.025575,-0.0699875,0.0149875
1679933805976,1113794330996721,0.0246125,-0.07095,0.014025
1679933805978,1113794333498952,0.031625,-0.0699875,0.013062499
1679933805982,1113794336001105,0.0286,-0.0669625,0.011
1679933805984,1113794338503259,0.0276375,-0.0669625,0.009075
1679933805986,1113794341005336,0.031625,-0.067925,0.011
1679933805988,1113794343507494,0.0356125,-0.07095,0.011
1679933805991,1113794346009648,0.0336875,-0.069025,0.0081124995
1679933805993,1113794348511879,0.031625,-0.0650375,0.0100375
1679933805996,1113794351013956,0.0336875,-0.062975,0.0081124995
1679933806000,1113794353516167,0.037675,-0.062975,0.0070125
1679933806002,1113794356018244,0.037675,-0.0620125,0.009075
1679933806003,1113794358520398,0.0386375,-0.058025,0.009075
1679933806006,1113794361022552,0.0396,-0.051975,0.0121
1679933806008,1113794363524783,0.0407,-0.0449625,0.011
1679933806012,1113794366026932,0.0416625,-0.0369875,0.009075
1679933806013,1113794368529085,0.0446875,-0.033,0.013062499
1679933806016,1113794371031162,0.045649998,-0.0279125,0.013062499
1679933806019,1113794373533307,0.0446875,-0.01595,0.0121
1679933806022,1113794376035461,0.0466125,-0.0070125,0.013062499
1679933806024,1113794378537615,0.0506,-0.003025,0.013062499
1679933806026,1113794381039846,0.0496375,0.0070125,0.0149875
1679933806029,1113794383542000,0.0496375,0.0210375,0.01705
1679933806031,1113794386044157,0.0517,0.02805,0.01705
1679933806033,1113794388546234,0.0556875,0.0339625,0.013062499
1679933806036,1113794391048388,0.059675,0.040975,0.0160875
1679933806038,1113794393550542,0.058575,0.053075,0.020075
1679933806042,1113794396052754,0.059675,0.058025,0.0160875
1679933806044,1113794398554831,0.0616,0.064075,0.0149875
1679933806048,1113794401056985,0.064625,0.07205,0.022
1679933806049,1113794403559138,0.0666875,0.077,0.0191125
1679933806052,1113794406061292,0.069575,0.0820875,0.0149875
1679933806054,1113794408563446,0.0716375,0.0930875,0.0121
1679933806057,1113794411065600,0.0716375,0.0950125,0.011
1679933806060,1113794413567831,0.0726,0.0930875,0.014025
1679933806062,1113794416069951,0.0726,0.095975,0.013062499
1679933806065,1113794418572028,0.073699996,0.1029875,0.0100375
1679933806066,1113794421074181,0.0746625,0.102025,0.0070125
1679933806069,1113794423576335,0.0726,0.10505,0.0070125
1679933806072,1113794426078489,0.070675,0.102025,0.00605
1679933806073,1113794428580701,0.073699996,0.1029875,0.00605
1679933806076,1113794431082855,0.0765875,0.106975,0.0020625
1679933806080,1113794433584932,0.0776875,0.106975,0.0
1679933806082,1113794436087086,0.081675,0.10505,0.0
1679933806083,1113794438589244,0.0836,0.1010625,-9.625E-4
1679933806086,1113794441091398,0.081675,0.1029875,-0.001925
1679933806088,1113794443593552,0.0826375,0.1010625,-0.0028875
1679933806092,1113794446095706,0.086625,0.0999625,-0.0039875
1679933806099,1113794448597860,0.0875875,0.0950125,-0.0039875
1679933806099,1113794451100014,0.0906125,0.0889625,-0.0070125
1679933806101,1113794453602167,0.08965,0.0889625,-0.007975
1679933806102,1113794456104321,0.0906125,0.084975,-0.007975
1679933806104,1113794458606475,0.092675,0.0820875,-0.007975
1679933806106,1113794461108629,0.092675,0.077,-0.011
1679933806109,1113794463610769,0.0946,0.0699875,-0.0070125
1679933806111,1113794466112923,0.095699996,0.062975,-0.0089375
1679933806114,1113794468615077,0.091575,0.0570625,-0.0099
1679933806116,1113794471117307,0.093637496,0.0510125,-0.0099
1679933806119,1113794473619374,0.095699996,0.0479875,-0.007975
1679933806122,1113794476121528,0.092675,0.0400125,-0.0099
1679933806124,1113794478623682,0.092675,0.0369875,-0.007975
1679933806126,1113794481125836,0.0886875,0.033,-0.0070125
1679933806129,1113794483627985,0.0875875,0.025024999,-0.00495
1679933806133,1113794486130139,0.0836,0.0160875,-0.00495
1679933806135,1113794488632292,0.0826375,0.0119624995,-0.0070125
1679933806137,1113794491134446,0.0796125,0.0050875,-0.007975
1679933806140,1113794493636639,0.0726,9.625E-4,-0.007975
1679933806142,1113794496138793,0.0716375,-0.001925,-0.0028875
1679933806143,1113794498640947,0.0686125,-0.007975,0.0
1679933806146,1113794501143101,0.0627,-0.0100375,-0.0028875
1679933806149,1113794503645255,0.058575,-0.0089375,-9.625E-4
1679933806151,1113794506147388,0.056649998,-0.012925,0.0020625
1679933806154,1113794508649542,0.0545875,-0.01595,0.0039875
1679933806156,1113794511151696,0.059675,-0.0169125,0.003025
1679933806159,1113794513653850,0.0556875,-0.0180125,0.0039875
1679933806163,1113794516155773,0.053625,-0.012925,0.0050875
1679933806164,1113794518658158,0.0496375,-0.012925,0.0039875
1679933806166,1113794521160311,0.0496375,-0.014025,0.0039875
1679933806171,1113794523662465,0.0446875,-0.0119624995,0.0039875
1679933806174,1113794526164624,0.0416625,-0.0100375,0.0050875
1679933806176,1113794528665700,0.0407,-0.007975,0.003025
1679933806177,1113794531166779,0.0396,-0.00495,0.0011
1679933806178,1113794533670855,0.037675,-0.00495,0.0039875
1679933806182,1113794536173240,0.036575,-0.001925,0.0039875
1679933806183,1113794538675393,0.034649998,-0.003025,0.0011
1679933806186,1113794541177537,0.0356125,-9.625E-4,0.0
1679933806188,1113794543679691,0.0325875,0.0,-9.625E-4
1679933806191,1113794546181845,0.031625,-0.0039875,-9.625E-4
1679933806193,1113794548683999,0.0336875,0.0,-0.0028875
1679933806196,1113794551186226,0.031625,0.003025,-9.625E-4
1679933806199,1113794553688303,0.0286,0.0039875,-0.001925
1679933806201,1113794556190456,0.0276375,0.00605,-0.00495
1679933806204,1113794558692610,0.0276375,0.00605,-0.0099
1679933806208,1113794561194533,0.026675,0.0119624995,-0.011
1679933806210,1113794563696687,0.0276375,0.01705,-0.0119624995
1679933806213,1113794566198841,0.0246125,0.0180125,-0.0180125
1679933806214,1113794568701226,0.02365,0.022,-0.018975
1679933806217,1113794571203380,0.0215875,0.025024999,-0.0180125
1679933806220,1113794573705572,0.020624999,0.0290125,-0.0229625
1679933806221,1113794576207726,0.0187,0.0320375,-0.0259875
1679933806223,1113794578709880,0.0196625,0.0339625,-0.02695
1679933806226,1113794581211803,0.0187,0.036025,-0.023924999
1679933806231,1113794583714202,0.015675,0.039049998,-0.0279125
1679933806232,1113794586216356,0.013612499,0.044,-0.0369875
1679933806234,1113794588718509,0.01265,0.0449625,-0.0429
1679933806236,1113794591220663,0.01265,0.044,-0.044
1679933806240,1113794593722822,0.0116875,0.047025,-0.045925
1679933806242,1113794596224745,0.009625,0.0460625,-0.04895
1679933806248,1113794598727130,0.0077,0.040975,-0.0529375
1679933806249,1113794601229284,0.0077,0.0380875,-0.0539
1679933806250,1113794603731453,0.0056375,0.044,-0.0578875
1679933806253,1113794606233606,-4.125E-4,0.0369875,-0.05995
1679933806254,1113794608735530,-0.0033,0.031075,-0.0559625
1679933806256,1113794611237683,-0.001375,0.0320375,-0.0559625
1679933806259,1113794613739846,-0.0053625,0.025024999,-0.055
1679933806264,1113794616242231,-0.006325,0.0229625,-0.0539
1679933806265,1113794618744385,-0.0044,0.020075,-0.051975
1679933806267,1113794621246539,-0.0033,0.0180125,-0.051975
1679933806269,1113794623748692,-0.006325,0.0119624995,-0.0499125
1679933806271,1113794626250846,-0.012375,0.0070125,-0.045925
1679933806274,1113794628752769,-0.0143,0.0100375,-0.0429
1679933806276,1113794631255154,-0.0154,0.0070125,-0.0400125
1679933806280,1113794633757308,-0.0143,0.0020625,-0.044
1679933806283,1113794636259462,-0.017324999,0.00605,-0.0400125
1679933806285,1113794638761616,-0.018424999,0.007975,-0.0389125
1679933806287,1113794641263539,-0.018424999,0.0039875,-0.0419375
1679933806290,1113794643765692,-0.02035,0.00605,-0.0419375
1679933806293,1113794646267846,-0.02035,0.011,-0.040975
1679933806294,1113794648770265,-0.0243375,0.0070125,-0.044
1679933806296,1113794651272419,-0.0264,0.0070125,-0.045925
1679933806300,1113794653774573,-0.0273625,0.0119624995,-0.04895
1679933806301,1113794656276496,-0.0303875,0.00605,-0.0499125
1679933806304,1113794658778650,-0.0383625,0.00605,-0.0529375
1679933806306,1113794661280803,-0.039325,0.007975,-0.0559625
1679933806310,1113794663783188,-0.0353375,0.00605,-0.056925
1679933806312,1113794666285342,-0.040425,0.0070125,-0.05995
1679933806313,1113794668787496,-0.045375,0.0100375,-0.0589875
1679933806316,1113794671289616,-0.0433125,0.013062499,-0.05995
1679933806321,1113794673791769,-0.04235,0.0119624995,-0.0620125
1679933806324,1113794676292730,-0.045375,0.013062499,-0.062975
1679933806324,1113794678793693,-0.0493625,0.0160875,-0.064899996
1679933806326,1113794681298260,-0.0523875,0.0149875,-0.062975
1679933806330,1113794683800414,-0.05335,0.0119624995,-0.05995
1679933806333,1113794686302337,-0.0523875,0.014025,-0.0620125
1679933806334,1113794688804491,-0.0523875,0.0180125,-0.0669625
1679933806336,1113794691306645,-0.0493625,0.025024999,-0.0620125
1679933806340,1113794693808784,-0.05335,0.0290125,-0.0589875
1679933806341,1113794696311168,-0.0543125,0.0229625,-0.05995
1679933806344,1113794698813322,-0.0554125,0.02805,-0.0589875
1679933806349,1113794701315510,-0.05335,0.031075,-0.0578875
1679933806350,1113794703817664,-0.0543125,0.0320375,-0.0578875
1679933806351,1113794706319587,-0.0543125,0.0339625,-0.056925
1679933806353,1113794708821971,-0.050325,0.036025,-0.0609125
1679933806358,1113794711324134,-0.0523875,0.0350625,-0.0620125
1679933806360,1113794713826288,-0.05335,0.039049998,-0.0589875
1679933806362,1113794716328442,-0.0554125,0.040975,-0.056925
1679933806365,1113794718830365,-0.0603625,0.040975,-0.0578875
1679933806366,1113794721332750,-0.0573375,0.0449625,-0.05995
1679933806370,1113794723834914,-0.0594,0.0430375,-0.05995
1679933806373,1113794726337067,-0.0603625,0.0400125,-0.0589875
1679933806375,1113794728838990,-0.0594,0.0380875,-0.05995
1679933806377,1113794731341144,-0.0603625,0.0400125,-0.0609125
1679933806379,1113794733843298,-0.0603625,0.044,-0.0578875
1679933806382,1113794736345447,-0.0583,0.0430375,-0.056925
1679933806384,1113794738847832,-0.050325,0.0400125,-0.0559625
1679933806387,1113794741349985,-0.0473,0.040975,-0.055
1679933806390,1113794743852144,-0.045375,0.040975,-0.055
1679933806391,1113794746354298,-0.045375,0.0369875,-0.0578875
1679933806395,1113794748856221,-0.040425,0.0339625,-0.0578875
1679933806401,1113794751358365,-0.0353375,0.0350625,-0.0578875
1679933806401,1113794753860750,-0.0323125,0.0350625,-0.0589875
1679933806403,1113794756362904,-0.029424999,0.0339625,-0.0620125
1679933806405,1113794758865057,-0.0264,0.0320375,-0.056925
1679933806406,1113794761367211,-0.0253,0.0270875,-0.0589875
1679933806410,1113794763869134,-0.0224125,0.0290125,-0.0589875
1679933806413,1113794766371312,-0.0213125,0.029975,-0.0620125
1679933806415,1113794768873466,-0.0193875,0.02805,-0.0609125
1679933806416,1113794771375851,-0.0193875,0.022,-0.0589875
1679933806420,1113794773878005,-0.0193875,0.0210375,-0.0559625
1679933806422,1113794776379943,-0.02035,0.022,-0.0578875
1679933806424,1113794778882096,-0.0213125,0.020075,-0.056925
1679933806427,1113794781384250,-0.0193875,0.018975,-0.0589875
1679933806430,1113794783886404,-0.02035,0.014025,-0.0589875
1679933806433,1113794786388765,-0.0243375,0.0149875,-0.05995
1679933806435,1113794788890919,-0.0264,0.013062499,-0.0609125
1679933806437,1113794791393073,-0.0264,0.0100375,-0.0589875
1679933806440,1113794793895226,-0.0254375,0.00605,-0.062975
1679933806441,1113794796397149,-0.029424999,0.003025,-0.064899996
1679933806444,1113794798899303,-0.0303875,0.003025,-0.0688875
1679933806446,1113794801401688,-0.0323125,9.625E-4,-0.0719125
1679933806450,1113794803903842,-0.0374,-0.001925,-0.0730125
1679933806452,1113794806406010,-0.039325,-0.00495,-0.0749375
1679933806454,1113794808908163,-0.0444125,-0.007975,-0.0809875
1679933806457,1113794811410087,-0.0484,-0.014025,-0.08195
1679933806460,1113794813912240,-0.0493625,-0.01595,-0.0829125
1679933806461,1113794816414394,-0.0493625,-0.018975,-0.0809875
1679933806464,1113794818916765,-0.0603625,-0.022,-0.0829125
1679933806467,1113794821418919,-0.0633875,-0.0279125,-0.0840125
1679933806472,1113794823920842,-0.0683375,-0.033,-0.08195
1679933806473,1113794826422996,-0.0683375,-0.03795,-0.0759
1679933806475,1113794828925145,-0.0704,-0.044,-0.0730125
1679933806477,1113794831427298,-0.072325,-0.0510125,-0.0759
1679933806480,1113794833929683,-0.0774125,-0.0540375,-0.0719125
1679933806482,1113794836431837,-0.0774125,-0.0589875,-0.066
1679933806484,1113794838934015,-0.0774125,-0.0609125,-0.0589875
1679933806487,1113794841436169,-0.0804375,-0.0609125,-0.0539
1679933806490,1113794843938092,-0.08635,-0.0650375,-0.0499125
1679933806492,1113794846440245,-0.083325,-0.066,-0.044
1679933806494,1113794848942370,-0.0804375,-0.066,-0.0419375
1679933806496,1113794851444755,-0.0793375,-0.0620125,-0.0369875
1679933806499,1113794853946678,-0.07535,-0.0639375,-0.03795
1679933806502,1113794856448832,-0.07535,-0.05995,-0.0290125
1679933806507,1113794858950986,-0.0704,-0.0540375,-0.023924999
1679933806508,1113794861453159,-0.0653125,-0.0499125,-0.0290125
1679933806510,1113794863955312,-0.0584375,-0.0419375,-0.02695
1679933806511,1113794866457697,-0.056375,-0.033,-0.023924999
1679933806515,1113794868959851,-0.056375,-0.025024999,-0.022
1679933806516,1113794871462005,-0.0523875,-0.01595,-0.0248875
1679933806518,1113794873963928,-0.0523875,-0.0119624995,-0.0279125
1679933806522,1113794876466082,-0.0474375,-0.0100375,-0.0290125
1679933806524,1113794878968231,-0.0433125,9.625E-4,-0.033
1679933806526,1113794881470384,-0.04235,0.0119624995,-0.03795
1679933806529,1113794883972769,-0.0413875,0.0210375,-0.0400125
1679933806532,1113794886474923,-0.0374,0.029975,-0.0429
1679933806534,1113794888977077,-0.0334125,0.036025,-0.04895
1679933806536,1113794891478991,-0.03135,0.044,-0.051975
1679933806540,1113794893981145,-0.0273625,0.047025,-0.0539
1679933806543,1113794896483299,-0.023375,0.053075,-0.056925
1679933806548,1113794898985688,-0.02035,0.061049998,-0.0609125
1679933806549,1113794901487611,-0.0144375,0.066,-0.062975
1679933806550,1113794903989765,-0.0133375,0.0699875,-0.066
1679933806552,1113794906491919,-0.0114124995,0.0760375,-0.0699875
1679933806554,1113794908994073,-0.0053625,0.084975,-0.07095
1679933806556,1113794911496222,-4.125E-4,0.087037496,-0.0730125
1679933806562,1113794913998606,6.875E-4,0.0889625,-0.078925
1679933806562,1113794916500760,0.00165,0.0950125,-0.0829125
1679933806563,1113794919002914,0.004675,0.0950125,-0.0859375
1679933806567,1113794921504827,0.0056375,0.095975,-0.0859375
1679933806570,1113794924006981,0.0075625,0.0999625,-0.086899996
1679933806573,1113794926509135,0.0116875,0.0999625,-0.089925
1679933806576,1113794929011289,0.01265,0.0930875,-0.0908875
1679933806577,1113794931513418,0.0116875,0.0889625,-0.0889625
1679933806580,1113794934015572,0.0075625,0.086075,-0.09295
1679933806583,1113794936517726,0.0066,0.080025,-0.0919875
1679933806585,1113794939019880,0.009625,0.07205,-0.0919875
1679933806587,1113794941522015,0.0086624995,0.0650375,-0.09295
1679933806590,1113794944024169,0.0066,0.058025,-0.0908875
1679933806592,1113794946526553,0.0066,0.051975,-0.0919875
1679933806594,1113794949028476,0.0066,0.0490875,-0.088
1679933806596,1113794951530630,0.004675,0.0430375,-0.086899996
1679933806600,1113794954032798,0.0026125,0.0369875,-0.084975
1679933806601,1113794956534952,-4.125E-4,0.0320375,-0.078925
1679933806604,1113794959037106,-0.0034375,0.0229625,-0.0730125
1679933806606,1113794961539260,-0.0053625,0.0160875,-0.0749375
1679933806610,1113794964041649,-0.001375,0.013062499,-0.0699875
1679933806613,1113794966543803,-0.0083875,0.0070125,-0.062975
1679933806615,1113794969045726,-0.00935,0.0,-0.0589875
1679933806616,1113794971547880,-0.012375,-0.0059125,-0.0578875
1679933806621,1113794974050015,-0.0133375,-0.0089375,-0.0539
1679933806623,1113794976552169,-0.0133375,-0.0119624995,-0.0479875
1679933806625,1113794979054323,-0.0144375,-0.014025,-0.044
1679933806627,1113794981556477,-0.0144375,-0.023924999,-0.0389125
1679933806633,1113794984058615,-0.0133375,-0.0210375,-0.0400125
1679933806634,1113794986560769,-0.0103124995,-0.0279125,-0.0400125
1679933806634,1113794989062923,-0.0114124995,-0.033,-0.034925
1679933806637,1113794991565077,-0.012375,-0.0339625,-0.033
1679933806640,1113794994067231,-0.0114124995,-0.0309375,-0.0319
1679933806643,1113794996569371,-0.0103124995,-0.0339625,-0.0319
1679933806644,1113794999071524,-0.0133375,-0.03795,-0.0290125
1679933806648,1113795001573678,-0.0133375,-0.0369875,-0.0279125
1679933806650,1113795004076063,-0.0133375,-0.0369875,-0.0279125
1679933806652,1113795006577986,-0.012375,-0.034925,-0.029975
1679933806654,1113795009080135,-0.0114124995,-0.034925,-0.0290125
1679933806658,1113795011582289,-0.0103124995,-0.0290125,-0.029975
1679933806660,1113795014084443,-0.012375,-0.023924999,-0.0339625
1679933806662,1113795016586520,-0.012375,-0.023924999,-0.0358875
1679933806663,1113795019088697,-0.007425,-0.0199375,-0.03795
1679933806667,1113795021590928,-0.0114124995,-0.011,-0.040975
1679933806670,1113795024093082,-0.00935,-0.003025,-0.0449625
1679933806672,1113795026595236,-0.0083875,0.003025,-0.0479875
1679933806674,1113795029097385,-0.0083875,0.011,-0.04895
1679933806677,1113795031599539,-0.0114124995,0.014025,-0.0510125
1679933806680,1113795034101692,-0.0114124995,0.022,-0.0539
1679933806682,1113795036603846,-0.0114124995,0.033,-0.0578875
1679933806684,1113795039106010,-0.00935,0.039049998,-0.05995
1679933806686,1113795041608164,-0.0083875,0.047025,-0.0589875
1679933806689,1113795044110318,-0.0103124995,0.055,-0.0589875
1679933806692,1113795046612472,-0.00935,0.0620125,-0.0669625
1679933806696,1113795049114544,-0.006325,0.069025,-0.064899996
1679933806698,1113795051616774,-0.0044,0.080025,-0.066
1679933806701,1113795054118928,-0.0034375,0.086075,-0.066
1679933806702,1113795056621082,6.875E-4,0.0889625,-0.066
1679933806704,1113795059123236,0.003575,0.09405,-0.0669625
1679933806706,1113795061625390,0.003575,0.09405,-0.067925
1679933806710,1113795064127467,0.0056375,0.095975,-0.067925
1679933806712,1113795066629621,0.009625,0.099,-0.0669625
1679933806715,1113795069131851,0.0105875,0.099,-0.064899996
1679933806716,1113795071634015,0.013612499,0.1010625,-0.067925
1679933806719,1113795074136169,0.01265,0.1010625,-0.066
1679933806722,1113795076638323,0.013612499,0.0999625,-0.066
1679933806724,1113795079140477,0.0086624995,0.0999625,-0.064899996
1679933806727,1113795081642631,0.0075625,0.099,-0.066
1679933806730,1113795084144708,0.004675,0.095975,-0.064899996
1679933806734,1113795086646938,0.0066,0.09405,-0.05995
1679933806736,1113795089149092,0.003575,0.0950125,-0.066
1679933806737,1113795091651284,6.875E-4,0.0900625,-0.05995
1679933806740,1113795094153361,0.004675,0.088,-0.0589875
1679933806742,1113795096655515,0.0056375,0.086075,-0.0609125
1679933806744,1113795099157669,-0.001375,0.0779625,-0.0609125
1679933806751,1113795101659894,6.875E-4,0.07205,-0.0620125
1679933806752,1113795104162048,0.0026125,0.0680625,-0.0609125
1679933806754,1113795106664202,-4.125E-4,0.0669625,-0.062975
1679933806755,1113795109166356,-0.001375,0.0540375,-0.0609125
1679933806756,1113795111668433,-0.0044,0.0460625,-0.0559625
1679933806760,1113795114170587,-0.0044,0.039049998,-0.056925
1679933806762,1113795116672818,-0.0034375,0.0369875,-0.0589875
1679933806764,1113795119174971,-0.0053625,0.0290125,-0.056925
1679933806767,1113795121677125,-0.0053625,0.0180125,-0.056925
1679933806772,1113795124179265,-0.006325,0.0100375,-0.0559625
1679933806774,1113795126681419,-0.007425,9.625E-4,-0.0539
1679933806779,1113795129182495,-0.006325,-0.0100375,-0.0578875
1679933806779,1113795131683574,-0.00935,-0.0199375,-0.051975
1679933806784,1113795134187884,-0.012375,-0.0279125,-0.0510125
1679933806784,1113795136690038,-0.0144375,-0.0369875,-0.04895
1679933806786,1113795139192192,-0.0133375,-0.045925,-0.044
1679933806787,1113795141694269,-0.012375,-0.056925,-0.0429
1679933806790,1113795144196433,-0.012375,-0.062975,-0.0429
1679933806791,1113795146698587,-0.0154,-0.0650375,-0.044
1679933806794,1113795149200818,-0.018424999,-0.066,-0.0389125
1679933806796,1113795151702971,-0.018424999,-0.073975,-0.0358875
1679933806800,1113795154205139,-0.0193875,-0.0840125,-0.034925
1679933806802,1113795156707293,-0.0213125,-0.088,-0.034925
1679933806804,1113795159209370,-0.0243375,-0.0919875,-0.0319
1679933806808,1113795161711524,-0.023375,-0.0939125,-0.029975
1679933806811,1113795164213678,-0.0224125,-0.0999625,-0.029975
1679933806813,1113795166715909,-0.0213125,-0.1029875,-0.029975
1679933806815,1113795169218062,-0.023375,-0.106975,-0.0279125
1679933806818,1113795171720216,-0.023375,-0.111925,-0.0319
1679933806820,1113795174222370,-0.0243375,-0.1109625,-0.029975
1679933806822,1113795176724510,-0.0254375,-0.1139875,-0.02695
1679933806824,1113795179226587,-0.023375,-0.121,-0.0248875
1679933806826,1113795181728818,-0.0224125,-0.121,-0.02695
1679933806830,1113795184230972,-0.0264,-0.121,-0.0290125
1679933806832,1113795186733120,-0.0254375,-0.128975,-0.0279125
1679933806834,1113795189235197,-0.0254375,-0.1280125,-0.0279125
1679933806837,1113795191737351,-0.0264,-0.12595,-0.02695
1679933806840,1113795194239505,-0.0264,-0.1269125,-0.02695
1679933806842,1113795196741741,-0.0224125,-0.1299375,-0.0279125
1679933806846,1113795199243895,-0.023375,-0.132,-0.02695
1679933806849,1113795201746048,-0.0254375,-0.133925,-0.0248875
1679933806851,1113795204248202,-0.023375,-0.133925,-0.0248875
1679933806853,1113795206750264,-0.023375,-0.135025,-0.0248875
1679933806855,1113795209252418,-0.0224125,-0.1329625,-0.022
1679933806857,1113795211754572,-0.018424999,-0.132,-0.022
1679933806860,1113795214256803,-0.017324999,-0.132,-0.0248875
1679933806861,1113795216758880,-0.0154,-0.1299375,-0.0248875
1679933806864,1113795219261086,-0.0133375,-0.128975,-0.0259875
1679933806866,1113795221763163,-0.017324999,-0.1299375,-0.02695
1679933806870,1113795224265317,-0.017324999,-0.1219625,-0.0290125
1679933806872,1113795226767471,-0.012375,-0.1189375,-0.0290125
1679933806875,1113795229269707,-0.0103124995,-0.117975,-0.029975
1679933806877,1113795231771861,-0.0163625,-0.113025,-0.029975
1679933806880,1113795234274015,-0.012375,-0.106975,-0.0319
1679933806884,1113795236776092,-0.0114124995,-0.098037496,-0.0339625
1679933806887,1113795239278313,-0.012375,-0.0969375,-0.0339625
1679933806888,1113795241780467,-0.0103124995,-0.091025,-0.034925
1679933806890,1113795244282621,-0.007425,-0.087037496,-0.029975
1679933806893,1113795246784775,-0.006325,-0.078925,-0.029975
1679933806894,1113795249286929,-0.007425,-0.067925,-0.029975
1679933806898,1113795251788961,-0.001375,-0.0620125,-0.0259875
1679933806901,1113795254291114,-4.125E-4,-0.05995,-0.0259875
1679933806902,1113795256793345,0.003575,-0.0499125,-0.02695
1679933806904,1113795259295422,0.004675,-0.040975,-0.0229625
1679933806906,1113795261797547,0.003575,-0.034925,-0.0199375
1679933806912,1113795264299701,0.004675,-0.0320375,-0.0180125
1679933806913,1113795266801855,0.004675,-0.0199375,-0.0169125
1679933806916,1113795269304009,0.0066,-0.0089375,-0.0119624995
1679933806917,1113795271806254,0.0086624995,-0.0059125,-0.011
1679933806921,1113795274308408,0.0066,0.0039875,-0.011
1679933806925,1113795276810562,0.0066,0.011,-0.0089375
1679933806926,1113795279545024,0.0105875,0.0160875,-0.0089375
1679933806932,1113795281818196,0.01265,0.0210375,-0.0070125
1679933806934,1113795284316966,0.01265,0.0240625,-0.0089375
1679933806935,1113795286819120,0.0075625,0.031075,-0.00495
1679933806937,1113795289321350,0.0105875,0.0339625,-0.007975
1679933806938,1113795291823504,0.0075625,0.0350625,-0.0070125
1679933806941,1113795294325687,0.0075625,0.040975,-0.0089375
1679933806942,1113795296827841,0.0086624995,0.044,-0.0119624995
1679933806945,1113795299329918,0.0056375,0.0449625,-0.0119624995
1679933806947,1113795301832072,0.0056375,0.0449625,-0.011
1679933806950,1113795304334302,6.875E-4,0.051975,-0.0169125
1679933806952,1113795306836456,6.875E-4,0.0559625,-0.0149875
1679933806954,1113795309338533,0.00165,0.0559625,-0.01595
1679933806958,1113795311840687,-0.0034375,0.0570625,-0.0199375
1679933806961,1113795314342865,-4.125E-4,0.061049998,-0.022
1679933806962,1113795316845019,0.00165,0.064075,-0.0199375
1679933806965,1113795319347250,0.00165,0.0600875,-0.0229625
1679933806967,1113795321849403,-4.125E-4,0.0600875,-0.0248875
1679933806970,1113795324351557,0.0026125,0.0650375,-0.0290125
1679933806973,1113795326853624,0.0026125,0.0669625,-0.0279125
1679933806975,1113795329355778,6.875E-4,0.0680625,-0.0319
1679933806977,1113795331857932,-4.125E-4,0.0669625,-0.0319
1679933806980,1113795334360086,0.0056375,0.0650375,-0.0319
1679933806982,1113795336862317,0.00165,0.0600875,-0.029975
1679933806984,1113795339364470,0.0056375,0.0559625,-0.029975
1679933806986,1113795341866547,0.004675,0.050049998,-0.029975
1679933806990,1113795344368701,0.0075625,0.0540375,-0.0319
1679933806992,1113795346870855,0.0116875,0.051975,-0.029975
1679933806996,1113795349373024,0.0105875,0.047025,-0.0319
1679933806997,1113795351875255,0.01265,0.0460625,-0.029975
1679933807000,1113795354377408,0.01265,0.044,-0.029975
1679933807002,1113795356879485,0.01265,0.040975,-0.0290125
1679933807004,1113795359381639,0.0166375,0.040975,-0.0290125
1679933807006,1113795361883773,0.020624999,0.0369875,-0.0290125
1679933807010,1113795364385927,0.0185625,0.033,-0.0290125
1679933807013,1113795366888081,0.0196625,0.0320375,-0.029975
1679933807015,1113795369390312,0.020624999,0.0290125,-0.029975
1679933807017,1113795371892451,0.0166375,0.0290125,-0.0319
1679933807020,1113795374394528,0.0196625,0.0270875,-0.0319
1679933807022,1113795376896682,0.0185625,0.0290125,-0.0319
1679933807024,1113795379398836,0.020624999,0.029975,-0.034925
1679933807027,1113795381900980,0.020624999,0.02805,-0.034925
1679933807030,1113795384403134,0.0196625,0.0290125,-0.0358875
1679933807034,1113795386905288,0.020624999,0.02805,-0.03795
1679933807035,1113795389407441,0.020624999,0.025024999,-0.0389125
1679933807037,1113795391909624,0.0185625,0.0229625,-0.044
1679933807041,1113795394411778,0.0166375,0.0240625,-0.044
1679933807042,1113795396913932,0.0166375,0.0240625,-0.044
1679933807045,1113795399416086,0.015675,0.0210375,-0.04895
1679933807047,1113795401918317,0.0166375,0.0229625,-0.0499125
1679933807051,1113795404420380,0.0166375,0.0160875,-0.0510125
1679933807053,1113795406922533,0.015675,0.0149875,-0.051975
1679933807054,1113795409424687,0.01265,0.0149875,-0.0499125
1679933807057,1113795411926841,0.015675,0.0050875,-0.0529375
1679933807060,1113795414429004,0.0185625,0.0039875,-0.04895
1679933807062,1113795416931158,0.0185625,0.0039875,-0.0510125
1679933807064,1113795419433312,0.013612499,-9.625E-4,-0.0479875
1679933807068,1113795421935485,0.0105875,-0.00495,-0.045925
1679933807072,1113795424437638,0.009625,-0.007975,-0.0429
1679933807074,1113795426939792,0.009625,-0.0149875,-0.0429
1679933807075,1113795429441946,0.0066,-0.0169125,-0.0419375
1679933807078,1113795431944129,0.0066,-0.01595,-0.0400125
1679933807082,1113795434446283,0.0026125,-0.018975,-0.0389125
1679933807083,1113795436948437,0.003575,-0.023924999,-0.03795
1679933807085,1113795439450591,0.003575,-0.02695,-0.0369875
1679933807087,1113795441952744,-4.125E-4,-0.0320375,-0.0369875
1679933807090,1113795444454908,-0.0044,-0.0320375,-0.034925
1679933807093,1113795446957062,-0.0044,-0.033,-0.034925
1679933807094,1113795449459293,-0.0034375,-0.034925,-0.0369875
1679933807100,1113795451961365,-0.0044,-0.0290125,-0.0389125
1679933807102,1113795454463519,-0.0053625,-0.0320375,-0.0400125
1679933807103,1113795456965672,-0.0053625,-0.0320375,-0.0369875
1679933807105,1113795459467826,-0.00935,-0.0320375,-0.03795
1679933807108,1113795461969980,-0.0083875,-0.0339625,-0.03795
1679933807111,1113795464472115,-0.0133375,-0.033,-0.0369875
1679933807113,1113795466974269,-0.012375,-0.0309375,-0.03795
1679933807115,1113795469476423,-0.0103124995,-0.0320375,-0.0369875
1679933807117,1113795471978577,-0.0103124995,-0.033,-0.0339625
1679933807120,1113795474480706,-0.007425,-0.033,-0.033
1679933807123,1113795476982860,-0.007425,-0.0290125,-0.0319
1679933807125,1113795479484783,-0.0083875,-0.02695,-0.0319
1679933807128,1113795481987168,-0.00935,-0.02695,-0.0319
1679933807139,1113795484489322,-0.0083875,-0.023924999,-0.033
1679933807139,1113795486991442,-0.007425,-0.0199375,-0.02695
1679933807140,1113795489493596,-0.00935,-0.0169125,-0.02695
1679933807140,1113795491995749,-0.0103124995,-0.014025,-0.02695
1679933807140,1113795494497903,-0.006325,-0.012925,-0.0279125
1679933807141,1113795497000134,-0.0034375,-0.0070125,-0.0279125
1679933807145,1113795499502230,-0.0044,-0.00495,-0.029975
1679933807148,1113795502004384,-0.0034375,0.0,-0.033
1679933807150,1113795504506538,-0.0053625,0.0070125,-0.0290125
1679933807152,1113795507008692,0.0026125,0.0119624995,-0.029975
1679933807154,1113795509510845,0.003575,0.0160875,-0.029975
1679933807157,1113795512012999,0.004675,0.0149875,-0.029975
1679933807160,1113795514515153,0.0075625,0.0210375,-0.033
1679933807162,1113795517017307,0.0086624995,0.0240625,-0.0339625
1679933807165,1113795519519230,0.01265,0.0270875,-0.0339625
1679933807167,1113795522021370,0.015675,0.033,-0.0358875
1679933807171,1113795524523754,0.0176,0.0339625,-0.0358875
1679933807173,1113795527025908,0.020624999,0.0350625,-0.0369875
1679933807177,1113795529528042,0.020624999,0.036025,-0.03795
1679933807179,1113795532030196,0.0246125,0.036025,-0.0369875
1679933807181,1113795534532350,0.026675,0.0400125,-0.034925
1679933807184,1113795537034273,0.0246125,0.0449625,-0.034925
1679933807186,1113795539536658,0.02365,0.0400125,-0.03795
1679933807187,1113795542038821,0.0246125,0.0369875,-0.0400125
1679933807191,1113795544540975,0.0276375,0.044,-0.03795
1679933807192,1113795547042898,0.0286,0.040975,-0.0339625
1679933807194,1113795549545052,0.0286,0.039049998,-0.0358875
1679933807197,1113795552047206,0.0286,0.039049998,-0.034925
1679933807200,1113795554549620,0.0295625,0.0350625,-0.0319
1679933807202,1113795557051774,0.0336875,0.029975,-0.0319
1679933807207,1113795559553927,0.0356125,0.0290125,-0.0279125
1679933807207,1113795562056081,0.034649998,0.02805,-0.0319
1679933807210,1113795564558235,0.0325875,0.0270875,-0.029975
1679933807213,1113795567060158,0.031625,0.022,-0.0290125
1679933807215,1113795569562312,0.031625,0.0160875,-0.0279125
1679933807217,1113795572064697,0.031625,0.0100375,-0.0279125
1679933807221,1113795574566870,0.0325875,0.0100375,-0.02695
1679933807223,1113795577069023,0.0325875,0.011,-0.029975
1679933807225,1113795579571177,0.0325875,0.003025,-0.0339625
1679933807227,1113795582073331,0.0295625,-9.625E-4,-0.033
1679933807230,1113795584575254,0.031625,-0.0059125,-0.033
1679933807232,1113795587077634,0.0286,-0.011,-0.033
1679933807234,1113795589579788,0.0276375,-0.012925,-0.0339625
1679933807237,1113795592081942,0.0295625,-0.01595,-0.0319
1679933807240,1113795594583865,0.0295625,-0.0180125,-0.0319
1679933807242,1113795597086023,0.026675,-0.014025,-0.029975
1679933807244,1113795599588177,0.025575,-0.0180125,-0.0290125
1679933807247,1113795602090331,0.0196625,-0.0210375,-0.0279125
1679933807250,1113795604592716,0.0226875,-0.0210375,-0.0229625
1679933807253,1113795607094856,0.0246125,-0.025024999,-0.0248875
1679933807254,1113795609597009,0.02365,-0.0210375,-0.023924999
1679933807258,1113795612099163,0.02365,-0.018975,-0.0180125
1679933807261,1113795614601086,0.0246125,-0.0210375,-0.0180125
1679933807263,1113795617103249,0.0226875,-0.0199375,-0.0199375
1679933807265,1113795619605634,0.020624999,-0.0169125,-0.0199375
1679933807267,1113795622107788,0.020624999,-0.01595,-0.0180125
1679933807271,1113795624609942,0.0246125,-0.0149875,-0.0169125
1679933807273,1113795627111865,0.0215875,-0.0119624995,-0.0199375
1679933807274,1113795629614235,0.0246125,-0.0119624995,-0.0199375
1679933807277,1113795632116158,0.0276375,-0.0100375,-0.0169125
1679933807280,1113795634618543,0.025575,-0.0039875,-0.0199375
1679933807281,1113795637120697,0.0226875,-0.003025,-0.0209
1679933807285,1113795639622856,0.0226875,-0.003025,-0.0229625
1679933807287,1113795642124779,0.025575,-0.001925,-0.0229625
1679933807290,1113795644626933,0.0246125,0.0,-0.022
1679933807293,1113795647129086,0.02365,0.0050875,-0.0209
1679933807296,1113795649631235,0.025575,0.0039875,-0.0209
1679933807298,1113795652133620,0.0246125,0.0039875,-0.0259875
1679933807300,1113795654635774,0.0246125,0.0070125,-0.02695
1679933807302,1113795657137928,0.0276375,0.0100375,-0.023924999
1679933807304,1113795659640082,0.02365,0.0119624995,-0.0279125
1679933807307,1113795662142009,0.0196625,0.007975,-0.0290125
1679933807309,1113795664644162,0.0196625,0.00605,-0.0290125
1679933807311,1113795667146547,0.0226875,0.007975,-0.0319
1679933807314,1113795669648701,0.026675,0.0050875,-0.033
1679933807317,1113795672150600,0.02365,0.007975,-0.0339625
1679933807321,1113795674652754,0.020624999,0.00605,-0.034925
1679933807323,1113795677155138,0.0185625,9.625E-4,-0.0358875
1679933807325,1113795679657062,0.020624999,-0.003025,-0.0389125
1679933807327,1113795682159239,0.0176,-0.007975,-0.0400125
1679933807330,1113795684661624,0.0166375,-0.012925,-0.03795
1679933807334,1113795687163778,0.0176,-0.01595,-0.034925
1679933807336,1113795689665932,0.0116875,-0.0259875,-0.0369875
1679933807337,1113795692167884,0.009625,-0.025024999,-0.0369875
1679933807340,1113795694670038,0.009625,-0.0290125,-0.0339625
1679933807342,1113795697172192,0.0086624995,-0.0339625,-0.034925
1679933807344,1113795699674576,0.0075625,-0.03795,-0.0339625
1679933807347,1113795702176730,0.0066,-0.044,-0.034925
1679933807350,1113795704678918,0.003575,-0.0510125,-0.0319
1679933807351,1113795707181072,0.00165,-0.0499125,-0.0259875
1679933807354,1113795709682995,6.875E-4,-0.0499125,-0.0248875
1679933807357,1113795712185149,0.0026125,-0.0540375,-0.023924999
1679933807360,1113795714687533,-0.001375,-0.058025,-0.0199375
1679933807362,1113795717189687,-0.0034375,-0.05995,-0.0209
1679933807364,1113795719691610,-4.125E-4,-0.056925,-0.0199375
1679933807367,1113795722193764,-0.0044,-0.0589875,-0.01595
1679933807372,1113795724695904,-0.0053625,-0.05995,-0.012925
1679933807374,1113795727198058,-0.0053625,-0.056925,-0.0149875
1679933807376,1113795729700212,-0.006325,-0.056925,-0.01595
1679933807378,1113795732267289,-0.0053625,-0.0540375,-0.0099
1679933807381,1113795734704769,-0.0044,-0.0499125,-0.012925
1679933807383,1113795737206923,-0.0044,-0.0479875,-0.011
1679933807384,1113795739708846,-0.006325,-0.0430375,-0.0119624995
1679933807386,1113795742211000,-0.007425,-0.044,-0.011
1679933807390,1113795744713139,-0.0083875,-0.0309375,-0.0149875
1679933807392,1113795747215523,-0.0053625,-0.0290125,-0.012925
1679933807394,1113795749717677,-0.006325,-0.02695,-0.0119624995
1679933807397,1113795752219600,-0.006325,-0.0169125,-0.0149875
1679933807400,1113795754721764,-0.007425,-0.0100375,-0.01595
1679933807402,1113795757223918,-0.0053625,-0.0059125,-0.01595
1679933807405,1113795759726072,-0.0053625,-0.003025,-0.0180125
1679933807409,1113795762228226,-0.0053625,0.00605,-0.0180125
1679933807411,1113795764730625,-0.0053625,0.011,-0.018975
1679933807414,1113795767232548,-0.006325,0.0160875,-0.0199375
1679933807415,1113795769734702,-0.0044,0.0240625,-0.018975
1679933807417,1113795772236856,-0.0044,0.0290125,-0.018975
1679933807419,1113795774739241,-0.006325,0.033,-0.0199375
1679933807422,1113795777241381,-0.001375,0.031075,-0.018975
1679933807424,1113795779743534,-0.0044,0.036025,-0.022
1679933807426,1113795782245457,-0.0053625,0.044,-0.0229625
1679933807430,1113795784747611,-0.001375,0.0460625,-0.0229625
1679933807431,1113795787249755,-0.0053625,0.050049998,-0.0259875
1679933807434,1113795789752140,-0.006325,0.051975,-0.02695
1679933807437,1113795792254294,-0.007425,0.0570625,-0.0279125
1679933807440,1113795794756448,-0.0083875,0.061049998,-0.0248875
1679933807442,1113795797258395,-0.01045,0.0620125,-0.02695
1679933807446,1113795799760548,-0.012375,0.066,-0.0279125
1679933807447,1113795802262702,-0.0083875,0.069025,-0.02695
1679933807450,1113795804764856,-0.00935,0.07205,-0.02695
1679933807453,1113795807267246,-0.0114124995,0.07205,-0.0259875
1679933807456,1113795809769169,-0.01045,0.069025,-0.02695
1679933807457,1113795812271323,-0.0114124995,0.0680625,-0.02695
1679933807460,1113795814773477,-0.0144375,0.0699875,-0.02695
1679933807463,1113795817275630,-0.0133375,0.0760375,-0.023924999
1679933807465,1113795819777774,-0.0133375,0.069025,-0.023924999
1679933807467,1113795822280159,-0.0163625,0.066,-0.023924999
1679933807470,1113795824782313,-0.017324999,0.0650375,-0.0209
1679933807473,1113795827284467,-0.0163625,0.061049998,-0.022
1679933807475,1113795829786419,-0.018424999,0.0540375,-0.0209
1679933807478,1113795832288573,-0.0224125,0.053075,-0.0180125
1679933807481,1113795834790726,-0.0243375,0.0510125,-0.0180125
1679933807484,1113795837293111,-0.0254375,0.0449625,-0.01595
1679933807486,1113795839795039,-0.028324999,0.0369875,-0.0149875
1679933807487,1113795842297193,-0.0273625,0.0339625,-0.0149875
1679933807490,1113795844799347,-0.028324999,0.0229625,-0.0119624995
1679933807493,1113795847301501,-0.029424999,0.0210375,-0.0089375
1679933807494,1113795849803655,-0.0303875,0.01705,-0.0089375
1679933807497,1113795852305803,-0.0303875,0.011,-0.011
1679933807500,1113795854808188,-0.0334125,0.0050875,-0.0089375
1679933807502,1113795857310111,-0.0353375,0.003025,-0.0070125
1679933807505,1113795859812265,-0.0364375,0.0039875,-0.0099
1679933807507,1113795862314399,-0.039325,-0.0059125,-0.007975
1679933807510,1113795864816553,-0.039325,-0.0089375,-0.0089375
1679933807512,1113795867318706,-0.040425,-0.012925,-0.00495
1679933807514,1113795869821091,-0.040425,-0.018975,-0.0070125
1679933807518,1113795872323236,-0.0413875,-0.018975,-0.0119624995
1679933807522,1113795874825390,-0.0413875,-0.0199375,-0.0099
1679933807525,1113795877327313,-0.039325,-0.0199375,-0.0149875
1679933807527,1113795879829467,-0.040425,-0.0210375,-0.012925
1679933807528,1113795882331621,-0.0383625,-0.0169125,-0.01595
1679933807530,1113795884833774,-0.0364375,-0.018975,-0.0180125
1679933807533,1113795887335928,-0.0383625,-0.023924999,-0.0169125
1679933807535,1113795889838082,-0.03135,-0.018975,-0.0180125
1679933807536,1113795892340236,-0.03135,-0.012925,-0.0180125
1679933807539,1113795894842375,-0.0334125,-0.0100375,-0.022
1679933807542,1113795897344529,-0.0303875,-0.00495,-0.0229625
1679933807545,1113795899846683,-0.0264,-0.0100375,-0.0209
1679933807547,1113795902349067,-0.029424999,-9.625E-4,-0.023924999
1679933807550,1113795904850990,-0.029424999,0.003025,-0.023924999
1679933807552,1113795907353144,-0.0264,0.0050875,-0.0229625
1679933807554,1113795909855298,-0.0243375,0.00605,-0.022
1679933807561,1113795912357443,-0.02035,0.011,-0.022
1679933807563,1113795914859597,-0.017324999,0.0160875,-0.0209
1679933807564,1113795917361674,-0.0154,0.020075,-0.0229625
1679933807565,1113795919863904,-0.0133375,0.018975,-0.0209
1679933807567,1113795922366289,-0.0083875,0.022,-0.0229625
1679933807571,1113795924868197,-0.0044,0.029975,-0.022
1679933807574,1113795927370351,-0.0044,0.031075,-0.0209
1679933807575,1113795929872505,0.0026125,0.031075,-0.0229625
1679933807578,1113795932374659,5.5E-4,0.036025,-0.0199375
1679933807582,1113795934876807,5.5E-4,0.0369875,-0.0209
1679933807584,1113795937378961,0.00165,0.036025,-0.018975
1679933807586,1113795939881115,0.0056375,0.039049998,-0.0199375
1679933807587,1113795942383269,0.0056375,0.0400125,-0.0209
1679933807590,1113795944885423,0.0066,0.0380875,-0.023924999
1679933807593,1113795947387573,0.0086624995,0.040975,-0.022
1679933807597,1113795949889957,0.0056375,0.0430375,-0.018975
1679933807599,1113795952392111,0.0056375,0.0400125,-0.0209
1679933807602,1113795954894034,0.0075625,0.0339625,-0.0209
1679933807603,1113795957396168,0.009625,0.0350625,-0.018975
1679933807605,1113795959898322,0.0086624995,0.0339625,-0.022
1679933807607,1113795962400399,0.0105875,0.0320375,-0.022
1679933807610,1113795964902553,0.0105875,0.0320375,-0.018975
1679933807613,1113795967404736,0.01155,0.018975,-0.018975
1679933807617,1113795969906889,0.009625,0.0180125,-0.0169125
1679933807619,1113795972409043,0.009625,0.0160875,-0.0169125
1679933807621,1113795974911197,0.0105875,0.011,-0.01595
1679933807622,1113795977413351,0.0105875,9.625E-4,-0.0180125
1679933807625,1113795979915481,0.0105875,-0.003025,-0.018975
1679933807628,1113795982417635,0.0075625,-0.0059125,-0.01595
1679933807632,1113795984919789,0.009625,-0.0070125,-0.0169125
1679933807634,1113795987421942,0.0105875,-0.014025,-0.01595
1679933807636,1113795989924111,0.01155,-0.0199375,-0.0169125
1679933807637,1113795992426265,0.01155,-0.023924999,-0.01595
1679933807641,1113795994928419,0.0105875,-0.029975,-0.0180125
1679933807642,1113795997430573,0.01265,-0.03795,-0.0209
1679933807645,1113795999932957,0.013612499,-0.0430375,-0.0209
1679933807647,1113796002434836,0.01265,-0.044,-0.0209
1679933807651,1113796004936990,0.013612499,-0.04895,-0.0199375
1679933807653,1113796007439144,0.01265,-0.051975,-0.0199375
1679933807655,1113796009941298,0.013612499,-0.058025,-0.022
1679933807658,1113796012443380,0.01155,-0.05995,-0.0229625
1679933807660,1113796014945611,0.01155,-0.066,-0.023924999
1679933807662,1113796017447765,0.01265,-0.0639375,-0.0209
1679933807665,1113796019949918,0.01155,-0.0669625,-0.0259875
1679933807668,1113796022452077,0.01265,-0.0699875,-0.0229625
1679933807672,1113796024954231,0.013612499,-0.069025,-0.0209
1679933807674,1113796027456385,0.0166375,-0.0749375,-0.022
1679933807678,1113796029958539,0.0185625,-0.078925,-0.022
1679933807680,1113796032460683,0.0176,-0.073975,-0.0229625
1679933807682,1113796034962837,0.0166375,-0.07095,-0.0229625
1679933807684,1113796037464990,0.0196625,-0.0719125,-0.0209
1679933807686,1113796039967067,0.0215875,-0.0699875,-0.023924999
1679933807688,1113796042469298,0.0196625,-0.066,-0.0209
1679933807690,1113796044971433,0.02255,-0.05995,-0.0229625
1679933807693,1113796047473587,0.0215875,-0.0609125,-0.0229625
1679933807695,1113796049975664,0.02255,-0.066,-0.0209
1679933807697,1113796052477818,0.02365,-0.05995,-0.018975
1679933807700,1113796054979957,0.026675,-0.055,-0.0199375
1679933807702,1113796057482188,0.0276375,-0.04895,-0.018975
1679933807705,1113796059984342,0.0286,-0.045925,-0.0169125
1679933807709,1113796062486496,0.0325875,-0.045925,-0.018975
1679933807712,1113796064988674,0.031625,-0.044,-0.018975
1679933807714,1113796067490828,0.0286,-0.03795,-0.01595
1679933807715,1113796069992905,0.034649998,-0.029975,-0.01595
1679933807718,1113796072495135,0.034649998,-0.025024999,-0.0149875
1679933807720,1113796074997289,0.0325875,-0.02695,-0.0119624995
1679933807723,1113796077499423,0.034649998,-0.022,-0.0089375
1679933807727,1113796080001577,0.034649998,-0.018975,-0.0059125
1679933807728,1113796082503731,0.031625,-0.01595,-0.00495
1679933807732,1113796085005832,0.0295625,-0.012925,-0.0059125
1679933807733,1113796087507986,0.0276375,-0.012925,-0.0059125
1679933807735,1113796090010216,0.031625,-0.014025,-0.0070125
1679933807739,1113796092512370,0.03355,-0.011,-0.011
1679933807740,1113796095014524,0.03355,-0.0039875,-0.0099
1679933807744,1113796097516678,0.031625,-0.0059125,-0.0180125
1679933807749,1113796100018755,0.0295625,-0.0070125,-0.0149875
1679933807750,1113796102520909,0.0356125,-0.0039875,-0.0199375
1679933807751,1113796105023124,0.037675,-0.003025,-0.0209
1679933807754,1113796107525278,0.042625,-0.0039875,-0.0229625
1679933807762,1113796110027432,0.048675,-0.0059125,-0.0229625
1679933807762,1113796112529586,0.0515625,-0.007975,-0.0259875
1679933807762,1113796115031740,0.0545875,-0.0089375,-0.02695
1679933807762,1113796117533841,0.064625,-0.007975,-0.0290125
1679933807765,1113796120035995,0.069575,-0.0119624995,-0.033
1679933807767,1113796122538225,0.070675,-0.011,-0.034925
1679933807770,1113796125040302,0.0765875,-0.011,-0.0339625
1679933807773,1113796127542533,0.081675,-0.0089375,-0.034925
1679933807775,1113796130044610,0.0856625,-0.0070125,-0.0358875
1679933807777,1113796132546764,0.08965,-0.0059125,-0.0369875
1679933807780,1113796135048918,0.091575,-0.0059125,-0.0358875
1679933807784,1113796137551167,0.091575,-0.0059125,-0.0339625
1679933807786,1113796140053321,0.093637496,-0.003025,-0.0290125
1679933807787,1113796142555475,0.093637496,-0.003025,-0.02695
1679933807791,1113796145057552,0.0955625,-0.0059125,-0.0248875
1679933807793,1113796147559706,0.0946,-0.003025,-0.0209
1679933807798,1113796150061860,0.092675,0.0020625,-0.0180125
1679933807798,1113796152564091,0.0946,0.0020625,-0.0149875
1679933807801,1113796155066244,0.0946,0.0020625,-0.007975
1679933807804,1113796157568398,0.08855,0.0039875,-0.0039875
1679933807805,1113796160070552,0.08855,0.003025,-9.625E-4
1679933807809,1113796162572730,0.0906125,0.003025,0.0020625
1679933807813,1113796165074807,0.0836,0.0020625,0.0070125
1679933807813,1113796167576961,0.0836,9.625E-4,0.0121
1679933807815,1113796170079202,0.0796125,0.0020625,0.013062499
1679933807818,1113796172581355,0.0765875,-0.0039875,0.01705
1679933807822,1113796175083432,0.0726,-0.0059125,0.020075
1679933807823,1113796177585586,0.069575,-0.0039875,0.025024999
1679933807825,1113796180087740,0.064625,-0.007975,0.0240625
1679933807827,1113796182589894,0.0616,-0.0089375,0.0240625
1679933807830,1113796185092125,0.0606375,-0.014025,0.0240625
1679933807832,1113796187594279,0.056649998,-0.018975,0.0231
1679933807835,1113796190096432,0.0526625,-0.023924999,0.0231
1679933807837,1113796192598499,0.048675,-0.02695,0.0210375
1679933807840,1113796195100653,0.045649998,-0.0309375,0.0191125
1679933807842,1113796197602807,0.045649998,-0.034925,0.0160875
1679933807844,1113796200104961,0.0435875,-0.0389125,0.014025
1679933807848,1113796202607192,0.0416625,-0.0510125,0.009075
1679933807850,1113796205109346,0.036575,-0.0540375,0.0070125
1679933807853,1113796207611499,0.0276375,-0.0639375,0.0050875
1679933807854,1113796210113576,0.02255,-0.069025,0.0011
1679933807859,1113796212615759,0.0196625,-0.0749375,-9.625E-4
1679933807861,1113796215117913,0.015675,-0.0859375,-0.0028875
1679933807863,1113796217620144,0.0105875,-0.087037496,-0.00495
1679933807865,1113796220122298,0.009625,-0.0939125,-0.007975
1679933807867,1113796222624389,0.0056375,-0.100925,-0.007975
1679933807870,1113796225126542,0.0056375,-0.100925,-0.007975
1679933807873,1113796227628696,0.0075625,-0.1029875,-0.0119624995
1679933807875,1113796230130850,0.0075625,-0.102025,-0.0149875
1679933807877,1113796232632995,0.0066,-0.0999625,-0.0180125
1679933807880,1113796235135226,0.0056375,-0.099,-0.022
1679933807882,1113796237637380,0.0056375,-0.0939125,-0.023924999
1679933807885,1113796240139457,0.0075625,-0.09295,-0.023924999
1679933807887,1113796242641629,0.0075625,-0.089925,-0.0248875
1679933807890,1113796245143783,0.0075625,-0.078925,-0.0279125
1679933807893,1113796247645937,0.0086624995,-0.07095,-0.0290125
1679933807896,1113796250148091,0.0066,-0.05995,-0.0319
1679933807898,1113796252650235,0.0066,-0.055,-0.0339625
1679933807901,1113796255152389,0.0086624995,-0.04895,-0.0319
1679933807903,1113796257654542,0.0075625,-0.034925,-0.0339625
1679933807905,1113796260156696,0.009625,-0.029975,-0.0358875
1679933807907,1113796262658850,0.01155,-0.0180125,-0.034925
1679933807910,1113796265161095,0.01155,-0.0100375,-0.0369875
1679933807912,1113796267663249,0.01155,0.0,-0.0339625
1679933807915,1113796270165326,0.01265,0.0070125,-0.0358875
1679933807918,1113796272667480,0.015675,0.018975,-0.0369875
1679933807921,1113796275169644,0.015675,0.033,-0.034925
1679933807923,1113796277671798,0.0176,0.039049998,-0.0358875
1679933807925,1113796280173952,0.0176,0.0449625,-0.034925
1679933807927,1113796282676183,0.0185625,0.0600875,-0.034925
1679933807931,1113796285178332,0.0196625,0.0680625,-0.0358875
1679933807935,1113796287680409,0.0215875,0.0710875,-0.0358875
1679933807937,1113796290182563,0.0215875,0.0820875,-0.0339625
1679933807938,1113796292684716,0.02255,0.086075,-0.0290125
1679933807943,1113796295186865,0.02255,0.088,-0.0248875
1679933807944,1113796297689019,0.020624999,0.0950125,-0.023924999
1679933807945,1113796300191173,0.02255,0.10505,-0.0209
1679933807948,1113796302693327,0.0246125,0.102025,-0.022
1679933807950,1113796305195481,0.0246125,0.106975,-0.018975
1679933807952,1113796307697734,0.0246125,0.1120625,-0.0149875
1679933807955,1113796310199888,0.025575,0.1170125,-0.012925
1679933807957,1113796312701965,0.0246125,0.119075,-0.0169125
1679933807960,1113796315204119,0.0276375,0.121,-0.0180125
1679933807962,1113796317706288,0.025575,0.1230625,-0.018975
1679933807965,1113796320208442,0.0246125,0.1230625,-0.0199375
1679933807967,1113796322710596,0.025575,0.1230625,-0.022
1679933807972,1113796325212826,0.0246125,0.117975,-0.0209
1679933807975,1113796327714970,0.020624999,0.11605,-0.023924999
1679933807977,1113796330217124,0.0196625,0.1170125,-0.0259875
1679933807982,1113796332719201,0.020624999,0.1139875,-0.029975
1679933807983,1113796335221355,0.020624999,0.106975,-0.0319
1679933807984,1113796337723538,0.020624999,0.1029875,-0.03795
1679933807985,1113796340225769,0.0176,0.1010625,-0.0400125
1679933807987,1113796342727845,0.0185625,0.0950125,-0.044
1679933807991,1113796345229999,0.0185625,0.091025,-0.0499125
1679933807993,1113796347732153,0.0185625,0.0840125,-0.0510125
1679933807995,1113796350234307,0.0196625,0.0779625,-0.0539
1679933807999,1113796352736461,0.015675,0.07205,-0.0559625
1679933808001,1113796355238615,0.015675,0.064075,-0.056925
1679933808002,1113796357740845,0.0176,0.0559625,-0.0578875
1679933808005,1113796360242922,0.0166375,0.050049998,-0.0589875
1679933808009,1113796362745076,0.0176,0.040975,-0.0578875
1679933808012,1113796365247230,0.013612499,0.036025,-0.0609125
1679933808014,1113796367749384,0.0105875,0.0270875,-0.0609125
1679933808016,1113796370251543,0.0105875,0.01705,-0.0620125
1679933808018,1113796372753774,0.0086624995,0.01705,-0.0620125
1679933808021,1113796375255851,0.0056375,0.011,-0.064899996
1679933808023,1113796377758004,0.003575,0.003025,-0.062975
1679933808025,1113796380260158,0.0026125,-0.003025,-0.064899996
1679933808027,1113796382762302,0.003575,-0.0059125,-0.0620125
1679933808030,1113796385264456,-4.125E-4,-0.0119624995,-0.0609125
1679933808033,1113796387766687,-0.0053625,-0.022,-0.0609125
1679933808035,1113796390268764,-0.0044,-0.025024999,-0.0589875
1679933808038,1113796392770927,-0.006325,-0.0279125,-0.064899996
1679933808041,1113796395273081,-0.0083875,-0.036025,-0.067925
1679933808042,1113796397775235,-0.0083875,-0.0389125,-0.062975
1679933808047,1113796400277389,-0.01045,-0.0419375,-0.064899996
1679933808050,1113796402779528,-0.0144375,-0.0430375,-0.062975
1679933808052,1113796405281759,-0.017324999,-0.0479875,-0.05995
1679933808054,1113796407783836,-0.018424999,-0.055,-0.0620125
1679933808055,1113796410285989,-0.02035,-0.056925,-0.0589875
1679933808058,1113796412788143,-0.023375,-0.055,-0.0559625
1679933808061,1113796415290287,-0.0254375,-0.0650375,-0.0559625
1679933808063,1113796417792210,-0.0254375,-0.067925,-0.0529375
1679933808065,1113796420294595,-0.0243375,-0.0669625,-0.0539
1679933808068,1113796422796749,-0.032449998,-0.069025,-0.051975
1679933808071,1113796425298894,-0.0303875,-0.069025,-0.0499125
1679933808073,1113796427801047,-0.029424999,-0.069025,-0.04895
1679933808075,1113796430303201,-0.0353375,-0.0699875,-0.0479875
1679933808077,1113796432805355,-0.0374,-0.066,-0.045925
1679933808080,1113796435307518,-0.039325,-0.067925,-0.0429
1679933808084,1113796437809672,-0.0383625,-0.069025,-0.040975
1679933808086,1113796440311826,-0.0364375,-0.066,-0.0429
1679933808088,1113796442813980,-0.039325,-0.0650375,-0.0419375
1679933808091,1113796445316144,-0.04235,-0.066,-0.0419375
1679933808093,1113796447818298,-0.043449998,-0.0650375,-0.0400125
1679933808095,1113796450320452,-0.045375,-0.066,-0.040975
1679933808098,1113796452822606,-0.045375,-0.062975,-0.0369875
1679933808101,1113796455324760,-0.045375,-0.0609125,-0.0389125
1679933808103,1113796457826904,-0.045375,-0.0609125,-0.0389125
1679933808105,1113796460329057,-0.045375,-0.0639375,-0.0389125
1679933808108,1113796462831211,-0.0463375,-0.0589875,-0.0369875
1679933808110,1113796465333134,-0.0493625,-0.055,-0.0358875
1679933808113,1113796467835539,-0.0463375,-0.055,-0.0339625
1679933808115,1113796470337693,-0.050325,-0.0529375,-0.0339625
1679933808118,1113796472839847,-0.050325,-0.04895,-0.034925
1679933808123,1113796475341991,-0.050325,-0.0479875,-0.034925
1679933808127,1113796477844144,-0.050325,-0.0479875,-0.0339625
1679933808129,1113796480346298,-0.0484,-0.0449625,-0.0319
1679933808131,1113796482848452,-0.0523875,-0.0389125,-0.033
1679933808133,1113796485350606,-0.0474375,-0.0339625,-0.033
1679933808135,1113796487852760,-0.0474375,-0.029975,-0.0290125
1679933808136,1113796490354914,-0.045375,-0.0279125,-0.02695
1679933808138,1113796492857068,-0.043449998,-0.022,-0.0279125
1679933808140,1113796495359221,-0.0413875,-0.0180125,-0.029975
1679933808143,1113796497861375,-0.043449998,-0.012925,-0.0279125
1679933808146,1113796500363510,-0.040425,-0.0100375,-0.0290125
1679933808148,1113796502865664,-0.0413875,-0.0100375,-0.0279125
1679933808151,1113796505367818,-0.0413875,-0.011,-0.0248875
1679933808153,1113796507869972,-0.039325,-0.0100375,-0.0248875
1679933808156,1113796510372116,-0.0383625,-0.003025,-0.0259875
1679933808160,1113796512874039,-0.043449998,-0.001925,-0.0229625
1679933808162,1113796515376192,-0.039325,-0.001925,-0.023924999
1679933808165,1113796517878577,-0.040425,0.0039875,-0.023924999
1679933808167,1113796520380726,-0.040425,0.007975,-0.0229625
1679933808168,1113796522882880,-0.0383625,0.00605,-0.01595
1679933808172,1113796525385034,-0.039325,0.0119624995,-0.022
1679933808174,1113796527887188,-0.0364375,0.0119624995,-0.018975
1679933808176,1113796530389341,-0.0364375,0.0149875,-0.0199375
1679933808178,1113796532891495,-0.0374,0.0180125,-0.0199375
1679933808182,1113796535393649,-0.0353375,0.020075,-0.018975
1679933808184,1113796537895803,-0.0364375,0.0229625,-0.022
1679933808185,1113796540397957,-0.0364375,0.0240625,-0.0229625
1679933808188,1113796542900130,-0.0334125,0.02805,-0.0229625
1679933808191,1113796545402053,-0.0353375,0.02805,-0.0259875
1679933808193,1113796547904437,-0.0374,0.031075,-0.0279125
1679933808198,1113796550406591,-0.040425,0.033,-0.0319
1679933808200,1113796552908760,-0.0413875,0.033,-0.0358875
1679933808203,1113796555410914,-0.040425,0.0320375,-0.0369875
1679933808204,1113796557913068,-0.039325,0.0320375,-0.0400125
1679933808206,1113796560414991,-0.04235,0.029975,-0.0400125
1679933808208,1113796562917375,-0.040425,0.031075,-0.0419375
1679933808211,1113796565419519,-0.0413875,0.031075,-0.04895
1679933808215,1113796567921673,-0.045375,0.031075,-0.045925
1679933808218,1113796570423596,-0.0463375,0.0270875,-0.0510125
1679933808220,1113796572925750,-0.0444125,0.0270875,-0.0529375
1679933808223,1113796575428140,-0.043449998,0.0270875,-0.0539
1679933808224,1113796577930294,-0.0474375,0.0229625,-0.0539
1679933808226,1113796580432217,-0.0493625,0.0210375,-0.055
1679933808228,1113796582934601,-0.0493625,0.01705,-0.0539
1679933808231,1113796585436524,-0.0463375,0.01705,-0.0539
1679933808234,1113796587938678,-0.0523875,0.013062499,-0.0529375
1679933808237,1113796590441063,-0.0493625,0.007975,-0.04895
1679933808239,1113796592943217,-0.050325,0.0070125,-0.04895
1679933808241,1113796595445381,-0.050325,0.0020625,-0.0449625
1679933808243,1113796597947534,-0.05335,9.625E-4,-0.0419375
1679933808247,1113796600449457,-0.05335,-0.003025,-0.0358875
1679933808249,1113796602951611,-0.05335,-0.0100375,-0.0319
1679933808251,1113796605453750,-0.0523875,-0.011,-0.0279125
1679933808253,1113796607956135,-0.0523875,-0.012925,-0.0248875
1679933808255,1113796610458289,-0.05335,-0.01595,-0.022
1679933808258,1113796612960442,-0.05335,-0.014025,-0.0180125
1679933808260,1113796615462596,-0.0523875,-0.01595,-0.012925
1679933808263,1113796617964499,-0.05335,-0.0259875,-0.011
1679933808266,1113796620466653,-0.050325,-0.023924999,-0.0099
1679933808268,1113796622969038,-0.0523875,-0.0199375,-0.0099
1679933808273,1113796625471206,-0.0484,-0.02695,-0.007975
1679933808275,1113796627973129,-0.050325,-0.0279125,-0.0070125
1679933808277,1113796630475283,-0.050325,-0.0279125,-0.0059125
1679933808281,1113796632977437,-0.0474375,-0.02695,-0.001925
1679933808282,1113796635479590,-0.0474375,-0.0290125,-0.0039875
1679933808285,1113796637981725,-0.0484,-0.033,-0.0028875
1679933808286,1113796640484110,-0.050325,-0.0369875,-0.0028875
1679933808288,1113796642986264,-0.0523875,-0.036025,-0.001925
1679933808291,1113796645488418,-0.050325,-0.036025,-0.001925
1679933808293,1113796647990341,-0.050325,-0.0419375,-0.0028875
1679933808295,1113796650492489,-0.05335,-0.044,-0.0039875
1679933808298,1113796652994643,-0.05335,-0.040975,-0.0039875
1679933808301,1113796655497028,-0.0523875,-0.0389125,-0.0039875
1679933808303,1113796657999182,-0.0554125,-0.03795,-0.0059125
1679933808306,1113796660501307,-0.05335,-0.0430375,-0.0089375
1679933808310,1113796663003230,-0.054449998,-0.0430375,-0.0089375
1679933808312,1113796665505384,-0.054449998,-0.040975,-0.0099
1679933808315,1113796668007537,-0.0523875,-0.0369875,-0.011
1679933808316,1113796670509932,-0.0554125,-0.0369875,-0.0119624995
1679933808319,1113796673012086,-0.054449998,-0.040975,-0.0119624995
1679933808321,1113796675514009,-0.0493625,-0.040975,-0.012925
1679933808323,1113796678016163,-0.0523875,-0.040975,-0.0099
1679933808325,1113796680518317,-0.05335,-0.036025,-0.011
1679933808328,1113796683020471,-0.050325,-0.033,-0.0119624995
1679933808332,1113796685522624,-0.0493625,-0.0320375,-0.0119624995
1679933808333,1113796688025009,-0.050325,-0.0259875,-0.0119624995
1679933808336,1113796690527163,-0.0463375,-0.0259875,-0.0119624995
1679933808338,1113796693029326,-0.0484,-0.0210375,-0.0180125
1679933808341,1113796695531249,-0.0493625,-0.0199375,-0.01595
1679933808343,1113796698033403,-0.0493625,-0.012925,-0.0119624995
1679933808348,1113796700535553,-0.045375,-0.0059125,-0.0169125
1679933808349,1113796703037937,-0.0444125,-0.001925,-0.018975
1679933808352,1113796705539860,-0.0463375,0.003025,-0.0199375
1679933808353,1113796708042014,-0.0484,0.0020625,-0.0199375
1679933808355,1113796710544168,-0.045375,0.003025,-0.0209
1679933808359,1113796713046312,-0.0413875,0.011,-0.0229625
1679933808361,1113796715548466,-0.04235,0.014025,-0.0290125
1679933808362,1113796718050619,-0.0413875,0.01705,-0.0279125
1679933808366,1113796720553004,-0.040425,0.020075,-0.02695
1679933808368,1113796723055158,-0.04235,0.0240625,-0.0290125
1679933808372,1113796725557076,-0.0413875,0.02805,-0.0279125
1679933808374,1113796728059230,-0.039325,0.0290125,-0.0290125
1679933808376,1113796730561384,-0.0374,0.0240625,-0.0290125
1679933808379,1113796733063538,-0.0374,0.0240625,-0.0290125
1679933808389,1113796735565936,-0.039325,0.029975,-0.0290125
1679933808389,1113796738068090,-0.0383625,0.031075,-0.0279125
1679933808389,1113796740570244,-0.0353375,0.02805,-0.0259875
1679933808389,1113796743072167,-0.0353375,0.0240625,-0.0229625
1679933808391,1113796745574331,-0.039325,0.0180125,-0.0209
1679933808393,1113796748076485,-0.0364375,0.0149875,-0.0209
1679933808395,1113796750578639,-0.0334125,0.0119624995,-0.018975
1679933808398,1113796753080792,-0.0383625,0.00605,-0.0180125
1679933808401,1113796755582922,-0.039325,0.003025,-0.0169125
1679933808402,1113796758085076,-0.039325,-9.625E-4,-0.0169125
1679933808405,1113796760587230,-0.039325,-0.007975,-0.0089375
1679933808407,1113796763089384,-0.0374,-0.014025,-0.0089375
1679933808412,1113796765591543,-0.039325,-0.0169125,-0.0059125
1679933808413,1113796768093927,-0.039325,-0.0199375,-0.0028875
1679933808415,1113796770596081,-0.039325,-0.02695,-0.0028875
1679933808417,1113796773098004,-0.0444125,-0.0339625,-0.0028875
1679933808422,1113796775600148,-0.04235,-0.0369875,-9.625E-4
1679933808424,1113796778102302,-0.040425,-0.036025,0.0011
1679933808426,1113796780604456,-0.0383625,-0.0449625,-9.625E-4
1679933808428,1113796783106840,-0.040425,-0.047025,-0.001925
1679933808431,1113796785608994,-0.0383625,-0.045925,-0.001925
1679933808433,1113796788110917,-0.0383625,-0.045925,-0.001925
1679933808435,1113796790613071,-0.040425,-0.047025,0.0011
1679933808438,1113796793115225,-0.04235,-0.04895,-9.625E-4
1679933808441,1113796795617379,-0.0413875,-0.051975,-0.0039875
1679933808443,1113796798119538,-0.0383625,-0.051975,-0.001925
1679933808445,1113796800621692,-0.039325,-0.0510125,-0.00495
1679933808449,1113796803123845,-0.0383625,-0.0540375,-0.007975
1679933808452,1113796805625999,-0.0374,-0.051975,-0.0070125
1679933808455,1113796808128167,-0.0374,-0.0499125,-0.00495
1679933808456,1113796810630321,-0.0383625,-0.04895,-0.0070125
1679933808459,1113796813132475,-0.0374,-0.0479875,-0.0089375
1679933808462,1113796815634859,-0.0364375,-0.0479875,-0.0099
1679933808464,1113796818137013,-0.0323125,-0.0430375,-0.0149875
1679933808466,1113796820638951,-0.0334125,-0.040975,-0.012925
1679933808468,1113796823141105,-0.0364375,-0.0449625,-0.011
1679933808472,1113796825643259,-0.0323125,-0.044,-0.0180125
1679933808473,1113796828145644,-0.0334125,-0.03795,-0.018975
1679933808475,1113796830647586,-0.0364375,-0.0369875,-0.018975
1679933808478,1113796833149740,-0.0383625,-0.034925,-0.0229625
1679933808483,1113796835651894,-0.0323125,-0.0309375,-0.022
1679933808484,1113796838154047,-0.03135,-0.0320375,-0.022
1679933808485,1113796840656196,-0.0353375,-0.0279125,-0.0199375
1679933808488,1113796843158350,-0.0353375,-0.02695,-0.022
1679933808494,1113796845660504,-0.0383625,-0.0290125,-0.0248875
1679933808494,1113796848162658,-0.0374,-0.0279125,-0.023924999
1679933808499,1113796850664779,-0.0383625,-0.0279125,-0.0229625
1679933808501,1113796853166933,-0.0364375,-0.023924999,-0.022
1679933808502,1113796855669086,-0.0334125,-0.0199375,-0.023924999
1679933808504,1113796858171471,-0.03135,-0.022,-0.022
1679933808506,1113796860673625,-0.0383625,-0.0199375,-0.0209
1679933808508,1113796863175548,-0.0383625,-0.01595,-0.0199375
1679933808511,1113796865677702,-0.0383625,-0.01595,-0.0180125
1679933808517,1113796868179856,-0.040425,-0.0149875,-0.018975
1679933808517,1113796870682009,-0.0383625,-0.0119624995,-0.0180125
1679933808519,1113796873184086,-0.0364375,-0.0119624995,-0.0169125
1679933808523,1113796875686317,-0.0364375,-0.012925,-0.018975
1679933808525,1113796878188471,-0.0364375,-0.0100375,-0.0149875
1679933808527,1113796880690625,-0.0374,-0.007975,-0.0169125
1679933808530,1113796883192769,-0.0364375,-0.0059125,-0.01595
1679933808532,1113796885694923,-0.0374,-0.0070125,-0.0169125
1679933808536,1113796888197076,-0.0383625,-0.0089375,-0.0119624995
1679933808539,1113796893199230,-0.0334125,-0.011,-0.0089375
1679933808541,1113796893343480,-0.0374,-0.0100375,-0.011
1679933808542,1113796895703557,-0.040425,-0.014025,-0.0089375
1679933808544,1113796898205711,-0.0364375,-0.014025,-0.007975
1679933808546,1113796900707865,-0.0353375,-0.01595,-0.0070125
1679933808548,1113796903210019,-0.0383625,-0.014025,-0.0089375
1679933808551,1113796905712389,-0.0334125,-0.0149875,-0.0059125
1679933808552,1113796908214543,-0.0353375,-0.012925,-0.0028875
1679933808555,1113796910716466,-0.0334125,-0.0119624995,-0.0039875
1679933808558,1113796913218620,-0.0353375,-0.0119624995,-0.00495
1679933808561,1113796915720783,-0.0364375,-0.0119624995,-0.0039875
1679933808563,1113796918222937,-0.0334125,-0.011,-0.0039875
1679933808566,1113796920725014,-0.0364375,-0.007975,-0.0028875
1679933808568,1113796923227244,-0.0334125,-0.0039875,0.003025
1679933808576,1113796925729384,-0.0334125,-0.003025,0.0011
1679933808578,1113796928230461,-0.0353375,-0.0059125,0.0050875
1679933808578,1113796930731538,-0.0353375,-0.001925,0.00605
1679933808580,1113796933235846,-0.03135,9.625E-4,0.003025
1679933808583,1113796935738000,-0.03135,-0.0039875,0.0081124995
1679933808585,1113796938240153,-0.0303875,-0.0039875,0.0070125
1679933808586,1113796940742321,-0.0303875,9.625E-4,0.0070125
1679933808588,1113796943244475,-0.0264,9.625E-4,0.0050875
1679933808593,1113796945746629,-0.0273625,-9.625E-4,0.00605
1679933808593,1113796948248783,-0.0273625,-0.001925,0.009075
1679933808596,1113796950750942,-0.0254375,-0.003025,0.0081124995
1679933808599,1113796953253096,-0.023375,-0.00495,0.0081124995
1679933808601,1113796955755480,-0.0243375,-0.001925,0.009075
1679933808603,1113796958257403,-0.0254375,-0.0039875,0.009075
1679933808606,1113796960759542,-0.0243375,-0.0070125,0.0081124995
1679933808611,1113796963261696,-0.0213125,-0.007975,0.009075
1679933808614,1113796965763850,-0.023375,-0.007975,0.0100375
1679933808615,1113796970765927,-0.0224125,-0.0100375,0.013062499
1679933808617,1113796970888672,-0.023375,-0.0119624995,0.013062499
1679933808620,1113796973270287,-0.0213125,-0.012925,0.0160875
1679933808622,1113796975772441,-0.02035,-0.01595,0.0210375
1679933808624,1113796978274595,-0.02035,-0.018975,0.0231
1679933808626,1113796980776749,-0.0154,-0.0169125,0.0240625
1679933808628,1113796983278899,-0.017324999,-0.0100375,0.0259875
1679933808634,1113796985781053,-0.018424999,-0.0100375,0.0270875
1679933808637,1113796988283207,-0.018424999,-0.007975,0.031075
1679933808637,1113796990785360,-0.0213125,-0.0039875,0.031075
1679933808639,1113796993287490,-0.017324999,-0.003025,0.0341
1679933808641,1113796995789644,-0.0163625,0.0020625,0.036025
1679933808643,1113796998291721,-0.0144375,0.00605,0.039049998
1679933808648,1113797000793875,-0.0133375,0.007975,0.0400125
1679933808651,1113797003296130,-0.0144375,0.0119624995,0.0341
1679933808653,1113797005798283,-0.00935,0.014025,0.039049998
1679933808655,1113797008300437,-0.00935,0.0180125,0.0411125
1679933808657,1113797010802591,-0.007425,0.020075,0.0380875
1679933808658,1113797013304745,-0.007425,0.0270875,0.0400125
1679933808661,1113797015806831,-0.007425,0.0290125,0.042075
1679933808663,1113797018309062,-0.007425,0.0320375,0.0411125
1679933808666,1113797020811216,-0.0083875,0.031075,0.0400125
1679933808669,1113797023313369,-0.0044,0.029975,0.0411125
1679933808672,1113797025815547,-0.006325,0.0339625,0.0430375
1679933808673,1113797028317701,-0.0083875,0.039049998,0.0430375
1679933808676,1113797030819855,-0.006325,0.039049998,0.047025
1679933808678,1113797033322009,-0.0044,0.0380875,0.055
1679933808681,1113797035824163,-0.007425,0.044,0.0561
1679933808684,1113797038326317,-4.125E-4,0.0430375,0.058025
1679933808686,1113797040828470,-0.001375,0.044,0.0650375
1679933808688,1113797043330624,-4.125E-4,0.0460625,0.066
1679933808692,1113797045832701,0.0026125,0.051975,0.0671
1679933808694,1113797048334855,0.0026125,0.055,0.0710875
1679933808696,1113797050837086,0.004675,0.0620125,0.0710875
1679933808699,1113797053339240,0.0056375,0.064075,0.075075
1679933808701,1113797055841394,0.0066,0.069025,0.0790625
1679933808703,1113797058343537,0.0066,0.077,0.077
1679933808706,1113797060845691,0.009625,0.0820875,0.0741125
1679933808709,1113797063347768,0.0075625,0.08305,0.0741125
1679933808711,1113797065849922,0.0116875,0.086075,0.0730125
1679933808716,1113797068352125,0.0185625,0.088,0.0699875
1679933808717,1113797070854279,0.020624999,0.0950125,0.0699875
1679933808718,1113797073356432,0.0246125,0.099,0.0699875
1679933808724,1113797075858586,0.0276375,0.097075,0.064075
1679933808725,1113797078360735,0.0325875,0.102025,0.061049998
1679933808727,1113797080862889,0.0336875,0.1040875,0.058025
1679933808730,1113797083365043,0.0386375,0.1040875,0.0570625
1679933808733,1113797085867197,0.0396,0.102025,0.055
1679933808734,1113797088369336,0.0386375,0.0999625,0.053075
1679933808736,1113797090871413,0.0386375,0.099,0.047025
1679933808738,1113797093373643,0.0405625,0.099,0.0451
1679933808741,1113797095875797,0.0416625,0.09405,0.0430375
1679933808744,1113797098377951,0.045649998,0.086075,0.0411125
1679933808745,1113797100880129,0.045649998,0.0790625,0.0380875
1679933808749,1113797103382206,0.0446875,0.073975,0.0380875
1679933808752,1113797105884360,0.0416625,0.0650375,0.0369875
1679933808753,1113797108386590,0.0416625,0.051975,0.033
1679933808756,1113797110888716,0.0405625,0.0449625,0.0320375
1679933808760,1113797113390870,0.0356125,0.039049998,0.031075
1679933808762,1113797115893024,0.0336875,0.0339625,0.033
1679933808765,1113797118395178,0.0325875,0.0290125,0.0301125
1679933808766,1113797120897264,0.0295625,0.018975,0.0270875
1679933808768,1113797123399418,0.025575,0.007975,0.02805
1679933808772,1113797125901648,0.0215875,-9.625E-4,0.0301125
1679933808774,1113797128403802,0.0185625,-0.0100375,0.0259875
1679933808776,1113797130905894,0.01265,-0.0169125,0.0240625
1679933808778,1113797133408048,0.009625,-0.022,0.0231
1679933808784,1113797135910202,0.0075625,-0.0309375,0.0240625
1679933808785,1113797138412356,0.0056375,-0.0339625,0.0231
1679933808787,1113797140914601,-4.125E-4,-0.040975,0.0240625
1679933808789,1113797143416754,-0.0053625,-0.047025,0.0231
1679933808791,1113797145918908,-4.125E-4,-0.04895,0.0231
1679933808794,1113797148421062,-0.007425,-0.0510125,0.0231
1679933808800,1113797150923124,-0.012375,-0.0510125,0.020075
1679933808803,1113797153425278,-0.0114124995,-0.047025,0.022
1679933808805,1113797155927432,-0.0163625,-0.044,0.022
1679933808806,1113797158429662,-0.0133375,-0.0389125,0.025024999
1679933808808,1113797160931739,-0.018424999,-0.0430375,0.025024999
1679933808810,1113797163433879,-0.0213125,-0.03795,0.025024999
1679933808812,1113797165936033,-0.0213125,-0.029975,0.025024999
1679933808815,1113797168438187,-0.017324999,-0.0290125,0.02805
1679933808817,1113797170940341,-0.02035,-0.025024999,0.02805
1679933808819,1113797173442562,-0.02035,-0.018975,0.0290125
1679933808821,1113797175944715,-0.0193875,-0.0149875,0.02805
1679933808824,1113797178446792,-0.018424999,-0.0100375,0.0290125
1679933808827,1113797180948946,-0.0163625,-0.003025,0.0301125
1679933808828,1113797183451096,-0.018424999,0.0020625,0.0301125
1679933808832,1113797185953250,-0.017324999,0.0100375,0.0320375
1679933808835,1113797188455404,-0.0163625,0.01705,0.031075
1679933808837,1113797190957635,-0.0154,0.0240625,0.033
1679933808839,1113797193459788,-0.012375,0.0320375,0.031075
1679933808841,1113797195961942,-0.0103124995,0.0380875,0.033
1679933808843,1113797198464019,-0.0114124995,0.0430375,0.033
1679933808846,1113797200966173,-0.0114124995,0.0490875,0.031075
1679933808849,1113797203468312,-0.007425,0.0620125,0.0290125
1679933808852,1113797205970543,-0.006325,0.0669625,0.0290125
1679933808854,1113797208472620,-0.0044,0.0699875,0.0290125
1679933808856,1113797210974773,6.875E-4,0.077,0.0259875
1679933808858,1113797213476927,6.875E-4,0.091025,0.025024999
1679933808861,1113797215979067,0.004675,0.099,0.025024999
1679933808863,1113797218481221,0.0056375,0.106975,0.0210375
1679933808866,1113797220983452,0.0066,0.1170125,0.0160875
1679933808869,1113797223485596,0.0105875,0.128975,0.0149875
1679933808873,1113797225987673,0.0166375,0.1340625,0.0121
1679933808875,1113797228489826,0.013612499,0.143,0.0070125
1679933808877,1113797230991980,0.0166375,0.1480875,0.003025
1679933808880,1113797233494134,0.0176,0.150975,0.0011
1679933808882,1113797235996288,0.015675,0.1530375,-9.625E-4
1679933808883,1113797238498519,0.013612499,0.150975,-0.0059125
1679933808886,1113797241000596,0.0116875,0.1500125,-0.0089375
1679933808888,1113797243502826,0.009625,0.1480875,-0.0099
1679933808892,1113797246004903,0.0105875,0.1480875,-0.012925
1679933808894,1113797248507057,0.01265,0.1439625,-0.012925
1679933808896,1113797251009211,0.0105875,0.1390125,-0.012925
1679933808900,1113797253511442,0.009625,0.13805,-0.0169125
1679933808901,1113797256013524,0.0026125,0.1329625,-0.0169125
1679933808903,1113797258515678,0.00165,0.124025,-0.0119624995
1679933808906,1113797261017831,-0.001375,0.120037496,-0.0149875
1679933808911,1113797263519985,-0.0053625,0.113025,-0.0149875
1679933808913,1113797266022139,-0.00935,0.11,-0.012925
1679933808915,1113797268524293,-0.0114124995,0.0999625,-0.0149875
1679933808916,1113797271026524,-0.0133375,0.09405,-0.011
1679933808919,1113797273528601,-0.018424999,0.08305,-0.0099
1679933808924,1113797276030788,-0.0243375,0.0730125,-0.0070125
1679933808925,1113797278532941,-0.0273625,0.064075,-0.0070125
1679933808927,1113797281035095,-0.03135,0.061049998,-0.0059125
1679933808930,1113797283537018,-0.0353375,0.047025,-0.0059125
1679933808933,1113797286039480,-0.0413875,0.0339625,-0.00495
1679933808934,1113797288541629,-0.04235,0.025024999,-0.006875
1679933808936,1113797291043706,-0.0474375,0.01705,-0.006875
1679933808939,1113797293545860,-0.05335,0.0020625,-0.0039875
1679933808941,1113797296048013,-0.056375,-0.00605,-0.00495
1679933808944,1113797298550167,-0.0584375,-0.01705,-0.0059125
1679933808948,1113797301052398,-0.0603625,-0.023924999,-0.007975
1679933808951,1113797303554475,-0.0573375,-0.036025,-0.00495
1679933808952,1113797306056629,-0.06545,-0.0419375,-0.0059125
1679933808954,1113797308558783,-0.0724625,-0.0449625,-0.007975
1679933808956,1113797311060937,-0.073425,-0.051975,-0.0059125
1679933808959,1113797313563081,-0.07535,-0.0589875,-0.0059125
1679933808961,1113797316065235,-0.0774125,-0.061049998,-0.006875
1679933808965,1113797318567466,-0.07645,-0.0650375,-0.006875
1679933808966,1113797321069543,-0.0793375,-0.0650375,-0.011
1679933808969,1113797323571706,-0.078375,-0.062975,-0.006875
1679933808973,1113797326073860,-0.0804375,-0.0650375,-0.0059125
1679933808974,1113797328576013,-0.0814,-0.0639375,-0.0059125
1679933808976,1113797331077937,-0.0804375,-0.062975,-0.0039875
1679933808978,1113797333580321,-0.078375,-0.061049998,-0.001925
1679933808981,1113797336082490,-0.078375,-0.0540375,-0.0028875
1679933808985,1113797338584644,-0.0743875,-0.050049998,-0.0028875
1679933808987,1113797341086798,-0.0724625,-0.047025,-0.001925
1679933808990,1113797343588932,-0.0713625,-0.044,-0.0059125
1679933808991,1113797346091085,-0.0713625,-0.0339625,-0.001925
1679933808994,1113797348593239,-0.0704,-0.0290125,-0.0028875
1679933808997,1113797351095393,-0.06545,-0.022,-0.00495
1679933808999,1113797353597547,-0.062425,-0.0149875,-0.0039875
1679933809001,1113797356099711,-0.0594,-0.0070125,-0.007975
1679933809009,1113797358601865,-0.0614625,-0.003025,-0.011
1679933809014,1113797361104095,-0.0584375,0.0039875,-0.011
1679933809014,1113797363606172,-0.056375,0.00605,-0.011
1679933809015,1113797366108340,-0.056375,0.013062499,-0.011
1679933809015,1113797368610494,-0.056375,0.0240625,-0.0149875
1679933809016,1113797371112648,-0.054449998,0.02805,-0.01595
1679933809018,1113797373614571,-0.0523875,0.0320375,-0.01595
1679933809022,1113797376116951,-0.056375,0.0350625,-0.017875
1679933809025,1113797378619105,-0.0523875,0.0430375,-0.018975
1679933809026,1113797381121258,-0.0504625,0.04895,-0.017875
1679933809028,1113797383623412,-0.05335,0.0510125,-0.017875
1679933809032,1113797386125576,-0.0504625,0.058025,-0.018975
1679933809033,1113797388627730,-0.0504625,0.066,-0.0169125
1679933809036,1113797391129884,-0.0493625,0.0669625,-0.012925
1679933809038,1113797393632038,-0.0484,0.0650375,-0.0149875
1679933809044,1113797396134196,-0.045375,0.0699875,-0.012925
1679933809044,1113797398636350,-0.0493625,0.07205,-0.0119624995
1679933809052,1113797401138504,-0.0493625,0.07095,-0.011
1679933809053,1113797403640417,-0.0504625,0.0730125,-0.0089375
1679933809055,1113797406142802,-0.0523875,0.07095,-0.007975
1679933809056,1113797408644956,-0.05335,0.0699875,-0.006875
1679933809057,1113797411147110,-0.0504625,0.0650375,-0.006875
1679933809062,1113797413649263,-0.054449998,0.05995,-0.0059125
1679933809063,1113797416151412,-0.05335,0.0540375,-0.0028875
1679933809067,1113797418694797,-0.0584375,0.053075,-0.001925
1679933809067,1113797421155720,-0.0554125,0.0479875,-0.0028875
1679933809070,1113797423657874,-0.0573375,0.039049998,-9.625E-4
1679933809072,1113797426160028,-0.0603625,0.033,0.0011
1679933809074,1113797428662182,-0.06545,0.0290125,0.0011
1679933809076,1113797431164335,-0.0633875,0.02695,0.003025
1679933809082,1113797433666489,-0.0633875,0.0180125,0.003025
1679933809083,1113797436168643,-0.06435,0.0100375,0.004125
1679933809084,1113797438670797,-0.06545,0.0020625,0.00605
1679933809086,1113797441172956,-0.0683375,-0.001925,0.0081124995
1679933809092,1113797443675110,-0.0704,-0.0089375,0.0070125
1679933809094,1113797446177264,-0.0664125,-0.012925,0.00605
1679933809094,1113797448679417,-0.06435,-0.0180125,0.00605
1679933809100,1113797451181292,-0.06545,-0.01595,0.0070125
1679933809101,1113797453683446,-0.0664125,-0.022,0.00605
1679933809103,1113797456185831,-0.06435,-0.0259875,0.0050875
1679933809104,1113797458687985,-0.06545,-0.023924999,0.0050875
1679933809106,1113797461190139,-0.0614625,-0.0199375,0.004125
1679933809109,1113797463692279,-0.0603625,-0.0199375,0.004125
1679933809111,1113797466194432,-0.062425,-0.0210375,0.004125
1679933809117,1113797468696586,-0.0584375,-0.018975,0.0020625
1679933809118,1113797471198509,-0.0573375,-0.022,0.0011
1679933809119,1113797473700894,-0.0523875,-0.0180125,0.0011
1679933809122,1113797476203073,-0.0484,-0.0149875,0.0011
1679933809124,1113797478705227,-0.0463375,-0.012925,0.0
1679933809126,1113797481207380,-0.04235,-0.007975,0.0
1679933809133,1113797483709529,-0.04235,-0.00605,0.0
1679933809134,1113797486211452,-0.0413875,-0.0070125,0.003025
1679933809136,1113797488713837,-0.0394625,9.625E-4,0.0
1679933809138,1113797491215991,-0.0383625,0.0020625,-0.0039875
1679933809140,1113797493718145,-0.0353375,0.00605,-0.0028875
1679933809142,1113797496220299,-0.0334125,0.007975,-0.0039875
1679933809144,1113797498722222,-0.032449998,0.0119624995,-0.0059125
1679933809146,1113797501224376,-0.032449998,0.0210375,-0.006875
1679933809150,1113797503726760,-0.032449998,0.0210375,-0.007975
1679933809151,1113797506228914,-0.032449998,0.0229625,-0.0089375
1679933809154,1113797508731068,-0.0303875,0.0240625,-0.007975
1679933809156,1113797511233222,-0.03135,0.0240625,-0.0099
1679933809159,1113797513735376,-0.03135,0.02805,-0.011
1679933809161,1113797516237534,-0.0303875,0.0290125,-0.011
1679933809164,1113797518739457,-0.03135,0.0290125,-0.0119624995
1679933809166,1113797521241842,-0.0284625,0.0290125,-0.0099
1679933809169,1113797523743996,-0.0303875,0.0229625,-0.0089375
1679933809177,1113797526246130,-0.032449998,0.0180125,-0.011
1679933809178,1113797528747091,-0.032449998,0.01705,-0.006875
1679933809178,1113797531248054,-0.03135,0.01705,-0.0059125
1679933809180,1113797533752361,-0.0353375,0.014025,-0.00495
1679933809183,1113797536254745,-0.040425,0.0070125,-0.006875
1679933809185,1113797538756899,-0.040425,0.003025,-0.00495
1679933809186,1113797541259039,-0.040425,0.003025,-0.00495
1679933809190,1113797543761193,-0.04235,0.0039875,0.0
1679933809191,1113797546263116,-0.0444125,0.0,0.0011
1679933809193,1113797548765270,-0.0474375,-0.0039875,-9.625E-4
1679933809196,1113797551267429,-0.0523875,-0.00495,0.0
1679933809201,1113797553769813,-0.0504625,-0.0119624995,0.0
1679933809202,1113797556271967,-0.0504625,-0.014025,-0.001925
1679933809203,1113797558774121,-0.056375,-0.01595,-0.001925
1679933809206,1113797561276284,-0.0603625,-0.0210375,0.0011
1679933809214,1113797563778207,-0.0633875,-0.02695,-9.625E-4
1679933809218,1113797566280361,-0.0694375,-0.02695,0.0011
1679933809219,1113797568782745,-0.0664125,-0.033,0.0011
1679933809220,1113797571310765,-0.06545,-0.040975,-9.625E-4
1679933809221,1113797573787073,-0.0713625,-0.039049998,0.0
1679933809223,1113797576288996,-0.0704,-0.047025,-9.625E-4
1679933809224,1113797578791150,-0.0713625,-0.0510125,-9.625E-4
1679933809226,1113797581293318,-0.0724625,-0.055,-0.001925
1679933809230,1113797583795472,-0.0724625,-0.0540375,-9.625E-4
1679933809233,1113797586297856,-0.073425,-0.0529375,-0.001925
1679933809234,1113797588800010,-0.07535,-0.056925,-9.625E-4
1679933809236,1113797591302154,-0.07535,-0.0540375,-0.0039875
1679933809239,1113797593804077,-0.073425,-0.0540375,-0.0059125
1679933809242,1113797596306231,-0.0724625,-0.0540375,-0.00495
1679933809245,1113797598808385,-0.073425,-0.0510125,-0.007975
1679933809249,1113797601310760,-0.0704,-0.0449625,-0.0099
1679933809252,1113797603812914,-0.0683375,-0.0419375,-0.0089375
1679933809254,1113797606314837,-0.0694375,-0.034925,-0.0089375
1679933809255,1113797608816991,-0.062425,-0.0320375,-0.012925
1679933809257,1113797611319145,-0.0614625,-0.0259875,-0.01595
1679933809259,1113797613821294,-0.0633875,-0.01705,-0.01595
1679933809261,1113797616323678,-0.0594,-0.012925,-0.018975
1679933809265,1113797618825832,-0.056375,-0.012925,-0.017875
1679933809266,1113797621327755,-0.054449998,-0.003025,-0.0199375
1679933809272,1113797623829933,-0.0493625,0.00605,-0.0209
1679933809274,1113797626332318,-0.0504625,0.007975,-0.0209
1679933809275,1113797628834472,-0.0463375,0.01705,-0.022
1679933809276,1113797631336626,-0.0444125,0.02695,-0.023924999
1679933809284,1113797633838563,-0.045375,0.031075,-0.0248875
1679933809285,1113797636340717,-0.043449998,0.0369875,-0.018975
1679933809287,1113797638842870,-0.0444125,0.044,-0.018975
1679933809289,1113797641345024,-0.0444125,0.0479875,-0.0229625
1679933809291,1113797643847409,-0.0413875,0.0510125,-0.022
1679933809293,1113797646349307,-0.0353375,0.0540375,-0.018975
1679933809295,1113797648851461,-0.0364375,0.0540375,-0.018975
1679933809297,1113797651353615,-0.032449998,0.058025,-0.0169125
1679933809301,1113797653855768,-0.032449998,0.0559625,-0.0169125
1679933809302,1113797656357922,-0.029424999,0.0570625,-0.0169125
1679933809304,1113797658860317,-0.0303875,0.0559625,-0.018975
1679933809306,1113797661362240,-0.0303875,0.058025,-0.017875
1679933809313,1113797663864394,-0.0273625,0.0540375,-0.012925
1679933809313,1113797666366548,-0.0284625,0.051975,-0.01595
1679933809316,1113797668868716,-0.029424999,0.051975,-0.01595
1679933809317,1113797671370869,-0.0334125,0.050049998,-0.0119624995
1679933809319,1113797673873023,-0.032449998,0.0479875,-0.011
1679933809324,1113797676375408,-0.03135,0.0460625,-0.0119624995
1679933809326,1113797678877562,-0.0334125,0.0449625,-0.011
1679933809328,1113797681379485,-0.032449998,0.03795,-0.0089375
1679933809332,1113797683881639,-0.032449998,0.0339625,-0.0089375
1679933809334,1113797686383793,-0.032449998,0.029975,-0.0089375
1679933809335,1113797688885946,-0.0334125,0.02805,-0.011
1679933809337,1113797691388100,-0.0334125,0.02695,-0.0099
1679933809340,1113797693890254,-0.0364375,0.018975,-0.0089375
1679933809342,1113797696392408,-0.0353375,0.013062499,-0.0089375
1679933809344,1113797698894562,-0.032449998,0.0100375,-0.0099
1679933809346,1113797701396716,-0.0353375,0.00605,-0.0089375
1679933809350,1113797703898870,-0.0364375,9.625E-4,-0.0099
1679933809352,1113797706401023,-0.0364375,-0.00495,-0.0099
1679933809354,1113797708903177,-0.0383625,-0.0119624995,-0.011
1679933809356,1113797711405336,-0.040425,-0.01595,-0.0099
1679933809362,1113797713907490,-0.0383625,-0.0199375,-0.0119624995
1679933809364,1113797716409644,-0.0383625,-0.0259875,-0.012925
1679933809366,1113797718911798,-0.040425,-0.0309375,-0.0099
1679933809367,1113797721413961,-0.0374,-0.0309375,-0.0119624995
1679933809370,1113797723916345,-0.0334125,-0.036025,-0.0099
1679933809373,1113797726418499,-0.0334125,-0.0430375,-0.0099
1679933809375,1113797728920422,-0.032449998,-0.040975,-0.0089375
1679933809377,1113797731422576,-0.0353375,-0.040975,-0.0089375
1679933809380,1113797733924730,-0.0303875,-0.044,-0.0089375
1679933809383,1113797736426884,-0.032449998,-0.045925,-0.006875
1679933809385,1113797738929037,-0.032449998,-0.051975,-0.007975
1679933809388,1113797741431191,-0.0303875,-0.0510125,-0.00495
1679933809390,1113797743933331,-0.0334125,-0.051975,-0.001925
1679933809392,1113797746435485,-0.0273625,-0.0510125,-9.625E-4
1679933809394,1113797748937639,-0.0243375,-0.055,-0.0039875
1679933809399,1113797751439817,-0.023375,-0.055,-0.001925
1679933809401,1113797753941971,-0.0243375,-0.051975,-9.625E-4
1679933809403,1113797756444124,-0.023375,-0.0449625,-0.001925
1679933809405,1113797758946278,-0.0224125,-0.044,0.0
1679933809407,1113797761448432,-0.023375,-0.040975,-9.625E-4
1679933809410,1113797763950600,-0.02145,-0.0339625,-9.625E-4
1679933809412,1113797766452677,-0.0193875,-0.0290125,-0.001925
1679933809414,1113797768954831,-0.02035,-0.02805,0.0
1679933809416,1113797771457062,-0.018424999,-0.0199375,0.0011
1679933809420,1113797773959211,-0.0163625,-0.0119624995,0.004125
1679933809421,1113797776461365,-0.0174625,-0.0089375,0.004125
1679933809424,1113797778963519,-0.0154,-0.0070125,0.004125
1679933809426,1113797781465673,-0.0144375,-0.001925,0.004125
1679933809430,1113797783967846,-0.0133375,0.003025,0.0081124995
1679933809432,1113797786469923,-0.00935,0.0100375,0.009075
1679933809436,1113797788972154,-0.00935,0.013062499,0.011
1679933809437,1113797791474307,-0.0083875,0.0149875,0.014025
1679933809440,1113797793976456,-0.0044,0.0180125,0.0160875
1679933809442,1113797796478610,-0.0053625,0.018975,0.0149875
1679933809444,1113797798980764,-0.0053625,0.0240625,0.0191125
1679933809446,1113797801482918,-0.006325,0.025024999,0.020075
1679933809451,1113797803985302,-0.007425,0.0290125,0.022
1679933809453,1113797806487215,-0.006325,0.025024999,0.0231
1679933809455,1113797808989369,-0.0133375,0.0229625,0.025024999
1679933809457,1113797811491523,-0.0154,0.022,0.0270875
1679933809460,1113797813993600,-0.0133375,0.022,0.0290125
1679933809462,1113797816495754,-0.0114124995,0.018975,0.031075
1679933809465,1113797818998001,-0.012375,0.018975,0.0320375
1679933809467,1113797821500155,-0.0154,0.014025,0.033
1679933809470,1113797824002308,-0.0163625,0.0100375,0.033
1679933809474,1113797826504462,-0.017324999,0.0039875,0.0341
1679933809475,1113797829006611,-0.018424999,0.00605,0.0301125
1679933809477,1113797831508765,-0.0154,0.0039875,0.02805
1679933809482,1113797834010842,-0.0143,0.0020625,0.0240625
1679933809483,1113797836513073,-0.0133375,-9.625E-4,0.0270875
1679933809485,1113797839015236,-0.0103124995,-9.625E-4,0.022
1679933809487,1113797841517389,-0.007425,-9.625E-4,0.020075
1679933809490,1113797844019543,-0.0083875,-0.003025,0.022
1679933809492,1113797846521697,-0.0053625,-0.0070125,0.020075
1679933809495,1113797849023866,-4.125E-4,-0.0059125,0.01705
1679933809498,1113797851526020,-0.001375,-0.00495,0.0149875
1679933809501,1113797854028174,-4.125E-4,-0.0089375,0.0149875
1679933809503,1113797856530328,-4.125E-4,-0.0100375,0.0160875
1679933809505,1113797859032481,-0.001375,-0.0100375,0.014025
1679933809507,1113797861534644,-4.125E-4,-0.014025,0.014025
1679933809511,1113797864036721,-4.125E-4,-0.0149875,0.0191125
1679933809513,1113797866538875,0.0077,-0.01595,0.020075
1679933809516,1113797869041135,0.0086624995,-0.014025,0.020075
1679933809518,1113797871543289,0.0086624995,-0.0119624995,0.0191125
1679933809521,1113797874045442,0.013612499,-0.0149875,0.020075
1679933809523,1113797876547596,0.0215875,-0.0149875,0.01705
1679933809525,1113797879049769,0.0215875,-0.012925,0.014025
1679933809526,1113797881551846,0.026675,-0.014025,0.0149875
1679933809529,1113797884054077,0.0297,-0.0100375,0.014025
1679933809533,1113797886556154,0.0336875,-0.0100375,0.013062499
1679933809535,1113797889058308,0.0407,-0.0070125,0.0160875
1679933809537,1113797891560467,0.042625,-0.003025,0.0191125
1679933809539,1113797894062697,0.0435875,0.0020625,0.0160875
1679933809541,1113797896564851,0.0435875,0.00605,0.0149875
1679933809544,1113797899067005,0.0446875,0.0050875,0.020075
1679933809549,1113797901569154,0.0416625,0.0050875,0.0149875
1679933809551,1113797904071308,0.037675,0.00605,0.013062499
1679933809552,1113797906573385,0.037675,0.011,0.0081124995
1679933809554,1113797909075538,0.034649998,0.0070125,0.0070125
1679933809556,1113797911577769,0.031625,0.0100375,0.0050875
1679933809560,1113797914079943,0.0286,0.013062499,0.00605
1679933809561,1113797916582097,0.0297,0.011,0.0050875
1679933809565,1113797919084251,0.026675,0.0070125,0.0081124995
