system_ts_ms, sensor_ts_ns, accX, accY, accZ
1679931497620,1111485974573732,3.9850502,2.0029502,9.3810005
1679931497623,1111485977075664,4.0279503,2.1420002,9.405001
1679931497624,1111485979577818,4.065,2.11995,9.325951
1679931497627,1111485982079972,4.03305,2.0989501,9.40005
1679931497629,1111485984582126,4.0789504,2.1679502,9.38805
1679931497631,1111485987084203,4.0800004,2.049,9.462001
1679931497639,1111485989586443,4.16505,2.049,9.472051
1679931497639,1111485992088597,4.2010503,1.9720501,9.486
1679931497640,1111485994590751,4.11495,1.9699501,9.346951
1679931497641,1111485997092828,4.0609503,1.9600501,9.40695
1679931497644,1111485999594982,4.1410503,1.9579501,9.340051
1679931497647,1111486002097170,4.09305,1.86705,9.393001
1679931497651,1111486004599400,4.0410004,1.8930001,9.28005
1679931497651,1111486007101554,4.065,1.8859501,9.364051
1679931497654,1111486009603631,4.04505,1.83105,9.309
1679931497656,1111486012105780,4.01895,1.78005,9.192
1679931497660,1111486014607934,3.9259503,1.764,9.24195
1679931497662,1111486017110088,3.9109502,1.7299501,9.307051
1679931497664,1111486019612242,3.9570003,1.7539501,9.276
1679931497667,1111486022114395,3.8869503,1.6849501,9.288
1679931497669,1111486024616549,3.9829502,1.8499501,9.175051
1679931497671,1111486027118472,3.9019501,1.7950501,9.177
1679931497674,1111486029620626,3.68895,1.7830501,9.21105
1679931497677,1111486032123015,3.8080502,1.9050001,9.232051
1679931497679,1111486034625169,3.8029501,1.9770001,9.349951
1679931497681,1111486037127092,3.8080502,1.86195,9.307051
1679931497684,1111486039629246,3.8490002,1.9939501,9.3
1679931497687,1111486042131404,3.76305,1.9720501,9.295051
1679931497689,1111486044633481,3.8440502,2.0269501,9.22305
1679931497691,1111486047135712,3.7870502,2.02905,9.30195
1679931497694,1111486049637866,3.7459502,2.049,9.24705
1679931497698,1111486052140040,3.8539503,2.01,9.213
1679931497703,1111486054642194,3.7819502,1.9699501,9.240001
1679931497704,1111486057144271,3.7840502,1.93605,9.27105
1679931497704,1111486059646425,3.75795,1.917,9.319051
1679931497708,1111486062148655,3.8149502,1.9650002,9.29205
1679931497709,1111486064650742,3.8130002,1.9030501,9.205951
1679931497711,1111486067152896,3.8830502,1.914,9.295051
1679931497714,1111486069655050,3.9469502,1.8739501,9.28995
1679931497719,1111486072157204,3.966,1.8859501,9.38595
1679931497720,1111486074659122,3.90405,1.71105,9.38595
1679931497723,1111486077161276,3.9619503,1.7520001,9.325951
1679931497724,1111486079663660,4.005,1.8190501,9.346951
1679931497727,1111486082165814,3.9540002,1.7320501,9.273001
1679931497729,1111486084667737,4.04295,1.644,9.37395
1679931497731,1111486087169910,3.9900002,1.641,9.370951
1679931497736,1111486089672064,4.0279503,1.7400001,9.36705
1679931497738,1111486092174218,3.9900002,1.8019501,9.441
1679931497741,1111486094676372,4.07205,1.728,9.357
1679931497742,1111486097178512,4.04295,1.7010001,9.42405
1679931497744,1111486099680665,4.0800004,1.7179501,9.393001
1679931497747,1111486102182819,4.0140004,1.6990501,9.40005
1679931497753,1111486104684896,4.1119504,1.7179501,9.28005
1679931497753,1111486107187050,4.06005,1.8259501,9.43605
1679931497755,1111486109689199,4.0789504,1.7350501,9.364051
1679931497757,1111486112191430,4.065,1.728,9.37395
1679931497759,1111486114693507,4.11495,1.7899501,9.273001
1679931497762,1111486117195660,4.05,1.8040501,9.370951
1679931497764,1111486119697829,4.10295,1.7760001,9.345
1679931497769,1111486122199983,4.03305,1.71105,9.276
1679931497769,1111486124701906,4.065,1.86705,9.40005
1679931497774,1111486127204286,4.086,1.7370001,9.175051
1679931497776,1111486129706440,4.1509504,1.8570001,9.361951
1679931497778,1111486132208594,4.065,1.9050001,9.264001
1679931497780,1111486134710517,4.1389503,1.9339501,9.32295
1679931497781,1111486137212670,4.07205,1.7920501,9.295051
1679931497788,1111486139714814,4.10505,1.93605,9.192
1679931497789,1111486142217199,4.03305,1.9219501,9.225
1679931497791,1111486144719122,4.053,1.845,9.163051
1679931497792,1111486147221276,4.05705,1.93605,9.23505
1679931497795,1111486149723435,4.01205,1.9050001,9.225
1679931497797,1111486152225589,3.9420002,1.9219501,9.225
1679931497802,1111486154727742,3.9739501,1.9219501,9.237
1679931497802,1111486157229819,3.9090002,1.7539501,9.199051
1679931497804,1111486159732050,3.9829502,1.8430501,9.333
1679931497808,1111486162234185,3.90405,1.86705,9.192
1679931497810,1111486164736339,3.8560503,1.7490001,9.14595
1679931497812,1111486167238416,3.90405,1.7899501,9.23505
1679931497814,1111486169740570,3.8370001,1.81605,9.192
1679931497822,1111486172242708,3.8940003,1.881,9.181951
1679931497822,1111486174744939,3.83205,1.8709501,9.1699505
1679931497824,1111486177247016,3.86595,1.8000001,9.10305
1679931497825,1111486179749170,3.8200502,1.9050001,9.201
1679931497827,1111486182251329,3.86805,1.86705,9.220051
1679931497829,1111486184753483,3.7440002,1.9429501,9.1369505
1679931497831,1111486187255637,3.8590503,1.8589501,9.1699505
1679931497837,1111486189757560,3.7560003,1.881,9.1060505
1679931497838,1111486192259949,3.7680001,1.8880501,9.132
1679931497839,1111486194762103,3.70005,1.8520501,9.189
1679931497842,1111486197264257,3.83205,1.95,9.12495
1679931497844,1111486199766180,3.7530003,1.8570001,9.199051
1679931497848,1111486202268324,3.765,1.797,9.177
1679931497855,1111486204770478,3.8200502,1.7560501,9.09795
1679931497856,1111486207272862,3.7720501,1.914,9.18
1679931497857,1111486209774786,3.7909503,1.7830501,9.153001
1679931497859,1111486212276939,3.75795,1.8280501,9.192
1679931497860,1111486214779084,3.801,1.8000001,9.085951
1679931497861,1111486217281238,3.82995,1.8349501,9.193951
1679931497864,1111486219783315,3.7720501,1.8019501,9.28005
1679931497869,1111486222285469,3.7530003,1.7320501,9.172951
1679931497869,1111486224787714,3.7840502,1.81605,9.217951
1679931497872,1111486227289791,3.82695,1.7370001,9.201
1679931497875,1111486229791944,3.8730001,1.764,9.213
1679931497878,1111486232294098,3.897,1.7950501,9.163051
1679931497879,1111486234796271,3.7819502,1.78005,9.204
1679931497881,1111486237298194,3.8730001,1.8000001,9.193951
1679931497887,1111486239800579,3.7339501,1.83105,9.168
1679931497888,1111486242302502,3.8560503,1.8589501,9.25905
1679931497891,1111486244804873,3.86595,1.86195,9.285001
1679931497892,1111486247306796,3.8899503,1.8190501,9.273001
1679931497894,1111486249808949,3.8710501,1.8349501,9.27795
1679931497897,1111486252311103,3.82995,1.8349501,9.261001
1679931497904,1111486254813488,3.9450002,1.78005,9.240001
1679931497905,1111486257315401,3.86295,1.8709501,9.321
1679931497906,1111486259817555,3.8899503,1.8090001,9.1699505
1679931497907,1111486262319709,3.9229503,1.90005,9.276
1679931497909,1111486264821863,3.83505,1.9219501,9.193951
1679931497912,1111486267324016,3.8590503,1.81605,9.240001
1679931497915,1111486269826170,3.86295,1.8430501,9.25395
1679931497920,1111486272328324,3.9300003,1.8520501,9.192
1679931497921,1111486274830401,3.9259503,1.86705,9.319051
1679931497924,1111486277332579,3.8389502,1.8709501,9.30195
1679931497928,1111486279833655,3.86805,1.8910501,9.276
1679931497928,1111486282334734,3.9090002,1.9579501,9.319051
1679931497930,1111486284839040,3.897,1.86195,9.3
1679931497931,1111486287341194,3.8250003,1.8430501,9.35505
1679931497938,1111486289843348,3.9109502,1.8070501,9.232051
1679931497940,1111486292345502,3.8389502,1.7920501,9.213
1679931497941,1111486294847425,3.8370001,1.74705,9.172951
1679931497943,1111486297349810,3.8869503,1.7830501,9.27795
1679931497944,1111486299851733,3.8509502,1.797,9.32295
1679931497947,1111486302354151,3.9400501,1.7230501,9.264001
1679931497952,1111486304856075,3.8470502,1.8019501,9.229951
1679931497953,1111486307358228,3.7800002,1.7370001,9.229951
1679931497955,1111486309860372,3.933,1.7040001,9.204
1679931497957,1111486312362526,3.9090002,1.7590501,9.328051
1679931497962,1111486314864680,3.8250003,1.7209501,9.237
1679931497963,1111486317366834,3.8440502,1.6609501,9.24195
1679931497965,1111486319868983,3.7909503,1.6849501,9.22305
1679931497970,1111486322371136,3.8130002,1.6680001,9.283051
1679931497971,1111486324873213,3.8470502,1.65795,9.28005
1679931497972,1111486327375367,3.79605,1.797,9.26805
1679931497974,1111486329877598,3.8200502,1.7400001,9.23505
1679931497977,1111486332379781,3.82695,1.8550501,9.232051
1679931497979,1111486334881858,3.897,1.7950501,9.237
1679931497981,1111486337384012,3.8749502,1.8570001,9.27795
1679931497986,1111486339885935,3.8899503,1.8930001,9.325951
1679931497987,1111486342388084,3.8059502,1.8330001,9.229951
1679931497990,1111486344890468,3.8590503,1.8139501,9.358951
1679931497992,1111486347392622,3.86805,1.8430501,9.307051
1679931497995,1111486349894545,3.8389502,1.7920501,9.31095
1679931498002,1111486352396690,3.8440502,1.8280501,9.38595
1679931498003,1111486354898844,3.7480502,1.86195,9.40005
1679931498003,1111486357400998,3.8059502,1.8379501,9.31095
1679931498005,1111486359903152,3.8250003,1.8570001,9.30405
1679931498007,1111486362405314,3.8370001,1.83105,9.357
1679931498009,1111486364907468,3.7510502,1.9380001,9.316051
1679931498011,1111486367409622,3.8250003,1.83105,9.319051
1679931498014,1111486369911776,3.7890003,1.7680501,9.345
1679931498017,1111486372413834,3.8389502,1.8709501,9.36705
1679931498019,1111486374915988,3.8080502,1.8499501,9.313951
1679931498022,1111486377418219,3.8509502,1.8000001,9.41205
1679931498025,1111486379920372,3.8080502,1.7950501,9.38805
1679931498027,1111486382422463,3.8940003,1.8090001,9.252001
1679931498029,1111486384924617,3.7390501,1.8709501,9.273001
1679931498031,1111486387426771,3.8730001,1.8499501,9.220051
1679931498037,1111486389928925,3.8029501,1.7710501,9.26805
1679931498039,1111486392431050,3.8509502,1.86405,9.24405
1679931498041,1111486395204357,3.8130002,1.7320501,9.144
1679931498043,1111486397435357,3.7840502,1.7299501,9.316051
1679931498045,1111486399937511,3.7699502,1.7730001,9.204
1679931498047,1111486402439405,3.7390501,1.74195,9.213
1679931498049,1111486404941559,3.7410002,1.62495,9.220051
1679931498052,1111486407443713,3.86805,1.7040001,9.193951
1679931498054,1111486409946098,3.7510502,1.69395,9.177
1679931498057,1111486412448021,3.79605,1.7400001,9.201
1679931498059,1111486414950194,3.765,1.6560001,9.12705
1679931498062,1111486417452347,3.8230503,1.5700501,9.141001
1679931498065,1111486419954501,3.624,1.6510501,9.237
1679931498067,1111486422456578,3.7240503,1.5270001,9.15795
1679931498070,1111486424958732,3.7909503,1.6609501,9.12705
1679931498074,1111486427460963,3.7840502,1.5769501,9.192
1679931498077,1111486429963117,3.732,1.608,9.165
1679931498079,1111486432465276,3.76305,1.4760001,9.205951
1679931498083,1111486434967353,3.7909503,1.608,9.204
1679931498085,1111486437469506,3.7890003,1.5270001,9.165
1679931498087,1111486439971660,3.8800502,1.503,9.237
1679931498089,1111486442473891,3.8560503,1.6030501,9.21105
1679931498092,1111486444976035,3.86595,1.52205,9.229951
1679931498094,1111486447478112,3.8440502,1.4280001,9.288
1679931498095,1111486449980266,3.969,1.5150001,9.36705
1679931498097,1111486452482189,3.8869503,1.5480001,9.31095
1679931498099,1111486454984549,3.9570003,1.524,9.352051
1679931498102,1111486457486703,3.9589503,1.5700501,9.453
1679931498104,1111486459988857,4.06005,1.5600001,9.33495
1679931498108,1111486462491011,4.026,1.5000001,9.41205
1679931498111,1111486464993131,4.03095,1.677,9.477
1679931498112,1111486467495054,4.04295,1.65795,9.45495
1679931498115,1111486469997208,3.9709501,1.677,9.42195
1679931498118,1111486472499362,4.065,1.74405,9.505051
1679931498120,1111486475001746,3.8869503,1.7209501,9.393001
1679931498122,1111486477503684,3.9970503,1.8349501,9.42405
1679931498125,1111486480005838,3.933,1.78005,9.501
1679931498127,1111486482507992,3.9180002,1.8690001,9.44295
1679931498129,1111486485010146,3.89895,1.8880501,9.460051
1679931498132,1111486487512228,3.8509502,1.98405,9.508051
1679931498134,1111486490014458,3.9090002,2.01,9.538951
1679931498137,1111486492516535,3.8869503,1.917,9.45495
1679931498140,1111486495018766,3.8509502,1.9740001,9.44295
1679931498142,1111486497520838,3.8370001,2.0070002,9.39105
1679931498144,1111486500022992,3.79905,1.9939501,9.54405
1679931498149,1111486502525146,3.7150502,2.0070002,9.474
1679931498150,1111486505027069,3.8080502,1.8570001,9.441
1679931498152,1111486507529468,3.7840502,1.8829501,9.462001
1679931498155,1111486510031621,3.8200502,1.845,9.429001
1679931498158,1111486512533775,3.86805,1.8589501,9.38595
1679931498160,1111486515035698,3.8130002,1.6699501,9.331051
1679931498162,1111486517537866,3.7800002,1.74405,9.325951
1679931498164,1111486520040020,3.8730001,1.69395,9.264001
1679931498167,1111486522542174,3.8080502,1.6129501,9.21105
1679931498170,1111486525044328,3.7890003,1.6609501,9.261001
1679931498172,1111486527546482,3.8590503,1.62705,9.11505
1679931498175,1111486530048631,3.76305,1.57395,9.184951
1679931498177,1111486532550785,3.8059502,1.54305,9.175051
1679931498179,1111486535052939,3.8419502,1.6099501,9.177
1679931498182,1111486537555093,3.8200502,1.503,9.144
1679931498186,1111486540057275,3.9090002,1.4760001,9.189
1679931498188,1111486542559352,3.89895,1.4070001,9.199051
1679931498190,1111486545061506,3.8200502,1.4140501,9.108001
1679931498192,1111486547563659,3.8610003,1.51005,9.165
1679931498195,1111486550065890,3.8710501,1.4809501,9.06705
1679931498198,1111486552568054,3.9060001,1.404,9.153001
1679931498200,1111486555070131,3.8710501,1.4790001,9.1369505
1679931498202,1111486557572285,3.8869503,1.47105,9.06495
1679931498204,1111486560074439,3.897,1.4950501,9.0720005
1679931498207,1111486562576372,3.9180002,1.3920001,9.10995
1679931498210,1111486565078756,3.9589503,1.51005,9.049951
1679931498212,1111486567580910,3.9619503,1.5480001,8.96895
1679931498215,1111486570083064,4.005,1.5769501,9.0720005
1679931498217,1111486572585218,4.0080004,1.7370001,9.015
1679931498219,1111486575087391,4.0069504,1.5840001,9.1060505
1679931498224,1111486577589314,3.9880502,1.6320001,8.99295
1679931498226,1111486580091699,4.08405,1.7209501,8.988001
1679931498229,1111486582593617,3.969,1.7040001,9.03405
1679931498231,1111486585095770,3.9400501,1.62195,9.232051
1679931498233,1111486587597924,3.9850502,1.7830501,9.07005
1679931498235,1111486590100078,3.9760501,1.6680001,9.055051
1679931498238,1111486592602155,3.969,1.7880001,9.010051
1679931498241,1111486595104400,3.8869503,1.7179501,9.052951
1679931498243,1111486597606554,3.9259503,1.7230501,9.160951
1679931498271,1111486600108708,3.90405,1.6369501,9.192
1679931498271,1111486602610785,3.8130002,1.5310501,9.14595
1679931498272,1111486605113015,3.8590503,1.6489501,9.08205
1679931498272,1111486607615092,3.8179502,1.6129501,9.09795
1679931498272,1111486610117246,3.9060001,1.55295,9.144
1679931498273,1111486612619477,3.8470502,1.4980501,9.193951
1679931498274,1111486615121535,3.8230503,1.5480001,9.199051
1679931498274,1111486617623689,3.8149502,1.5340501,9.201
1679931498274,1111486620125842,3.86805,1.4280001,9.21105
1679931498275,1111486622627996,3.8560503,1.4980501,9.08895
1679931498276,1111486625129919,3.8509502,1.4790001,9.175051
1679931498276,1111486627632097,3.8779502,1.47405,9.24405
1679931498276,1111486630134482,3.8230503,1.4140501,9.25905
1679931498278,1111486632636405,3.9180002,1.40205,9.141001
1679931498280,1111486635138559,3.969,1.383,9.283051
1679931498282,1111486637640727,3.89895,1.3560001,9.340051
1679931498284,1111486640142881,3.8490002,1.4670001,9.297001
1679931498288,1111486642645034,3.9540002,1.5619501,9.13395
1679931498290,1111486645147188,3.9229503,1.5790501,9.177
1679931498292,1111486647649342,3.9589503,1.5700501,9.393001
1679931498294,1111486650151506,4.05,1.5700501,9.232051
1679931498301,1111486652653660,4.05405,1.6699501,9.41895
1679931498301,1111486655155737,3.966,1.6390501,9.42195
1679931498303,1111486657657876,3.89895,1.6060501,9.393001
1679931498306,1111486660160106,3.8899503,1.67505,9.288
1679931498308,1111486662662260,3.9900002,1.725,9.349951
1679931498309,1111486665164337,4.00005,1.69395,9.37605
1679931498312,1111486667666491,3.9930003,1.8019501,9.316051
1679931498315,1111486670168636,3.8590503,1.7209501,9.316051
1679931498319,1111486672670790,3.9709501,1.7230501,9.346951
1679931498321,1111486675172944,3.9499502,1.7899501,9.189
1679931498324,1111486677675097,3.9280503,1.7209501,9.364051
1679931498327,1111486680177227,3.7840502,1.7320501,9.220051
1679931498329,1111486682679381,3.8419502,1.6849501,9.22305
1679931498330,1111486685181304,3.8730001,1.6560001,9.328051
1679931498332,1111486687683458,3.8830502,1.6489501,9.208051
1679931498336,1111486690185612,3.7410002,1.6339501,9.240001
1679931498341,1111486692687982,3.7840502,1.692,9.225
1679931498341,1111486695190135,3.7480502,1.6290001,9.26805
1679931498343,1111486697692058,3.7390501,1.57395,9.27795
1679931498346,1111486700194212,3.66,1.6609501,9.285001
1679931498348,1111486702696376,3.7170002,1.6060501,9.199051
1679931498350,1111486705198530,3.696,1.6390501,9.24405
1679931498352,1111486707700607,3.6670501,1.5600001,9.153001
1679931498355,1111486710202838,3.7099502,1.50705,9.40995
1679931498358,1111486712704982,3.7099502,1.58895,9.252001
1679931498360,1111486715207135,3.7099502,1.5960001,9.201
1679931498362,1111486717709212,3.68895,1.62195,9.25905
1679931498366,1111486720211366,3.7120502,1.7400001,9.1390505
1679931498368,1111486722713520,3.7120502,1.71105,9.213
1679931498372,1111486725215728,3.6450002,1.7299501,9.26805
1679931498376,1111486727717882,3.6690001,1.6819501,9.144
1679931498377,1111486730219959,3.6769502,1.74405,9.24195
1679931498379,1111486732722112,3.6769502,1.67295,9.25605
1679931498381,1111486735224266,3.7480502,1.65795,9.40005
1679931498383,1111486737726420,3.6810002,1.6510501,9.273001
1679931498385,1111486740228343,3.732,1.5600001,9.313951
1679931498388,1111486742730728,3.5760002,1.55295,9.316051
1679931498390,1111486745232877,3.6769502,1.5270001,9.38595
1679931498392,1111486747734800,3.63105,1.4640001,9.41205
1679931498395,1111486750236954,3.6670501,1.4620501,9.29205
1679931498398,1111486752739107,3.7560003,1.35405,9.24405
1679931498400,1111486755241266,3.6360002,1.4089501,9.328051
1679931498402,1111486757743651,3.6139503,1.3759501,9.394951
1679931498405,1111486760245574,3.6529503,1.368,9.333
1679931498408,1111486762747728,3.7699502,1.3090501,9.321
1679931498411,1111486765249863,3.7480502,1.31295,9.3
1679931498413,1111486767752017,3.693,1.3039501,9.26805
1679931498415,1111486770254094,3.7560003,1.3060501,9.31095
1679931498417,1111486772756324,3.86595,1.3920001,9.34305
1679931498420,1111486775258401,3.8470502,1.3609501,9.35505
1679931498422,1111486777760569,3.86595,1.4980501,9.264001
1679931498425,1111486780262723,3.9400501,1.5790501,9.240001
1679931498427,1111486782764954,3.86595,1.4089501,9.37605
1679931498430,1111486785267031,3.9810002,1.455,9.4140005
1679931498432,1111486787769184,3.9450002,1.641,9.394951
1679931498435,1111486790271371,3.9640503,1.5769501,9.369
1679931498438,1111486792773525,4.017,1.6459501,9.426001
1679931498441,1111486795275448,4.02105,1.6129501,9.40695
1679931498442,1111486797777602,4.0009503,1.7830501,9.370951
1679931498445,1111486800279973,4.05,1.8019501,9.38595
1679931498449,1111486802782127,4.0960503,1.7299501,9.44295
1679931498451,1111486805284280,3.9760501,1.8280501,9.333
1679931498453,1111486807786195,4.1389503,1.83105,9.36705
1679931498455,1111486810288348,4.0800004,1.8499501,9.316051
1679931498459,1111486812790502,4.0470004,1.917,9.25905
1679931498460,1111486815292887,4.086,2.0629501,9.32295
1679931498462,1111486817794810,4.0080004,1.9530001,9.1699505
1679931498466,1111486820296921,4.02405,2.022,9.35505
1679931498468,1111486822799075,4.0140004,2.082,9.23505
1679931498470,1111486825301229,3.9760501,2.118,9.24705
1679931498475,1111486827803305,4.03305,2.01,9.228001
1679931498477,1111486830305449,3.9180002,2.094,9.1369505
1679931498479,1111486832807680,3.8920503,2.0970001,9.144
1679931498481,1111486835309757,3.8779502,2.0650501,9.019051
1679931498482,1111486837811911,3.86595,2.01,9.07695
1679931498488,1111486840314046,3.8130002,2.0070002,9.07695
1679931498490,1111486842816200,3.732,2.08005,9.108001
1679931498492,1111486845318123,3.8029501,2.05305,9.024
1679931498494,1111486847820507,3.6840003,1.9740001,8.98095
1679931498496,1111486850322430,3.8059502,2.0370002,9.0379505
1679931498498,1111486852824843,3.7120502,1.9909501,9.031051
1679931498500,1111486855326766,3.70005,2.1010501,9.03405
1679931498502,1111486857828920,3.59505,2.0329502,9.003
1679931498505,1111486860331074,3.6670501,2.02905,9.012
1679931498508,1111486862833228,3.6769502,2.058,8.943001
1679931498510,1111486865335386,3.6450002,2.1319501,8.856
1679931498512,1111486867837540,3.6910503,2.1060002,8.919001
1679931498516,1111486870339694,3.6690001,2.08005,8.872951
1679931498518,1111486872841771,3.7410002,2.061,8.91195
1679931498521,1111486875343906,3.68895,2.1660001,8.955001
1679931498525,1111486877846060,3.729,2.13,8.920951
1679931498528,1111486880347174,3.63105,2.19495,9.015
1679931498528,1111486882848291,3.7530003,2.082,8.94495
1679931498530,1111486885352526,3.6019502,2.1709502,9.0379505
1679931498532,1111486887854680,3.72705,2.1060002,8.967
1679931498535,1111486890356834,3.7099502,2.0970001,9.0
1679931498537,1111486892858988,3.7099502,2.05095,9.024
1679931498540,1111486895361142,3.7560003,2.12505,9.07905
1679931498542,1111486897863300,3.624,2.0629501,9.09105
1679931498545,1111486900365453,3.7120502,2.0389502,9.07005
1679931498548,1111486902867607,3.7339501,2.0400002,9.12705
1679931498550,1111486905369530,3.7560003,2.05605,9.117001
1679931498552,1111486907871684,3.7699502,2.022,9.10995
1679931498555,1111486910373838,3.7750502,2.0700002,9.132
1679931498558,1111486912876223,3.72705,1.89495,9.153001
1679931498562,1111486915378127,3.82695,1.99995,9.232051
1679931498564,1111486917880281,3.8059502,2.02005,9.273001
1679931498567,1111486920382435,3.8440502,1.9699501,9.201
1679931498569,1111486922884588,3.76305,2.0370002,9.184951
1679931498571,1111486925386665,3.8749502,2.082,9.26595
1679931498573,1111486927888896,3.8590503,2.049,9.357
1679931498575,1111486930391050,3.9180002,2.14395,9.261001
1679931498578,1111486932893204,3.9379501,2.1349502,9.26595
1679931498580,1111486935395358,3.9420002,2.19705,9.199051
1679931498584,1111486937897497,3.9400501,2.0629501,9.319051
1679931498586,1111486940399574,3.9019501,2.15595,9.24195
1679931498588,1111486942901728,3.8920503,2.1420002,9.27105
1679931498590,1111486945403882,3.86295,2.15595,9.237
1679931498592,1111486947906113,3.9259503,2.16405,9.085951
1679931498596,1111486950408170,3.9280503,2.0970001,9.28995
1679931498600,1111486952910324,3.9229503,2.118,9.240001
1679931498602,1111486955412247,3.801,2.1010501,9.220051
1679931498604,1111486957943939,3.9019501,2.061,9.0379505
1679931498608,1111486960416761,3.9280503,2.022,9.10995
1679931498609,1111486962918915,3.8869503,1.9429501,9.10095
1679931498610,1111486965421069,3.86295,2.046,9.061951
1679931498612,1111486967922992,3.8230503,2.0370002,9.073951
1679931498615,1111486970425146,3.8509502,1.8690001,9.085951
1679931498618,1111486972927315,3.8110502,2.01,9.06705
1679931498620,1111486975429469,3.8779502,1.8910501,9.07005
1679931498622,1111486977931853,3.8370001,1.8280501,8.97105
1679931498625,1111486980433776,3.8710501,1.9380001,8.99505
1679931498627,1111486982935930,3.9589503,1.8139501,9.048
1679931498630,1111486985438088,3.9810002,1.8930001,9.004951
1679931498632,1111486987940242,3.9280503,1.8520501,9.012
1679931498637,1111486990442319,3.9090002,1.9050001,8.991
1679931498643,1111486992943430,3.9229503,1.9890001,8.95905
1679931498643,1111486995444507,3.9180002,1.98195,9.031051
1679931498646,1111486997948814,3.9810002,1.9480501,9.003
1679931498648,1111487000450968,3.9760501,1.96695,9.06705
1679931498649,1111487002953122,4.01205,1.9720501,9.085951
1679931498651,1111487005455059,4.0069504,1.99995,9.108001
1679931498652,1111487007957444,3.9540002,2.05605,9.07905
1679931498655,1111487010459598,4.038,2.0320501,9.09795
1679931498658,1111487012961751,4.03095,2.0650501,9.141001
1679931498660,1111487015463680,4.09305,2.0629501,9.163051
1679931498662,1111487017965833,4.053,1.9890001,9.108001
1679931498665,1111487020467987,3.9970503,2.061,9.205951
1679931498667,1111487022970141,3.9619503,1.9909501,9.144
1679931498670,1111487025472517,4.00005,2.05605,9.14595
1679931498675,1111487027974440,4.05405,2.0070002,9.27105
1679931498678,1111487030476594,4.05405,2.043,9.11505
1679931498679,1111487032978756,3.9760501,2.0989501,9.229951
1679931498681,1111487035481141,4.026,2.01705,9.201
1679931498683,1111487037983064,3.9400501,2.0070002,9.14595
1679931498685,1111487040485218,3.9619503,1.9789501,9.08895
1679931498688,1111487042987372,3.966,1.9980001,9.201
1679931498690,1111487045489526,4.0069504,1.9980001,9.181951
1679931498693,1111487047991603,4.0800004,2.0370002,9.096001
1679931498695,1111487050493833,3.9760501,1.9339501,9.156
1679931498698,1111487052995987,3.9570003,2.01705,9.024
1679931498700,1111487055498141,3.9829502,1.96695,9.108001
1679931498702,1111487058000242,3.9589503,1.9740001,9.23505
1679931498705,1111487060502396,3.9850502,1.9650002,9.204
1679931498708,1111487063004550,3.9850502,2.05305,9.18
1679931498711,1111487065506483,4.01205,2.09205,9.129001
1679931498714,1111487068008867,3.9810002,1.9890001,9.09405
1679931498716,1111487070511021,3.9900002,2.0650501,9.205951
1679931498719,1111487073013175,3.9229503,1.9960501,9.132
1679931498721,1111487075515313,3.9420002,2.01495,9.12495
1679931498724,1111487078017467,4.0350003,1.9650002,9.249001
1679931498726,1111487080519390,4.02405,1.917,9.016951
1679931498729,1111487083021775,3.9469502,1.9939501,9.096001
1679931498730,1111487085523928,3.9780002,1.9290001,9.1060505
1679931498732,1111487088025881,4.026,2.01,9.09405
1679931498735,1111487090528034,4.01205,1.9960501,9.141001
1679931498738,1111487093030188,4.05,2.085,9.184951
1679931498740,1111487095532342,4.05,1.9600501,9.108001
1679931498742,1111487098034713,4.11,1.95,9.09795
1679931498745,1111487100536636,4.038,1.8910501,9.168
1679931498749,1111487103038790,4.1410503,1.9740001,9.141001
1679931498751,1111487105540943,4.077,2.022,9.189
1679931498753,1111487108043044,4.086,2.0070002,9.21105
1679931498756,1111487110545198,4.14795,1.99995,9.1699505
1679931498759,1111487113047352,4.07205,1.8589501,9.144
1679931498761,1111487115549583,4.0350003,1.9650002,9.232051
1679931498762,1111487118051660,4.0470004,1.9860001,9.196951
1679931498765,1111487120553819,4.0410004,2.05095,9.309
1679931498769,1111487123055973,4.0680003,1.95,9.307051
1679931498770,1111487125558126,3.9949503,1.93095,9.120001
1679931498773,1111487128060049,4.13595,1.95,9.187051
1679931498775,1111487130562438,4.11495,1.9860001,9.1699505
1679931498778,1111487133064592,4.0800004,1.9549501,9.15795
1679931498780,1111487135566746,4.18905,1.9429501,9.28005
1679931498782,1111487138068669,4.1290503,1.9650002,9.237
1679931498787,1111487140570790,4.11495,1.95,9.1390505
1679931498789,1111487143072944,4.19595,1.9939501,9.172951
1679931498792,1111487145575021,4.11495,1.9699501,9.165
1679931498794,1111487148077251,4.0279503,2.0059502,9.15795
1679931498796,1111487150579405,3.9949503,2.05605,9.208051
1679931498798,1111487153081578,4.0999503,1.9980001,9.21105
1679931498800,1111487155583732,4.05,2.013,9.228001
1679931498802,1111487158085809,4.03095,1.9480501,9.1390505
1679931498805,1111487160587963,3.9760501,1.90005,9.129001
1679931498808,1111487163090179,3.9829502,2.025,9.1369505
1679931498810,1111487165592333,3.9379501,2.022,9.10095
1679931498813,1111487168094487,3.9970503,1.9219501,9.09795
1679931498815,1111487170596564,3.9450002,1.9720501,9.085951
1679931498818,1111487173098737,3.9930003,1.9480501,9.15795
1679931498820,1111487175600891,3.9109502,2.05305,8.96205
1679931498825,1111487178103122,3.9280503,2.08005,9.1060505
1679931498827,1111487180605198,3.9619503,2.0320501,9.05805
1679931498829,1111487183107356,3.9829502,2.0650501,9.11505
1679931498831,1111487185609510,3.9810002,2.12805,9.048
1679931498833,1111487188111664,3.9300003,2.0989501,9.10305
1679931498836,1111487190613587,3.8710501,2.02005,9.175051
1679931498838,1111487193115741,3.9420002,2.046,9.12705
1679931498842,1111487195618107,3.9520502,2.0269501,9.05805
1679931498843,1111487198120260,3.9019501,2.0650501,9.07905
1679931498846,1111487200622414,3.8830502,2.046,9.177
1679931498848,1111487203124337,3.9379501,2.0370002,9.108001
1679931498850,1111487205626491,3.966,2.0629501,9.043051
1679931498853,1111487208128568,4.03305,2.1319501,9.163051
1679931498856,1111487210631030,3.8440502,1.9720501,9.144
1679931498858,1111487213132953,3.9850502,1.96695,9.010051
1679931498861,1111487215635107,3.9619503,2.0370002,9.120001
1679931498863,1111487218137260,3.9810002,2.0400002,9.10095
1679931498867,1111487220639337,4.02405,2.085,9.220051
1679931498869,1111487223141491,4.0410004,1.9770001,9.24705
1679931498886,1111487225643645,4.05405,1.93095,9.252001
1679931498886,1111487228145852,4.0800004,2.0370002,9.22305
1679931498887,1111487230647929,4.0009503,2.02905,9.23505
1679931498888,1111487233150083,4.04505,2.0629501,9.156
1679931498888,1111487235652236,4.03305,2.05095,9.261001
1679931498888,1111487238154160,4.0999503,2.01705,9.165
1679931498889,1111487240656554,3.9930003,2.02905,9.261001
1679931498889,1111487243158708,4.13205,1.9530001,9.208051
1679931498890,1111487245660862,4.158,1.9789501,9.213
1679931498892,1111487248163016,4.05,1.9770001,9.204
1679931498897,1111487250664943,4.1200504,2.0370002,9.153001
1679931498899,1111487253167097,4.1530504,1.9939501,9.117001
1679931498901,1111487255669251,4.04505,2.049,9.22305
1679931498903,1111487258171390,4.07205,2.07495,9.192
1679931498905,1111487260673775,4.1340003,2.0629501,9.196951
1679931498908,1111487263175698,4.0680003,2.022,9.06495
1679931498910,1111487265677852,4.0140004,2.16405,9.120001
1679931498912,1111487268180006,3.9589503,2.11305,9.22305
1679931498917,1111487270682097,4.005,2.0029502,9.24195
1679931498919,1111487273184251,4.02405,2.0269501,9.153001
1679931498921,1111487275686481,3.9060001,2.12805,9.192
1679931498924,1111487278188635,4.005,2.0389502,9.12705
1679931498927,1111487280690712,4.02105,2.15205,9.129001
1679931498928,1111487283192857,3.86805,2.0989501,9.205951
1679931498930,1111487285695011,3.9469502,2.14695,9.12705
1679931498934,1111487288197242,3.9420002,2.1079502,9.201
1679931498938,1111487290699343,3.9300003,2.082,9.187051
1679931498940,1111487293201496,3.9469502,2.1780002,9.096001
1679931498942,1111487295703650,3.9160502,2.046,9.010051
1679931498943,1111487298205804,3.8130002,2.118,9.0720005
1679931498945,1111487300707958,3.8800502,2.15205,9.153001
1679931498950,1111487303210088,3.8560503,2.19195,9.201
1679931498951,1111487305712011,3.8080502,2.1760502,9.193951
1679931498954,1111487308214396,3.9019501,2.23095,9.10095
1679931498959,1111487310716319,3.8509502,2.1709502,9.15795
1679931498960,1111487313218472,3.8940003,2.1060002,9.120001
1679931498961,1111487315720674,3.7800002,2.1349502,9.1390505
1679931498964,1111487318222828,3.7680001,2.283,9.285001
1679931498968,1111487320724982,3.86295,2.1709502,9.228001
1679931498969,1111487323227136,3.8920503,2.14905,9.261001
1679931498971,1111487325729218,3.8899503,2.18505,9.309
1679931498975,1111487328231372,3.9090002,2.18505,9.1699505
1679931498977,1111487330733525,3.83205,2.226,9.193951
1679931498979,1111487333235679,3.8730001,2.25495,9.217951
1679931498981,1111487335737861,3.9090002,2.2069502,9.24405
1679931498983,1111487338240015,3.8920503,2.22795,9.325951
1679931498986,1111487340742169,3.86295,2.1060002,9.175051
1679931498988,1111487343244323,3.966,2.1780002,9.216001
1679931498993,1111487345746458,3.9180002,2.12805,9.33495
1679931498994,1111487348248381,4.03305,2.0320501,9.3
1679931498999,1111487350750765,3.89895,2.1420002,9.30195
1679931499000,1111487353252919,3.93495,2.05605,9.313951
1679931499001,1111487355755073,3.9019501,2.05605,9.30405
1679931499004,1111487358257001,3.9619503,2.16405,9.364051
1679931499009,1111487360759155,4.01205,2.0730002,9.264001
1679931499009,1111487363261309,3.9160502,2.0629501,9.346951
1679931499014,1111487365763693,4.02105,2.094,9.228001
1679931499014,1111487368265626,3.9780002,2.0320501,9.252001
1679931499019,1111487370767780,3.9180002,2.05605,9.28995
1679931499020,1111487373269934,3.8899503,2.1010501,9.337951
1679931499020,1111487375772088,3.9499502,2.07495,9.4459505
1679931499024,1111487378274165,4.0069504,2.049,9.30405
1679931499027,1111487380776318,3.9640503,2.01495,9.357
1679931499028,1111487383278549,3.9259503,2.15895,9.276
1679931499030,1111487385780702,4.0069504,2.1709502,9.325951
1679931499034,1111487388282779,3.9709501,2.2020001,9.261001
1679931499036,1111487390784943,3.9760501,2.18505,9.204
1679931499038,1111487393287097,3.9379501,2.08695,9.217951
1679931499040,1111487395789251,3.9259503,2.20005,9.31095
1679931499043,1111487398291405,3.9259503,2.08005,9.27105
1679931499046,1111487400793554,4.0470004,2.1780002,9.240001
1679931499051,1111487403295708,3.9229503,2.15205,9.25605
1679931499052,1111487405797861,3.9300003,2.1760502,9.3
1679931499054,1111487408300015,3.8509502,2.15895,9.14595
1679931499056,1111487410801914,3.8940003,2.2110002,9.156
1679931499058,1111487413304299,3.8850002,2.2020001,9.151051
1679931499061,1111487415806453,3.8590503,2.2110002,9.151051
1679931499062,1111487418308607,3.9109502,2.1349502,9.249001
1679931499069,1111487420810516,3.79395,2.15205,9.199051
1679931499069,1111487423312670,3.83205,2.2020001,9.144
1679931499071,1111487425814823,3.8800502,2.15205,9.204
1679931499076,1111487428316977,3.9019501,2.19705,9.175051
1679931499077,1111487430819131,3.933,2.23305,9.21105
1679931499079,1111487433321289,3.8590503,2.1420002,9.22305
1679931499083,1111487435823443,3.8490002,2.1760502,9.175051
1679931499084,1111487438325597,3.8470502,2.2069502,9.204
1679931499090,1111487440827727,3.79905,2.11305,9.172951
1679931499091,1111487443329803,3.7390501,2.19495,9.204
1679931499093,1111487445832034,3.8200502,2.19705,9.1060505
1679931499094,1111487448334188,3.86595,2.2069502,9.199051
1679931499097,1111487450836342,3.83505,2.25,9.168
1679931499099,1111487453338424,3.79395,2.19705,9.204
1679931499100,1111487455840578,3.9520502,2.22105,9.10995
1679931499103,1111487458342501,3.83205,2.1709502,9.192
1679931499107,1111487460844885,3.8800502,2.2470002,9.172951
1679931499109,1111487463347039,3.8370001,2.29095,9.196951
1679931499110,1111487465849184,3.8389502,2.15895,9.1369505
1679931499114,1111487468351338,3.8869503,2.18805,9.160951
1679931499116,1111487470853261,3.8490002,2.19195,9.163051
1679931499119,1111487473355415,3.9109502,2.2039502,9.21105
1679931499121,1111487475857597,3.8940003,2.2690501,9.163051
1679931499125,1111487478359981,3.86805,2.2039502,9.25905
1679931499129,1111487483361904,3.8920503,2.17995,9.30195
1679931499130,1111487483823135,3.9300003,2.2429502,9.177
1679931499131,1111487485866212,3.8539503,2.16105,9.15795
1679931499133,1111487488368289,3.8710501,2.21595,9.120001
1679931499137,1111487490870443,3.90405,2.1060002,9.184951
1679931499138,1111487493372674,3.9210002,2.154,9.1369505
1679931499142,1111487495874814,3.86595,2.0989501,9.07905
1679931499143,1111487498376967,3.8850002,2.2429502,9.08205
1679931499146,1111487500879044,3.7840502,2.16105,9.085951
1679931499148,1111487503381198,3.9259503,2.0970001,9.175051
1679931499152,1111487505883092,3.8899503,2.14395,9.13395
1679931499154,1111487508385477,3.9019501,2.16405,9.26805
1679931499156,1111487510887631,3.79605,2.15595,9.096001
1679931499158,1111487513389785,3.8509502,2.0329502,9.144
1679931499162,1111487515891928,3.7840502,2.08905,9.052951
1679931499163,1111487518393852,3.8419502,1.9620001,9.144
1679931499166,1111487520896005,3.82695,2.11305,9.129001
1679931499168,1111487523398159,3.8130002,2.02905,9.120001
1679931499171,1111487525900544,3.90405,2.05095,9.1369505
1679931499173,1111487528402698,3.7200003,2.14395,9.08895
1679931499176,1111487530904621,3.8470502,2.022,9.1060505
1679931499179,1111487533406775,3.8590503,2.15205,9.096001
1679931499180,1111487535909159,3.7600503,1.9720501,9.18
1679931499183,1111487538411313,3.8130002,2.02905,9.12495
1679931499186,1111487540913256,3.8800502,1.9699501,9.05805
1679931499188,1111487543415410,3.9229503,1.9720501,9.12495
1679931499190,1111487545917564,3.8490002,2.049,9.187051
1679931499194,1111487548419602,3.9060001,2.046,9.117001
1679931499197,1111487550921756,3.86805,2.01,9.1060505
1679931499200,1111487553423986,3.9060001,1.9860001,9.07005
1679931499202,1111487555926140,3.9420002,2.01705,9.085951
1679931499203,1111487558428294,3.8869503,2.094,9.151051
1679931499207,1111487560930448,3.8149502,2.0269501,9.232051
1679931499209,1111487563432525,3.9259503,2.12295,9.117001
1679931499210,1111487565934679,3.9019501,1.9909501,9.085951
1679931499213,1111487568436910,3.8869503,2.082,9.08895
1679931499216,1111487570939058,3.8800502,2.1079502,9.06
1679931499218,1111487573441135,3.9180002,2.15205,9.187051
1679931499220,1111487575943289,3.8830502,2.11995,9.04605
1679931499223,1111487578445212,3.9379501,2.1079502,8.991
1679931499226,1111487580947362,3.9739501,2.11995,9.12495
1679931499228,1111487583449516,3.9090002,2.1420002,9.117001
1679931499230,1111487585951901,3.8560503,2.11605,9.096001
1679931499234,1111487588453824,3.9259503,2.11605,9.14595
1679931499238,1111487590955987,3.93495,2.214,9.156
1679931499239,1111487593458140,3.8730001,2.11605,9.141001
1679931499241,1111487595960294,3.9210002,2.19,9.25905
1679931499243,1111487598462371,3.8940003,2.11305,9.177
1679931499246,1111487600964602,3.9019501,2.20005,9.184951
1679931499248,1111487603466766,3.897,2.12805,9.240001
1679931499250,1111487605968843,3.9280503,2.2110002,9.220051
1679931499253,1111487608471074,3.83205,2.19705,9.177
1679931499257,1111487610973150,3.8590503,2.082,9.151051
1679931499258,1111487613475304,3.86295,2.1780002,9.13395
1679931499260,1111487615977554,3.8509502,2.226,9.144
1679931499263,1111487618479708,3.8509502,2.1780002,9.163051
1679931499266,1111487620981785,3.82695,2.1679502,9.153001
1679931499269,1111487623483939,3.8920503,2.1370502,9.12705
1679931499271,1111487625986093,3.83205,2.1010501,9.1369505
1679931499275,1111487628488016,3.8179502,2.15205,9.204
1679931499278,1111487630990170,3.8830502,2.21895,9.28995
1679931499280,1111487633654180,3.897,2.1730502,9.228001
1679931499282,1111487635994718,3.9829502,2.14395,9.184951
1679931499283,1111487638496872,3.9499502,2.1349502,9.07905
1679931499286,1111487640998795,3.9259503,2.082,9.08895
1679931499288,1111487643500949,3.9570003,2.11305,9.10095
1679931499290,1111487646003107,3.966,2.12805,9.1060505
1679931499293,1111487648505491,3.9970503,2.1420002,9.144
1679931499296,1111487651007414,3.9450002,2.0970001,9.09105
1679931499298,1111487653509568,3.90405,2.1780002,9.24195
1679931499302,1111487656011694,3.8899503,2.11095,9.07905
1679931499304,1111487658513848,3.9540002,2.1660001,9.201
1679931499306,1111487661015925,3.8590503,2.058,9.165
1679931499309,1111487663518079,4.01205,2.061,9.1390505
1679931499312,1111487666020308,3.9469502,2.046,9.06705
1679931499315,1111487668522462,3.9570003,2.11305,9.151051
1679931499318,1111487671024616,3.9019501,2.14695,9.187051
1679931499320,1111487673526693,3.8899503,2.16105,9.096001
1679931499322,1111487676028876,3.8869503,2.14395,9.010051
1679931499324,1111487678531030,3.9139502,2.18505,9.052951
1679931499327,1111487681033261,3.93495,2.16405,9.085951
1679931499329,1111487683535337,3.8749502,2.2450502,9.163051
1679931499330,1111487686037491,3.8560503,2.19,9.13395
1679931499333,1111487688539655,3.8749502,2.118,9.12195
1679931499336,1111487691041809,3.8370001,2.18295,8.979
1679931499338,1111487693543732,3.9060001,2.1349502,9.144
1679931499341,1111487696045886,3.8539503,2.0970001,9.156
1679931499343,1111487698548271,3.8059502,2.14395,9.019051
1679931499346,1111487701050443,3.82695,2.16405,9.08895
1679931499352,1111487703552597,3.8110502,2.15895,9.019051
1679931499353,1111487706054520,3.7560003,2.07495,9.12705
1679931499355,1111487708556660,3.75795,2.1679502,9.036
1679931499359,1111487711058737,3.7720501,2.15895,9.08895
1679931499360,1111487713560968,3.8110502,2.1400502,9.15795
1679931499362,1111487716063122,3.86295,2.1349502,9.120001
1679931499363,1111487718565276,3.8230503,2.1349502,9.151051
1679931499366,1111487721067467,3.86805,2.15595,9.14595
1679931499368,1111487723569621,3.8470502,2.2039502,9.07905
1679931499372,1111487726071698,3.83505,2.1780002,9.0379505
1679931499375,1111487728573929,3.933,2.14395,9.096001
1679931499377,1111487731076021,3.8920503,2.19,9.08205
1679931499379,1111487733578175,3.9210002,2.12505,9.12195
1679931499381,1111487736080329,3.8899503,2.1780002,9.12705
1679931499383,1111487738582483,3.9139502,2.18295,9.1060505
1679931499388,1111487741084415,3.86295,2.2020001,9.019051
1679931499390,1111487743586568,3.8490002,2.1349502,9.07005
1679931499392,1111487746088953,3.9540002,2.2470002,9.0
1679931499394,1111487748591107,3.9280503,2.11995,9.0379505
1679931499397,1111487751093030,3.86595,2.14905,9.148951
1679931499398,1111487753595203,3.8920503,2.1660001,9.1060505
1679931499400,1111487756097357,3.8490002,2.16405,9.208051
1679931499404,1111487758599511,3.8080502,2.2039502,9.10095
1679931499407,1111487761101664,3.8940003,2.1709502,9.10995
1679931499409,1111487763603818,3.79395,2.18805,9.108001
1679931499411,1111487766105987,3.8149502,2.14695,9.1369505
1679931499413,1111487768608141,3.8490002,2.2090502,9.12705
1679931499416,1111487771110218,3.8470502,2.1780002,9.1699505
1679931499418,1111487773612372,3.8610003,2.259,9.07695
1679931499421,1111487776114502,3.86805,2.0269501,9.040951
1679931499425,1111487778616732,3.8419502,2.0989501,9.1369505
1679931499427,1111487781118886,3.8710501,2.1780002,9.06705
1679931499429,1111487783620963,3.90405,2.1400502,9.04605
1679931499431,1111487786123107,3.8749502,2.0370002,9.09105
1679931499434,1111487788625338,3.9259503,2.25495,9.151051
1679931499436,1111487791127492,3.9139502,2.16105,9.096001
1679931499438,1111487793629569,3.9760501,2.2020001,9.129001
1679931499440,1111487796131722,3.9880502,2.226,9.085951
1679931499443,1111487798633886,3.9090002,2.1780002,9.13395
1679931499446,1111487801136040,3.9400501,2.226,9.156
1679931499448,1111487803638194,3.9739501,2.21595,9.14595
1679931499450,1111487806140348,3.9739501,2.223,9.12495
1679931499453,1111487808642482,4.05705,2.2789502,9.13395
1679931499456,1111487811144405,4.017,2.25,9.055051
1679931499458,1111487813646559,4.0680003,2.25,9.192
1679931499462,1111487816148698,4.01205,2.2810502,9.165
1679931499464,1111487818650852,3.9829502,2.262,9.036
1679931499466,1111487821153006,3.9570003,2.2090502,9.019051
1679931499468,1111487823655160,3.9229503,2.29095,9.156
1679931499470,1111487826157237,3.9780002,2.23305,9.18
1679931499475,1111487828659400,4.01205,2.23305,9.0
1679931499478,1111487831161554,3.9709501,2.20005,9.07695
1679931499480,1111487833663708,4.026,2.2429502,9.085951
1679931499482,1111487836165861,3.9900002,2.1660001,9.205951
1679931499484,1111487838668092,4.0009503,2.2020001,9.08205
1679931499486,1111487841170150,3.9229503,2.1420002,9.129001
1679931499488,1111487843672304,3.8869503,2.1760502,9.144
1679931499491,1111487846174458,3.9930003,2.1040502,8.952001
1679931499493,1111487848676612,3.9180002,2.12805,9.175051
1679931499517,1111487851178732,3.9949503,2.0320501,9.12705
1679931499518,1111487853680886,3.9499502,2.08905,9.022051
1679931499518,1111487856183040,3.8710501,2.1370502,9.108001
1679931499518,1111487858685194,3.9109502,2.1709502,9.181951
1679931499519,1111487861187122,3.9019501,2.15895,9.117001
1679931499519,1111487863689276,3.9060001,2.15895,9.09405
1679931499519,1111487866191430,3.9540002,2.226,9.084001
1679931499520,1111487868693814,3.9900002,2.1370502,9.08205
1679931499520,1111487871195714,3.933,2.0770502,9.12195
1679931499520,1111487873697867,3.9210002,2.223,9.165
1679931499521,1111487876200021,3.9520502,2.118,9.108001
1679931499523,1111487878702175,3.9589503,2.0989501,9.117001
1679931499527,1111487881204252,3.9780002,2.0700002,9.229951
1679931499530,1111487883706483,3.9589503,2.1660001,9.160951
1679931499530,1111487886208637,3.9520502,2.1079502,9.192
1679931499533,1111487888710791,3.9880502,2.0989501,9.144
1679931499538,1111487891212944,4.0960503,2.13,9.172951
1679931499540,1111487893715021,3.9379501,2.085,9.168
1679931499542,1111487896217175,4.03095,2.12505,9.055051
1679931499544,1111487898719329,3.9900002,2.1709502,9.15795
1679931499547,1111487901221560,3.9400501,2.1319501,9.10095
1679931499549,1111487903723623,3.9970503,2.1370502,9.085951
1679931499550,1111487906225777,3.89895,2.22105,9.141001
1679931499554,1111487908727930,3.9300003,2.19495,9.163051
1679931499558,1111487911230084,4.005,2.19705,9.141001
1679931499560,1111487913732002,3.9229503,2.25,9.165
1679931499561,1111487916234387,3.9810002,2.19,9.144
1679931499565,1111487918736541,4.0609503,2.22795,9.175051
1679931499567,1111487921238464,4.0009503,2.3050501,9.26805
1679931499569,1111487923740618,4.02105,2.26395,9.220051
1679931499571,1111487926242758,4.01205,2.223,9.201
1679931499575,1111487928744911,3.969,2.22795,9.189
1679931499578,1111487931247065,3.9949503,2.214,9.25395
1679931499579,1111487933749213,4.00005,2.214,9.201
1679931499581,1111487936251367,3.9970503,2.32395,9.273001
1679931499583,1111487938753521,4.0080004,2.25195,9.237
1679931499586,1111487941255675,4.0410004,2.22795,9.232051
1679931499588,1111487943757829,4.0789504,2.19,9.177
1679931499591,1111487946259905,3.9450002,2.2350001,9.24705
1679931499594,1111487948762136,4.026,2.17995,9.252001
1679931499597,1111487951264213,4.0009503,2.15895,9.160951
1679931499599,1111487953766367,3.9019501,2.2399502,9.232051
1679931499600,1111487956268516,4.13595,2.1420002,9.261001
1679931499603,1111487958770670,4.0470004,2.11605,9.06705
1679931499606,1111487961272824,4.0680003,2.1349502,9.1699505
1679931499608,1111487963775054,4.1080503,2.1709502,9.25605
1679931499612,1111487966277131,4.0789504,2.2020001,9.1060505
1679931499614,1111487968779285,4.1200504,2.1730502,9.148951
1679931499617,1111487971281208,4.05,2.18805,9.14595
1679931499618,1111487973783362,4.1119504,2.18295,9.14595
1679931499621,1111487976285516,4.0960503,2.19495,9.192
1679931499623,1111487978787680,4.065,2.259,9.216001
1679931499626,1111487981289834,4.1080503,2.19495,9.15795
1679931499628,1111487983791988,4.1269503,2.23305,9.199051
1679931499631,1111487986294141,4.0789504,2.367,9.196951
1679931499634,1111487988796295,4.0350003,2.21895,9.10305
1679931499637,1111487991298372,4.0609503,2.2470002,9.06495
1679931499638,1111487993800526,4.06005,2.283,9.172951
1679931499642,1111487996302757,4.06005,2.28795,9.12495
1679931499643,1111487998804911,4.1410503,2.25195,9.14595
1679931499646,1111488001306973,4.0470004,2.298,9.220051
1679931499650,1111488003809126,3.9570003,2.2450502,9.11505
1679931499651,1111488006311280,4.0350003,2.223,9.273001
1679931499654,1111488008813434,3.969,2.226,9.240001
1679931499657,1111488011315694,3.8869503,2.21595,9.252001
1679931499658,1111488013817771,3.9709501,2.25495,9.148951
1679931499661,1111488016319925,3.9259503,2.2110002,9.201
1679931499663,1111488018822079,3.9400501,2.25195,9.1060505
1679931499667,1111488021324251,3.933,2.295,9.06705
1679931499669,1111488023826174,3.9810002,2.2810502,9.184951
1679931499671,1111488026328328,3.9810002,2.19495,9.073951
1679931499674,1111488028830713,3.9300003,2.223,9.172951
1679931499677,1111488031332857,3.9109502,2.25705,9.05805
1679931499679,1111488033835011,3.9540002,2.214,9.14595
1679931499681,1111488036336934,3.93495,2.23305,9.08205
1679931499683,1111488038839088,3.897,2.28795,9.249001
1679931499688,1111488041341237,3.9229503,2.25495,9.1060505
1679931499690,1111488043843622,3.9760501,2.283,9.156
1679931499692,1111488046345545,3.8710501,2.25,9.11505
1679931499694,1111488048847699,3.9739501,2.2090502,9.1390505
1679931499696,1111488051349776,3.9229503,2.2429502,9.240001
1679931499698,1111488053852011,3.9469502,2.3460002,9.187051
1679931499701,1111488056354165,3.9469502,2.23305,9.229951
1679931499703,1111488058856318,3.9160502,2.2810502,9.28005
1679931499706,1111488061358472,3.9930003,2.322,9.08205
1679931499708,1111488063860549,3.9300003,2.3500502,9.30195
1679931499711,1111488066362713,3.897,2.3410501,9.184951
1679931499714,1111488068864867,3.8940003,2.19,9.09105
1679931499717,1111488071367098,3.9229503,2.259,9.144
1679931499721,1111488073869160,3.9090002,2.2069502,9.18
1679931499722,1111488076371313,3.9640503,2.23095,9.26805
1679931499726,1111488078873467,3.969,2.18805,9.181951
1679931499731,1111488081374423,3.9300003,2.18505,9.205951
1679931499731,1111488083875386,3.9280503,2.2110002,9.187051
1679931499732,1111488086379925,3.9019501,2.19705,9.1060505
1679931499734,1111488088882079,3.90405,2.1060002,9.192
1679931499738,1111488091384233,4.04505,2.1760502,9.120001
1679931499739,1111488093886156,4.05,2.061,9.285001
1679931499741,1111488096388308,4.03095,2.08005,9.177
1679931499743,1111488098890462,3.9850502,2.2039502,9.172951
1679931499746,1111488101392616,4.005,2.1370502,9.199051
1679931499748,1111488103894770,4.09305,2.14395,9.144
1679931499751,1111488106396945,4.1940002,2.2069502,9.13395
1679931499754,1111488108899099,4.10295,2.16405,9.28995
1679931499757,1111488111401253,4.09305,2.16105,9.163051
1679931499759,1111488113903330,4.10505,2.20005,9.151051
1679931499762,1111488116405507,4.14795,2.2069502,9.24705
1679931499764,1111488118907738,4.13595,2.2020001,9.261001
1679931499767,1111488121409892,4.1269503,2.18805,9.229951
1679931499769,1111488123911969,4.14405,2.22105,9.23505
1679931499772,1111488126414123,4.13595,2.094,9.201
1679931499774,1111488128916296,4.0999503,2.20005,9.25905
1679931499777,1111488131418449,4.086,2.09205,9.11295
1679931499779,1111488133920603,4.10505,2.11095,9.26805
1679931499781,1111488136422757,4.1080503,2.17995,9.249001
1679931499784,1111488138924911,4.0350003,2.0970001,9.0720005
1679931499789,1111488141427065,4.11,2.11605,9.141001
1679931499792,1111488143928988,4.1460004,2.21895,9.177
1679931499794,1111488146431142,4.1509504,2.18505,9.261001
1679931499796,1111488148933291,4.0470004,2.1370502,9.217951
1679931499798,1111488151435675,4.09305,2.0770502,9.216001
1679931499801,1111488153937829,4.05405,2.16105,9.192
1679931499802,1111488156439983,3.9970503,2.0629501,9.1390505
1679931499804,1111488158941911,4.0410004,2.0730002,9.261001
1679931499807,1111488161444065,4.077,2.082,9.049951
1679931499809,1111488163946219,3.9160502,2.154,9.003
1679931499811,1111488166448373,3.9450002,2.05605,9.085951
1679931499813,1111488168950526,3.9619503,2.16405,9.052951
1679931499816,1111488171452694,4.038,2.07495,9.016951
1679931499818,1111488173954848,4.0009503,2.11605,9.084001
1679931499821,1111488176456925,3.9450002,2.16105,9.043051
1679931499823,1111488178959079,3.9540002,2.14395,9.09405
1679931499826,1111488181461219,3.9880502,2.19705,9.06
1679931499829,1111488183963450,3.9420002,2.21895,9.052951
1679931499833,1111488186465603,3.86295,2.16405,9.151051
1679931499835,1111488188967680,3.966,2.2399502,9.1369505
1679931499838,1111488191469834,3.86805,2.25195,8.991
1679931499840,1111488193971757,3.8590503,2.118,9.148951
1679931499842,1111488196474142,3.8749502,2.2090502,9.10095
1679931499843,1111488198976296,3.8149502,2.20005,9.163051
1679931499847,1111488201478459,3.8800502,2.15205,8.887951
1679931499849,1111488203980612,3.8850002,2.19195,9.14595
1679931499851,1111488206482536,3.7870502,2.15205,8.97105
1679931499853,1111488208984689,3.8869503,2.214,9.03405
1679931499857,1111488211486843,3.8179502,2.05095,9.010051
1679931499860,1111488213988915,3.7840502,2.154,9.12495
1679931499861,1111488216491146,3.8610003,2.0329502,9.085951
1679931499863,1111488218993300,3.8800502,2.01495,9.196951
1679931499866,1111488221495454,3.8560503,2.0700002,9.160951
1679931499868,1111488223997594,3.9400501,2.14695,9.09405
1679931499871,1111488226499670,3.8710501,1.9960501,9.003
1679931499876,1111488229001824,3.9379501,2.082,9.11295
1679931499879,1111488231504040,3.9060001,2.022,9.1060505
1679931499881,1111488234259040,3.89895,2.0370002,8.94495
1679931499882,1111488236508348,3.8830502,2.01,9.12495
1679931499884,1111488239010425,3.9259503,2.01,8.98305
1679931499887,1111488241512348,3.8940003,2.0070002,9.1390505
1679931499889,1111488244014752,3.9280503,1.93605,9.07005
1679931499892,1111488246516906,3.9019501,1.9699501,9.022051
1679931499894,1111488249019060,3.9420002,1.99995,9.010051
1679931499897,1111488251521214,3.9949503,1.9549501,9.049951
1679931499898,1111488254023353,4.0609503,2.0070002,9.1060505
1679931499901,1111488256525276,3.9739501,2.0989501,9.12195
1679931499903,1111488259027430,4.0740004,2.0650501,9.015
1679931499906,1111488261529584,4.03305,2.043,9.132
1679931499909,1111488264031968,4.1599503,2.09205,9.12195
1679931499913,1111488266533891,4.02405,2.15595,9.010051
1679931499915,1111488269036045,4.0350003,2.085,9.11505
1679931499918,1111488271538199,4.11495,2.1349502,9.06
1679931499920,1111488274040323,4.0800004,2.15895,9.09405
1679931499923,1111488276542400,4.01895,2.1420002,9.120001
1679931499926,1111488279044631,4.05705,2.1780002,8.97105
1679931499928,1111488281546784,4.005,2.22795,9.07905
1679931499929,1111488284048929,3.9880502,2.19195,9.028951
1679931499931,1111488286551006,3.9970503,2.2020001,8.907001
1679931499933,1111488289053160,4.0669503,2.16405,9.06705
1679931499936,1111488291555314,3.9880502,2.08005,9.015
1679931499939,1111488294057468,4.0410004,2.11605,8.96205
1679931499941,1111488296559607,3.9520502,2.1010501,8.928
1679931499943,1111488299061760,3.9739501,2.058,9.04605
1679931499947,1111488301563684,3.9109502,2.08905,9.084001
1679931499950,1111488304065808,3.9300003,2.1319501,9.024
1679931499952,1111488306568193,3.9229503,2.0700002,9.028951
1679931499955,1111488309070347,3.8389502,2.1319501,9.096001
1679931499958,1111488311572501,3.8940003,2.19705,9.03405
1679931499959,1111488314074424,3.8509502,2.223,8.991
1679931499961,1111488316576573,3.82995,2.295,8.92605
1679931499964,1111488319078650,3.79905,2.26395,9.028951
1679931499967,1111488321580880,3.72705,2.0700002,8.98305
1679931499969,1111488324083034,3.8200502,2.22105,9.049951
1679931499971,1111488326585184,3.86805,2.19,9.12705
1679931499974,1111488329087338,3.76305,2.0989501,9.016951
1679931499976,1111488331589415,3.7410002,2.13,9.012
1679931499978,1111488334091569,3.8029501,2.13,9.012
1679931499981,1111488336593723,3.89895,2.1370502,9.084001
1679931499983,1111488339095957,3.8110502,2.09205,9.07005
1679931499988,1111488341598034,3.8029501,1.98405,9.08205
1679931499990,1111488344100188,3.8059502,2.12295,9.05805
1679931499992,1111488346602333,3.9300003,2.0029502,9.11505
1679931499995,1111488349104487,3.7770002,2.08005,9.055051
1679931499997,1111488351606410,3.83205,2.0059502,9.10095
1679931499999,1111488354108795,3.8509502,1.96695,8.97105
1679931500001,1111488356610948,3.8749502,1.99995,9.15795
1679931500004,1111488359113111,3.7750502,1.9600501,9.13395
1679931500006,1111488361615034,3.801,2.0029502,9.019051
1679931500009,1111488364117188,3.8389502,1.9189501,9.09105
1679931500011,1111488366619342,3.8370001,1.9480501,9.12705
1679931500014,1111488369121732,3.8130002,1.914,9.132
1679931500017,1111488371623886,3.8059502,1.9740001,9.085951
1679931500018,1111488374125809,3.8940003,1.8930001,9.14595
1679931500021,1111488376627962,3.8850002,1.9219501,9.129001
1679931500027,1111488379130150,3.897,1.95,9.120001
1679931500029,1111488381632304,3.9810002,1.99995,9.06705
1679931500030,1111488384134458,3.9570003,1.9860001,9.156
1679931500032,1111488386636612,3.9300003,2.0070002,9.168
1679931500035,1111488389138766,3.9160502,2.0269501,9.1369505
1679931500037,1111488391640939,3.9589503,2.0730002,9.12705
1679931500039,1111488394143015,4.005,2.043,9.1390505
1679931500042,1111488396645169,3.9829502,2.02005,9.240001
1679931500043,1111488399147323,3.9400501,2.0650501,9.163051
1679931500047,1111488401649544,4.0350003,2.0269501,9.184951
1679931500049,1111488404151698,4.1269503,2.01,9.319051
1679931500052,1111488406653775,4.0470004,2.0629501,9.184951
1679931500054,1111488409155929,4.05705,1.9459502,9.1699505
1679931500058,1111488411658073,4.05405,2.18505,9.26595
1679931500059,1111488414159997,4.03305,2.16405,9.160951
1679931500063,1111488416662381,3.9880502,2.1709502,9.357
1679931500064,1111488419164535,4.00005,2.2069502,9.205951
1679931500067,1111488421666689,4.04295,2.1780002,9.3
1679931500069,1111488424168867,3.9760501,2.319,9.217951
1679931500071,1111488426670790,4.0789504,2.15895,9.328051
1679931500074,1111488429172944,4.0350003,2.11305,9.205951
1679931500077,1111488431675097,4.0410004,2.14695,9.264001
1679931500079,1111488434177496,3.9970503,2.118,9.189
1679931500081,1111488436679650,4.03095,2.14395,9.264001
1679931500084,1111488439181573,3.9300003,2.16105,9.21105
1679931500087,1111488441683727,3.9640503,2.19705,9.229951
1679931500089,1111488444185824,3.9420002,2.15895,9.175051
1679931500092,1111488446687978,3.9139502,2.19495,9.25605
1679931500094,1111488449190208,3.9379501,2.17995,9.193951
1679931500097,1111488451692362,3.8779502,2.17995,9.23505
1679931500101,1111488454194502,3.9739501,2.2110002,9.30195
1679931500102,1111488456696579,3.82695,2.15205,9.12495
1679931500104,1111488459198733,3.8869503,2.17995,9.193951
1679931500107,1111488461700887,3.9139502,2.18805,9.285001
1679931500109,1111488464202810,3.8920503,2.12505,9.12495
1679931500111,1111488466705224,3.9450002,2.082,9.14595
1679931500115,1111488469207377,3.8940003,2.05605,9.1369505
1679931500117,1111488471709300,3.9810002,2.0700002,9.25395
1679931500119,1111488474211685,3.9280503,2.022,9.225
1679931500130,1111488476713622,3.8800502,2.0370002,9.12195
1679931500130,1111488479215776,3.9760501,2.013,9.187051
1679931500130,1111488481718161,3.8749502,2.085,9.1369505
1679931500130,1111488484220314,3.9780002,2.0370002,9.10095
1679931500131,1111488486722238,3.9760501,1.9980001,9.084001
1679931500134,1111488489224396,3.86805,1.9240501,9.073951
1679931500138,1111488491726550,3.9060001,2.02005,9.10095
1679931500140,1111488494228627,3.9379501,1.9410001,9.144
1679931500142,1111488496730781,3.9060001,1.9620001,9.07695
1679931500144,1111488499233017,3.9499502,2.07495,9.156
1679931500147,1111488501735171,3.969,1.9530001,9.085951
1679931500149,1111488504237325,3.90405,2.02905,9.09105
1679931500151,1111488506739401,3.9139502,2.0629501,9.205951
1679931500155,1111488509241540,3.9520502,1.9600501,9.232051
1679931500158,1111488511743694,3.8869503,2.043,9.14595
1679931500159,1111488514245925,3.9520502,1.9720501,9.1369505
1679931500161,1111488516748002,3.9900002,2.02905,9.11295
1679931500164,1111488519250156,4.03305,2.02005,9.08895
1679931500169,1111488521752291,3.9880502,2.0650501,9.151051
1679931500170,1111488524254444,4.0350003,2.0700002,9.117001
1679931500171,1111488526756367,3.9520502,2.14395,9.175051
1679931500177,1111488529258492,3.9570003,2.058,9.12495
1679931500179,1111488531760877,4.0410004,2.16105,9.1369505
1679931500181,1111488534263031,4.0279503,2.082,9.184951
1679931500182,1111488536764954,3.969,2.09205,9.12195
1679931500184,1111488539267108,4.05705,2.13,9.163051
1679931500187,1111488541769262,3.8850002,2.11995,9.117001
1679931500189,1111488544271415,3.8940003,2.17995,9.229951
1679931500192,1111488546773800,4.0080004,2.21595,9.204
1679931500195,1111488549275723,3.9970503,2.1660001,9.153001
1679931500200,1111488551777829,3.8590503,2.1400502,9.204
1679931500201,1111488554279983,3.9229503,2.226,9.25395
1679931500201,1111488556782367,3.8920503,2.3050501,9.10995
1679931500204,1111488559284291,3.9060001,2.2039502,9.24405
1679931500207,1111488561786444,3.8940003,2.18505,9.21105
1679931500209,1111488564288492,3.897,2.1679502,9.177
1679931500213,1111488566790723,3.9640503,2.1760502,9.204
1679931500214,1111488569292800,3.9090002,2.226,9.201
1679931500218,1111488571794954,3.9900002,2.226,9.23505
1679931500219,1111488574297118,3.9570003,2.19495,9.307051
1679931500221,1111488576799272,3.969,2.14395,9.240001
1679931500225,1111488579301425,3.9210002,2.2039502,9.1699505
1679931500227,1111488581803349,3.83205,2.2110002,9.328051
1679931500229,1111488584305733,3.9160502,2.16405,9.307051
1679931500231,1111488586807646,3.9540002,2.12505,9.204
1679931500235,1111488589310031,3.9589503,2.1709502,9.23505
1679931500237,1111488591812185,3.9139502,2.17995,9.184951
1679931500239,1111488594314108,3.8869503,2.1420002,9.163051
1679931500241,1111488596816238,3.933,2.12295,9.12195
1679931500244,1111488599318392,3.9589503,2.22795,9.196951
1679931500247,1111488601820545,3.9229503,2.2020001,9.10305
1679931500250,1111488604322930,3.9400501,2.2090502,9.019051
1679931500252,1111488606824867,3.9259503,2.0680501,9.14595
1679931500254,1111488609327021,3.9160502,2.14395,9.14595
1679931500257,1111488611829175,3.9469502,2.0989501,9.12705
1679931500259,1111488614331252,3.9160502,2.16105,9.1060505
1679931500261,1111488616833406,3.89895,2.0989501,9.15795
1679931500264,1111488619335569,3.9090002,2.1079502,9.08205
1679931500267,1111488621837800,4.0279503,2.0730002,9.117001
1679931500271,1111488624339877,3.9739501,2.12505,9.031051
1679931500272,1111488626842031,3.9109502,2.013,9.189
1679931500275,1111488629344180,3.93495,2.15205,9.048
1679931500278,1111488631846334,4.01205,2.12295,9.165
1679931500279,1111488634348488,3.8590503,2.1420002,9.11295
1679931500281,1111488636850641,3.9259503,2.2039502,9.12705
1679931500284,1111488639352795,3.9589503,2.12805,9.12705
1679931500288,1111488641854935,3.9900002,2.025,9.15795
1679931500290,1111488644357089,3.9019501,2.0989501,9.06
1679931500292,1111488646859012,3.9109502,2.16105,9.10305
1679931500294,1111488649361166,3.8869503,2.25195,9.129001
1679931500299,1111488651863540,3.8920503,2.2020001,9.165
1679931500300,1111488654365694,3.9180002,2.223,9.160951
1679931500301,1111488656867848,3.86805,2.1709502,9.09405
1679931500304,1111488659369771,3.9709501,2.15895,9.26595
1679931500308,1111488661871920,3.897,2.1780002,9.05805
1679931500309,1111488664374074,3.9450002,2.1420002,9.193951
1679931500311,1111488666876228,3.9540002,2.223,9.12495
1679931500317,1111488669378387,3.9540002,2.15895,9.163051
1679931500319,1111488671880541,3.9280503,2.1660001,9.193951
1679931500321,1111488674382694,3.9280503,2.226,9.21105
1679931500325,1111488676884771,3.89895,2.19705,9.11505
1679931500327,1111488679386935,3.9259503,2.2399502,9.040951
1679931500330,1111488681888011,3.8560503,2.1079502,9.213
1679931500330,1111488684389090,3.8899503,2.12505,9.12495
1679931500334,1111488686893397,3.90405,2.18505,9.189
1679931500335,1111488689395551,3.8130002,2.118,9.163051
1679931500337,1111488691897737,3.8470502,2.0970001,8.98305
1679931500339,1111488694399891,3.7440002,2.15595,9.048
1679931500343,1111488696902045,3.8149502,2.07495,9.12495
1679931500344,1111488699403968,3.82695,2.1400502,9.153001
1679931500347,1111488701906353,3.8590503,2.1730502,9.132
1679931500349,1111488704408522,3.86595,2.20005,9.240001
1679931500351,1111488706910445,3.8830502,2.1349502,9.08895
1679931500355,1111488709412599,3.8179502,2.0400002,9.151051
1679931500359,1111488711914713,3.8899503,2.013,9.096001
1679931500360,1111488714416867,3.8920503,2.1010501,9.08895
1679931500363,1111488716919252,3.9780002,2.058,9.10995
1679931500365,1111488719421175,3.9540002,2.154,9.1369505
1679931500367,1111488721923329,3.9780002,2.19495,9.144
1679931500370,1111488724425507,3.8730001,2.05305,9.18
1679931500372,1111488726927661,3.9180002,2.0700002,9.144
1679931500374,1111488729429738,3.8539503,2.0989501,9.27795
1679931500377,1111488731931891,3.9229503,2.1400502,9.165
1679931500379,1111488734434122,3.8800502,2.15205,9.28005
1679931500381,1111488736936199,3.8800502,2.19705,9.151051
1679931500384,1111488739438353,3.9520502,2.1349502,9.168
1679931500387,1111488741940507,3.8730001,2.154,9.184951
1679931500389,1111488744442430,3.9180002,2.19,9.14595
1679931500392,1111488746944594,4.0069504,2.2669501,9.1699505
1679931500395,1111488749446978,3.93495,2.2039502,9.148951
1679931500397,1111488751949132,3.8059502,2.16405,9.25905
1679931500401,1111488754451305,3.8509502,2.09205,9.08895
1679931500403,1111488756953228,3.9259503,2.283,9.165
1679931500404,1111488759455382,3.8730001,2.118,9.192
1679931500407,1111488761957536,3.933,2.16405,9.144
1679931500409,1111488764459920,3.8940003,2.226,9.117001
1679931500411,1111488766962098,3.86595,2.1319501,9.129001
1679931500414,1111488769464021,3.8779502,2.0700002,9.156
1679931500417,1111488771966175,3.8830502,2.1370502,9.085951
1679931500419,1111488774468329,3.8590503,2.0989501,9.163051
1679931500422,1111488776970406,3.8179502,2.1730502,9.120001
1679931500424,1111488779472531,3.8749502,2.154,9.09795
1679931500427,1111488781974762,3.8130002,2.15595,9.21105
1679931500429,1111488784476915,3.86595,2.11095,9.1369505
1679931500432,1111488786979069,3.82695,2.2069502,9.23505
1679931500435,1111488789481137,3.8730001,2.08905,9.156
1679931500439,1111488791983291,3.9570003,2.18505,9.15795
1679931500442,1111488794485445,3.8730001,2.0770502,9.12495
1679931500443,1111488796987613,3.8509502,2.13,9.05805
1679931500444,1111488799489767,3.8419502,2.1780002,9.108001
1679931500447,1111488801991690,3.89895,2.2039502,9.1060505
1679931500449,1111488804493844,3.83505,2.16105,9.208051
1679931500451,1111488806996228,3.933,2.09205,9.10995
1679931500454,1111488809498382,3.9060001,2.12295,9.213
1679931500457,1111488812000536,3.8370001,2.16405,9.073951
1679931500460,1111488814502459,3.82695,2.15595,9.151051
1679931500462,1111488817004613,3.9060001,2.23095,9.12495
1679931500464,1111488819506767,3.9160502,2.22105,9.120001
1679931500467,1111488822008858,3.8490002,2.18505,9.193951
1679931500469,1111488824511088,3.8130002,2.1679502,9.204
1679931500472,1111488827013242,3.90405,2.15895,9.0720005
1679931500478,1111488829515392,3.7909503,2.14395,9.192
1679931500480,1111488832017469,3.969,2.1420002,9.220051
1679931500482,1111488834902777,3.8440502,2.21595,9.05805
1679931500483,1111488837123700,3.8730001,2.19,9.187051
1679931500485,1111488839524008,3.89895,2.1709502,9.25395
1679931500488,1111488842026165,3.8800502,2.1730502,9.181951
1679931500490,1111488844528242,3.9180002,2.12805,9.319051
1679931500493,1111488847030396,3.9619503,2.14395,9.23505
1679931500494,1111488849532550,3.8899503,2.1370502,9.208051
1679931500497,1111488852034704,3.9400501,2.18805,9.220051
1679931500499,1111488854536613,3.9139502,2.14395,9.177
1679931500502,1111488857038998,3.9619503,2.12505,9.177
1679931500504,1111488859541151,3.8470502,2.02905,9.12705
1679931500507,1111488862043305,3.9400501,2.1730502,9.1369505
1679931500509,1111488864545454,3.9850502,2.11305,9.132
1679931500514,1111488867047377,3.9970503,2.0680501,9.184951
1679931500517,1111488869549531,3.9400501,2.09205,9.228001
1679931500519,1111488872051916,3.9880502,2.0650501,9.085951
1679931500521,1111488874553839,3.9090002,2.061,9.240001
1679931500523,1111488877055993,3.9400501,2.1709502,9.228001
1679931500525,1111488879558146,4.0080004,2.15895,9.273001
1679931500528,1111488882060300,3.9229503,2.1079502,9.283051
1679931500529,1111488884562507,3.9760501,2.09205,9.309
1679931500531,1111488887064661,3.969,2.1760502,9.213
1679931500534,1111488889566815,3.9019501,2.1319501,9.26805
1679931500537,1111488892068969,3.9949503,2.223,9.295051
1679931500539,1111488894571123,3.9259503,2.1370502,9.193951
1679931500542,1111488897073209,3.9540002,2.1079502,9.228001
1679931500544,1111488899575362,3.9180002,2.15595,9.196951
1679931500547,1111488902077516,3.9139502,2.25705,9.141001
1679931500552,1111488904579733,3.9090002,2.1370502,9.192
1679931500553,1111488907081810,3.9619503,2.1760502,9.10305
1679931500556,1111488909583964,3.89895,2.19705,9.144
1679931500559,1111488912086118,3.90405,2.0989501,9.201
1679931500561,1111488914588271,3.9300003,2.15895,9.153001
1679931500564,1111488917090396,3.8940003,2.2399502,9.220051
1679931500566,1111488919592550,3.9280503,2.226,9.213
1679931500568,1111488922094704,3.8560503,2.1370502,9.172951
1679931500569,1111488924596858,3.8899503,2.21595,9.184951
1679931500572,1111488927099012,3.83205,2.25495,9.040951
1679931500575,1111488929600930,3.8730001,2.20005,9.05805
1679931500578,1111488932103084,3.8419502,2.2069502,9.1369505
1679931500580,1111488934605238,3.8110502,2.12505,9.085951
1679931500582,1111488937107391,3.7909503,2.2039502,9.1060505
1679931500584,1111488939609550,3.79905,2.25705,9.1369505
1679931500588,1111488942111704,3.8130002,2.214,8.96895
1679931500590,1111488944613858,3.7240503,2.2759502,9.010051
1679931500592,1111488947115935,3.8370001,2.334,9.08205
1679931500595,1111488949618180,3.83205,2.2470002,9.09405
1679931500598,1111488952120334,3.8370001,2.17995,9.129001
1679931500599,1111488954622487,3.8059502,2.23095,9.156
1679931500602,1111488957124564,3.8940003,2.226,9.096001
1679931500604,1111488959626718,3.8389502,2.15595,9.015
1679931500607,1111488962128838,3.9300003,2.19,9.14595
1679931500609,1111488964630761,3.7360501,2.22105,9.03405
1679931500612,1111488967133223,3.8590503,2.214,9.07005
1679931500614,1111488969635300,3.9109502,2.15895,9.220051
1679931500617,1111488972137443,3.9450002,2.14395,9.163051
1679931500619,1111488974639597,3.9090002,2.226,9.132
1679931500622,1111488977141520,3.7720501,2.12805,9.165
1679931500626,1111488979643660,3.8230503,2.2350001,9.192
1679931500629,1111488982145814,3.8490002,2.1319501,9.21105
1679931500631,1111488984647968,3.93495,2.1400502,9.09795
1679931500632,1111488987150122,3.9520502,2.2069502,9.24405
1679931500635,1111488989652276,3.9229503,2.15205,9.249001
1679931500637,1111488992154429,3.9139502,2.1730502,9.228001
1679931500643,1111488994656506,3.9900002,2.12505,9.189
1679931500645,1111488997158660,3.8800502,2.1709502,9.117001
1679931500646,1111488999660891,3.89895,2.12805,9.181951
1679931500650,1111489002163045,3.9300003,2.1730502,9.177
1679931500651,1111489004665122,3.8800502,2.12805,9.1699505
1679931500653,1111489007167276,3.897,2.082,9.220051
1679931500655,1111489009669429,3.8779502,2.12505,9.22305
1679931500657,1111489012171583,3.8590503,2.1780002,9.25605
1679931500659,1111489014673491,3.8610003,2.19,9.27105
1679931500663,1111489017175876,3.9619503,2.15895,9.220051
1679931500665,1111489019678030,4.0009503,2.14905,9.237
1679931500668,1111489022180194,3.9109502,2.094,9.160951
1679931500670,1111489024682348,3.9450002,2.154,9.144
1679931500672,1111489027184271,3.90405,2.1079502,9.21105
1679931500676,1111489029686425,3.9619503,2.15595,9.285001
1679931500678,1111489032188809,3.9760501,2.16405,9.117001
1679931500680,1111489034690963,3.9259503,2.23305,9.163051
1679931500682,1111489037192886,3.8800502,2.1370502,9.193951
1679931500684,1111489039695040,3.8590503,2.05305,9.261001
1679931500687,1111489042197194,3.8230503,2.12805,9.132
1679931500689,1111489044699367,3.8850002,2.19705,9.153001
1679931500692,1111489047201444,3.9619503,2.0770502,9.165
1679931500694,1111489049703674,3.7909503,2.0650501,9.09405
1679931500697,1111489052205828,3.79395,2.14905,9.09405
1679931500701,1111489054707895,3.75795,2.085,9.06495
1679931500703,1111489057210049,3.72705,2.1780002,9.08205
1679931500705,1111489059712280,3.8250003,2.082,9.117001
1679931500707,1111489062214434,3.79905,2.094,9.181951
1679931500709,1111489064716587,3.801,2.11605,9.024
1679931500712,1111489067218679,3.7600503,2.14905,9.160951
1679931500715,1111489069720833,3.8130002,2.0700002,9.08895
1679931500718,1111489072222987,3.7819502,2.08905,9.040951
1679931500721,1111489074725218,3.8250003,2.0629501,9.132
1679931500723,1111489077227314,3.7770002,2.049,9.10995
1679931500726,1111489079729468,3.7030501,2.11305,9.1369505
1679931500728,1111489082231622,3.8509502,2.05605,9.141001
1679931500730,1111489084733545,3.8200502,2.12295,9.096001
1679931500732,1111489087235698,3.86805,2.02905,9.12705
1679931500734,1111489089738083,3.8370001,2.09205,9.15795
1679931500738,1111489092240237,3.8230503,2.14695,9.12705
1679931500741,1111489094742160,3.79905,2.1349502,9.1699505
1679931500743,1111489097244314,3.8110502,2.0730002,9.1369505
1679931500744,1111489099746468,3.8130002,1.9530001,9.09795
1679931500755,1111489102248622,3.696,2.0370002,9.201
1679931500755,1111489104750698,3.6430502,2.08005,9.153001
1679931500755,1111489107253160,3.72705,2.0389502,9.09795
1679931500756,1111489109755102,3.732,2.049,9.06
1679931500759,1111489112257256,3.7840502,2.02005,9.10095
1679931500759,1111489114759333,3.7770002,2.0269501,9.0720005
1679931500761,1111489117261487,3.7030501,2.049,9.168
1679931500764,1111489119763641,3.7870502,2.09205,9.07905
1679931500767,1111489122265852,3.7840502,2.0329502,9.06
1679931500770,1111489124767929,3.79905,2.11305,9.181951
1679931500772,1111489127270083,3.7150502,2.14905,9.084001
1679931500776,1111489129772267,3.75795,2.022,9.010051
1679931500778,1111489132274421,3.7840502,2.11305,9.189
1679931500780,1111489134776344,3.801,2.0389502,9.09795
1679931500782,1111489137278498,3.7680001,2.0730002,9.14595
1679931500784,1111489139780882,3.7770002,2.09205,9.156
1679931500787,1111489142283045,3.8749502,2.11995,9.10995
1679931500789,1111489144784968,3.8029501,2.0370002,9.261001
1679931500792,1111489147287122,3.82995,2.0059502,9.1390505
1679931500795,1111489149789276,3.8080502,2.02905,9.08895
1679931500798,1111489152291425,3.8029501,2.0389502,9.012
1679931500799,1111489154793810,3.8730001,2.14905,9.09405
1679931500801,1111489157295733,3.8370001,2.02905,9.204
1679931500806,1111489159797886,3.9109502,2.0770502,9.201
1679931500810,1111489162300049,3.86595,2.12295,9.204
1679931500810,1111489164802203,3.8940003,2.1679502,9.297001
1679931500815,1111489167304280,3.8509502,2.0970001,9.196951
1679931500816,1111489169806434,3.9570003,2.085,9.201
1679931500819,1111489172308656,3.8869503,2.08695,9.216001
1679931500820,1111489174810810,3.8590503,2.0989501,9.216001
1679931500825,1111489177312963,3.9829502,2.07495,9.129001
1679931500826,1111489179815040,3.9570003,2.094,9.3
1679931500827,1111489182317194,3.9739501,2.07495,9.11295
1679931500831,1111489184819357,3.8830502,2.1760502,9.156
1679931500833,1111489187321588,3.89895,2.1679502,9.11295
1679931500835,1111489189823665,3.933,2.082,9.184951
1679931500838,1111489192325819,3.82995,2.15595,9.192
1679931500841,1111489194827972,3.83205,2.061,9.14595
1679931500842,1111489197330122,3.82695,2.18805,9.189
1679931500844,1111489199832045,3.7360501,2.11305,9.1390505
1679931500847,1111489202334430,3.7720501,2.15595,9.165
1679931500853,1111489204836565,3.8110502,2.05305,9.192
1679931500854,1111489207338719,3.7390501,2.1780002,9.163051
1679931500855,1111489209840642,3.7480502,2.1420002,9.11295
1679931500859,1111489212342796,3.8370001,2.1060002,9.120001
1679931500860,1111489214844950,3.7840502,2.14695,9.165
1679931500861,1111489217347026,3.7600503,2.08905,9.240001
1679931500864,1111489219849257,3.7200003,2.154,9.15795
1679931500867,1111489222351411,3.7219503,2.21895,9.148951
1679931500869,1111489224853565,3.7339501,2.13,9.096001
1679931500872,1111489227355647,3.7510502,2.085,9.151051
1679931500875,1111489229857801,3.7510502,2.2039502,9.15795
1679931500878,1111489232359955,3.6979501,2.14695,9.1390505
1679931500880,1111489234862185,3.732,2.16105,9.199051
1679931500882,1111489237364247,3.7890003,2.1319501,9.049951
1679931500884,1111489239866401,3.7890003,2.19,9.11295
1679931500890,1111489242368555,3.732,2.223,8.998051
1679931500892,1111489244870709,3.72705,2.2429502,9.084001
1679931500893,1111489247372868,3.72705,2.2690501,9.06
1679931500894,1111489249874791,3.6910503,2.1709502,9.09405
1679931500897,1111489252377175,3.7240503,2.25495,9.12705
1679931500899,1111489254879329,3.7819502,2.16105,9.11505
1679931500902,1111489257381483,3.8110502,2.19,9.07695
1679931500904,1111489259883425,3.8080502,2.2110002,9.14595
1679931500907,1111489262385579,3.7600503,2.15205,9.1699505
1679931500910,1111489264887733,3.8110502,2.1709502,9.004951
1679931500912,1111489267389887,3.8130002,2.14395,9.08205
1679931500915,1111489269892262,3.8130002,2.1660001,9.015
1679931500918,1111489272394185,3.83505,2.19195,9.120001
1679931500920,1111489274896262,3.8419502,2.19705,9.177
1679931500922,1111489277398493,3.79905,2.14395,9.196951
1679931500926,1111489279900565,3.9400501,2.1730502,9.165
1679931500929,1111489282402796,3.8250003,2.22105,9.199051
1679931500931,1111489284904950,3.8130002,2.12805,9.249001
1679931500932,1111489287407104,3.8230503,2.1319501,9.24705
1679931500935,1111489289909180,3.8149502,2.1660001,9.10995
1679931500937,1111489292411353,3.8749502,2.14905,9.117001
1679931500939,1111489294913507,3.9109502,2.2039502,9.1060505
1679931500942,1111489297415661,3.8779502,2.14395,9.196951
1679931500945,1111489299917815,3.8440502,2.15595,9.05805
1679931500948,1111489302419979,3.9180002,2.1679502,9.175051
1679931500949,1111489304922133,3.82995,2.25495,9.21105
1679931500952,1111489307424286,3.86595,2.259,9.1060505
1679931500955,1111489309926440,3.8940003,2.19,9.11295
1679931500958,1111489312428598,3.90405,2.295,9.117001
1679931500960,1111489314930521,3.9280503,2.25195,9.12495
1679931500964,1111489317432675,3.8940003,2.21595,9.184951
1679931500966,1111489319934829,3.8749502,2.25495,9.010051
1679931500968,1111489322436988,3.9970503,2.23305,9.09795
1679931500970,1111489324939142,3.8869503,2.23305,9.084001
1679931500972,1111489327441295,3.9300003,2.2429502,9.0720005
1679931500974,1111489329943449,3.86595,2.21595,9.0720005
1679931500977,1111489332445603,3.9060001,2.2429502,9.193951
1679931500979,1111489334947685,3.8590503,2.2740002,9.175051
1679931500982,1111489337449839,3.9060001,2.2429502,9.172951
1679931500984,1111489339951993,3.9420002,2.259,9.1060505
1679931500987,1111489342454147,3.9109502,2.226,9.144
1679931500990,1111489344956301,3.83205,2.223,9.24705
1679931500992,1111489347458492,3.7909503,2.22795,9.13395
1679931500995,1111489349960646,3.8899503,2.223,9.085951
1679931500998,1111489352462569,3.8730001,2.2669501,9.14595
1679931501001,1111489354964723,3.8830502,2.19195,9.1369505
1679931501004,1111489357467108,3.9060001,2.2090502,9.21105
1679931501005,1111489359969262,3.8509502,2.32605,9.07695
1679931501009,1111489362471415,3.9019501,2.14905,9.1060505
1679931501010,1111489364973339,3.8419502,2.19195,9.181951
1679931501012,1111489367475502,3.8230503,2.2710001,9.12195
1679931501014,1111489369977656,3.75795,2.2069502,9.1390505
1679931501017,1111489372479733,3.8869503,2.25705,9.1369505
1679931501019,1111489374981964,3.9090002,2.26395,9.019051
1679931501022,1111489377484132,3.9060001,2.295,9.192
1679931501025,1111489379986286,3.9139502,2.259,9.09405
1679931501027,1111489382488440,3.8899503,2.25,9.13395
1679931501030,1111489384990516,3.8730001,2.3479502,9.040951
1679931501032,1111489387492670,3.8610003,2.29095,9.163051
1679931501035,1111489389994901,3.8940003,2.259,9.144
1679931501042,1111489392497055,3.9210002,2.2810502,9.24405
1679931501044,1111489394999118,3.9139502,2.29095,9.1369505
1679931501046,1111489397501272,3.82995,2.3359501,9.21105
1679931501047,1111489400003426,3.83505,2.3479502,9.184951
1679931501049,1111489402505579,3.8200502,2.286,9.189
1679931501050,1111489405007733,3.8590503,2.3410501,9.13395
1679931501052,1111489407509877,3.8869503,2.2759502,9.229951
1679931501055,1111489410012031,3.86295,2.21595,9.28995
1679931501058,1111489412514185,3.8610003,2.3119502,9.184951
1679931501060,1111489415016339,3.801,2.2789502,9.1369505
1679931501062,1111489417518262,3.8590503,2.3410501,9.193951
1679931501065,1111489420020397,3.9280503,2.36205,9.220051
1679931501067,1111489422522781,3.8440502,2.32905,9.264001
1679931501070,1111489425024935,3.8779502,2.30205,9.14595
1679931501072,1111489427526858,3.86595,2.25495,9.163051
1679931501077,1111489430029016,3.9400501,2.367,9.196951
1679931501080,1111489432531170,3.8940003,2.3479502,9.168
1679931501081,1111489435108939,3.9450002,2.3140502,9.08205
1679931501083,1111489437535493,3.9180002,2.283,9.129001
1679931501085,1111489440037646,3.9019501,2.259,9.163051
1679931501087,1111489442539800,3.83505,2.3070002,9.07695
1679931501090,1111489445041954,3.86805,2.38905,9.184951
1679931501094,1111489447544031,3.86805,2.3119502,9.18
1679931501096,1111489450046166,3.86295,2.2470002,9.163051
1679931501100,1111489452548320,3.8920503,2.3719501,9.165
1679931501101,1111489455050551,3.8149502,2.3460002,9.232051
1679931501103,1111489457552627,3.897,2.259,9.153001
1679931501105,1111489460054781,3.82995,2.25,9.156
1679931501108,1111489462556935,3.9540002,2.3050501,9.187051
1679931501110,1111489465059089,3.9540002,2.2690501,9.232051
1679931501115,1111489467561012,3.90405,2.35305,9.1699505
1679931501118,1111489470063386,3.9090002,2.3119502,9.141001
1679931501121,1111489472564462,3.8230503,2.35305,9.07695
1679931501121,1111489475065541,3.82695,2.19705,9.175051
1679931501126,1111489477569617,3.8800502,2.358,9.153001
1679931501128,1111489480071770,3.9090002,2.3770502,9.11505
1679931501130,1111489482573919,3.8590503,2.2789502,9.12495
1679931501132,1111489485076304,3.8830502,2.22105,9.09405
1679931501134,1111489487578227,3.8419502,2.2020001,9.13395
1679931501135,1111489490080381,3.8590503,2.25705,9.028951
1679931501137,1111489492582540,3.9229503,2.319,9.165
1679931501139,1111489495084693,3.8370001,2.2810502,9.172951
1679931501143,1111489497586770,3.8539503,2.28795,9.160951
1679931501145,1111489500088924,3.89895,2.26395,9.02595
1679931501147,1111489502591141,3.83505,2.286,9.184951
1679931501153,1111489505093218,3.89895,2.3770502,9.151051
1679931501155,1111489507595372,3.8899503,2.3380501,9.172951
1679931501158,1111489510097526,3.7840502,2.394,9.085951
1679931501161,1111489512599656,3.8490002,2.3719501,9.03405
1679931501162,1111489515101579,3.82995,2.358,9.201
1679931501164,1111489517603963,3.8110502,2.32605,9.12705
1679931501165,1111489520106117,3.8110502,2.3860502,9.06
1679931501167,1111489522608271,3.8059502,2.43195,9.11505
1679931501170,1111489525110194,3.8940003,2.295,9.192
1679931501172,1111489527612348,3.90405,2.36505,9.049951
1679931501176,1111489530114502,3.8749502,2.3479502,9.043051
1679931501178,1111489532616656,3.8590503,2.3740501,9.129001
1679931501180,1111489535118809,3.86295,2.36205,9.276
1679931501182,1111489537620959,3.9019501,2.3740501,9.229951
1679931501185,1111489540123113,3.8940003,2.394,9.073951
1679931501189,1111489542625267,3.7819502,2.3119502,9.24195
1679931501192,1111489545127439,3.93495,2.322,9.175051
1679931501194,1111489547629516,3.9760501,2.3140502,9.10995
1679931501196,1111489550131747,3.8779502,2.2759502,9.148951
1679931501198,1111489552633900,3.9060001,2.28795,9.120001
1679931501200,1111489555135977,3.9090002,2.2470002,9.148951
1679931501202,1111489557638103,3.8940003,2.391,9.175051
1679931501205,1111489560140257,3.9180002,2.154,9.148951
1679931501207,1111489562642488,3.9090002,2.2669501,9.12705
1679931501210,1111489565144642,3.89895,2.2810502,9.151051
1679931501212,1111489567646719,3.90405,2.319,9.09795
1679931501216,1111489570148872,3.9180002,2.223,9.08895
1679931501218,1111489572651026,3.8779502,2.2669501,9.165
1679931501220,1111489575153180,3.9970503,2.38905,9.181951
1679931501222,1111489577655348,3.9300003,2.3719501,9.12495
1679931501227,1111489580157502,3.9090002,2.3460002,9.13395
1679931501229,1111489582659656,3.9949503,2.286,9.156
1679931501231,1111489585161810,3.8470502,2.38395,9.141001
1679931501233,1111489587663747,3.8920503,2.3359501,9.168
1679931501236,1111489590165900,3.969,2.3070002,9.216001
1679931501238,1111489592668285,3.8899503,2.391,9.096001
1679931501240,1111489595170208,3.8869503,2.3479502,9.204
1679931501242,1111489597672362,3.9180002,2.358,9.12495
1679931501245,1111489600174516,3.9810002,2.3460002,9.172951
1679931501247,1111489602676670,3.9829502,2.3070002,9.144
1679931501250,1111489605178747,3.93495,2.295,9.141001
1679931501252,1111489607680977,3.8590503,2.286,9.120001
1679931501255,1111489610183131,3.86595,2.358,9.187051
1679931501257,1111489612685285,3.8800502,2.3790002,9.148951
1679931501260,1111489615187362,3.8920503,2.28795,9.181951
1679931501264,1111489617689521,3.8470502,2.2690501,9.144
1679931501267,1111489620191675,3.8899503,2.46495,9.199051
1679931501269,1111489622693829,3.8389502,2.2450502,9.043051
1679931501271,1111489625195982,3.8920503,2.2710001,9.193951
1679931501276,1111489627698150,3.8920503,2.3460002,9.168
1679931501277,1111489630200304,3.8539503,2.295,9.216001
1679931501279,1111489632702458,3.8200502,2.331,9.132
1679931501281,1111489635204381,3.82695,2.42505,9.175051
1679931501283,1111489637706535,3.8509502,2.38905,9.11505
1679931501285,1111489640208926,3.7890003,2.3359501,9.120001
1679931501287,1111489642711079,3.8370001,2.427,9.13395
1679931501290,1111489645213003,3.8200502,2.3479502,9.196951
1679931501292,1111489647715156,3.8539503,2.3460002,9.11295
1679931501295,1111489650217314,3.7909503,2.3380501,9.12705
1679931501298,1111489652719468,3.7870502,2.4130502,9.15795
1679931501302,1111489655221545,3.8080502,2.3479502,9.12705
1679931501303,1111489657723776,3.8080502,2.45295,9.14595
1679931501305,1111489660225930,3.8370001,2.38905,9.11295
1679931501307,1111489662728084,3.7909503,2.3820002,9.160951
1679931501310,1111489665230237,3.696,2.319,9.148951
1679931501312,1111489667732314,3.7870502,2.367,9.015
1679931501317,1111489670234469,3.732,2.38905,9.1060505
1679931501319,1111489672736700,3.7720501,2.3050501,9.14595
1679931501321,1111489675238777,3.82995,2.3050501,9.1060505
1679931501323,1111489677740931,3.8059502,2.2710001,8.964001
1679931501326,1111489680243085,3.76305,2.394,9.187051
1679931501327,1111489682745247,3.6810002,2.322,9.11505
1679931501330,1111489685247401,3.8110502,2.3100002,9.12495
1679931501332,1111489687749324,3.7870502,2.29095,9.12195
1679931501335,1111489690251709,3.8059502,2.3719501,9.1390505
1679931501339,1111489692753849,3.8590503,2.295,9.04605
1679931501341,1111489695256003,3.8059502,2.2669501,9.30405
1679931501343,1111489697758157,3.8059502,2.36505,9.153001
1679931501345,1111489700260080,3.8110502,2.32905,9.153001
1679931501348,1111489702762233,3.79605,2.367,9.193951
1679931501350,1111489705264642,3.8490002,2.39595,9.108001
1679931501352,1111489707766796,3.8470502,2.46495,9.1390505
1679931501357,1111489710268719,3.8710501,2.35305,9.08895
1679931501358,1111489712770873,3.8539503,2.367,9.07905
1679931501361,1111489715273003,3.8800502,2.43405,9.12705
1679931501363,1111489717775157,3.89895,2.3740501,9.208051
1679931501365,1111489720277310,3.90405,2.41995,9.196951
1679931501368,1111489722779464,3.9900002,2.319,9.132
1679931501370,1111489725281618,3.8800502,2.4799502,9.156
1679931501381,1111489727783781,3.8940003,2.45595,9.199051
1679931501381,1111489730285858,3.8850002,2.4100502,9.184951
1679931501382,1111489732788012,3.90405,2.42505,9.252001
1679931501382,1111489735290185,3.9280503,2.45595,9.261001
1679931501383,1111489737792415,3.8800502,2.4169502,9.153001
1679931501385,1111489740294492,3.9499502,2.3860502,9.283051
1679931501387,1111489742796646,3.8730001,2.319,9.29205
1679931501390,1111489745298800,3.8490002,2.35305,9.24195
1679931501392,1111489747800930,3.82695,2.355,9.237
1679931501396,1111489750302853,3.9139502,2.4409502,9.177
1679931501398,1111489752805238,3.8419502,2.331,9.24705
1679931501400,1111489755307391,3.8490002,2.3359501,9.144
1679931501402,1111489757809334,3.8389502,2.3460002,9.276
1679931501405,1111489760311487,3.8440502,2.358,9.12495
1679931501408,1111489762813641,3.82695,2.3700001,9.160951
1679931501410,1111489765315795,3.8509502,2.427,9.085951
1679931501414,1111489767817872,3.8560503,2.40105,9.22305
1679931501417,1111489770320103,3.8590503,2.391,9.261001
1679931501419,1111489772822257,3.8389502,2.3700001,9.151051
1679931501421,1111489775324410,3.79605,2.4049501,9.108001
1679931501423,1111489777826487,3.7680001,2.32905,9.132
1679931501425,1111489780328636,3.7560003,2.3740501,9.141001
1679931501427,1111489782830790,3.7530003,2.3479502,9.132
1679931501430,1111489785333021,3.7240503,2.4390001,9.163051
1679931501432,1111489787835098,3.82695,2.367,9.192
1679931501436,1111489790337224,3.7480502,2.355,9.153001
1679931501439,1111489792839378,3.7770002,2.46105,9.1390505
1679931501440,1111489795341531,3.7339501,2.4169502,9.172951
1679931501443,1111489797843454,3.7480502,2.3460002,9.08895
1679931501445,1111489800345839,3.7080002,2.42505,9.096001
1679931501448,1111489802847968,3.6840003,2.40105,9.201
1679931501451,1111489805350122,3.7170002,2.4439502,9.11505
1679931501455,1111489807852045,3.82995,2.3700001,9.10095
1679931501456,1111489810354195,3.6790502,2.3140502,9.148951
1679931501459,1111489812856349,3.7339501,2.35305,9.177
1679931501460,1111489815358733,3.7840502,2.3430002,9.05805
1679931501462,1111489817860656,3.7440002,2.3719501,9.10995
1679931501467,1111489820362810,3.7410002,2.35995,9.11295
1679931501468,1111489822864964,3.7600503,2.3820002,9.07905
1679931501470,1111489825367041,3.7510502,2.367,9.24195
1679931501472,1111489827869272,3.7440002,2.3050501,9.096001
1679931501476,1111489830371426,3.8440502,2.3070002,9.21105
1679931501478,1111489832873588,3.7170002,2.42205,9.232051
1679931501480,1111489835375665,3.7909503,2.39595,9.108001
1679931501485,1111489837877819,3.8389502,2.3700001,9.153001
1679931501486,1111489840379973,3.86805,2.32395,9.108001
1679931501493,1111489842882213,3.7840502,2.3119502,9.144
1679931501495,1111489845384290,3.82995,2.3500502,9.1369505
1679931501497,1111489847886444,3.8179502,2.391,9.25905
1679931501497,1111489850388588,3.8419502,2.3719501,9.153001
1679931501499,1111489852890742,3.79605,2.32905,9.172951
1679931501500,1111489855392665,3.8029501,2.32605,9.14595
1679931501502,1111489857894819,3.8110502,2.3140502,9.153001
1679931501505,1111489860397204,3.7480502,2.2669501,9.163051
1679931501509,1111489862899367,3.76305,2.319,9.141001
1679931501510,1111489865401290,3.79395,2.32605,9.14595
1679931501512,1111489867903444,3.83505,2.4390001,9.073951
1679931501516,1111489870405597,3.79905,2.2350001,9.09795
1679931501519,1111489872907746,3.801,2.283,9.148951
1679931501521,1111489875409900,3.8149502,2.3140502,9.12195
1679931501523,1111489877912054,3.8850002,2.25495,9.25605
1679931501529,1111489880414208,3.82695,2.2740002,9.148951
1679931501530,1111489882915271,3.8130002,2.322,9.129001
1679931501530,1111489885416310,3.8800502,2.226,9.160951
1679931501532,1111489887920617,3.8560503,2.262,9.168
1679931501535,1111489890422770,3.8389502,2.2450502,9.18
1679931501537,1111489892925001,3.8130002,2.259,9.129001
1679931501540,1111489895427078,3.82695,2.2399502,9.220051
1679931501542,1111489897929227,3.9019501,2.214,9.14595
1679931501545,1111489900431381,3.8059502,2.2740002,9.1369505
1679931501547,1111489902933535,3.8560503,2.35305,9.108001
1679931501550,1111489905435458,4.005,2.19705,9.096001
1679931501552,1111489907937819,3.8779502,2.322,9.196951
1679931501555,1111489910439973,3.86595,2.3119502,9.205951
1679931501559,1111489912942127,3.9469502,2.391,9.193951
1679931501560,1111489915444281,3.9280503,2.2669501,9.1699505
1679931501564,1111489917946217,3.8440502,2.3770502,9.10305
1679931501567,1111489920448371,3.86595,2.36205,9.252001
1679931501569,1111489922950755,3.8800502,2.35995,9.13395
1679931501571,1111489925452909,3.8800502,2.319,9.264001
1679931501573,1111489927954832,3.8389502,2.3430002,9.1699505
1679931501575,1111489930456982,3.90405,2.38905,9.148951
1679931501578,1111489932959136,3.8389502,2.286,9.22305
1679931501580,1111489935461213,3.8869503,2.3170502,9.151051
1679931501582,1111489937963367,3.8610003,2.32395,9.1390505
1679931501585,1111489940465598,3.9259503,2.2999501,9.14595
1679931501588,1111489942967751,3.7870502,2.25705,9.163051
1679931501590,1111489945469905,3.8610003,2.3359501,9.187051
1679931501593,1111489947971982,3.8130002,2.3479502,9.1390505
1679931501596,1111489950474150,3.79605,2.3170502,9.12495
1679931501598,1111489952976304,3.83505,2.2350001,9.07005
1679931501602,1111489955478535,3.79395,2.355,9.1060505
1679931501604,1111489957980612,3.8509502,2.3119502,9.12195
1679931501607,1111489960482814,3.89895,2.367,9.129001
1679931501609,1111489962984967,3.8080502,2.25195,9.07005
1679931501610,1111489965487121,3.8059502,2.322,9.220051
1679931501612,1111489967989275,3.79395,2.286,9.11295
1679931501615,1111489970491198,3.82695,2.28795,9.144
1679931501618,1111489972993597,3.8200502,2.2759502,9.153001
1679931501620,1111489975495751,3.8730001,2.3100002,9.0379505
1679931501622,1111489977997674,3.8230503,2.2690501,9.06
1679931501625,1111489980499828,3.8590503,2.3359501,9.1060505
1679931501627,1111489983001997,3.8509502,2.2399502,9.073951
1679931501630,1111489985504151,3.7560003,2.2470002,8.98305
1679931501632,1111489988006305,3.7530003,2.319,9.022051
1679931501636,1111489990508459,3.8230503,2.2069502,8.923051
1679931501640,1111489993010613,3.7510502,2.259,9.12705
1679931501642,1111489995512767,3.79905,2.18295,9.055051
1679931501643,1111489998014844,3.8490002,2.30205,9.141001
1679931501646,1111490000516997,3.729,2.23305,8.9740505
1679931501648,1111490003019151,3.7750502,2.283,9.120001
1679931501650,1111490005521382,3.8029501,2.1709502,9.0379505
1679931501652,1111490008023459,3.7390501,2.11995,8.943001
1679931501655,1111490010525613,3.79605,2.2759502,8.96205
1679931501658,1111490013027767,3.79905,2.2110002,9.12495
1679931501660,1111490015529921,3.7699502,2.30205,8.94495
1679931501662,1111490018031834,3.6739502,2.259,9.06705
1679931501665,1111490020534295,3.8440502,2.22795,9.048
1679931501667,1111490023036372,3.8389502,2.28795,9.05805
1679931501670,1111490025538536,3.801,2.2429502,9.016951
1679931501672,1111490028040459,3.8059502,2.2399502,9.055051
1679931501677,1111490030542613,3.9450002,2.2039502,9.22305
1679931501680,1111490035544781,3.969,2.2669501,9.12495
1679931501682,1111490035668781,3.8800502,2.1730502,9.172951
1679931501683,1111490038049088,3.9570003,2.17995,9.177
1679931501686,1111490040551242,3.8940003,2.2069502,9.25395
1679931501688,1111490043053396,3.8779502,2.08905,9.181951
1679931501690,1111490045555449,3.897,2.23305,9.085951
1679931501692,1111490048057680,3.9520502,2.18295,9.1699505
1679931501695,1111490050559757,3.9469502,2.2110002,9.117001
1679931501698,1111490053061988,3.9060001,2.19705,9.156
1679931501700,1111490055564141,4.0080004,2.16105,9.27105
1679931501704,1111490058066290,3.9160502,2.295,9.148951
1679931501710,1111490060568367,3.966,2.15595,9.132
1679931501711,1111490063070531,3.9640503,2.18295,9.189
1679931501713,1111490065572454,3.9970503,2.17995,9.273001
1679931501714,1111490068074839,3.9810002,2.1660001,9.193951
1679931501718,1111490070576993,4.03095,2.334,9.201
1679931501723,1111490073078050,3.9019501,2.19705,9.175051
1679931501723,1111490075579127,4.005,2.1679502,9.120001
1679931501726,1111490078083435,3.9499502,2.16105,9.1369505
1679931501728,1111490080585589,4.01895,2.18505,9.172951
1679931501730,1111490083087743,3.9060001,2.15595,9.14595
1679931501731,1111490085589897,3.9619503,2.16105,9.12495
1679931501733,1111490088091839,3.9930003,2.16405,9.165
1679931501735,1111490090593993,3.9180002,2.226,9.160951
1679931501737,1111490093096147,3.9280503,2.25495,9.12705
1679931501740,1111490095598531,3.9709501,2.22795,9.160951
1679931501743,1111490098100685,3.9619503,2.22105,9.043051
1679931501746,1111490100602603,3.8509502,2.2380002,9.07005
1679931501749,1111490103104757,3.82695,2.2039502,9.204
1679931501752,1111490105606911,3.8710501,2.23305,9.153001
1679931501753,1111490108108978,3.8800502,2.2429502,9.13395
1679931501757,1111490110611208,3.8080502,2.1400502,9.165
1679931501761,1111490113113362,3.8779502,2.19,9.204
1679931501762,1111490115615516,3.8419502,2.1679502,9.085951
1679931501764,1111490118117670,3.8470502,2.1709502,9.13395
1679931501766,1111490120619718,3.7870502,2.14695,9.12495
1679931501768,1111490123121872,3.8749502,2.1780002,9.0720005
1679931501771,1111490125624103,3.8490002,2.1010501,9.07905
1679931501773,1111490128126256,3.8869503,2.14695,9.028951
1679931501775,1111490130628333,3.7870502,2.2039502,8.991
1679931501778,1111490133130468,3.8509502,2.0629501,9.043051
1679931501780,1111490135632622,3.76305,2.1079502,8.976001
1679931501782,1111490138134545,3.8440502,2.1709502,9.201
1679931501787,1111490140636675,3.7530003,2.0989501,9.073951
1679931501790,1111490143139060,3.8389502,2.12805,9.151051
1679931501792,1111490145640983,3.8419502,2.12805,9.061951
1679931501793,1111490148143137,3.765,2.11095,9.11295
1679931501799,1111490150645260,3.76305,2.214,8.964001
1679931501801,1111490153147414,3.7530003,2.21895,9.13395
1679931501803,1111490155649491,3.8730001,2.2090502,9.048
1679931501805,1111490158151722,3.8560503,2.2020001,9.13395
1679931501806,1111490160653876,3.8200502,2.15895,9.07695
1679931501809,1111490163156021,3.801,2.15895,9.09795
1679931501810,1111490165658175,3.7890003,2.2069502,9.148951
1679931501813,1111490168160251,3.8440502,2.08905,9.11505
1679931501816,1111490170662405,3.8440502,2.1370502,9.049951
1679931501819,1111490173164559,3.7909503,2.18505,9.141001
1679931501821,1111490175666771,3.8830502,2.17995,9.096001
1679931501822,1111490178168848,3.9109502,2.2069502,9.10095
1679931501828,1111490180671002,3.8710501,2.2090502,9.052951
1679931501830,1111490183173136,3.86805,2.09205,9.1369505
1679931501833,1111490185675289,3.8940003,2.21895,9.015
1679931501834,1111490188177213,3.897,2.09205,9.07005
1679931501837,1111490190679597,3.9540002,2.18505,9.12195
1679931501839,1111490193181751,3.8869503,2.08695,9.06495
1679931501841,1111490195683886,3.8830502,2.1349502,9.12195
1679931501843,1111490198186040,3.8509502,2.0989501,9.02595
1679931501846,1111490200687963,3.9139502,2.0989501,9.156
1679931501848,1111490203190117,3.9210002,2.09205,9.12705
1679931501850,1111490205692270,3.9019501,2.2020001,9.193951
1679931501852,1111490208194434,3.90405,2.14395,9.09405
1679931501856,1111490210696588,3.8920503,2.1679502,9.24195
1679931501858,1111490213198742,3.90405,2.0970001,9.204
1679931501860,1111490215700896,3.9210002,2.1370502,9.1369505
1679931501864,1111490218203002,3.8830502,2.15595,9.187051
1679931501867,1111490220705156,3.9160502,2.19495,9.12495
1679931501869,1111490223207386,3.9090002,2.16105,9.07005
1679931501871,1111490225709540,3.9540002,2.18505,9.1369505
1679931501873,1111490228211617,3.8899503,2.11995,9.11295
1679931501877,1111490230713756,3.9810002,2.1010501,9.175051
1679931501879,1111490233215910,3.9709501,2.14695,9.07905
1679931501881,1111490235718064,3.9619503,2.14905,9.156
1679931501883,1111490238220295,3.9450002,2.2069502,9.13395
1679931501887,1111490240722372,3.82695,2.1040502,9.175051
1679931501889,1111490243224472,3.933,2.0989501,9.108001
1679931501891,1111490245726626,3.9160502,2.0700002,9.108001
1679931501893,1111490248228549,3.8370001,2.1060002,9.184951
1679931501896,1111490250730703,3.8230503,2.0989501,9.177
1679931501898,1111490253232891,3.7459502,2.23095,9.019051
1679931501903,1111490255735276,3.8470502,2.19,9.06705
1679931501905,1111490258237429,3.7680001,2.08695,9.11295
1679931501907,1111490260739353,3.79905,2.14695,9.03405
1679931501909,1111490263241501,3.9019501,2.1400502,9.022051
1679931501911,1111490265743655,3.7699502,2.2069502,9.09795
1679931501915,1111490268245809,3.7840502,2.2470002,9.1060505
1679931501917,1111490270747963,3.82995,2.13,9.036
1679931501919,1111490273250107,3.7480502,2.14905,9.06705
1679931501921,1111490275752261,3.8250003,2.1349502,9.15795
1679931501923,1111490278254415,3.8149502,2.01495,9.11505
1679931501926,1111490280756491,3.8230503,2.12505,9.061951
1679931501928,1111490283258645,3.7200003,2.0700002,9.03405
1679931501931,1111490285760809,3.7410002,2.18505,9.11295
1679931501933,1111490288263040,3.7909503,2.18505,9.09795
1679931501936,1111490290765194,3.7819502,2.1780002,9.12495
1679931501940,1111490293267271,3.8419502,2.12295,9.07695
1679931501941,1111490295769444,3.8389502,2.085,9.1699505
1679931501944,1111490298271597,3.801,2.0730002,9.12195
1679931501946,1111490300773520,3.83505,2.09205,9.09405
1679931501949,1111490303275905,3.86295,2.15595,9.168
1679931501951,1111490305778059,3.801,2.08005,9.028951
1679931501954,1111490308280228,3.79605,2.1709502,9.108001
1679931501956,1111490310782382,3.8509502,2.12805,9.07005
1679931501959,1111490313284305,3.897,2.0970001,9.172951
1679931501961,1111490315786459,3.8869503,2.05095,9.10095
1679931501963,1111490318288612,3.86595,2.14905,9.07905
1679931501966,1111490320790785,3.8869503,2.1349502,9.052951
1679931501968,1111490323292862,3.8539503,2.1060002,9.12705
1679931501972,1111490325795016,3.9900002,2.214,9.153001
1679931501975,1111490328297170,3.89895,2.14905,9.156
1679931501978,1111490330799416,3.8730001,2.16405,9.184951
1679931501980,1111490333301493,3.8830502,2.19495,9.096001
1679931501981,1111490335803723,3.8730001,2.19,9.160951
1679931501983,1111490338305800,3.9160502,2.22105,9.14595
1679931501986,1111490340807954,3.9520502,2.12805,9.117001
1679931501988,1111490343310118,3.8730001,2.0989501,9.144
1679931501990,1111490345812349,3.8869503,2.15205,9.187051
1679931501994,1111490348314426,3.897,2.223,9.201
1679931501996,1111490350816580,3.90405,2.1709502,9.120001
1679931502008,1111490353318751,3.9160502,2.1349502,9.156
1679931502008,1111490355820905,3.8920503,2.1780002,9.264001
1679931502008,1111490358322828,3.8710501,2.15895,9.181951
1679931502009,1111490360825213,3.897,2.259,9.132
1679931502009,1111490363327367,3.8920503,2.18295,9.25395
1679931502010,1111490365829290,3.9229503,2.226,9.11505
1679931502014,1111490368331444,3.8869503,2.1420002,9.168
1679931502017,1111490370833598,3.9229503,2.13,9.264001
1679931502019,1111490373335776,3.86595,2.2020001,9.32295
1679931502021,1111490375837852,3.9739501,2.22795,9.24705
1679931502023,1111490378340083,3.8869503,2.14695,9.295051
1679931502026,1111490380842237,3.969,2.2090502,9.249001
1679931502028,1111490383344391,3.8440502,2.1319501,9.165
1679931502031,1111490385846444,3.8509502,2.26395,9.120001
1679931502033,1111490388348598,3.82995,2.2069502,9.168
1679931502036,1111490390850752,3.8730001,2.1400502,9.175051
1679931502038,1111490393352982,3.8850002,2.2380002,9.193951
1679931502041,1111490395855059,3.969,2.2669501,9.040951
1679931502043,1111490398357276,3.8779502,2.22105,9.175051
1679931502046,1111490400859353,3.9090002,2.19195,9.25605
1679931502048,1111490403361507,3.8590503,2.1730502,9.156
1679931502052,1111490405863421,4.0069504,2.25705,9.168
1679931502056,1111490408365575,3.86805,2.2399502,9.13395
1679931502058,1111490410867959,3.79605,2.22105,9.163051
1679931502059,1111490413370113,3.9139502,2.25705,9.165
1679931502060,1111490415872267,3.8389502,2.29305,9.141001
1679931502063,1111490418374247,3.79905,2.286,9.187051
1679931502069,1111490420876401,3.8250003,2.2690501,9.13395
1679931502069,1111490423378478,3.8710501,2.26395,9.141001
1679931502071,1111490425880939,3.9379501,2.2999501,9.184951
1679931502074,1111490428382853,3.86595,2.3380501,9.15795
1679931502077,1111490430885006,3.82995,2.2759502,9.26805
1679931502079,1111490433387083,3.8850002,2.2810502,9.181951
1679931502083,1111490435889314,3.8710501,2.19,9.024
1679931502084,1111490438391391,3.7699502,2.29095,9.153001
1679931502092,1111490440893612,3.8080502,2.30205,9.141001
1679931502093,1111490443395689,3.8539503,2.2810502,9.108001
1679931502094,1111490445897843,3.86295,2.262,9.13395
1679931502094,1111490448400025,3.8560503,2.16105,9.1060505
1679931502096,1111490450902179,3.8899503,2.259,9.160951
1679931502098,1111490453404333,3.83505,2.2429502,9.22305
1679931502103,1111490455906256,3.9090002,2.331,9.261001
1679931502103,1111490458408641,3.8779502,2.3410501,9.1390505
1679931502107,1111490460910785,3.8800502,2.25705,9.177
1679931502109,1111490463412939,3.86595,2.2759502,9.232051
1679931502110,1111490465914862,3.83205,2.25195,9.225
1679931502115,1111490468417016,3.9060001,2.1319501,9.201
1679931502118,1111490470919179,3.8539503,2.3359501,9.165
1679931502119,1111490473421564,3.933,2.2669501,9.228001
1679931502121,1111490475923487,3.79905,2.2090502,9.229951
1679931502124,1111490478425641,3.8389502,2.14695,9.192
1679931502128,1111490480927752,3.8590503,2.22795,9.24195
1679931502130,1111490483429906,3.765,2.286,9.232051
1679931502131,1111490485931983,3.89895,2.154,9.220051
1679931502135,1111490488434136,3.86805,2.259,9.11505
1679931502137,1111490490936367,3.8940003,2.26395,9.18
1679931502139,1111490493438507,3.8749502,2.25705,9.23505
1679931502140,1111490495940661,3.86595,2.2429502,9.117001
1679931502143,1111490498442738,3.9090002,2.2399502,9.193951
1679931502146,1111490500944892,3.8419502,2.2470002,9.232051
1679931502148,1111490503447046,3.8389502,2.3100002,9.1699505
1679931502150,1111490505949295,3.83205,2.2690501,9.163051
1679931502154,1111490508451372,3.966,2.3119502,9.213
1679931502156,1111490510953526,3.8940003,2.3070002,9.12705
1679931502159,1111490513455680,3.86295,2.2999501,9.163051
1679931502160,1111490515957820,4.005,2.25705,9.193951
1679931502165,1111490518459743,3.9139502,2.3100002,9.132
1679931502167,1111490520961897,3.9229503,2.319,9.192
1679931502169,1111490523464276,3.89895,2.18295,9.177
1679931502171,1111490525966430,3.8749502,2.2470002,9.175051
1679931502173,1111490528468353,3.9520502,2.3050501,9.187051
1679931502176,1111490530970507,3.9619503,2.3380501,9.204
1679931502178,1111490533472661,3.8730001,2.2690501,9.26805
1679931502180,1111490535974829,3.9469502,2.2429502,9.09105
1679931502183,1111490538476983,3.8730001,2.23305,9.1390505
1679931502186,1111490540979137,3.82995,2.298,9.199051
1679931502188,1111490543481290,3.86295,2.15595,9.1390505
1679931502190,1111490545983444,3.8800502,2.286,9.06
1679931502194,1111490548485512,3.8509502,2.2710001,9.151051
1679931502196,1111490550987666,3.8059502,2.283,9.192
1679931502198,1111490553489897,3.8110502,2.286,9.15795
1679931502202,1111490555992060,3.801,2.25195,9.153001
1679931502204,1111490558494137,3.7909503,2.3380501,9.177
1679931502207,1111490560996290,3.8200502,2.322,9.199051
1679931502209,1111490563498444,3.8509502,2.3140502,9.204
1679931502210,1111490566000598,3.76305,2.29305,9.1060505
1679931502213,1111490568502507,3.8590503,2.262,9.25605
1679931502216,1111490571004892,3.86295,2.23095,9.199051
1679931502218,1111490573507046,3.8590503,2.2380002,9.27795
1679931502220,1111490576008969,3.86805,2.2690501,9.156
1679931502223,1111490578511142,3.801,2.25,9.228001
1679931502226,1111490581013526,3.8730001,2.223,9.196951
1679931502228,1111490583515449,3.8200502,2.286,9.240001
1679931502230,1111490586017603,3.82695,2.322,9.28005
1679931502234,1111490588519743,3.82695,2.2789502,9.205951
1679931502237,1111490591021897,3.8869503,2.21895,9.10995
1679931502243,1111490593523974,3.8080502,2.214,9.108001
1679931502243,1111490596026205,3.8389502,2.29305,9.129001
1679931502246,1111490598528362,3.7840502,2.25195,9.141001
1679931502247,1111490601030516,3.8800502,2.26395,9.153001
1679931502249,1111490603532593,3.8590503,2.25705,9.261001
1679931502251,1111490606034747,3.8779502,2.259,9.1060505
1679931502253,1111490608536901,3.8490002,2.2399502,9.189
1679931502256,1111490611039055,3.9060001,2.16405,9.11505
1679931502260,1111490613541286,3.8389502,2.1760502,9.06
1679931502261,1111490616043362,3.8590503,2.25495,9.160951
1679931502263,1111490618545516,3.8179502,2.26395,9.08895
1679931502267,1111490621047646,3.86805,2.2669501,9.181951
1679931502269,1111490623549800,3.8850002,2.262,9.120001
1679931502271,1111490626051723,3.79395,2.20005,9.120001
1679931502274,1111490628554108,3.8539503,2.2690501,9.15795
1679931502278,1111490631056282,3.8490002,2.223,9.12495
1679931502280,1111490633558435,3.79905,2.16105,9.141001
1679931502282,1111490636060589,3.83205,2.16405,9.08895
1679931502284,1111490638562512,3.8869503,2.15205,9.0720005
1679931502287,1111490641064646,3.8490002,2.25,9.1369505
1679931502289,1111490643566800,3.8560503,2.2039502,9.1390505
1679931502291,1111490646069185,3.8080502,2.1709502,9.168
1679931502293,1111490648571108,3.90405,2.223,9.1369505
1679931502297,1111490651073262,3.8920503,2.16105,8.98305
1679931502298,1111490653575435,3.8389502,2.1730502,9.022051
1679931502300,1111490656077589,3.9570003,2.2690501,9.163051
1679931502304,1111490658579666,3.79395,2.2380002,9.151051
1679931502306,1111490661081897,3.8590503,2.2350001,9.160951
1679931502309,1111490663584075,3.83205,2.17995,9.13395
1679931502311,1111490666086229,3.83505,2.2399502,9.225
1679931502315,1111490668588306,3.765,2.226,9.175051
1679931502318,1111490671090445,3.8509502,2.17995,9.177
1679931502320,1111490673983060,3.8029501,2.18805,9.040951
1679931502323,1111490676256906,3.82695,2.2020001,9.120001
1679931502325,1111490678596906,3.7680001,2.2690501,9.085951
1679931502329,1111490681099060,3.8179502,2.25,9.085951
1679931502330,1111490683601214,3.8940003,2.23095,9.0720005
1679931502332,1111490686103368,3.8710501,2.30205,9.165
1679931502334,1111490688605291,3.8370001,2.2069502,9.144
1679931502336,1111490691107445,3.79605,2.12805,9.108001
1679931502338,1111490693609819,3.8200502,2.2380002,9.175051
1679931502341,1111490696111973,3.8710501,2.18805,9.048
1679931502343,1111490698613896,3.8149502,2.2450502,9.249001
1679931502347,1111490701116050,3.8899503,2.223,9.07905
1679931502348,1111490703618200,3.801,2.20005,9.205951
1679931502354,1111490706120354,3.8850002,2.23305,9.144
1679931502356,1111490708622508,3.83505,2.18805,9.22305
1679931502359,1111490711124661,3.801,2.223,9.14595
1679931502361,1111490713626800,3.7699502,2.23095,9.181951
1679931502363,1111490716128877,3.76305,2.2399502,9.129001
1679931502364,1111490718631031,3.8560503,2.286,9.213
1679931502367,1111490721133185,3.7030501,2.1319501,9.14595
1679931502368,1111490723635339,3.6739502,2.2810502,9.019051
1679931502371,1111490726137488,3.7360501,2.18295,9.073951
1679931502373,1111490728639718,3.8250003,2.20005,9.148951
1679931502377,1111490731141795,3.6529503,2.14395,9.120001
1679931502378,1111490733643949,3.8059502,2.22795,9.201
1679931502381,1111490736145872,3.7459502,2.20005,9.276
1679931502383,1111490738648045,3.86805,2.22105,9.07905
1679931502386,1111490741150430,3.79605,2.11995,9.141001
1679931502390,1111490743652584,3.8610003,2.1420002,9.048
1679931502392,1111490746154493,3.7750502,2.18295,9.153001
1679931502394,1111490748656646,3.8419502,2.22105,9.0720005
1679931502397,1111490751158800,3.765,2.23095,8.99295
1679931502399,1111490753660877,3.732,2.21595,9.05805
1679931502401,1111490756163108,3.8470502,2.18505,9.201
1679931502403,1111490758665281,3.7510502,2.19705,9.15795
1679931502406,1111490761167435,3.79905,2.223,9.108001
1679931502409,1111490763669589,3.7459502,2.19495,9.144
1679931502411,1111490766171666,3.7410002,2.17995,9.09105
1679931502414,1111490768673819,3.79605,2.21595,9.199051
1679931502417,1111490771175973,3.79395,2.23305,9.193951
1679931502418,1111490773678204,3.8560503,2.12505,9.187051
1679931502420,1111490776180281,3.79905,2.1079502,9.165
1679931502424,1111490778682435,3.9400501,2.18505,9.201
1679931502428,1111490781184575,3.8200502,2.2020001,9.15795
1679931502431,1111490783686728,3.8149502,2.11305,9.165
1679931502433,1111490786188652,3.7750502,2.19,9.309
1679931502435,1111490788691040,3.83205,2.226,9.129001
1679931502437,1111490791193194,3.8920503,2.1679502,9.165
1679931502439,1111490793695348,3.8470502,2.223,9.208051
1679931502441,1111490796197502,3.8149502,2.1780002,9.199051
1679931502443,1111490798699425,3.8230503,2.2690501,9.276
1679931502446,1111490801201570,3.8230503,2.17995,9.24705
1679931502448,1111490803703724,3.8779502,2.18805,9.307051
1679931502451,1111490806206108,3.9090002,2.16405,9.337951
1679931502453,1111490808708031,3.9139502,2.1060002,9.199051
1679931502459,1111490811210180,3.9970503,2.1780002,9.177
1679931502459,1111490813712334,3.89895,2.12505,9.237
1679931502462,1111490816214488,3.8710501,2.17995,9.319051
1679931502465,1111490818716642,3.86805,2.17995,9.264001
1679931502467,1111490821218796,3.8419502,2.22105,9.12195
1679931502471,1111490823720958,3.7800002,2.226,9.192
1679931502473,1111490826223112,3.7840502,2.18505,9.205951
1679931502475,1111490828725189,3.8800502,2.2020001,9.276
1679931502477,1111490831227343,3.7819502,2.1760502,9.187051
1679931502479,1111490833729483,3.7150502,2.16105,9.261001
1679931502481,1111490836231637,3.7560003,2.23305,9.181951
1679931502484,1111490838733791,3.7770002,2.23305,9.07905
1679931502486,1111490841235944,3.8059502,2.1730502,9.084001
1679931502488,1111490843737867,3.7840502,2.23095,9.165
1679931502492,1111490846240016,3.7339501,2.2399502,9.144
1679931502493,1111490848742401,3.7170002,2.118,9.10095
1679931502497,1111490851244324,3.732,2.19495,9.23505
1679931502501,1111490853746478,3.7099502,2.25195,9.184951
1679931502503,1111490856248642,3.6790502,2.19,9.165
1679931502506,1111490858750796,3.7030501,2.19195,9.148951
1679931502508,1111490861252949,3.7339501,2.2039502,9.09405
1679931502510,1111490863755103,3.79605,2.2090502,9.06705
1679931502511,1111490866257257,3.75795,2.16105,9.153001
1679931502514,1111490868759434,3.729,2.1420002,9.1060505
1679931502519,1111490871261588,3.6859503,2.1660001,9.12705
1679931502520,1111490873763665,3.6910503,2.2470002,9.120001
1679931502521,1111490876265819,3.79395,2.214,9.132
1679931502523,1111490878768049,3.7530003,2.23095,9.141001
1679931502526,1111490881270126,3.7080002,2.2450502,9.11505
1679931502528,1111490883772357,3.7530003,2.17995,9.295051
1679931502531,1111490886274434,3.76305,2.2399502,9.168
1679931502533,1111490888776588,3.8560503,2.331,9.184951
1679931502538,1111490891278761,3.8370001,2.2669501,9.196951
1679931502541,1111490893780915,3.8830502,2.223,9.192
1679931502542,1111490896283068,3.8059502,2.2470002,9.28995
1679931502544,1111490898785222,3.801,2.2470002,9.217951
1679931502547,1111490901287381,3.86295,2.223,9.15795
1679931502549,1111490903789304,3.7770002,2.3119502,9.346951
1679931502552,1111490906291458,3.7909503,2.2470002,9.22305
1679931502555,1111490908793612,3.79905,2.2399502,9.276
1679931502559,1111490911295987,3.8610003,2.21595,9.225
1679931502561,1111490913798140,3.7720501,2.20005,9.24705
1679931502562,1111490916300063,3.82995,2.322,9.34305
1679931502564,1111490918802217,3.82695,2.3359501,9.283051
1679931502567,1111490921304400,3.8509502,2.259,9.220051
1679931502569,1111490923806554,3.82695,2.17995,9.189
1679931502571,1111490926308631,3.8230503,2.25705,9.328051
1679931502574,1111490928810862,3.7840502,2.25495,9.205951
1679931502578,1111490931312982,3.7840502,2.15595,9.22305
1679931502580,1111490933815135,3.7840502,2.2740002,9.22305
1679931502582,1111490936317212,3.83205,2.223,9.264001
1679931502584,1111490938819366,3.8230503,2.1780002,9.229951
1679931502587,1111490941321520,3.8029501,2.226,9.184951
1679931502589,1111490943823733,3.79905,2.19495,9.25605
1679931502593,1111490946325810,3.7099502,2.20005,9.25905
1679931502594,1111490948827964,3.76305,2.2429502,9.151051
1679931502597,1111490951330118,3.79905,2.154,9.07905
1679931502599,1111490953832284,3.7440002,2.11095,9.172951
1679931502601,1111490956334207,3.7390501,2.11305,9.07905
1679931502603,1111490958836592,3.6859503,2.1010501,9.172951
1679931502607,1111490961338746,3.7510502,2.18805,9.12705
1679931502609,1111490963840900,3.8059502,2.2039502,9.14595
1679931502611,1111490966342828,3.79905,2.17995,9.073951
1679931502615,1111490968844982,3.7410002,2.1660001,9.02595
1679931502618,1111490971347136,3.7600503,2.1780002,8.952001
1679931502620,1111490973849207,3.70005,2.17995,9.11295
1679931502621,1111490976351669,3.6670501,2.22105,9.06
1679931502631,1111490978853592,3.82995,2.1780002,8.96205
1679931502631,1111490981355746,3.729,2.19,9.02595
1679931502631,1111490983857823,3.7099502,2.16105,9.036
1679931502631,1111490986359992,3.59505,2.1679502,9.06
1679931502634,1111490988862146,3.6840003,2.223,9.09405
1679931502637,1111490991364376,3.7120502,2.214,8.991
1679931502638,1111490993866453,3.6070502,2.28795,9.05805
1679931502642,1111490996368607,3.68895,2.223,9.187051
1679931502643,1111490998870761,3.7170002,2.25495,9.10305
1679931502646,1111491001372915,3.6910503,2.2450502,9.10305
1679931502648,1111491003874838,3.693,2.2110002,9.232051
1679931502652,1111491006376982,3.6379502,2.2069502,9.10995
1679931502654,1111491008879366,3.6000001,2.283,9.132
1679931502657,1111491011381520,3.6120002,2.23305,9.0720005
1679931502659,1111491013883443,3.7030501,2.2690501,9.18
1679931502661,1111491016385597,3.696,2.2669501,9.229951
1679931502663,1111491018887766,3.6720002,2.3479502,9.24195
1679931502667,1111491021389920,3.7560003,2.298,9.307051
1679931502671,1111491023892074,3.7339501,2.3119502,9.177
1679931502676,1111491026394219,3.7600503,2.25,9.208051
1679931502678,1111491028896372,3.7699502,2.25,9.232051
1679931502679,1111491031398526,3.7099502,2.322,9.208051
1679931502680,1111491033900603,3.6690001,2.2020001,9.21105
1679931502682,1111491036402757,3.7120502,2.2740002,9.297001
1679931502683,1111491038904911,3.79395,2.2710001,9.28995
1679931502687,1111491041407050,3.75795,2.36205,9.220051
1679931502690,1111491043909204,3.6910503,2.22105,9.165
1679931502692,1111491046411357,3.7720501,2.3460002,9.297001
1679931502694,1111491048913511,3.6979501,2.2740002,9.283051
1679931502697,1111491051415646,3.7459502,2.283,9.3
1679931502699,1111491053917800,3.7600503,2.2350001,9.26595
1679931502702,1111491056419954,3.6859503,2.286,9.276
1679931502704,1111491058922108,3.6529503,2.25,9.27105
1679931502707,1111491061424252,3.7150502,2.1760502,9.340051
1679931502709,1111491063926175,3.6979501,2.226,9.358951
1679931502711,1111491066428329,3.79605,2.3070002,9.316051
1679931502715,1111491068930482,3.732,2.21595,9.340051
1679931502717,1111491071432863,3.7840502,2.2690501,9.288
1679931502723,1111491073935017,3.70005,2.3119502,9.325951
1679931502724,1111491076437171,3.657,2.22795,9.273001
1679931502725,1111491078939094,3.7240503,2.2690501,9.328051
1679931502731,1111491081441468,3.657,2.20005,9.25605
1679931502732,1111491083942429,3.6910503,2.298,9.276
1679931502732,1111491086443392,3.696,2.29305,9.28005
1679931502734,1111491088947699,3.7680001,2.3100002,9.309
1679931502738,1111491091449853,3.7170002,2.226,9.13395
1679931502739,1111491093952007,3.76305,2.2999501,9.24405
1679931502742,1111491096454065,3.7200003,2.30205,9.204
1679931502743,1111491098956296,3.7050002,2.30205,9.228001
1679931502749,1111491101458449,3.696,2.3380501,9.193951
1679931502750,1111491103960526,3.7360501,2.26395,9.213
1679931502752,1111491106462790,3.6550503,2.11305,9.129001
1679931502757,1111491108964867,3.6529503,2.25,9.108001
1679931502759,1111491111467021,3.6810002,2.18295,9.165
1679931502760,1111491113969175,3.68895,2.259,9.141001
1679931502761,1111491116471339,3.68895,2.19495,9.048
1679931502765,1111491118973493,3.6670501,2.295,9.05805
1679931502768,1111491121475646,3.7120502,2.25195,9.187051
1679931502771,1111491123977800,3.6690001,2.2399502,8.967
1679931502773,1111491126479733,3.6690001,2.259,9.10995
1679931502775,1111491128981887,3.6450002,2.3740501,8.98095
1679931502777,1111491131484041,3.6210003,2.2710001,9.08895
1679931502779,1111491133986426,3.6769502,2.1780002,9.0379505
1679931502781,1111491136488349,3.6330001,2.2399502,8.93805
1679931502783,1111491138990483,3.5329502,2.3100002,8.988001
1679931502786,1111491141492636,3.6139503,2.29305,8.95695
1679931502789,1111491143994713,3.59805,2.29305,9.004951
1679931502792,1111491146496944,3.4969501,2.29095,8.832001
1679931502794,1111491148999094,3.5860503,2.3050501,8.952001
1679931502797,1111491151501248,3.5520003,2.29095,8.943001
1679931502799,1111491154003325,3.5040002,2.2740002,8.991
1679931502803,1111491156505479,3.48705,2.3119502,9.004951
1679931502804,1111491159007612,3.4750502,2.319,8.93505
1679931502807,1111491161509536,3.4950001,2.16405,8.986051
1679931502809,1111491164011920,3.5140502,2.214,9.022051
1679931502811,1111491166514074,3.5640001,2.3359501,9.084001
1679931502813,1111491169016228,3.55695,2.3430002,9.1390505
1679931502817,1111491171518156,3.5380502,2.32905,9.012
1679931502819,1111491174020310,3.59295,2.283,9.10995
1679931502823,1111491176522464,3.63105,2.3359501,9.09105
1679931502826,1111491179024848,3.68895,2.295,9.120001
1679931502827,1111491181527007,3.528,2.30205,9.12705
1679931502829,1111491184028930,3.6450002,2.3140502,9.25605
1679931502831,1111491186531084,3.6409502,2.2810502,9.181951
1679931502836,1111491189033238,3.66195,2.38905,9.192
1679931502838,1111491191535362,3.76305,2.25195,9.181951
1679931502844,1111491194037516,3.6330001,2.39805,9.199051
1679931502845,1111491196539669,3.7339501,2.3719501,9.28995
1679931502845,1111491199041823,3.6169503,2.3119502,9.40005
1679931502847,1111491201544001,3.6840003,2.367,9.27105
1679931502849,1111491204046078,3.7410002,2.42205,9.31095
1679931502851,1111491206548232,3.7770002,2.3050501,9.249001
1679931502855,1111491209050386,3.7770002,2.42895,9.29205
1679931502857,1111491211552612,3.72705,2.394,9.288
1679931502860,1111491214054765,3.7840502,2.3119502,9.4480505
1679931502861,1111491216556842,3.8250003,2.367,9.199051
1679931502863,1111491219058996,3.8509502,2.2690501,9.205951
1679931502866,1111491221561150,3.7909503,2.35995,9.24195
1679931502869,1111491224063319,3.8730001,2.259,9.364051
1679931502871,1111491226565473,3.8590503,2.3740501,9.163051
1679931502876,1111491229067627,3.8830502,2.23305,9.199051
1679931502880,1111491231569780,3.8389502,2.3380501,9.288
1679931502882,1111491234071924,3.86805,2.286,9.163051
1679931502883,1111491236573847,3.82995,2.19495,9.261001
