system_ts_ms, sensor_ts_ns, gyrX, gyrY, gyrZ
1679931497620,1111485974573732,0.0495,-0.0911625,0.1131625
1679931497623,1111485977075664,0.0495,-0.0902,0.1161875
1679931497625,1111485979577818,0.0504625,-0.0782375,0.120175
1679931497628,1111485982079972,0.0515625,-0.0672375,0.1211375
1679931497629,1111485984582126,0.0495,-0.0532125,0.122099996
1679931497631,1111485987084203,0.0485375,-0.0422125,0.125125
1679931497639,1111485989586443,0.0504625,-0.02915,0.125125
1679931497640,1111485992088597,0.0534875,-0.011275,0.1271875
1679931497640,1111485994590751,0.0565125,-0.0012375,0.1271875
1679931497642,1111485997092828,0.057475,0.011825,0.1241625
1679931497644,1111485999594982,0.0595375,0.0237875,0.122099996
1679931497647,1111486002097170,0.0625625,0.0317625,0.119075
1679931497651,1111486004599400,0.0655875,0.0378125,0.119075
1679931497651,1111486007101554,0.0625625,0.04675,0.11715
1679931497654,1111486009603631,0.0644875,0.054725,0.1150875
1679931497656,1111486012105780,0.06655,0.0537625,0.1161875
1679931497660,1111486014607934,0.068475,0.054725,0.119075
1679931497662,1111486017110088,0.06655,0.05775,0.1161875
1679931497664,1111486019612242,0.06655,0.060775,0.11715
1679931497667,1111486022114395,0.06655,0.0628375,0.119075
1679931497669,1111486024616549,0.0644875,0.0638,0.119075
1679931497672,1111486027118472,0.0644875,0.0628375,0.120175
1679931497674,1111486029620626,0.0595375,0.0537625,0.1211375
1679931497677,1111486032123015,0.058575,0.049775,0.119075
1679931497679,1111486034625169,0.05555,0.044825,0.120175
1679931497681,1111486037127092,0.0545875,0.04675,0.1211375
1679931497684,1111486039629246,0.052525,0.0408375,0.11715
1679931497687,1111486042131404,0.0504625,0.032725,0.1161875
1679931497689,1111486044633481,0.0495,0.0298375,0.1150875
1679931497692,1111486047135712,0.0485375,0.0198,0.1131625
1679931497694,1111486049637866,0.046475,0.0127875,0.1131625
1679931497703,1111486052140040,0.046475,0.0067375,0.1150875
1679931497703,1111486054642194,0.0424875,-2.75E-4,0.114125
1679931497704,1111486057144271,0.0424875,-0.005225,0.114125
1679931497704,1111486059646425,0.0394625,-0.0132,0.1120625
1679931497708,1111486062148655,0.035475,-0.01925,0.1120625
1679931497709,1111486064650742,0.0345125,-0.0242,0.1120625
1679931497712,1111486067152896,0.0345125,-0.0342375,0.114125
1679931497715,1111486069655050,0.0314875,-0.0361625,0.1131625
1679931497719,1111486072157204,0.0325875,-0.041249998,0.114125
1679931497721,1111486074659122,0.0295625,-0.0462,0.1111
1679931497723,1111486077161276,0.0275,-0.054175,0.1120625
1679931497724,1111486079663660,0.0204875,-0.0532125,0.109175
1679931497727,1111486082165814,0.02255,-0.0532125,0.109175
1679931497730,1111486084667737,0.0215875,-0.054175,0.1071125
1679931497732,1111486087169910,0.019524999,-0.055275,0.10615
1679931497736,1111486089672064,0.0165,-0.055275,0.10615
1679931497738,1111486092174218,0.0174625,-0.0532125,0.10615
1679931497741,1111486094676372,0.0165,-0.054175,0.10615
1679931497742,1111486097178512,0.013475,-0.052249998,0.1040875
1679931497744,1111486099680665,0.013475,-0.0452375,0.10615
1679931497747,1111486102182819,0.013475,-0.0372625,0.1071125
1679931497753,1111486104684896,0.0125124995,-0.0352,0.1071125
1679931497753,1111486107187045,0.0125124995,-0.03025,0.1071125
1679931497755,1111486109689199,0.0094875,-0.021175,0.108075
1679931497758,1111486112191430,0.008525,-0.0242,0.1071125
1679931497759,1111486114693507,0.008525,-0.01925,0.108075
1679931497762,1111486117195660,0.008525,-0.0132,0.108075
1679931497765,1111486119697829,0.0075625,-0.010175,0.1101375
1679931497769,1111486122199983,0.0075625,-0.00715,0.108075
1679931497769,1111486124701906,0.0045375,-0.0012375,0.109175
1679931497774,1111486127204286,0.002475,0.00275,0.1111
1679931497777,1111486129706440,0.002475,0.0078375,0.108075
1679931497778,1111486132208594,0.003575,0.01485,0.1101375
1679931497780,1111486134710517,0.003575,0.0188375,0.109175
1679931497782,1111486137212670,0.0015125,0.021724999,0.1071125
1679931497788,1111486139714814,0.002475,0.02475,0.1101375
1679931497789,1111486142217199,-4.125E-4,0.0237875,0.109175
1679931497791,1111486144719122,0.0015125,0.0317625,0.1071125
1679931497792,1111486147221276,-0.0015125,0.033825,0.10615
1679931497795,1111486149723435,-0.0064625,0.03575,0.108075
1679931497798,1111486152225589,-0.0045375,0.0347875,0.10615
1679931497802,1111486154727742,-0.0064625,0.0378125,0.1051875
1679931497803,1111486157229819,-0.0064625,0.0408375,0.1051875
1679931497804,1111486159732050,-0.0034375,0.0408375,0.10615
1679931497808,1111486162234185,-4.125E-4,0.0427625,0.10615
1679931497811,1111486164736339,-0.0055,0.0427625,0.103125
1679931497813,1111486167238416,-0.0055,0.0408375,0.1040875
1679931497814,1111486169740570,-0.0034375,0.0408375,0.1021625
1679931497822,1111486172242708,-0.0034375,0.0378125,0.1021625
1679931497823,1111486174744939,-4.125E-4,0.03575,0.0991375
1679931497824,1111486177247016,-0.0015125,0.0347875,0.100099996
1679931497825,1111486179749170,-0.0045375,0.033825,0.100099996
1679931497827,1111486182251329,-0.007425,0.0268125,0.098175
1679931497829,1111486184753483,-0.0064625,0.022824999,0.098175
1679931497832,1111486187255637,-0.0034375,0.0207625,0.0991375
1679931497837,1111486189757560,-0.0055,0.0198,0.097075
1679931497838,1111486192259949,-0.0055,0.01485,0.097075
1679931497839,1111486194762103,-0.0045375,0.0127875,0.0961125
1679931497842,1111486197264257,-0.0064625,0.01375,0.0941875
1679931497844,1111486199766180,-0.0064625,0.010725,0.0941875
1679931497848,1111486202268324,-0.008525,0.0048125,0.097075
1679931497855,1111486204770478,-0.007425,0.005775,0.0941875
1679931497857,1111486207272862,-0.0064625,0.0048125,0.092125
1679931497858,1111486209774786,-0.0055,0.00275,0.0930875
1679931497861,1111486212276939,-0.0045375,0.0017875,0.0941875
1679931497861,1111486214779084,-0.0055,8.25E-4,0.09515
1679931497862,1111486217281238,-0.0064625,-0.0012375,0.0911625
1679931497864,1111486219783315,-0.0045375,-2.75E-4,0.0900625
1679931497869,1111486222285469,-0.0045375,-0.0031625,0.0881375
1679931497869,1111486224787714,-0.0015125,-0.0061875,0.086075
1679931497872,1111486227289791,-0.0055,-0.0022,0.0891
1679931497875,1111486229791944,-0.0034375,-0.0012375,0.086075
1679931497878,1111486232294098,-4.125E-4,-0.005225,0.0820875
1679931497880,1111486234796271,5.5E-4,-0.0092124995,0.081125
1679931497881,1111486237298194,5.5E-4,-0.0092124995,0.0801625
1679931497887,1111486239800579,-0.0034375,-0.0061875,0.0801625
1679931497889,1111486242302502,-0.0034375,-2.75E-4,0.0771375
1679931497891,1111486244804873,-0.0015125,-0.0042625,0.076175
1679931497893,1111486247306796,-0.0055,-0.0042625,0.076175
1679931497894,1111486249808949,-0.0064625,0.0017875,0.0771375
1679931497897,1111486252311103,-0.0064625,0.0017875,0.078099996
1679931497904,1111486254813488,-0.008525,8.25E-4,0.0771375
1679931497905,1111486257315401,-0.0094875,0.00385,0.075075
1679931497906,1111486259817555,-0.0064625,0.011825,0.078099996
1679931497908,1111486262319709,-0.01045,0.011825,0.0801625
1679931497909,1111486264821863,-0.013475,0.010725,0.0790625
1679931497912,1111486267324016,-0.0114124995,0.01375,0.078099996
1679931497915,1111486269826170,-0.0125124995,0.0198,0.0771375
1679931497920,1111486272328324,-0.0144375,0.0177375,0.076175
1679931497921,1111486274830401,-0.0144375,0.0127875,0.078099996
1679931497925,1111486277332579,-0.013475,0.0198,0.0771375
1679931497928,1111486279833655,-0.013475,0.0188375,0.078099996
1679931497928,1111486282334734,-0.0125124995,0.01485,0.076175
1679931497930,1111486284839040,-0.0094875,0.0158125,0.075075
1679931497931,1111486287341194,-0.0114124995,0.016775,0.07315
1679931497938,1111486289843348,-0.0125124995,0.01485,0.070125
1679931497940,1111486292345502,-0.0114124995,0.011825,0.070125
1679931497942,1111486294847425,-0.0094875,0.010725,0.0671
1679931497943,1111486297349810,-0.0114124995,0.01375,0.0661375
1679931497945,1111486299851767,-0.0125124995,0.0097624995,0.0631125
1679931497948,1111486302354151,-0.01045,0.0078375,0.0611875
1679931497952,1111486304856075,-0.0064625,0.0067375,0.059125
1679931497953,1111486307358228,-0.01045,0.0048125,0.0581625
1679931497955,1111486309860372,-0.0125124995,0.0017875,0.0561
1679931497958,1111486312362526,-0.01045,-0.0022,0.054175
1679931497962,1111486314864680,-0.008525,-2.75E-4,0.0490875
1679931497964,1111486317366834,-0.0125124995,-0.0022,0.0471625
1679931497965,1111486319868983,-0.013475,-0.00825,0.0460625
1679931497970,1111486322371136,-0.0144375,-0.00715,0.042075
1679931497971,1111486324873213,-0.0114124995,-0.010175,0.04015
1679931497972,1111486327375367,-0.0114124995,-0.010175,0.04015
1679931497974,1111486329877598,-0.0125124995,-0.0122375,0.037125
1679931497978,1111486332379781,-0.0125124995,-0.0122375,0.0361625
1679931497979,1111486334881858,-0.013475,-0.015262499,0.0341
1679931497982,1111486337384012,-0.0165,-0.0202125,0.0341
1679931497986,1111486339885935,-0.013475,-0.016224999,0.032175
1679931497987,1111486342388084,-0.0155375,-0.016224999,0.0281875
1679931497991,1111486344890468,-0.0155375,-0.0202125,0.031075
1679931497992,1111486347392622,-0.0144375,-0.01925,0.0270875
1679931497995,1111486349894545,-0.013475,-0.01815,0.0270875
1679931498002,1111486352396690,-0.013475,-0.021175,0.0270875
1679931498003,1111486354898844,-0.013475,-0.021175,0.026124999
1679931498004,1111486357400998,-0.013475,-0.01815,0.0221375
1679931498005,1111486359903152,-0.0114124995,-0.0171875,0.021175
1679931498008,1111486362405314,-0.0125124995,-0.014162499,0.021175
1679931498009,1111486364907468,-0.013475,-0.016224999,0.0191125
1679931498012,1111486367409622,-0.0155375,-0.016224999,0.0160875
1679931498014,1111486369911776,-0.0144375,-0.014162499,0.015125
1679931498017,1111486372413834,-0.0144375,-0.015262499,0.013062499
1679931498019,1111486374915988,-0.013475,-0.01925,0.0111375
1679931498022,1111486377418219,-0.0125124995,-0.01925,0.010175
1679931498025,1111486379920372,-0.013475,-0.0202125,0.009075
1679931498027,1111486382422463,-0.013475,-0.021175,0.0081124995
1679931498030,1111486384924617,-0.0125124995,-0.0202125,0.0031625
1679931498032,1111486387426771,-0.013475,-0.01815,0.0020625
1679931498037,1111486389928925,-0.0155375,-0.015262499,0.0011
1679931498039,1111486392431050,-0.019524999,-0.0132,-8.25E-4
1679931498042,1111486395204357,-0.018424999,-0.011275,-0.0048125
1679931498043,1111486397435357,-0.0163625,-0.0061875,-0.0028875
1679931498045,1111486399937511,-0.0174625,-0.00715,-0.006875
1679931498047,1111486402439405,-0.018424999,-0.00825,-0.006875
1679931498049,1111486404941559,-0.0163625,-0.0031625,-0.0108624995
1679931498052,1111486407443713,-0.0163625,-0.0022,-0.0089375
1679931498054,1111486409946098,-0.0174625,-0.0031625,-0.0099
1679931498057,1111486412448040,-0.018424999,-0.0012375,-0.0158125
1679931498060,1111486414950194,-0.018424999,-0.0012375,-0.01485
1679931498062,1111486417452347,-0.0154,0.0017875,-0.0199375
1679931498065,1111486419954501,-0.0154,0.00275,-0.0209
1679931498068,1111486422456578,-0.0174625,0.00275,-0.0209
1679931498070,1111486424958732,-0.018424999,0.0017875,-0.023924999
1679931498074,1111486427460963,-0.0163625,-1.375E-4,-0.0268125
1679931498077,1111486429963117,-0.0174625,-0.0012375,-0.0298375
1679931498080,1111486432465276,-0.0163625,-1.375E-4,-0.0328625
1679931498083,1111486434967353,-0.0174625,-0.0022,-0.034925
1679931498086,1111486437469506,-0.018424999,-0.0061875,-0.0358875
1679931498087,1111486439971660,-0.0174625,-0.0092124995,-0.039875
1679931498089,1111486442473891,-0.018424999,-0.014162499,-0.0408375
1679931498092,1111486444976035,-0.018424999,-0.015262499,-0.044825
1679931498094,1111486447478112,-0.02145,-0.01925,-0.044825
1679931498096,1111486449980266,-0.02145,-0.0171875,-0.050875
1679931498098,1111486452482189,-0.0174625,-0.01815,-0.0529375
1679931498100,1111486454984549,-0.0163625,-0.0221375,-0.0539
1679931498102,1111486457486703,-0.0163625,-0.0262625,-0.0548625
1679931498105,1111486459988857,-0.013475,-0.0262625,-0.056925
1679931498108,1111486462491011,-0.013475,-0.0262625,-0.058849998
1679931498111,1111486464993131,-0.0163625,-0.0262625,-0.0628375
1679931498113,1111486467495054,-0.0154,-0.0242,-0.061875
1679931498115,1111486469997208,-0.0154,-0.0202125,-0.0628375
1679931498119,1111486472499362,-0.0163625,-0.0202125,-0.0658625
1679931498121,1111486475001746,-0.0174625,-0.0132,-0.0609125
1679931498123,1111486477503684,-0.0174625,-0.0122375,-0.0578875
1679931498125,1111486480005838,-0.0163625,-0.00715,-0.055825
1679931498128,1111486482507992,-0.0154,-0.0061875,-0.0539
1679931498130,1111486485010146,-0.0144375,-1.375E-4,-0.0518375
1679931498132,1111486487512228,-0.012375,0.00385,-0.0499125
1679931498135,1111486490014458,-0.0094875,0.0108624995,-0.0429
1679931498138,1111486492516535,-0.0053625,0.0127875,-0.0358875
1679931498140,1111486495018766,-0.0034375,0.0158125,-0.0378125
1679931498142,1111486497520838,-0.0044,0.0177375,-0.0378125
1679931498144,1111486500022992,0.0015125,0.0188375,-0.0378125
1679931498149,1111486502525146,0.003575,0.0198,-0.0389125
1679931498151,1111486505027069,0.003575,0.0198,-0.039875
1679931498153,1111486507529468,0.0026125,0.0188375,-0.0408375
1679931498155,1111486510031621,0.0045375,0.011825,-0.0429
1679931498159,1111486512533775,0.003575,0.0108624995,-0.047849998
1679931498160,1111486515035698,0.0026125,0.011825,-0.0518375
1679931498162,1111486517537866,5.5E-4,0.005775,-0.0518375
1679931498165,1111486520040020,-0.001375,0.00385,-0.0539
1679931498167,1111486522542174,-0.0053625,0.00385,-0.055825
1679931498170,1111486525044328,-0.0064625,-1.375E-4,-0.0628375
1679931498172,1111486527546478,-0.0083875,-0.005225,-0.064899996
1679931498175,1111486530048631,-0.0114124995,-0.005225,-0.0658625
1679931498178,1111486532550785,-0.012375,-0.0042625,-0.0688875
1679931498180,1111486535052939,-0.0144375,-0.005225,-0.0688875
1679931498182,1111486537555093,-0.012375,-0.0042625,-0.0708125
1679931498186,1111486540057275,-0.012375,-0.0012375,-0.0719125
1679931498189,1111486542559352,-0.0163625,-0.005225,-0.0708125
1679931498191,1111486545061506,-0.0193875,8.25E-4,-0.0738375
1679931498192,1111486547563659,-0.018424999,0.005775,-0.0749375
1679931498196,1111486550065890,-0.0174625,0.00385,-0.0749375
1679931498198,1111486552568054,-0.018424999,0.0048125,-0.0759
1679931498200,1111486555070131,-0.0193875,0.0108624995,-0.077825
1679931498202,1111486557572285,-0.0224125,0.0127875,-0.077825
1679931498205,1111486560074439,-0.0254375,0.01485,-0.08085
1679931498209,1111486562576372,-0.023375,0.016775,-0.0818125
1679931498211,1111486565078756,-0.023375,0.0198,-0.0818125
1679931498213,1111486567580910,-0.0273625,0.0218625,-0.0818125
1679931498215,1111486570083064,-0.029424999,0.0268125,-0.0829125
1679931498218,1111486572585237,-0.0273625,0.02475,-0.083875
1679931498220,1111486575087391,-0.023375,0.0287375,-0.0848375
1679931498225,1111486577589314,-0.0254375,0.03575,-0.083875
1679931498227,1111486580091699,-0.0254375,0.03575,-0.0829125
1679931498229,1111486582593617,-0.023375,0.0397375,-0.08085
1679931498232,1111486585095770,-0.0193875,0.0438625,-0.077825
1679931498233,1111486587597924,-0.018424999,0.0438625,-0.0768625
1679931498235,1111486590100078,-0.0154,0.047849998,-0.077825
1679931498238,1111486592602169,-0.01045,0.047849998,-0.0759
1679931498242,1111486595104400,-0.0083875,0.0518375,-0.0759
1679931498250,1111486597606554,-0.007425,0.049775,-0.078925
1679931498271,1111486600108708,-0.0034375,0.049775,-0.08085
1679931498272,1111486602610785,0.0015125,0.049775,-0.0829125
1679931498272,1111486605113015,0.0045375,0.04675,-0.083875
1679931498272,1111486607615092,0.003575,0.0457875,-0.083875
1679931498273,1111486610117246,0.0056375,0.0408375,-0.0848375
1679931498273,1111486612619477,0.0105875,0.036849998,-0.088825
1679931498274,1111486615121535,0.0105875,0.0287375,-0.0878625
1679931498274,1111486617623689,0.0125124995,0.0207625,-0.09185
1679931498274,1111486620125842,0.0166375,0.01485,-0.0928125
1679931498275,1111486622627996,0.019524999,0.0048125,-0.0979
1679931498276,1111486625129919,0.020624999,-0.0031625,-0.099825
1679931498276,1111486627632097,0.0215875,-0.00825,-0.1018875
1679931498277,1111486630134482,0.02255,-0.015262499,-0.10285
1679931498278,1111486632636405,0.025575,-0.0202125,-0.1049125
1679931498280,1111486635138559,0.0276375,-0.0242,-0.105875
1679931498282,1111486637640727,0.0265375,-0.027224999,-0.1049125
1679931498285,1111486640142881,0.0276375,-0.0352,-0.1098625
1679931498288,1111486642645034,0.0295625,-0.0352,-0.108899996
1679931498290,1111486645147188,0.0295625,-0.0331375,-0.105875
1679931498292,1111486647649352,0.0286,-0.0352,-0.105875
1679931498295,1111486650151506,0.03355,-0.0312125,-0.105875
1679931498301,1111486652653660,0.0375375,-0.02915,-0.105875
1679931498301,1111486655155737,0.0375375,-0.027224999,-0.1049125
1679931498303,1111486657657876,0.0405625,-0.0251625,-0.10285
1679931498306,1111486660160106,0.041525,-0.0171875,-0.099825
1679931498308,1111486662662260,0.0435875,-0.015262499,-0.0988625
1679931498310,1111486665164337,0.0485375,-0.0122375,-0.0979
1679931498312,1111486667666491,0.0466125,-0.00825,-0.0988625
1679931498315,1111486670168636,0.0466125,-0.0012375,-0.0979
1679931498319,1111486672670790,0.0515625,0.0017875,-0.0939125
1679931498321,1111486675172944,0.0545875,0.00275,-0.0908875
1679931498325,1111486677675097,0.052525,0.005775,-0.089925
1679931498327,1111486680177227,0.0545875,0.0048125,-0.086899996
1679931498329,1111486682679381,0.0595375,0.0097624995,-0.086899996
1679931498330,1111486685181304,0.0595375,0.0078375,-0.083875
1679931498332,1111486687683458,0.0606375,0.0108624995,-0.0768625
1679931498336,1111486690185612,0.0616,0.01485,-0.0738375
1679931498341,1111486692687982,0.064625,0.0127875,-0.0688875
1679931498342,1111486695190135,0.0616,0.01375,-0.066825
1679931498343,1111486697692058,0.0616,0.0127875,-0.061875
1679931498346,1111486700194212,0.0625625,0.01375,-0.0598125
1679931498348,1111486702696376,0.058575,0.0127875,-0.056925
1679931498350,1111486705198530,0.0606375,0.0108624995,-0.0518375
1679931498353,1111486707700607,0.0625625,0.0078375,-0.050875
1679931498355,1111486710202838,0.058575,0.0078375,-0.050875
1679931498358,1111486712704982,0.058575,-1.375E-4,-0.0488125
1679931498360,1111486715207135,0.0545875,-0.0092124995,-0.050875
1679931498362,1111486717709212,0.0506,-0.0122375,-0.050875
1679931498366,1111486720211366,0.0485375,-0.0132,-0.050875
1679931498368,1111486722713520,0.0435875,-0.0242,-0.050875
1679931498375,1111486725215728,0.036575,-0.03025,-0.0518375
1679931498376,1111486727717882,0.0356125,-0.0312125,-0.0529375
1679931498377,1111486730219959,0.0325875,-0.0422125,-0.0539
1679931498379,1111486732722112,0.0276375,-0.0482625,-0.0548625
1679931498381,1111486735224266,0.0246125,-0.049225,-0.0529375
1679931498383,1111486737726420,0.02255,-0.0551375,-0.0529375
1679931498385,1111486740228343,0.0215875,-0.0592625,-0.0548625
1679931498388,1111486742730728,0.0235125,-0.060225,-0.0529375
1679931498390,1111486745232877,0.0215875,-0.0642125,-0.0529375
1679931498392,1111486747734800,0.020624999,-0.0642125,-0.055825
1679931498395,1111486750236954,0.020624999,-0.0661375,-0.055825
1679931498398,1111486752739107,0.0185625,-0.0661375,-0.056925
1679931498401,1111486755241266,0.0155375,-0.065175,-0.0578875
1679931498402,1111486757743651,0.01155,-0.0642125,-0.0578875
1679931498405,1111486760245574,0.0105875,-0.0661375,-0.0609125
1679931498408,1111486762747728,0.008525,-0.0642125,-0.064899996
1679931498411,1111486765249863,0.0075625,-0.0642125,-0.0609125
1679931498413,1111486767752017,0.0015125,-0.065175,-0.064899996
1679931498415,1111486770254094,5.5E-4,-0.0672375,-0.064899996
1679931498418,1111486772756324,5.5E-4,-0.065175,-0.064899996
1679931498420,1111486775258401,-0.0044,-0.0611875,-0.061875
1679931498422,1111486777760569,-0.0053625,-0.0572,-0.0609125
1679931498425,1111486780262723,-0.0083875,-0.0551375,-0.0628375
1679931498428,1111486782764954,-0.013475,-0.0532125,-0.056925
1679931498430,1111486785267031,-0.0154,-0.049225,-0.0609125
1679931498432,1111486787769217,-0.02145,-0.0422125,-0.058849998
1679931498436,1111486790271371,-0.0224125,-0.0342375,-0.056925
1679931498439,1111486792773525,-0.0224125,-0.0281875,-0.058849998
1679931498441,1111486795275448,-0.0204875,-0.021175,-0.056925
1679931498442,1111486797777602,-0.02145,-0.015262499,-0.0539
1679931498445,1111486800279973,-0.023375,-0.0042625,-0.0529375
1679931498449,1111486802782127,-0.02145,0.0048125,-0.0548625
1679931498451,1111486805284280,-0.0224125,0.016775,-0.0529375
1679931498453,1111486807786195,-0.0224125,0.027775,-0.0518375
1679931498455,1111486810288348,-0.023375,0.036849998,-0.0529375
1679931498459,1111486812790502,-0.0224125,0.0488125,-0.0518375
1679931498460,1111486815292887,-0.0224125,0.0528,-0.0499125
1679931498462,1111486817794810,-0.0254375,0.0638,-0.0429
1679931498467,1111486820296921,-0.0224125,0.071775,-0.0419375
1679931498468,1111486822799075,-0.0224125,0.08085,-0.0438625
1679931498470,1111486825301229,-0.0204875,0.0858,-0.0389125
1679931498476,1111486827803295,-0.0174625,0.0848375,-0.0358875
1679931498477,1111486830305449,-0.012375,0.088825,-0.034925
1679931498479,1111486832807680,-0.0094875,0.09075,-0.0319
1679931498481,1111486835309757,-0.007425,0.0947375,-0.0298375
1679931498482,1111486837811911,-0.0044,0.099825,-0.034925
1679931498488,1111486840314046,0.0026125,0.0988625,-0.028875
1679931498490,1111486842816200,0.0056375,0.099825,-0.0268125
1679931498492,1111486845318123,0.0075625,0.095837496,-0.0298375
1679931498494,1111486847820507,0.008525,0.09075,-0.02585
1679931498497,1111486850322430,0.01155,0.0858,-0.0248875
1679931498498,1111486852824843,0.013612499,0.0738375,-0.02585
1679931498500,1111486855326766,0.0166375,0.06875,-0.0209
1679931498502,1111486857828920,0.013612499,0.060775,-0.0199375
1679931498505,1111486860331074,0.013612499,0.0518375,-0.0199375
1679931498508,1111486862833228,0.0166375,0.0427625,-0.0199375
1679931498510,1111486865335386,0.0155375,0.027775,-0.0188375
1679931498514,1111486867837540,0.0155375,0.0127875,-0.0188375
1679931498516,1111486870339694,0.0166375,-0.0012375,-0.0188375
1679931498519,1111486872841771,0.01155,-0.014162499,-0.0188375
1679931498522,1111486875343906,0.0125124995,-0.02915,-0.0188375
1679931498525,1111486877846060,0.013612499,-0.0391875,-0.017875
1679931498529,1111486880347174,0.013612499,-0.0501875,-0.0188375
1679931498529,1111486882848291,0.0155375,-0.060225,-0.0209
1679931498530,1111486885352526,0.0125124995,-0.0672375,-0.0218625
1679931498532,1111486887854680,0.013612499,-0.0782375,-0.0248875
1679931498535,1111486890356834,0.0155375,-0.08525,-0.02585
1679931498538,1111486892858988,0.0176,-0.0972125,-0.0279125
1679931498541,1111486895361146,0.013612499,-0.1021625,-0.028875
1679931498543,1111486897863300,0.013612499,-0.10725,-0.0298375
1679931498545,1111486900365453,0.009625,-0.1122,-0.0319
1679931498548,1111486902867607,0.0075625,-0.1161875,-0.033825
1679931498550,1111486905369530,0.0075625,-0.1241625,-0.036849998
1679931498553,1111486907871684,0.0066,-0.1252625,-0.0378125
1679931498556,1111486910373838,0.0056375,-0.1252625,-0.0378125
1679931498558,1111486912876223,0.0026125,-0.12815,-0.0378125
1679931498562,1111486915378127,0.003575,-0.1271875,-0.036849998
1679931498564,1111486917880281,0.003575,-0.1271875,-0.0389125
1679931498567,1111486920382435,0.00165,-0.1211375,-0.036849998
1679931498569,1111486922884588,-0.001375,-0.11825,-0.0358875
1679931498571,1111486925386665,-4.125E-4,-0.11715,-0.0358875
1679931498573,1111486927888896,0.00165,-0.115225,-0.033825
1679931498575,1111486930391050,-0.001375,-0.1032625,-0.0358875
1679931498578,1111486932893204,5.5E-4,-0.0991375,-0.034925
1679931498580,1111486935395358,0.00165,-0.0941875,-0.0328625
1679931498584,1111486937897497,5.5E-4,-0.08415,-0.034925
1679931498586,1111486940399574,0.003575,-0.0752125,-0.033825
1679931498588,1111486942901728,0.003575,-0.0672375,-0.0298375
1679931498590,1111486945403882,0.003575,-0.0592625,-0.0279125
1679931498593,1111486947906113,0.0056375,-0.0532125,-0.0268125
1679931498596,1111486950408170,0.0075625,-0.0452375,-0.0298375
1679931498600,1111486952910324,0.008525,-0.0361625,-0.034925
1679931498602,1111486955412247,0.009625,-0.0281875,-0.0358875
1679931498604,1111486957943939,0.01265,-0.015262499,-0.0358875
1679931498608,1111486960416761,0.008525,-0.014162499,-0.0358875
1679931498609,1111486962918915,0.01155,-0.0092124995,-0.036849998
1679931498611,1111486965421069,0.013612499,-0.0042625,-0.0378125
1679931498613,1111486967922992,0.013612499,-1.375E-4,-0.0378125
1679931498615,1111486970425146,0.013612499,0.00385,-0.0408375
1679931498618,1111486972927315,0.0185625,8.25E-4,-0.0438625
1679931498620,1111486975429469,0.0155375,0.0048125,-0.0429
1679931498622,1111486977931853,0.0155375,0.0017875,-0.0419375
1679931498625,1111486980433776,0.0185625,0.00385,-0.0419375
1679931498628,1111486982935930,0.0176,0.00275,-0.045925
1679931498630,1111486985438088,0.019524999,0.00275,-0.045925
1679931498633,1111486987940242,0.0215875,-0.0012375,-0.047849998
1679931498637,1111486990442319,0.0185625,-0.0022,-0.047849998
1679931498644,1111486992943430,0.0176,-0.0061875,-0.047849998
1679931498644,1111486995444507,0.0176,-0.0111375,-0.0499125
1679931498646,1111486997948814,0.0166375,-0.0132,-0.0518375
1679931498648,1111487000450968,0.0176,-0.015262499,-0.0548625
1679931498650,1111487002953122,0.0155375,-0.01815,-0.0539
1679931498651,1111487005455059,0.0155375,-0.0221375,-0.0548625
1679931498653,1111487007957444,0.01265,-0.0251625,-0.0518375
1679931498655,1111487010459598,0.01265,-0.0242,-0.0518375
1679931498658,1111487012961751,0.013612499,-0.0262625,-0.0548625
1679931498660,1111487015463680,0.0155375,-0.0262625,-0.055825
1679931498663,1111487017965833,0.0155375,-0.0281875,-0.055825
1679931498665,1111487020467987,0.0155375,-0.0281875,-0.055825
1679931498668,1111487022970141,0.01265,-0.032175,-0.0548625
1679931498670,1111487025472517,0.0155375,-0.03025,-0.055825
1679931498675,1111487027974440,0.0166375,-0.0262625,-0.055825
1679931498678,1111487030476594,0.0155375,-0.0281875,-0.058849998
1679931498679,1111487032978756,0.0155375,-0.0262625,-0.0609125
1679931498682,1111487035481141,0.019524999,-0.0251625,-0.0628375
1679931498684,1111487037983064,0.019524999,-0.0221375,-0.0628375
1679931498685,1111487040485218,0.0155375,-0.021175,-0.064899996
1679931498688,1111487042987372,0.0155375,-0.0262625,-0.0628375
1679931498690,1111487045489526,0.0176,-0.021175,-0.0628375
1679931498693,1111487047991603,0.0155375,-0.0251625,-0.0658625
1679931498695,1111487050493833,0.0176,-0.0242,-0.066825
1679931498698,1111487052995987,0.0176,-0.0262625,-0.06985
1679931498700,1111487055498165,0.0155375,-0.0251625,-0.0708125
1679931498703,1111487058000242,0.0166375,-0.021175,-0.06985
1679931498705,1111487060502396,0.0155375,-0.021175,-0.0708125
1679931498708,1111487063004550,0.0185625,-0.021175,-0.0738375
1679931498712,1111487065506483,0.019524999,-0.0221375,-0.0738375
1679931498714,1111487068008867,0.0166375,-0.0251625,-0.0738375
1679931498716,1111487070511021,0.0166375,-0.0262625,-0.0759
1679931498719,1111487073013175,0.019524999,-0.0251625,-0.08085
1679931498722,1111487075515313,0.0185625,-0.0242,-0.08085
1679931498724,1111487078017467,0.0176,-0.02915,-0.077825
1679931498727,1111487080519390,0.0185625,-0.03025,-0.0818125
1679931498729,1111487083021775,0.0185625,-0.03025,-0.0818125
1679931498731,1111487085523928,0.0176,-0.0361625,-0.0818125
1679931498733,1111487088025881,0.013612499,-0.038225,-0.08085
1679931498735,1111487090528034,0.0155375,-0.043175,-0.0829125
1679931498738,1111487093030188,0.013612499,-0.0422125,-0.0829125
1679931498741,1111487095532342,0.01265,-0.0452375,-0.0829125
1679931498744,1111487098034713,0.01265,-0.054175,-0.0859375
1679931498745,1111487100536636,0.01265,-0.05115,-0.086899996
1679931498749,1111487103038790,0.01265,-0.05115,-0.0908875
1679931498751,1111487105540943,0.013612499,-0.0551375,-0.089925
1679931498753,1111487108043044,0.01265,-0.060225,-0.0908875
1679931498757,1111487110545198,0.01265,-0.0532125,-0.0928125
1679931498759,1111487113047352,0.01265,-0.0551375,-0.09185
1679931498761,1111487115549583,0.009625,-0.0572,-0.0908875
1679931498763,1111487118051660,0.0075625,-0.054175,-0.09185
1679931498765,1111487120553819,0.0045375,-0.054175,-0.09185
1679931498769,1111487123055973,0.0066,-0.05115,-0.0908875
1679931498771,1111487125558126,0.0045375,-0.0482625,-0.0908875
1679931498773,1111487128060053,0.00165,-0.0452375,-0.089925
1679931498775,1111487130562438,0.0026125,-0.0391875,-0.089925
1679931498778,1111487133064592,0.003575,-0.0342375,-0.089925
1679931498780,1111487135566746,0.0026125,-0.0331375,-0.089925
1679931498783,1111487138068669,0.00165,-0.0331375,-0.088825
1679931498787,1111487140570790,0.003575,-0.02915,-0.083875
1679931498790,1111487143072944,-4.125E-4,-0.0221375,-0.0859375
1679931498793,1111487145575021,0.0026125,-0.01815,-0.088825
1679931498794,1111487148077251,0.00165,-0.0122375,-0.0878625
1679931498796,1111487150579405,-0.001375,-0.00825,-0.0848375
1679931498799,1111487153081578,0.00165,-0.0042625,-0.083875
1679931498801,1111487155583732,0.003575,-0.0012375,-0.078925
1679931498803,1111487158085809,5.5E-4,0.0048125,-0.077825
1679931498806,1111487160587963,0.00165,0.0097624995,-0.078925
1679931498808,1111487163090179,0.003575,0.0127875,-0.077825
1679931498810,1111487165592333,0.0045375,0.0177375,-0.0749375
1679931498813,1111487168094487,0.0056375,0.0177375,-0.0708125
1679931498815,1111487170596564,0.0056375,0.0207625,-0.06985
1679931498818,1111487173098737,0.0075625,0.0218625,-0.0708125
1679931498821,1111487175600891,0.009625,0.0207625,-0.067925
1679931498825,1111487178103122,0.009625,0.0218625,-0.067925
1679931498828,1111487180605198,0.0155375,0.022824999,-0.0688875
1679931498830,1111487183107356,0.019524999,0.022824999,-0.0719125
1679931498831,1111487185609510,0.019524999,0.0268125,-0.0708125
1679931498833,1111487188111664,0.019524999,0.02475,-0.06985
1679931498836,1111487190613587,0.0246125,0.0198,-0.0719125
1679931498839,1111487193115741,0.0265375,0.0198,-0.0738375
1679931498842,1111487195618107,0.025575,0.0158125,-0.0738375
1679931498844,1111487198120260,0.02255,0.0097624995,-0.0719125
1679931498846,1111487200622414,0.025575,0.005775,-0.072875
1679931498848,1111487203124337,0.0265375,-1.375E-4,-0.0759
1679931498850,1111487205626491,0.025575,-0.0042625,-0.0759
1679931498853,1111487208128568,0.0265375,-0.0022,-0.0749375
1679931498856,1111487210631030,0.02255,-0.00715,-0.0719125
1679931498858,1111487213132953,0.0215875,-0.0132,-0.0719125
1679931498862,1111487215635107,0.0215875,-0.015262499,-0.0719125
1679931498864,1111487218137260,0.0246125,-0.0171875,-0.0708125
1679931498867,1111487220639337,0.02365,-0.021175,-0.06985
1679931498874,1111487223141491,0.0265375,-0.0251625,-0.0708125
1679931498886,1111487225643645,0.0265375,-0.027224999,-0.067925
1679931498887,1111487228145852,0.0265375,-0.0262625,-0.0658625
1679931498887,1111487230647929,0.025575,-0.027224999,-0.0658625
1679931498888,1111487233150083,0.0265375,-0.0242,-0.0628375
1679931498888,1111487235652236,0.0295625,-0.0251625,-0.061875
1679931498888,1111487238154170,0.025575,-0.0221375,-0.0658625
1679931498889,1111487240656554,0.025575,-0.021175,-0.0628375
1679931498889,1111487243158708,0.0295625,-0.021175,-0.061875
1679931498890,1111487245660862,0.0265375,-0.0221375,-0.0609125
1679931498893,1111487248163020,0.0286,-0.0132,-0.0578875
1679931498897,1111487250664943,0.0276375,-0.0092124995,-0.056925
1679931498900,1111487253167097,0.0276375,-0.010175,-0.0548625
1679931498901,1111487255669251,0.0276375,-0.00715,-0.0548625
1679931498904,1111487258171390,0.0265375,-0.0012375,-0.0529375
1679931498906,1111487260673775,0.0265375,8.25E-4,-0.0529375
1679931498909,1111487263175698,0.0295625,0.00385,-0.0488125
1679931498910,1111487265677852,0.031625,0.0097624995,-0.045925
1679931498913,1111487268180006,0.031625,0.0078375,-0.047849998
1679931498918,1111487270682097,0.031625,0.0108624995,-0.0429
1679931498919,1111487273184251,0.0325875,0.01485,-0.0419375
1679931498921,1111487275686481,0.0325875,0.01485,-0.0419375
1679931498924,1111487278188635,0.0325875,0.0177375,-0.0408375
1679931498927,1111487280690712,0.0325875,0.0207625,-0.0378125
1679931498928,1111487283192857,0.031625,0.0207625,-0.0389125
1679931498930,1111487285695011,0.034649998,0.0177375,-0.036849998
1679931498935,1111487288197242,0.0356125,0.0158125,-0.0378125
1679931498938,1111487290699343,0.03355,0.01375,-0.0378125
1679931498940,1111487293201496,0.031625,0.01375,-0.0389125
1679931498942,1111487295703650,0.031625,0.0097624995,-0.0389125
1679931498943,1111487298205804,0.0286,0.0048125,-0.0378125
1679931498946,1111487300707958,0.025575,-1.375E-4,-0.0378125
1679931498950,1111487303210088,0.0286,-0.0031625,-0.036849998
1679931498951,1111487305712011,0.031625,-0.0042625,-0.036849998
1679931498955,1111487308214396,0.031625,-0.00825,-0.036849998
1679931498959,1111487310716319,0.0286,-0.0111375,-0.0389125
1679931498960,1111487313218520,0.025575,-0.015262499,-0.0358875
1679931498961,1111487315720674,0.025575,-0.016224999,-0.036849998
1679931498964,1111487318222828,0.0246125,-0.0171875,-0.039875
1679931498969,1111487320724982,0.02255,-0.021175,-0.036849998
1679931498970,1111487323227136,0.020624999,-0.0251625,-0.034925
1679931498971,1111487325729218,0.02255,-0.0221375,-0.0328625
1679931498975,1111487328231372,0.020624999,-0.0221375,-0.033825
1679931498978,1111487330733525,0.019524999,-0.0202125,-0.0298375
1679931498980,1111487333235679,0.019524999,-0.021175,-0.028875
1679931498981,1111487335737861,0.0176,-0.0221375,-0.0248875
1679931498983,1111487338240015,0.013612499,-0.021175,-0.0268125
1679931498986,1111487340742169,0.0166375,-0.0171875,-0.0268125
1679931498988,1111487343244323,0.0185625,-0.0132,-0.0279125
1679931498993,1111487345746458,0.0155375,-0.015262499,-0.0279125
1679931498994,1111487348248381,0.01265,-0.014162499,-0.0248875
1679931498999,1111487350750765,0.0105875,-0.0111375,-0.0248875
1679931499000,1111487353252919,0.01265,-0.00825,-0.0248875
1679931499001,1111487355755073,0.013612499,-0.0022,-0.0248875
1679931499005,1111487358257001,0.0105875,-0.0012375,-0.0218625
1679931499009,1111487360759155,0.0105875,-0.0022,-0.022824999
1679931499010,1111487363261309,0.009625,-1.375E-4,-0.022824999
1679931499014,1111487365763703,0.0105875,0.00385,-0.0209
1679931499014,1111487368265626,0.009625,0.00385,-0.0268125
1679931499019,1111487370767780,0.0105875,0.0048125,-0.023924999
1679931499020,1111487373269934,0.009625,0.0097624995,-0.0188375
1679931499020,1111487375772088,0.0066,0.0078375,-0.0248875
1679931499025,1111487378274164,0.0056375,0.0127875,-0.02585
1679931499027,1111487380776318,0.0045375,0.0177375,-0.0218625
1679931499028,1111487383278549,0.00165,0.0207625,-0.017875
1679931499030,1111487385780702,5.5E-4,0.022824999,-0.023924999
1679931499034,1111487388282779,-4.125E-4,0.0177375,-0.023924999
1679931499037,1111487390784943,-0.001375,0.0177375,-0.017875
1679931499038,1111487393287097,-0.0053625,0.02475,-0.0169125
1679931499041,1111487395789251,-0.0053625,0.0237875,-0.0199375
1679931499043,1111487398291405,-0.007425,0.0198,-0.017875
1679931499047,1111487400793554,-0.00935,0.0198,-0.0169125
1679931499052,1111487403295708,-0.00935,0.0218625,-0.017875
1679931499053,1111487405797861,-0.00935,0.0218625,-0.0158125
1679931499054,1111487408300015,-0.0114124995,0.0198,-0.01485
1679931499058,1111487410801914,-0.01045,0.0188375,-0.0169125
1679931499058,1111487413304299,-0.01045,0.0188375,-0.01485
1679931499061,1111487415806453,-0.00935,0.0177375,-0.0158125
1679931499063,1111487418308607,-0.00935,0.016775,-0.012925
1679931499069,1111487420810516,-0.00935,0.0127875,-0.012925
1679931499070,1111487423312670,-0.0114124995,0.0097624995,-0.0158125
1679931499071,1111487425814823,-0.0144375,0.0067375,-0.012925
1679931499076,1111487428316977,-0.01045,0.005775,-0.012925
1679931499077,1111487430819131,-0.012375,0.00275,-0.011825
1679931499079,1111487433321289,-0.0114124995,-1.375E-4,-0.0099
1679931499083,1111487435823443,-0.0154,-0.0012375,-0.0078375
1679931499084,1111487438325597,-0.013475,-0.0022,-0.0099
1679931499090,1111487440827727,-0.012375,-0.0031625,-0.0089375
1679931499092,1111487443329803,-0.0154,-0.0092124995,-0.0089375
1679931499093,1111487445832034,-0.0174625,-0.00825,-0.0078375
1679931499094,1111487448334188,-0.0193875,-0.010175,-0.0078375
1679931499097,1111487450836342,-0.018424999,-0.0132,-0.0059125
1679931499099,1111487453338424,-0.0163625,-0.0132,-0.0089375
1679931499101,1111487455840578,-0.0174625,-0.014162499,-0.011825
1679931499103,1111487458342501,-0.0193875,-0.016224999,-0.012925
1679931499108,1111487460844885,-0.0193875,-0.01925,-0.0108624995
1679931499109,1111487463347039,-0.0193875,-0.0202125,-0.0108624995
1679931499111,1111487465849184,-0.018424999,-0.0202125,-0.01485
1679931499114,1111487468351338,-0.0193875,-0.0202125,-0.012925
1679931499117,1111487470853261,-0.018424999,-0.0251625,-0.011825
1679931499119,1111487473355443,-0.0193875,-0.02915,-0.01485
1679931499121,1111487475857597,-0.02035,-0.0281875,-0.011825
1679931499125,1111487478359981,-0.0174625,-0.0262625,-0.011825
1679931499129,1111487483361904,-0.0193875,-0.027224999,-0.011825
1679931499130,1111487483823135,-0.0193875,-0.027224999,-0.012925
1679931499132,1111487485866212,-0.0174625,-0.0202125,-0.011825
1679931499134,1111487488368289,-0.018424999,-0.01815,-0.012925
1679931499137,1111487490870443,-0.0193875,-0.0242,-0.0169125
1679931499138,1111487493372674,-0.02035,-0.01925,-0.011825
1679931499142,1111487495874814,-0.0224125,-0.016224999,-0.011825
1679931499143,1111487498376967,-0.02035,-0.016224999,-0.0199375
1679931499147,1111487500879044,-0.0193875,-0.0122375,-0.01485
1679931499148,1111487503381198,-0.02145,-0.010175,-0.011825
1679931499152,1111487505883092,-0.0254375,-0.00825,-0.012925
1679931499154,1111487508385477,-0.024475,-0.00715,-0.0108624995
1679931499157,1111487510887631,-0.024475,-0.0061875,-0.0108624995
1679931499159,1111487513389785,-0.024475,-0.0042625,-0.012925
1679931499162,1111487515891928,-0.0264,-0.005225,-0.011825
1679931499164,1111487518393852,-0.0273625,-0.005225,-0.011825
1679931499167,1111487520896005,-0.024475,-0.00715,-0.0108624995
1679931499169,1111487523398159,-0.024475,-0.00825,-0.011825
1679931499171,1111487525900544,-0.0264,-0.00715,-0.0108624995
1679931499173,1111487528402698,-0.0254375,-0.005225,-0.0108624995
1679931499177,1111487530904621,-0.0264,-0.010175,-0.0108624995
1679931499179,1111487533406775,-0.0254375,-0.0111375,-0.0108624995
1679931499181,1111487535909159,-0.0273625,-0.0122375,-0.011825
1679931499183,1111487538411333,-0.023375,-0.0111375,-0.01485
1679931499187,1111487540913256,-0.0254375,-0.016224999,-0.011825
1679931499188,1111487543415410,-0.02145,-0.01815,-0.01485
1679931499191,1111487545917564,-0.02145,-0.0171875,-0.012925
1679931499194,1111487548419602,-0.024475,-0.0202125,-0.012925
1679931499197,1111487550921756,-0.0264,-0.0242,-0.012925
1679931499200,1111487553423986,-0.024475,-0.0262625,-0.017875
1679931499202,1111487555926140,-0.024475,-0.0251625,-0.017875
1679931499204,1111487558428294,-0.023375,-0.0262625,-0.0169125
1679931499207,1111487560930448,-0.0224125,-0.0281875,-0.0188375
1679931499209,1111487563432525,-0.024475,-0.02915,-0.0218625
1679931499211,1111487565934679,-0.0224125,-0.03025,-0.023924999
1679931499213,1111487568436910,-0.0224125,-0.0342375,-0.0218625
1679931499217,1111487570939058,-0.024475,-0.0361625,-0.0248875
1679931499218,1111487573441135,-0.0254375,-0.03025,-0.023924999
1679931499221,1111487575943289,-0.0273625,-0.032175,-0.022824999
1679931499223,1111487578445212,-0.0264,-0.0361625,-0.022824999
1679931499227,1111487580947362,-0.02145,-0.0372625,-0.0218625
1679931499228,1111487583449516,-0.0224125,-0.038225,-0.0248875
1679931499231,1111487585951901,-0.024475,-0.038225,-0.022824999
1679931499234,1111487588453824,-0.023375,-0.0422125,-0.0218625
1679931499238,1111487590955987,-0.024475,-0.041249998,-0.0218625
1679931499240,1111487593458140,-0.023375,-0.0391875,-0.0218625
1679931499242,1111487595960294,-0.023375,-0.041249998,-0.0218625
1679931499243,1111487598462371,-0.023375,-0.041249998,-0.023924999
1679931499247,1111487600964602,-0.0224125,-0.043175,-0.0248875
1679931499248,1111487603466766,-0.02035,-0.0422125,-0.023924999
1679931499250,1111487605968843,-0.0193875,-0.0352,-0.0248875
1679931499253,1111487608471074,-0.0193875,-0.0372625,-0.02585
1679931499257,1111487610973150,-0.02145,-0.0391875,-0.0279125
1679931499258,1111487613475304,-0.0224125,-0.0361625,-0.028875
1679931499261,1111487615977554,-0.018424999,-0.0352,-0.028875
1679931499263,1111487618479708,-0.0174625,-0.0352,-0.0298375
1679931499266,1111487620981785,-0.018424999,-0.0361625,-0.02585
1679931499270,1111487623483939,-0.0174625,-0.0372625,-0.0279125
1679931499271,1111487625986093,-0.0174625,-0.038225,-0.028875
1679931499276,1111487628488016,-0.0163625,-0.0372625,-0.0319
1679931499278,1111487630990170,-0.013475,-0.032175,-0.0298375
1679931499280,1111487633654180,-0.013475,-0.032175,-0.0328625
1679931499282,1111487635994718,-0.0114124995,-0.0331375,-0.028875
1679931499284,1111487638496872,-0.01045,-0.0352,-0.0319
1679931499287,1111487640998795,-0.0114124995,-0.0352,-0.033825
1679931499289,1111487643500949,-0.0114124995,-0.0352,-0.0328625
1679931499291,1111487646003107,-0.00935,-0.0342375,-0.0328625
1679931499293,1111487648505491,-0.00935,-0.0312125,-0.0319
1679931499297,1111487651007414,-0.007425,-0.0281875,-0.033825
1679931499299,1111487653509568,-0.007425,-0.03025,-0.0328625
1679931499303,1111487656011694,-0.0064625,-0.0262625,-0.0298375
1679931499304,1111487658513848,-0.0044,-0.0242,-0.0298375
1679931499307,1111487661015925,-0.001375,-0.0202125,-0.028875
1679931499309,1111487663518079,-0.001375,-0.0221375,-0.0279125
1679931499312,1111487666020308,-4.125E-4,-0.01925,-0.0268125
1679931499315,1111487668522462,-0.001375,-0.016224999,-0.0268125
1679931499318,1111487671024616,0.0026125,-0.0122375,-0.0268125
1679931499320,1111487673526693,0.003575,-0.0132,-0.02585
1679931499322,1111487676028876,0.00165,-0.014162499,-0.02585
1679931499324,1111487678531030,0.003575,-0.0092124995,-0.022824999
1679931499327,1111487681033261,0.0045375,-0.010175,-0.02585
1679931499329,1111487683535337,0.0056375,-0.00825,-0.0248875
1679931499331,1111487686037491,0.0066,-0.0031625,-0.022824999
1679931499334,1111487688539655,0.0056375,-0.0061875,-0.022824999
1679931499337,1111487691041809,0.0056375,-0.00825,-0.022824999
1679931499339,1111487693543732,0.0056375,-0.0042625,-0.023924999
1679931499341,1111487696045886,0.0056375,-0.00715,-0.0218625
1679931499343,1111487698548290,0.0056375,-0.010175,-0.0209
1679931499347,1111487701050443,0.0056375,-0.005225,-0.0218625
1679931499352,1111487703552597,0.0075625,-0.00715,-0.0218625
1679931499353,1111487706054520,0.008525,-0.0122375,-0.023924999
1679931499355,1111487708556660,0.0066,-0.01815,-0.0248875
1679931499359,1111487711058737,0.0066,-0.015262499,-0.022824999
1679931499360,1111487713560968,0.003575,-0.016224999,-0.022824999
1679931499362,1111487716063122,0.003575,-0.01925,-0.0248875
1679931499363,1111487718565276,0.0066,-0.021175,-0.0248875
1679931499367,1111487721067467,0.0056375,-0.0262625,-0.0209
1679931499369,1111487723569621,0.0056375,-0.03025,-0.0218625
1679931499373,1111487726071698,0.0075625,-0.0281875,-0.023924999
1679931499376,1111487728573929,0.0056375,-0.0281875,-0.023924999
1679931499378,1111487731076021,0.0045375,-0.0352,-0.022824999
1679931499379,1111487733578175,0.0026125,-0.032175,-0.028875
1679931499381,1111487736080329,0.0026125,-0.0342375,-0.0279125
1679931499384,1111487738582483,0.0056375,-0.0342375,-0.0268125
1679931499389,1111487741084415,0.008525,-0.0312125,-0.028875
1679931499390,1111487743586568,0.008525,-0.0342375,-0.033825
1679931499393,1111487746088953,0.008525,-0.0342375,-0.0358875
1679931499395,1111487748591107,0.009625,-0.0361625,-0.0328625
1679931499397,1111487751093030,0.01265,-0.0352,-0.0358875
1679931499399,1111487753595203,0.0155375,-0.0372625,-0.0389125
1679931499401,1111487756097357,0.0166375,-0.0372625,-0.036849998
1679931499405,1111487758599511,0.0176,-0.0352,-0.036849998
1679931499408,1111487761101664,0.0185625,-0.0352,-0.0378125
1679931499409,1111487763603818,0.0185625,-0.0361625,-0.036849998
1679931499412,1111487766105987,0.0215875,-0.0352,-0.039875
1679931499414,1111487768608141,0.020624999,-0.0352,-0.0408375
1679931499417,1111487771110218,0.02255,-0.0361625,-0.0419375
1679931499418,1111487773612372,0.02365,-0.0352,-0.0429
1679931499421,1111487776114502,0.0215875,-0.0372625,-0.0419375
1679931499425,1111487778616732,0.0215875,-0.0372625,-0.0429
1679931499427,1111487781118886,0.019524999,-0.0361625,-0.0429
1679931499429,1111487783620963,0.019524999,-0.038225,-0.0419375
1679931499431,1111487786123107,0.0176,-0.0372625,-0.0429
1679931499434,1111487788625338,0.0176,-0.043175,-0.044825
1679931499437,1111487791127492,0.0215875,-0.043175,-0.045925
1679931499438,1111487793629569,0.019524999,-0.043175,-0.045925
1679931499441,1111487796131722,0.019524999,-0.0482625,-0.0429
1679931499444,1111487798633886,0.0176,-0.0471625,-0.047849998
1679931499447,1111487801136040,0.0185625,-0.0462,-0.047849998
1679931499448,1111487803638194,0.0185625,-0.0501875,-0.0488125
1679931499451,1111487806140328,0.020624999,-0.05115,-0.0499125
1679931499454,1111487808642482,0.0176,-0.0572,-0.050875
1679931499457,1111487811144405,0.013612499,-0.0572,-0.050875
1679931499459,1111487813646559,0.013612499,-0.0532125,-0.050875
1679931499463,1111487816148698,0.0166375,-0.0532125,-0.050875
1679931499465,1111487818650852,0.0176,-0.052249998,-0.0499125
1679931499467,1111487821153006,0.013612499,-0.049225,-0.047849998
1679931499469,1111487823655160,0.01155,-0.0482625,-0.045925
1679931499471,1111487826157237,0.0155375,-0.0471625,-0.045925
1679931499476,1111487828659400,0.0105875,-0.043175,-0.045925
1679931499479,1111487831161554,0.01155,-0.0391875,-0.045925
1679931499481,1111487833663708,0.009625,-0.032175,-0.045925
1679931499482,1111487836165861,0.0066,-0.0331375,-0.045925
1679931499484,1111487838668092,0.0056375,-0.03025,-0.0438625
1679931499487,1111487841170150,0.008525,-0.0251625,-0.0438625
1679931499489,1111487843672304,0.0045375,-0.0221375,-0.044825
1679931499492,1111487846174458,0.0056375,-0.0242,-0.047849998
1679931499498,1111487848676612,0.0066,-0.0202125,-0.0499125
1679931499518,1111487851178732,0.00165,-0.021175,-0.050875
1679931499518,1111487853680886,0.0026125,-0.0202125,-0.0529375
1679931499518,1111487856183040,0.0026125,-0.01815,-0.050875
1679931499518,1111487858685194,0.00165,-0.01925,-0.0518375
1679931499519,1111487861187122,0.003575,-0.01815,-0.0529375
1679931499519,1111487863689276,0.0045375,-0.015262499,-0.055825
1679931499519,1111487866191430,0.003575,-0.0171875,-0.0548625
1679931499520,1111487868693814,0.0045375,-0.01925,-0.0529375
1679931499520,1111487871195714,0.0075625,-0.021175,-0.055825
1679931499520,1111487873697867,0.0066,-0.01815,-0.0578875
1679931499521,1111487876200021,0.009625,-0.01815,-0.056925
1679931499525,1111487878702175,0.009625,-0.01815,-0.058849998
1679931499527,1111487881204252,0.009625,-0.0221375,-0.0609125
1679931499530,1111487883706483,0.008525,-0.0171875,-0.061875
1679931499531,1111487886208637,0.008525,-0.015262499,-0.0658625
1679931499534,1111487888710791,0.0105875,-0.0122375,-0.066825
1679931499538,1111487891212944,0.0075625,-0.0122375,-0.066825
1679931499540,1111487893715021,0.0056375,-0.0122375,-0.0688875
1679931499542,1111487896217175,0.0066,-0.01815,-0.066825
1679931499544,1111487898719329,0.0094875,-0.015262499,-0.0719125
1679931499547,1111487901221560,0.0075625,-0.016224999,-0.067925
1679931499549,1111487903723623,0.0075625,-0.014162499,-0.0688875
1679931499551,1111487906225777,0.008525,-0.0171875,-0.06985
1679931499554,1111487908727930,0.0055,-0.016224999,-0.0708125
1679931499559,1111487911230084,0.0055,-0.016224999,-0.0708125
1679931499560,1111487913732002,0.0045375,-0.01925,-0.067925
1679931499561,1111487916234387,0.0075625,-0.0171875,-0.064899996
1679931499565,1111487918736541,0.003575,-0.0122375,-0.0628375
1679931499567,1111487921238464,0.0045375,-0.0132,-0.064899996
1679931499569,1111487923740618,0.0075625,-0.016224999,-0.067925
1679931499571,1111487926242758,0.0105875,-0.0132,-0.0658625
1679931499575,1111487928744911,0.0105875,-0.00825,-0.0658625
1679931499578,1111487931247065,0.0125124995,-0.010175,-0.0658625
1679931499580,1111487933749213,0.0094875,-0.0092124995,-0.0688875
1679931499581,1111487936251367,0.0094875,-0.011275,-0.06985
1679931499583,1111487938753521,0.0105875,-0.00825,-0.0719125
1679931499587,1111487941255675,0.0075625,-0.0092124995,-0.072875
1679931499589,1111487943757829,0.0075625,-0.0122375,-0.0738375
1679931499592,1111487946259905,0.0066,-0.011275,-0.0768625
1679931499594,1111487948762136,0.0066,-0.011275,-0.0749375
1679931499597,1111487951264213,0.0055,-0.0122375,-0.0738375
1679931499599,1111487953766367,0.0055,-0.011275,-0.0768625
1679931499601,1111487956268516,5.5E-4,-0.011275,-0.078925
1679931499603,1111487958770670,-4.125E-4,-0.011275,-0.077825
1679931499607,1111487961272824,-0.0034375,-0.0132,-0.0759
1679931499608,1111487963775054,-0.0044,-0.015262499,-0.0738375
1679931499612,1111487966277131,-0.0055,-0.015262499,-0.072875
1679931499614,1111487968779285,-0.0083875,-0.015262499,-0.06985
1679931499617,1111487971281208,-0.01045,-0.0122375,-0.067925
1679931499619,1111487973783362,-0.0083875,-0.0132,-0.0658625
1679931499621,1111487976285516,-0.0125124995,-0.014162499,-0.0609125
1679931499625,1111487978787680,-0.0144375,-0.0132,-0.058849998
1679931499627,1111487981289834,-0.007425,-0.0122375,-0.0598125
1679931499628,1111487983791988,-0.0125124995,-0.0132,-0.0609125
1679931499631,1111487986294141,-0.0154,-0.011275,-0.058849998
1679931499634,1111487988796295,-0.0144375,-0.010175,-0.056925
1679931499637,1111487991298372,-0.0144375,-0.0092124995,-0.0578875
1679931499639,1111487993800526,-0.0154,-0.00825,-0.055825
1679931499642,1111487996302757,-0.0154,-0.00715,-0.056925
1679931499643,1111487998804911,-0.0174625,-0.00715,-0.058849998
1679931499647,1111488001306973,-0.0154,-0.00825,-0.0578875
1679931499650,1111488003809126,-0.0154,-0.00825,-0.0548625
1679931499652,1111488006311280,-0.0154,-0.00715,-0.0578875
1679931499654,1111488008813434,-0.0193875,-0.0061875,-0.056925
1679931499657,1111488011315694,-0.0193875,-0.00825,-0.0548625
1679931499659,1111488013817771,-0.018424999,-0.011275,-0.056925
1679931499661,1111488016319925,-0.0193875,-0.011275,-0.056925
1679931499663,1111488018822079,-0.018424999,-0.014162499,-0.0548625
1679931499667,1111488021324251,-0.0193875,-0.014162499,-0.0518375
1679931499669,1111488023826174,-0.0224125,-0.016224999,-0.0548625
1679931499671,1111488026328328,-0.0224125,-0.01925,-0.0548625
1679931499674,1111488028830713,-0.0235125,-0.0202125,-0.0548625
1679931499678,1111488031332857,-0.024475,-0.022275,-0.050875
1679931499679,1111488033835011,-0.0284625,-0.0242,-0.0518375
1679931499681,1111488036336934,-0.029424999,-0.0281875,-0.0499125
1679931499684,1111488038839088,-0.029424999,-0.0262625,-0.0488125
1679931499688,1111488041341237,-0.0284625,-0.03025,-0.0488125
1679931499690,1111488043843622,-0.035475,-0.03025,-0.047849998
1679931499692,1111488046345545,-0.0374,-0.0312125,-0.047849998
1679931499694,1111488048847699,-0.0364375,-0.033275,-0.0488125
1679931499697,1111488051349776,-0.0374,-0.0372625,-0.0429
1679931499698,1111488053852011,-0.0394625,-0.0372625,-0.0429
1679931499701,1111488056354165,-0.0394625,-0.041249998,-0.0438625
1679931499703,1111488058856318,-0.0394625,-0.041249998,-0.0438625
1679931499707,1111488061358472,-0.0394625,-0.041249998,-0.0429
1679931499708,1111488063860559,-0.0413875,-0.044275,-0.0438625
1679931499711,1111488066362713,-0.043449998,-0.044275,-0.0429
1679931499714,1111488068864867,-0.0424875,-0.0471625,-0.0438625
1679931499717,1111488071367098,-0.0413875,-0.043175,-0.0429
1679931499721,1111488073869160,-0.043449998,-0.0452375,-0.0429
1679931499722,1111488076371313,-0.043449998,-0.0462,-0.0429
1679931499726,1111488078873467,-0.0424875,-0.041249998,-0.0419375
1679931499732,1111488081374423,-0.0413875,-0.041249998,-0.0408375
1679931499732,1111488083875386,-0.0424875,-0.044275,-0.0429
1679931499732,1111488086379925,-0.0424875,-0.043175,-0.0438625
1679931499734,1111488088882079,-0.0424875,-0.044275,-0.0438625
1679931499738,1111488091384233,-0.043449998,-0.043175,-0.045925
1679931499739,1111488093886156,-0.0474375,-0.0452375,-0.0438625
1679931499742,1111488096388308,-0.046475,-0.0462,-0.0419375
1679931499744,1111488098890462,-0.0474375,-0.0452375,-0.0438625
1679931499747,1111488101392616,-0.0474375,-0.044275,-0.0438625
1679931499748,1111488103894770,-0.0455125,-0.043175,-0.0389125
1679931499751,1111488106396945,-0.046475,-0.0391875,-0.036849998
1679931499754,1111488108899099,-0.0474375,-0.0391875,-0.0358875
1679931499758,1111488111401253,-0.0523875,-0.0352,-0.0408375
1679931499759,1111488113903330,-0.0495,-0.0281875,-0.039875
1679931499762,1111488116405507,-0.0504625,-0.02915,-0.0358875
1679931499764,1111488118907738,-0.0523875,-0.027224999,-0.0298375
1679931499767,1111488121409892,-0.0495,-0.021175,-0.0328625
1679931499770,1111488123911969,-0.0484,-0.0171875,-0.0328625
1679931499772,1111488126414123,-0.0495,-0.0122375,-0.0319
1679931499774,1111488128916296,-0.0534875,-0.0061875,-0.02585
1679931499777,1111488131418449,-0.0554125,-2.75E-4,-0.022824999
1679931499779,1111488133920603,-0.0534875,0.00385,-0.0209
1679931499782,1111488136422757,-0.057475,0.0067375,-0.0209
1679931499784,1111488138924911,-0.0584375,0.01375,-0.0188375
1679931499790,1111488141427065,-0.0554125,0.0177375,-0.0158125
1679931499792,1111488143928988,-0.0565125,0.021724999,-0.0158125
1679931499794,1111488146431142,-0.0584375,0.02475,-0.0169125
1679931499796,1111488148933291,-0.0605,0.0308,-0.0169125
1679931499798,1111488151435675,-0.057475,0.0347875,-0.017875
1679931499801,1111488153937829,-0.0594,0.0308,-0.0169125
1679931499802,1111488156439983,-0.062425,0.0298375,-0.0169125
1679931499804,1111488158941911,-0.0614625,0.033825,-0.017875
1679931499808,1111488161444065,-0.0633875,0.0347875,-0.0158125
1679931499810,1111488163946219,-0.06545,0.033825,-0.01485
1679931499811,1111488166448373,-0.0644875,0.033825,-0.0099
1679931499814,1111488168950526,-0.06545,0.033825,-0.0099
1679931499817,1111488171452694,-0.0633875,0.0317625,-0.0089375
1679931499819,1111488173954848,-0.06545,0.0268125,-0.006875
1679931499821,1111488176456925,-0.06545,0.02475,-0.0078375
1679931499824,1111488178959079,-0.06545,0.027775,-0.0059125
1679931499827,1111488181461219,-0.06545,0.0268125,-0.00385
1679931499829,1111488183963450,-0.0694375,0.027775,-0.0048125
1679931499833,1111488186465603,-0.0715,0.0237875,-0.0028875
1679931499835,1111488188967680,-0.068475,0.0188375,-0.001925
1679931499839,1111488191469834,-0.0633875,0.0198,-0.0028875
1679931499841,1111488193971757,-0.062425,0.01375,-0.0059125
1679931499843,1111488196474142,-0.0644875,0.01375,-0.0048125
1679931499844,1111488198976296,-0.0633875,0.011825,-0.0048125
1679931499847,1111488201478459,-0.0644875,0.005775,-0.0048125
1679931499849,1111488203980612,-0.0605,0.00385,-0.0028875
1679931499851,1111488206482536,-0.0605,0.0048125,-0.001925
1679931499854,1111488208984689,-0.0633875,8.25E-4,-0.0028875
1679931499858,1111488211486838,-0.0605,-0.005225,-0.001925
1679931499860,1111488213988915,-0.0614625,-0.00825,-0.001925
1679931499862,1111488216491146,-0.0605,-0.0092124995,1.375E-4
1679931499864,1111488218993300,-0.0565125,-0.015262499,1.375E-4
1679931499867,1111488221495440,-0.0565125,-0.016224999,-0.001925
1679931499869,1111488223997594,-0.054449998,-0.0132,-0.001925
1679931499871,1111488226499670,-0.0504625,-0.015262499,-0.0059125
1679931499876,1111488229001824,-0.0504625,-0.0122375,-0.0089375
1679931499879,1111488231504040,-0.0504625,-0.015262499,-0.00385
1679931499881,1111488234259040,-0.0534875,-0.014162499,-0.0059125
1679931499882,1111488236508348,-0.054449998,-0.014162499,-0.0078375
1679931499884,1111488239010425,-0.0495,-0.010175,-0.0089375
1679931499887,1111488241512368,-0.0484,-0.00825,-0.0059125
1679931499889,1111488244014752,-0.0504625,-0.0042625,-0.001925
1679931499893,1111488246516906,-0.0484,-0.0022,-0.0059125
1679931499894,1111488249019060,-0.046475,-0.0042625,-0.006875
1679931499897,1111488251521214,-0.0455125,-2.75E-4,-0.0028875
1679931499899,1111488254023353,-0.0424875,0.00275,-0.001925
1679931499901,1111488256525276,-0.043449998,0.0048125,-0.0059125
1679931499904,1111488259027430,-0.043449998,0.0078375,-0.0048125
1679931499907,1111488261529584,-0.040425,0.0158125,-0.0048125
1679931499910,1111488264031968,-0.032449998,0.0207625,1.375E-4
1679931499913,1111488266533891,-0.0364375,0.022824999,1.375E-4
1679931499916,1111488269036045,-0.032449998,0.02475,0.0011
1679931499918,1111488271538199,-0.0275,0.0298375,-8.25E-4
1679931499920,1111488274040323,-0.0254375,0.0347875,0.0020625
1679931499924,1111488276542400,-0.0264,0.0408375,0.0061875
1679931499926,1111488279044631,-0.0275,0.044825,0.0050875
1679931499928,1111488281546784,-0.0224125,0.0488125,0.0031625
1679931499930,1111488284048929,-0.0174625,0.0537625,0.0061875
1679931499931,1111488286551006,-0.02145,0.055825,0.0050875
1679931499934,1111488289053160,-0.0154,0.055825,0.00715
1679931499937,1111488291555314,-0.013475,0.0567875,0.00715
1679931499939,1111488294057468,-0.0094875,0.055825,0.0050875
1679931499941,1111488296559607,-0.0064625,0.0598125,0.0031625
1679931499944,1111488299061760,-0.0055,0.055825,0.0031625
1679931499947,1111488301563684,-0.0044,0.055825,0.0031625
1679931499950,1111488304065808,-0.0015125,0.0518375,0.0050875
1679931499952,1111488306568193,-4.125E-4,0.044825,0.0050875
1679931499955,1111488309070347,5.5E-4,0.043725,0.0020625
1679931499958,1111488311572501,0.0026125,0.0457875,1.375E-4
1679931499959,1111488314074424,0.0045375,0.0427625,0.0011
1679931499961,1111488316576573,0.008525,0.0378125,-0.0028875
1679931499964,1111488319078650,0.008525,0.0317625,-0.001925
1679931499967,1111488321580880,0.0094875,0.0237875,1.375E-4
1679931499969,1111488324083034,0.0105875,0.0237875,0.0020625
1679931499971,1111488326585184,0.0105875,0.0207625,1.375E-4
1679931499974,1111488329087338,0.01155,0.0207625,-0.0028875
1679931499977,1111488331589415,0.0155375,0.0158125,-0.00385
1679931499978,1111488334091569,0.0155375,0.0067375,-8.25E-4
1679931499981,1111488336593727,0.0155375,0.0067375,-0.0028875
1679931499984,1111488339095957,0.0155375,0.00275,-0.00385
1679931499988,1111488341598034,0.0165,-0.0042625,-0.0048125
1679931499990,1111488344100188,0.0204875,-0.0061875,-0.001925
1679931499992,1111488346602333,0.0185625,-0.0092124995,-0.00385
1679931499995,1111488349104487,0.0185625,-0.011275,-0.006875
1679931499998,1111488351606410,0.0204875,-0.016224999,-0.011825
1679931499999,1111488354108795,0.0235125,-0.01815,-0.01485
1679931500002,1111488356610948,0.019524999,-0.022275,-0.0099
1679931500004,1111488359113111,0.019524999,-0.01925,-0.0099
1679931500007,1111488361615034,0.0204875,-0.021175,-0.012925
1679931500010,1111488364117188,0.0235125,-0.022275,-0.01485
1679931500011,1111488366619342,0.0204875,-0.022275,-0.0169125
1679931500014,1111488369121732,0.019524999,-0.021175,-0.0108624995
1679931500017,1111488371623886,0.019524999,-0.021175,-0.011825
1679931500019,1111488374125809,0.0176,-0.0242,-0.0108624995
1679931500021,1111488376627962,0.0155375,-0.0251625,-0.0048125
1679931500027,1111488379130150,0.0155375,-0.02915,-0.006875
1679931500029,1111488381632304,0.013612499,-0.0262625,-0.006875
1679931500030,1111488384134458,0.013612499,-0.0262625,-0.0078375
1679931500032,1111488386636612,0.01155,-0.0242,-0.0048125
1679931500035,1111488389138766,0.013612499,-0.022275,-0.0028875
1679931500038,1111488391640939,0.01155,-0.0242,-0.00385
1679931500039,1111488394143015,0.01155,-0.022275,-0.0059125
1679931500043,1111488396645169,0.01155,-0.022275,-0.0048125
1679931500044,1111488399147323,0.0105875,-0.0202125,-0.0048125
1679931500047,1111488401649544,0.0125124995,-0.01925,-0.0048125
1679931500049,1111488404151698,0.0105875,-0.0202125,-0.0059125
1679931500052,1111488406653775,0.0075625,-0.0202125,-0.006875
1679931500054,1111488409155929,0.0066,-0.021175,-0.0059125
1679931500059,1111488411658073,0.003575,-0.0171875,-0.0048125
1679931500059,1111488414159997,0.003575,-0.016224999,-0.0028875
1679931500063,1111488416662381,0.0015125,-0.016224999,-0.00385
1679931500065,1111488419164535,0.0026125,-0.015262499,-0.001925
1679931500068,1111488421666689,-0.001375,-0.010175,-0.00385
1679931500070,1111488424168867,-4.125E-4,-0.00825,-0.00385
1679931500072,1111488426670790,-0.0044,-0.0092124995,-0.0028875
1679931500075,1111488429172944,-0.0044,-0.00825,-0.0028875
1679931500078,1111488431675097,5.5E-4,-0.0022,-8.25E-4
1679931500079,1111488434177496,-0.0053625,-0.0012375,-0.0028875
1679931500081,1111488436679650,-0.0064625,-1.375E-4,-0.0059125
1679931500084,1111488439181573,-0.001375,0.0017875,-0.0048125
1679931500088,1111488441683727,-4.125E-4,0.00385,-0.00385
1679931500090,1111488444185824,-0.0044,0.0017875,-0.0059125
1679931500092,1111488446687978,-0.001375,0.0017875,-0.006875
1679931500095,1111488449190208,-0.0034375,0.005775,-0.0089375
1679931500097,1111488451692362,-0.0044,0.0048125,-0.0108624995
1679931500101,1111488454194502,-0.0064625,0.0067375,-0.012925
1679931500102,1111488456696579,-0.0083875,0.0048125,-0.01485
1679931500104,1111488459198733,-0.0053625,0.00385,-0.012925
1679931500107,1111488461700887,-0.0053625,0.00275,-0.0169125
1679931500109,1111488464202810,-0.0083875,0.00275,-0.0158125
1679931500112,1111488466705224,-0.0064625,0.005775,-0.0169125
1679931500115,1111488469207377,-0.0064625,0.00385,-0.0199375
1679931500118,1111488471709300,-0.0064625,8.25E-4,-0.017875
1679931500122,1111488474211685,-0.0114124995,-0.0012375,-0.0188375
1679931500130,1111488476713622,-0.0083875,0.0017875,-0.0199375
1679931500130,1111488479215776,-0.0094875,8.25E-4,-0.0199375
1679931500130,1111488481718161,-0.013475,-0.0022,-0.0199375
1679931500130,1111488484220314,-0.0114124995,-1.375E-4,-0.0188375
1679931500132,1111488486722238,-0.012375,0.0048125,-0.0209
1679931500134,1111488489224396,-0.0144375,0.00385,-0.022824999
1679931500138,1111488491726550,-0.012375,0.00385,-0.0218625
1679931500140,1111488494228627,-0.013475,0.0017875,-0.0248875
1679931500142,1111488496730781,-0.013475,-1.375E-4,-0.02585
1679931500144,1111488499233017,-0.012375,0.00275,-0.0199375
1679931500147,1111488501735171,-0.0163625,0.0048125,-0.0199375
1679931500149,1111488504237325,-0.0144375,0.0048125,-0.022824999
1679931500152,1111488506739401,-0.0114124995,0.00385,-0.0218625
1679931500155,1111488509241540,-0.0114124995,-0.0012375,-0.0188375
1679931500159,1111488511743694,-0.0114124995,-0.0012375,-0.0199375
1679931500159,1111488514245925,-0.0154,-0.0022,-0.0188375
1679931500161,1111488516748002,-0.0154,-0.005225,-0.0169125
1679931500165,1111488519250156,-0.012375,-0.0022,-0.0169125
1679931500169,1111488521752291,-0.012375,-0.0012375,-0.017875
1679931500170,1111488524254444,-0.012375,-0.0022,-0.0188375
1679931500172,1111488526756367,-0.012375,-0.0022,-0.0169125
1679931500178,1111488529258492,-0.012375,-0.0022,-0.0169125
1679931500179,1111488531760877,-0.0114124995,8.25E-4,-0.012925
1679931500181,1111488534263031,-0.012375,8.25E-4,-0.012925
1679931500183,1111488536764954,-0.012375,8.25E-4,-0.017875
1679931500184,1111488539267108,-0.013475,0.0017875,-0.017875
1679931500187,1111488541769262,-0.0114124995,8.25E-4,-0.01485
1679931500189,1111488544271415,-0.01045,-1.375E-4,-0.012925
1679931500193,1111488546773800,-0.0114124995,0.00275,-0.0188375
1679931500195,1111488549275723,-0.013475,0.0017875,-0.0218625
1679931500200,1111488551777829,-0.0154,8.25E-4,-0.0209
1679931500201,1111488554279983,-0.0154,8.25E-4,-0.0218625
1679931500202,1111488556782367,-0.0144375,-0.0022,-0.0248875
1679931500204,1111488559284291,-0.0144375,-0.0012375,-0.023924999
1679931500207,1111488561786444,-0.0144375,8.25E-4,-0.0268125
1679931500209,1111488564288492,-0.013475,-0.0022,-0.02585
1679931500213,1111488566790723,-0.013475,-0.0061875,-0.0298375
1679931500215,1111488569292800,-0.0144375,-0.0061875,-0.0298375
1679931500218,1111488571794954,-0.013475,-0.0031625,-0.033825
1679931500219,1111488574297118,-0.013475,-0.005225,-0.0358875
1679931500221,1111488576799272,-0.0154,-0.0061875,-0.033825
1679931500225,1111488579301425,-0.0174625,-0.0012375,-0.0378125
1679931500227,1111488581803349,-0.013475,-1.375E-4,-0.0408375
1679931500229,1111488584305733,-0.0144375,-0.005225,-0.0358875
1679931500231,1111488586807646,-0.018424999,-0.0022,-0.0378125
1679931500235,1111488589310031,-0.0193875,8.25E-4,-0.039875
1679931500237,1111488591812185,-0.0174625,0.00275,-0.039875
1679931500239,1111488594314108,-0.0204875,0.0097624995,-0.039875
1679931500242,1111488596816238,-0.0204875,0.0078375,-0.0419375
1679931500244,1111488599318392,-0.02145,0.0127875,-0.0408375
1679931500247,1111488601820545,-0.024475,0.01375,-0.0408375
1679931500251,1111488604322930,-0.024475,0.0158125,-0.039875
1679931500252,1111488606824867,-0.02145,0.0188375,-0.039875
1679931500254,1111488609327021,-0.0193875,0.0218625,-0.0389125
1679931500258,1111488611829175,-0.0273625,0.027775,-0.0389125
1679931500259,1111488614331252,-0.023375,0.0268125,-0.039875
1679931500262,1111488616833406,-0.0204875,0.027775,-0.039875
1679931500264,1111488619335569,-0.0204875,0.0298375,-0.039875
1679931500267,1111488621837800,-0.0204875,0.0317625,-0.039875
1679931500272,1111488624339877,-0.0204875,0.0308,-0.0408375
1679931500272,1111488626842031,-0.0204875,0.0308,-0.0408375
1679931500275,1111488629344180,-0.0204875,0.0287375,-0.0419375
1679931500278,1111488631846334,-0.02145,0.0308,-0.0408375
1679931500280,1111488634348488,-0.0193875,0.0347875,-0.044825
1679931500281,1111488636850641,-0.0193875,0.0328625,-0.044825
1679931500284,1111488639352795,-0.0193875,0.0317625,-0.045925
1679931500288,1111488641854935,-0.023375,0.0308,-0.0488125
1679931500291,1111488644357089,-0.0204875,0.0298375,-0.0499125
1679931500292,1111488646859012,-0.0193875,0.027775,-0.047849998
1679931500294,1111488649361166,-0.0193875,0.0268125,-0.047849998
1679931500299,1111488651863540,-0.0204875,0.0268125,-0.0499125
1679931500300,1111488654365694,-0.0193875,0.0268125,-0.050875
1679931500302,1111488656867848,-0.018424999,0.0237875,-0.0529375
1679931500304,1111488659369771,-0.018424999,0.0207625,-0.0529375
1679931500309,1111488661871920,-0.0193875,0.0188375,-0.0529375
1679931500310,1111488664374074,-0.0204875,0.0158125,-0.0529375
1679931500312,1111488666876228,-0.0193875,0.0158125,-0.0539
1679931500317,1111488669378387,-0.02145,0.0127875,-0.0539
1679931500319,1111488671880541,-0.0193875,0.01375,-0.050875
1679931500321,1111488674382694,-0.02145,0.01375,-0.0539
1679931500327,1111488676884781,-0.0204875,0.0127875,-0.058849998
1679931500331,1111488679386935,-0.0163625,0.011825,-0.0578875
1679931500332,1111488681888011,-0.018424999,0.0097624995,-0.0578875
1679931500332,1111488684389090,-0.0154,0.005775,-0.0598125
1679931500334,1111488686893397,-0.0163625,0.0048125,-0.0598125
1679931500335,1111488689395551,-0.0174625,0.005775,-0.0598125
1679931500338,1111488691897737,-0.013475,0.0048125,-0.0609125
1679931500339,1111488694399891,-0.0114124995,0.0017875,-0.064899996
1679931500343,1111488696902045,-0.013475,8.25E-4,-0.0609125
1679931500344,1111488699403968,-0.0154,-1.375E-4,-0.061875
1679931500347,1111488701906368,-0.013475,-0.0012375,-0.0628375
1679931500349,1111488704408522,-0.0114124995,-0.0012375,-0.066825
1679931500352,1111488706910445,-0.0094875,-0.0022,-0.066825
1679931500355,1111488709412599,-0.0094875,-0.0042625,-0.064899996
1679931500360,1111488711914713,-0.0094875,-0.0061875,-0.061875
1679931500361,1111488714416867,-0.0114124995,-0.0031625,-0.064899996
1679931500363,1111488716919252,-0.0114124995,-0.0012375,-0.0628375
1679931500365,1111488719421175,-0.01045,-1.375E-4,-0.0628375
1679931500368,1111488721923329,-0.0114124995,8.25E-4,-0.0628375
1679931500370,1111488724425507,-0.01045,0.00275,-0.064899996
1679931500372,1111488726927661,-0.01045,0.005775,-0.0628375
1679931500374,1111488729429738,-0.0083875,0.0108624995,-0.0598125
1679931500377,1111488731931891,-0.0083875,0.0097624995,-0.064899996
1679931500379,1111488734434122,-0.0094875,0.0097624995,-0.064899996
1679931500382,1111488736936199,-0.0083875,0.01375,-0.0628375
1679931500385,1111488739438353,-0.0053625,0.01375,-0.0628375
1679931500387,1111488741940507,-0.0044,0.01485,-0.0609125
1679931500389,1111488744442430,-0.0053625,0.0177375,-0.058849998
1679931500393,1111488746944594,-0.0044,0.0177375,-0.0598125
1679931500395,1111488749446978,-0.0064625,0.0188375,-0.058849998
1679931500398,1111488751949132,-0.0064625,0.0177375,-0.055825
1679931500401,1111488754451305,-0.0053625,0.0158125,-0.055825
1679931500403,1111488756953228,-0.001375,0.0188375,-0.0539
1679931500405,1111488759455382,-4.125E-4,0.01485,-0.0539
1679931500407,1111488761957536,-0.0044,0.016775,-0.0539
1679931500409,1111488764459920,-0.0044,0.0207625,-0.050875
1679931500412,1111488766962098,-0.0064625,0.0177375,-0.0499125
1679931500414,1111488769464021,-0.0034375,0.01485,-0.050875
1679931500417,1111488771966175,-0.0044,0.01485,-0.050875
1679931500419,1111488774468329,-0.0034375,0.0127875,-0.047849998
1679931500422,1111488776970377,-0.001375,0.0097624995,-0.047849998
1679931500425,1111488779472531,0.0015125,0.0097624995,-0.0499125
1679931500427,1111488781974762,-0.0034375,0.0067375,-0.0438625
1679931500429,1111488784476915,-0.0053625,0.00275,-0.047849998
1679931500432,1111488786979060,-0.0034375,-1.375E-4,-0.0488125
1679931500435,1111488789481137,-0.007425,-1.375E-4,-0.050875
1679931500440,1111488791983291,-0.007425,-0.0012375,-0.050875
1679931500442,1111488794485445,-0.007425,-0.0042625,-0.0438625
1679931500443,1111488796987613,-0.0094875,-0.0061875,-0.0438625
1679931500445,1111488799489767,-0.0114124995,-0.00825,-0.0419375
1679931500448,1111488801991690,-0.0083875,-0.0092124995,-0.039875
1679931500450,1111488804493844,-0.01045,-0.00825,-0.0419375
1679931500452,1111488806996228,-0.0094875,-0.0132,-0.0429
1679931500454,1111488809498382,-0.0094875,-0.014162499,-0.039875
1679931500459,1111488812000536,-0.01045,-0.015262499,-0.0378125
1679931500460,1111488814502459,-0.0144375,-0.01815,-0.0378125
1679931500462,1111488817004613,-0.0144375,-0.015262499,-0.036849998
1679931500465,1111488819506781,-0.0144375,-0.0122375,-0.0358875
1679931500467,1111488822008858,-0.0144375,-0.01925,-0.0328625
1679931500469,1111488824511088,-0.013475,-0.0171875,-0.0298375
1679931500472,1111488827013242,-0.018424999,-0.01815,-0.0319
1679931500479,1111488829515392,-0.0154,-0.01925,-0.0279125
1679931500480,1111488832017469,-0.013475,-0.01815,-0.0268125
1679931500482,1111488834902777,-0.0163625,-0.015262499,-0.02585
1679931500484,1111488837123700,-0.0174625,-0.01815,-0.0248875
1679931500485,1111488839524008,-0.0174625,-0.01815,-0.0209
1679931500488,1111488842026165,-0.018424999,-0.0092124995,-0.0199375
1679931500492,1111488844528242,-0.0174625,-0.010175,-0.0209
1679931500493,1111488847030396,-0.0174625,-0.00715,-0.0188375
1679931500495,1111488849532550,-0.018424999,-0.0061875,-0.0169125
1679931500497,1111488852034704,-0.0163625,-0.00715,-0.01485
1679931500499,1111488854536613,-0.012375,-0.00825,-0.011825
1679931500502,1111488857038998,-0.012375,-0.00825,-0.0099
1679931500505,1111488859541151,-0.0154,-0.0042625,-0.0108624995
1679931500507,1111488862043305,-0.0154,-0.0012375,-0.0108624995
1679931500509,1111488864545454,-0.013475,-0.0012375,-0.006875
1679931500515,1111488867047377,-0.0154,-0.005225,-0.0078375
1679931500517,1111488869549531,-0.0163625,-0.0012375,-0.006875
1679931500520,1111488872051916,-0.0144375,-0.005225,-0.0059125
1679931500521,1111488874553839,-0.0114124995,0.0017875,-0.00385
1679931500523,1111488877055993,-0.012375,-0.0022,-0.00385
1679931500526,1111488879558146,-0.01045,-0.0022,-0.0048125
1679931500528,1111488882060300,-0.0083875,-0.0042625,-0.0028875
1679931500530,1111488884562507,-0.0114124995,-0.0061875,1.375E-4
1679931500532,1111488887064661,-0.01045,8.25E-4,-8.25E-4
1679931500534,1111488889566815,-0.01045,8.25E-4,0.0011
1679931500537,1111488892068969,-0.0094875,-0.0012375,0.0031625
1679931500539,1111488894571132,-0.01045,0.0017875,0.0081124995
1679931500542,1111488897073209,-0.01045,-0.0012375,0.0081124995
1679931500545,1111488899575362,-0.0114124995,0.00385,0.0081124995
1679931500547,1111488902077516,-0.0125124995,0.005775,0.0081124995
1679931500552,1111488904579733,-0.013475,0.005775,0.010175
1679931500554,1111488907081810,-0.0125124995,0.0078375,0.010175
1679931500556,1111488909583964,-0.0125124995,0.011825,0.0111375
1679931500560,1111488912086118,-0.01045,0.0097624995,0.0160875
1679931500561,1111488914588271,-0.007425,0.0097624995,0.014162499
1679931500564,1111488917090396,-0.0094875,0.0078375,0.015125
1679931500566,1111488919592550,-0.01045,0.0078375,0.0191125
1679931500568,1111488922094704,-0.0083875,0.0097624995,0.0160875
1679931500570,1111488924596858,-0.0083875,0.0078375,0.0191125
1679931500572,1111488927099007,-0.0064625,0.010725,0.021175
1679931500576,1111488929600930,-0.0044,0.0067375,0.0221375
1679931500579,1111488932103084,-0.0055,0.010725,0.0251625
1679931500581,1111488934605238,-0.0034375,0.0097624995,0.0251625
1679931500582,1111488937107391,-0.0034375,0.0048125,0.0251625
1679931500585,1111488939609550,-0.007425,0.005775,0.026124999
1679931500589,1111488942111704,-0.0055,0.00275,0.026124999
1679931500591,1111488944613858,-0.0044,-0.0012375,0.026124999
1679931500592,1111488947115935,-0.0044,-0.0012375,0.0270875
1679931500596,1111488949618180,-0.0044,-2.75E-4,0.026124999
1679931500598,1111488952120334,-0.0034375,-0.0031625,0.02915
1679931500600,1111488954622487,-4.125E-4,-0.0022,0.0301125
1679931500602,1111488957124564,-0.0034375,-0.0042625,0.0281875
1679931500604,1111488959626718,-0.007425,-0.0092124995,0.0281875
1679931500607,1111488962128838,-0.0034375,-0.010175,0.0251625
1679931500610,1111488964630761,-0.0044,-0.011275,0.026124999
1679931500613,1111488967133223,-0.0015125,-0.011275,0.0270875
1679931500615,1111488969635300,-0.0015125,-0.0132,0.026124999
1679931500617,1111488972137443,-0.0034375,-0.015262499,0.0240625
1679931500620,1111488974639597,-0.0044,-0.016224999,0.021175
1679931500622,1111488977141520,-0.0034375,-0.014162499,0.0221375
1679931500626,1111488979643660,-0.0044,-0.015262499,0.021175
1679931500629,1111488982145814,-0.0055,-0.01815,0.021175
1679931500631,1111488984647968,-0.007425,-0.015262499,0.0231
1679931500633,1111488987150122,-0.0034375,-0.0171875,0.0240625
1679931500635,1111488989652276,-0.0055,-0.016224999,0.021175
1679931500638,1111488992154429,-0.007425,-0.014162499,0.0221375
1679931500644,1111488994656506,-0.0044,-0.0092124995,0.0221375
1679931500646,1111488997158660,-0.0044,-0.0092124995,0.021175
1679931500647,1111488999660891,-0.0044,-0.0122375,0.0221375
1679931500650,1111489002163045,-0.0044,-0.010175,0.0221375
1679931500651,1111489004665122,-0.0055,-0.005225,0.021175
1679931500653,1111489007167276,-0.0044,8.25E-4,0.0171875
1679931500655,1111489009669429,-4.125E-4,-2.75E-4,0.0191125
1679931500657,1111489012171568,-0.0015125,0.005775,0.020075
1679931500659,1111489014673491,-0.0044,0.01375,0.020075
1679931500663,1111489017175876,-0.0034375,0.01485,0.0231
1679931500665,1111489019678030,-4.125E-4,0.0198,0.0240625
1679931500669,1111489022180194,-0.0034375,0.021724999,0.0221375
1679931500671,1111489024682348,-0.0034375,0.0237875,0.0221375
1679931500673,1111489027184271,-4.125E-4,0.0308,0.0231
1679931500676,1111489029686425,-4.125E-4,0.0308,0.0251625
1679931500679,1111489032188809,0.0026125,0.033825,0.026124999
1679931500680,1111489034690963,-0.0044,0.036849998,0.026124999
1679931500682,1111489037192886,-0.0044,0.0378125,0.026124999
1679931500685,1111489039695040,-0.0015125,0.036849998,0.0240625
1679931500687,1111489042197194,0.003575,0.0427625,0.0240625
1679931500689,1111489044699367,0.0026125,0.038775,0.0221375
1679931500692,1111489047201444,-0.0015125,0.03575,0.0231
1679931500695,1111489049703674,-0.0044,0.036849998,0.0221375
1679931500697,1111489052205828,-0.0034375,0.0347875,0.021175
1679931500702,1111489054707895,-0.0034375,0.036849998,0.0231
1679931500703,1111489057210049,-0.0083875,0.036849998,0.0231
1679931500705,1111489059712280,-0.007425,0.032725,0.021175
1679931500707,1111489062214434,-0.0094875,0.0308,0.021175
1679931500710,1111489064716587,-0.0125124995,0.027775,0.0221375
1679931500712,1111489067218679,-0.01045,0.0268125,0.021175
1679931500715,1111489069720833,-0.0114124995,0.02475,0.0231
1679931500718,1111489072222987,-0.0144375,0.022824999,0.021175
1679931500721,1111489074725218,-0.0125124995,0.0177375,0.020075
1679931500723,1111489077227314,-0.0125124995,0.016775,0.0171875
1679931500726,1111489079729468,-0.0094875,0.0177375,0.014162499
1679931500728,1111489082231622,-0.01045,0.01485,0.0111375
1679931500730,1111489084733545,-0.0094875,0.01375,0.0081124995
1679931500732,1111489087235698,-0.0044,0.0177375,0.00715
1679931500735,1111489089738083,-0.007425,0.01485,0.004125
1679931500739,1111489092240237,-0.0083875,0.01485,0.0020625
1679931500741,1111489094742160,-0.0094875,0.01485,-8.25E-4
1679931500743,1111489097244314,-0.007425,0.01485,-0.0028875
1679931500749,1111489099746468,-0.0055,0.011825,-0.00385
1679931500755,1111489102248622,-0.0015125,0.0127875,-0.00385
1679931500755,1111489104750698,-0.0015125,0.0127875,-0.006875
1679931500756,1111489107253160,-0.0055,0.0127875,-0.0078375
1679931500756,1111489109755102,-0.0044,0.005775,-0.0059125
1679931500759,1111489112257256,-0.0044,0.011825,-0.006875
1679931500760,1111489114759333,-0.0034375,0.011825,-0.0099
1679931500762,1111489117261487,-0.0055,0.0097624995,-0.0108624995
1679931500765,1111489119763641,-0.0044,0.005775,-0.0108624995
1679931500767,1111489122265852,-0.0055,0.005775,-0.0108624995
1679931500770,1111489124767929,-0.0044,0.0078375,-0.012925
1679931500772,1111489127270083,-0.0055,0.00385,-0.012925
1679931500776,1111489129772267,-0.0034375,-0.0022,-0.012925
1679931500778,1111489132274421,-0.0015125,-0.0042625,-0.0158125
1679931500781,1111489134776344,5.5E-4,-0.0031625,-0.017875
1679931500782,1111489137278498,-4.125E-4,-0.005225,-0.0158125
1679931500784,1111489139780882,-4.125E-4,-0.0092124995,-0.01485
1679931500788,1111489142283045,-0.0044,-0.0061875,-0.017875
1679931500790,1111489144784968,-0.0015125,-0.0061875,-0.0188375
1679931500793,1111489147287122,5.5E-4,-0.00825,-0.0199375
1679931500795,1111489149789276,5.5E-4,-0.010175,-0.017875
1679931500799,1111489152291425,-0.0034375,-0.011275,-0.0188375
1679931500800,1111489154793810,-0.0034375,-0.00715,-0.017875
1679931500802,1111489157295733,-4.125E-4,-0.00825,-0.0158125
1679931500806,1111489159797886,0.0015125,-0.00825,-0.0188375
1679931500810,1111489162300049,5.5E-4,-0.0042625,-0.0209
1679931500810,1111489164802203,-0.0015125,-0.0022,-0.022824999
1679931500815,1111489167304280,5.5E-4,-0.0031625,-0.0199375
1679931500816,1111489169806434,0.0015125,-0.0031625,-0.0199375
1679931500820,1111489172308656,0.0026125,-0.0042625,-0.0209
1679931500820,1111489174810810,0.0045375,-2.75E-4,-0.0218625
1679931500826,1111489177312963,0.0015125,0.00385,-0.022824999
1679931500826,1111489179815040,-4.125E-4,0.011825,-0.0248875
1679931500828,1111489182317194,0.0055,0.011825,-0.02585
1679931500832,1111489184819357,0.0066,0.0078375,-0.0279125
1679931500835,1111489187321588,0.0055,0.01375,-0.0268125
1679931500836,1111489189823665,0.0045375,0.01485,-0.02585
1679931500839,1111489192325819,0.0015125,0.0158125,-0.0268125
1679931500842,1111489194827972,0.0026125,0.0158125,-0.0319
1679931500842,1111489197330122,0.0026125,0.0207625,-0.0279125
1679931500845,1111489199832045,0.0045375,0.021724999,-0.0248875
1679931500848,1111489202334430,0.008525,0.0207625,-0.023924999
1679931500853,1111489204836565,0.0045375,0.0188375,-0.0268125
1679931500854,1111489207338719,0.003575,0.0188375,-0.02585
1679931500855,1111489209840642,0.0055,0.0158125,-0.0248875
1679931500859,1111489212342796,0.0055,0.0158125,-0.02585
1679931500860,1111489214844950,0.008525,0.01375,-0.023924999
1679931500862,1111489217347026,0.0066,0.01485,-0.022824999
1679931500864,1111489219849257,0.0075625,0.0158125,-0.0248875
1679931500868,1111489222351411,0.008525,0.0127875,-0.02585
1679931500869,1111489224853565,0.0066,0.0127875,-0.02585
1679931500872,1111489227355647,0.0075625,0.0097624995,-0.02585
1679931500875,1111489229857801,0.0105875,0.0078375,-0.0279125
1679931500878,1111489232359955,0.01155,0.0048125,-0.028875
1679931500880,1111489234862185,0.0105875,0.00275,-0.028875
1679931500882,1111489237364247,0.01155,8.25E-4,-0.028875
1679931500885,1111489239866401,0.0125124995,-0.0031625,-0.0279125
1679931500891,1111489242368555,0.008525,-0.0042625,-0.0268125
1679931500892,1111489244870709,0.0105875,-0.005225,-0.028875
1679931500893,1111489247372868,0.0155375,-0.0031625,-0.028875
1679931500895,1111489249874791,0.01155,-0.011275,-0.0279125
1679931500898,1111489252377175,0.0105875,-0.016224999,-0.028875
1679931500900,1111489254879329,0.013612499,-0.0171875,-0.0268125
1679931500902,1111489257381483,0.0176,-0.0202125,-0.0279125
1679931500905,1111489259883425,0.0176,-0.022275,-0.0319
1679931500908,1111489262385579,0.0185625,-0.022275,-0.034925
1679931500910,1111489264887733,0.019524999,-0.0262625,-0.0319
1679931500912,1111489267389887,0.0204875,-0.027224999,-0.0298375
1679931500915,1111489269892262,0.0215875,-0.0281875,-0.033825
1679931500918,1111489272394185,0.0204875,-0.03025,-0.036849998
1679931500920,1111489274896262,0.019524999,-0.0281875,-0.034925
1679931500923,1111489277398493,0.0185625,-0.033275,-0.0358875
1679931500926,1111489279900565,0.0215875,-0.033275,-0.0358875
1679931500929,1111489282402796,0.0204875,-0.033275,-0.0378125
1679931500931,1111489284904950,0.0185625,-0.0342375,-0.0378125
1679931500933,1111489287407104,0.019524999,-0.0352,-0.036849998
1679931500935,1111489289909180,0.0204875,-0.02915,-0.0378125
1679931500938,1111489292411353,0.025575,-0.032175,-0.039875
1679931500940,1111489294913507,0.0215875,-0.03025,-0.0408375
1679931500942,1111489297415661,0.0215875,-0.0281875,-0.0358875
1679931500945,1111489299917815,0.0204875,-0.022275,-0.036849998
1679931500948,1111489302419979,0.0204875,-0.016224999,-0.036849998
1679931500950,1111489304922133,0.0204875,-0.016224999,-0.033825
1679931500952,1111489307424286,0.02255,-0.0122375,-0.036849998
1679931500955,1111489309926440,0.025575,-0.0061875,-0.0389125
1679931500958,1111489312428598,0.0235125,-0.0092124995,-0.0358875
1679931500960,1111489314930521,0.02255,-0.0042625,-0.033825
1679931500964,1111489317432675,0.0246125,8.25E-4,-0.034925
1679931500967,1111489319934829,0.0246125,8.25E-4,-0.033825
1679931500969,1111489322436988,0.0275,0.00275,-0.0358875
1679931500970,1111489324939142,0.0265375,0.0067375,-0.036849998
1679931500973,1111489327441295,0.0265375,0.005775,-0.0378125
1679931500975,1111489329943449,0.0275,0.0048125,-0.0358875
1679931500978,1111489332445603,0.0275,0.0097624995,-0.034925
1679931500980,1111489334947685,0.025575,0.010725,-0.034925
1679931500982,1111489337449839,0.0275,0.0127875,-0.036849998
1679931500984,1111489339951993,0.0275,0.0158125,-0.0358875
1679931500987,1111489342454147,0.0295625,0.0158125,-0.0408375
1679931500990,1111489344956301,0.0275,0.0127875,-0.036849998
1679931500993,1111489347458492,0.0265375,0.0158125,-0.0358875
1679931500996,1111489349960646,0.0275,0.0158125,-0.036849998
1679931500999,1111489352462569,0.0286,0.01485,-0.036849998
1679931501002,1111489354964723,0.0246125,0.0127875,-0.0378125
1679931501004,1111489357467108,0.025575,0.0067375,-0.0378125
1679931501005,1111489359969262,0.025575,0.0067375,-0.039875
1679931501009,1111489362471415,0.025575,0.0017875,-0.0408375
1679931501011,1111489364973339,0.0246125,0.0017875,-0.0408375
1679931501012,1111489367475502,0.02255,8.25E-4,-0.0408375
1679931501015,1111489369977656,0.0215875,-0.0022,-0.0429
1679931501017,1111489372479733,0.0215875,-0.0061875,-0.0419375
1679931501019,1111489374981964,0.019524999,-0.00715,-0.0438625
1679931501022,1111489377484132,0.019524999,-0.005225,-0.0429
1679931501025,1111489379986286,0.0185625,-0.00825,-0.045925
1679931501028,1111489382488440,0.0165,-0.0092124995,-0.045925
1679931501030,1111489384990516,0.0125124995,-0.00825,-0.045925
1679931501032,1111489387492670,0.013612499,-0.010175,-0.0438625
1679931501035,1111489389994901,0.013612499,-0.010175,-0.044825
1679931501043,1111489392497041,0.013612499,-0.00825,-0.044825
1679931501045,1111489394999118,0.0125124995,-0.00715,-0.045925
1679931501046,1111489397501272,0.01155,-0.00715,-0.0499125
1679931501047,1111489400003426,0.013612499,-0.010175,-0.0438625
1679931501049,1111489402505579,0.01265,-0.00715,-0.047849998
1679931501051,1111489405007733,0.013612499,-0.00715,-0.045925
1679931501053,1111489407509877,0.01265,-0.004125,-0.045925
1679931501055,1111489410012031,0.013612499,-0.0022,-0.0488125
1679931501059,1111489412514185,0.01155,-0.0012375,-0.0488125
1679931501061,1111489415016339,0.0105875,-0.0031625,-0.045925
1679931501062,1111489417518262,0.0105875,-0.0012375,-0.044825
1679931501065,1111489420020397,0.0105875,-0.0012375,-0.045925
1679931501068,1111489422522781,0.0086624995,-1.375E-4,-0.044825
1679931501070,1111489425024935,0.01155,0.0017875,-0.0429
1679931501073,1111489427526862,0.009625,8.25E-4,-0.0429
1679931501078,1111489430029016,0.0066,0.0017875,-0.0408375
1679931501080,1111489432531170,0.0056375,0.00385,-0.0408375
1679931501081,1111489435108939,0.0086624995,0.0017875,-0.0408375
1679931501083,1111489437535493,0.009625,-1.375E-4,-0.0429
1679931501085,1111489440037646,0.0056375,-1.375E-4,-0.039875
1679931501088,1111489442539800,0.0066,8.25E-4,-0.039875
1679931501092,1111489445041954,0.0056375,-0.0012375,-0.039875
1679931501095,1111489447544031,0.0045375,-0.0031625,-0.039875
1679931501097,1111489450046166,0.0045375,-0.004125,-0.0408375
1679931501100,1111489452548320,0.0045375,-0.004125,-0.0408375
1679931501101,1111489455050551,0.003575,-0.0061875,-0.0429
1679931501103,1111489457552627,0.0026125,-0.00715,-0.0429
1679931501105,1111489460054781,0.0045375,-0.00715,-0.0438625
1679931501109,1111489462556935,0.00165,-0.0111375,-0.0419375
1679931501111,1111489465059089,0.00165,-0.0122375,-0.0408375
1679931501117,1111489467561001,0.00165,-0.014162499,-0.0419375
1679931501118,1111489470063386,5.5E-4,-0.015125,-0.039875
1679931501121,1111489472564462,5.5E-4,-0.010175,-0.039875
1679931501121,1111489475065541,-0.001375,-0.016224999,-0.039875
1679931501126,1111489477569617,-0.0053625,-0.0171875,-0.0389125
1679931501128,1111489480071770,-0.0034375,-0.01925,-0.0378125
1679931501131,1111489482573919,-0.0044,-0.01815,-0.036849998
1679931501132,1111489485076304,-4.125E-4,-0.016224999,-0.0358875
1679931501134,1111489487578227,-0.0034375,-0.015125,-0.034925
1679931501135,1111489490080381,-0.0044,-0.0122375,-0.0358875
1679931501138,1111489492582540,-0.001375,-0.0111375,-0.033825
1679931501140,1111489495084693,-0.001375,-0.0111375,-0.033825
1679931501144,1111489497586770,-0.001375,-0.0132,-0.0319
1679931501145,1111489500088924,0.00165,-0.014162499,-0.0328625
1679931501148,1111489502591141,-0.0034375,-0.0092124995,-0.034925
1679931501154,1111489505093218,-0.0044,-0.010175,-0.0279125
1679931501155,1111489507595372,-0.0044,-0.010175,-0.0279125
1679931501159,1111489510097526,-0.001375,-0.0092124995,-0.0319
1679931501161,1111489512599656,-0.0044,-0.00715,-0.0298375
1679931501162,1111489515101579,-0.0044,-0.0031625,-0.0319
1679931501164,1111489517603963,-0.0044,-0.005225,-0.028875
1679931501166,1111489520106117,-0.0034375,-0.00715,-0.0268125
1679931501167,1111489522608271,-0.001375,-0.00715,-0.0279125
1679931501170,1111489525110194,-4.125E-4,-0.0061875,-0.02585
1679931501173,1111489527612348,-0.001375,-0.005225,-0.0248875
1679931501176,1111489530114502,-4.125E-4,-0.0061875,-0.0248875
1679931501178,1111489532616656,-4.125E-4,-0.0061875,-0.02585
1679931501180,1111489535118809,-0.0034375,-0.0061875,-0.0268125
1679931501183,1111489537620959,0.0026125,-0.00715,-0.02585
1679931501185,1111489540123113,5.5E-4,-0.00715,-0.02585
1679931501190,1111489542625267,-4.125E-4,-0.00825,-0.0268125
1679931501192,1111489545127439,-0.0053625,-0.0132,-0.028875
1679931501194,1111489547629516,-0.001375,-0.0171875,-0.028875
1679931501196,1111489550131747,0.00165,-0.0122375,-0.028875
1679931501199,1111489552633900,5.5E-4,-0.0092124995,-0.0298375
1679931501200,1111489555135977,-4.125E-4,-0.0111375,-0.028875
1679931501202,1111489557638103,0.00165,-0.014162499,-0.0279125
1679931501205,1111489560140257,5.5E-4,-0.014162499,-0.0298375
1679931501208,1111489562642488,-0.001375,-0.014162499,-0.0298375
1679931501210,1111489565144642,-0.0034375,-0.01815,-0.0298375
1679931501212,1111489567646719,-0.001375,-0.014162499,-0.028875
1679931501216,1111489570148872,-0.001375,-0.0111375,-0.0248875
1679931501218,1111489572651026,-0.0034375,-0.0111375,-0.0268125
1679931501220,1111489575153180,0.00165,-0.0132,-0.0279125
1679931501222,1111489577655348,5.5E-4,-0.00715,-0.0279125
1679931501227,1111489580157502,5.5E-4,-0.00825,-0.023924999
1679931501230,1111489582659656,0.0026125,-0.0061875,-0.0248875
1679931501231,1111489585161810,0.003575,-0.0031625,-0.0248875
1679931501233,1111489587663747,0.003575,-0.0012375,-0.0209
1679931501236,1111489590165900,0.003575,-1.375E-4,-0.0209
1679931501239,1111489592668285,0.0075625,-1.375E-4,-0.022824999
1679931501240,1111489595170208,0.0075625,8.25E-4,-0.0218625
1679931501242,1111489597672362,0.0026125,0.00275,-0.0188375
1679931501245,1111489600174516,0.0056375,0.005775,-0.0218625
1679931501248,1111489602676670,0.003575,0.0048125,-0.0199375
1679931501250,1111489605178747,0.003575,0.0048125,-0.0199375
1679931501252,1111489607680977,0.0045375,0.0048125,-0.0218625
1679931501255,1111489610183131,0.0075625,0.006875,-0.0218625
1679931501258,1111489612685285,0.0075625,0.0097624995,-0.0209
1679931501260,1111489615187362,0.0066,0.0108624995,-0.0199375
1679931501264,1111489617689521,0.0075625,0.0097624995,-0.0199375
1679931501267,1111489620191675,0.0075625,0.0097624995,-0.0209
1679931501269,1111489622693829,0.0056375,0.006875,-0.022824999
1679931501271,1111489625195982,0.0056375,0.00385,-0.0209
1679931501276,1111489627698150,0.0056375,0.0078375,-0.0199375
1679931501277,1111489630200304,0.003575,0.0078375,-0.0199375
1679931501279,1111489632702458,0.003575,0.006875,-0.017875
1679931501281,1111489635204381,0.003575,0.0108624995,-0.017875
1679931501283,1111489637706535,0.0026125,0.0097624995,-0.0169125
1679931501285,1111489640208926,0.003575,0.005775,-0.0169125
1679931501287,1111489642711079,0.0026125,0.0097624995,-0.017875
1679931501290,1111489645213003,0.00165,0.0097624995,-0.0188375
1679931501292,1111489647715156,0.00165,0.0048125,-0.0158125
1679931501295,1111489650217314,5.5E-4,0.0048125,-0.012925
1679931501298,1111489652719468,-0.001375,0.0048125,-0.012925
1679931501302,1111489655221545,-4.125E-4,0.00275,-0.0099
1679931501304,1111489657723776,5.5E-4,0.005775,-0.011825
1679931501306,1111489660225930,-0.001375,0.005775,-0.0108624995
1679931501308,1111489662728084,0.00165,0.006875,-0.0089375
1679931501310,1111489665230237,0.0026125,0.0048125,-0.0059125
1679931501313,1111489667732314,-4.125E-4,-1.375E-4,-0.0078375
1679931501317,1111489670234469,0.00165,-0.004125,-0.006875
1679931501319,1111489672736700,-0.0034375,-0.0061875,-0.0078375
1679931501321,1111489675238777,-0.0044,-0.00715,-0.0059125
1679931501323,1111489677740931,-4.125E-4,-0.0092124995,-0.0059125
1679931501326,1111489680243085,-0.0053625,-0.0122375,-0.0089375
1679931501328,1111489682745247,-0.0044,-0.015125,-0.006875
1679931501330,1111489685247401,-0.0034375,-0.0171875,-0.006875
1679931501333,1111489687749324,-4.125E-4,-0.015125,-0.0028875
1679931501335,1111489690251709,-0.0034375,-0.0171875,-0.00385
1679931501339,1111489692753849,-0.0034375,-0.021175,-0.00385
1679931501341,1111489695256003,-0.0044,-0.021175,-0.001925
1679931501343,1111489697758157,-0.0064625,-0.026124999,-0.00385
1679931501345,1111489700260080,-0.00935,-0.021175,-0.0028875
1679931501348,1111489702762233,-0.0053625,-0.021175,-0.00385
1679931501350,1111489705264642,-0.0053625,-0.0242,-0.0048125
1679931501353,1111489707766796,-0.0083875,-0.0251625,-0.0048125
1679931501358,1111489710268719,-0.0064625,-0.0251625,-0.0059125
1679931501359,1111489712770873,-0.00935,-0.0251625,-0.00385
1679931501361,1111489715273003,-0.0144375,-0.0242,-0.0028875
1679931501363,1111489717775157,-0.0144375,-0.0221375,-0.00385
1679931501365,1111489720277310,-0.0114124995,-0.021175,-0.006875
1679931501368,1111489722779464,-0.012375,-0.021175,-0.001925
1679931501372,1111489725281618,-0.00935,-0.0202125,0.0011
1679931501381,1111489727783781,-0.012375,-0.01925,0.0020625
1679931501381,1111489730285858,-0.01045,-0.0171875,0.0031625
1679931501382,1111489732788012,-0.0083875,-0.014162499,0.0020625
1679931501382,1111489735290185,-0.00935,-0.015125,1.375E-4
1679931501383,1111489737792415,-0.0083875,-0.010175,0.0031625
1679931501385,1111489740294492,-0.0064625,-0.00715,0.0081124995
1679931501387,1111489742796646,-0.0083875,-0.00715,0.0081124995
1679931501390,1111489745298800,-0.0083875,-0.0061875,0.0050875
1679931501393,1111489747800930,-0.007425,-0.0031625,0.0050875
1679931501397,1111489750302853,-0.0114124995,-1.375E-4,0.0061875
1679931501398,1111489752805238,-0.0114124995,-0.0012375,0.0061875
1679931501400,1111489755307391,-0.01045,-0.0022,0.0061875
1679931501403,1111489757809334,-0.0144375,8.25E-4,0.0081124995
1679931501405,1111489760311487,-0.0114124995,0.00385,0.0081124995
1679931501408,1111489762813641,-0.00935,8.25E-4,0.0081124995
1679931501410,1111489765315795,-0.012375,0.0017875,0.0081124995
1679931501414,1111489767817872,-0.012375,8.25E-4,0.0111375
1679931501417,1111489770320103,-0.00935,0.0048125,0.010175
1679931501420,1111489772822257,-0.01045,0.0017875,0.0111375
1679931501421,1111489775324410,-0.0133375,0.00385,0.010175
1679931501423,1111489777826487,-0.0133375,-1.375E-4,0.010175
1679931501425,1111489780328636,-0.012375,-0.0022,0.013062499
1679931501427,1111489782830790,-0.012375,8.25E-4,0.013062499
1679931501430,1111489785333021,-0.0114124995,8.25E-4,0.015125
1679931501433,1111489787835098,-0.00935,-1.375E-4,0.015125
1679931501436,1111489790337224,-0.00935,-0.004125,0.0160875
1679931501439,1111489792839378,-0.0114124995,-1.375E-4,0.014162499
1679931501440,1111489795341531,-0.012375,-0.00825,0.0160875
1679931501443,1111489797843454,-0.0114124995,-0.00825,0.0160875
1679931501445,1111489800345839,-0.0114124995,-0.0122375,0.014162499
1679931501448,1111489802847968,-0.012375,-0.0122375,0.014162499
1679931501452,1111489805350122,-0.012375,-0.0111375,0.013062499
1679931501456,1111489807852045,-0.0114124995,-0.0132,0.010175
1679931501457,1111489810354195,-0.0133375,-0.016224999,0.010175
1679931501459,1111489812856349,-0.0133375,-0.01925,0.010175
1679931501460,1111489815358733,-0.0144375,-0.021175,0.010175
1679931501462,1111489817860656,-0.018424999,-0.021175,0.014162499
1679931501467,1111489820362810,-0.018424999,-0.0242,0.015125
1679931501468,1111489822864964,-0.0193875,-0.0251625,0.0121
1679931501471,1111489825367041,-0.0224125,-0.02915,0.0160875
1679931501472,1111489827869272,-0.0224125,-0.0281875,0.014162499
1679931501476,1111489830371426,-0.0243375,-0.02915,0.0111375
1679931501478,1111489832873588,-0.0224125,-0.02915,0.014162499
1679931501481,1111489835375665,-0.023375,-0.03025,0.014162499
1679931501485,1111489837877819,-0.0254375,-0.0312125,0.015125
1679931501487,1111489840379973,-0.0254375,-0.02915,0.0160875
1679931501494,1111489842882213,-0.0243375,-0.0281875,0.015125
1679931501495,1111489845384290,-0.0254375,-0.02915,0.0160875
1679931501497,1111489847886435,-0.0273625,-0.02915,0.013062499
1679931501497,1111489850388588,-0.0264,-0.0242,0.013062499
1679931501499,1111489852890742,-0.0243375,-0.0221375,0.015125
1679931501500,1111489855392665,-0.0284625,-0.0251625,0.014162499
1679931501502,1111489857894819,-0.03135,-0.01815,0.0121
1679931501505,1111489860397204,-0.029424999,-0.01925,0.0160875
1679931501509,1111489862899367,-0.03135,-0.0202125,0.015125
1679931501511,1111489865401290,-0.0334125,-0.01925,0.014162499
1679931501513,1111489867903444,-0.0334125,-0.0242,0.015125
1679931501516,1111489870405597,-0.032449998,-0.021175,0.014162499
1679931501519,1111489872907746,-0.03135,-0.0202125,0.014162499
1679931501521,1111489875409900,-0.03135,-0.021175,0.015125
1679931501523,1111489877912054,-0.0334125,-0.0202125,0.0121
1679931501529,1111489880414208,-0.0303875,-0.0171875,0.010175
1679931501531,1111489882915271,-0.0334125,-0.01815,0.010175
1679931501531,1111489885416310,-0.0374,-0.01925,0.009075
1679931501533,1111489887920617,-0.0374,-0.01815,0.00715
1679931501535,1111489890422770,-0.0394625,-0.016224999,0.00715
1679931501537,1111489892925001,-0.0413875,-0.016224999,0.010175
1679931501540,1111489895427073,-0.04235,-0.0122375,0.009075
1679931501542,1111489897929227,-0.0413875,-0.0122375,0.0081124995
1679931501545,1111489900431381,-0.0383625,-0.0132,0.0111375
1679931501548,1111489902933535,-0.0424875,-0.014162499,0.010175
1679931501550,1111489905435458,-0.0394625,-0.0111375,0.009075
1679931501553,1111489907937819,-0.0374,-0.00715,0.009075
1679931501556,1111489910439973,-0.0364375,-0.010175,0.00715
1679931501559,1111489912942127,-0.0364375,-0.010175,0.0081124995
1679931501560,1111489915444281,-0.032449998,-0.005225,0.0061875
1679931501564,1111489917946217,-0.035475,-0.0061875,0.0061875
1679931501567,1111489920448371,-0.040425,-0.0031625,0.0061875
1679931501569,1111489922950755,-0.035475,-0.0022,0.0061875
1679931501571,1111489925452909,-0.032449998,-0.0022,0.0050875
1679931501573,1111489927954832,-0.0374,-0.0012375,0.00715
1679931501575,1111489930456982,-0.0334125,-1.375E-4,0.0081124995
1679931501579,1111489932959136,-0.0334125,0.0017875,0.0081124995
1679931501580,1111489935461213,-0.0383625,0.00275,0.004125
1679931501583,1111489937963367,-0.035475,0.00275,0.00715
1679931501585,1111489940465598,-0.0374,0.0048125,0.010175
1679931501588,1111489942967751,-0.0413875,0.00275,0.0111375
1679931501590,1111489945469905,-0.0413875,8.25E-4,0.0061875
1679931501593,1111489947971982,-0.0374,0.00275,0.0061875
1679931501596,1111489950474150,-0.0374,0.0048125,0.009075
1679931501599,1111489952976304,-0.040425,0.00385,0.010175
1679931501603,1111489955478535,-0.0424875,0.0067375,0.0081124995
1679931501604,1111489957980612,-0.0413875,0.0067375,0.00715
1679931501607,1111489960482814,-0.043449998,0.00385,0.00715
1679931501609,1111489962984967,-0.043449998,0.0067375,0.00715
1679931501611,1111489965487121,-0.043449998,0.0067375,0.0061875
1679931501613,1111489967989275,-0.0444125,0.00275,0.0061875
1679931501616,1111489970491198,-0.0474375,0.0017875,0.004125
1679931501618,1111489972993597,-0.0444125,-1.375E-4,0.0031625
1679931501620,1111489975495751,-0.043449998,-0.0012375,0.0050875
1679931501623,1111489977997674,-0.043449998,8.25E-4,0.004125
1679931501625,1111489980499828,-0.0484,0.0017875,0.0011
1679931501628,1111489983001997,-0.045375,0.00385,0.004125
1679931501630,1111489985504151,-0.0444125,8.25E-4,0.0020625
1679931501633,1111489988006305,-0.045375,-0.0031625,0.0011
1679931501636,1111489990508459,-0.046475,0.00275,0.0020625
1679931501641,1111489993010613,-0.0424875,8.25E-4,0.0011
1679931501642,1111489995512767,-0.043449998,-0.0042625,0.0020625
1679931501644,1111489998014844,-0.043449998,-0.00715,1.375E-4
1679931501647,1111490000516997,-0.0424875,-0.00825,-8.25E-4
1679931501648,1111490003019151,-0.040425,-0.005225,-0.001925
1679931501650,1111490005521382,-0.040425,-0.010175,-8.25E-4
1679931501652,1111490008023459,-0.0413875,-0.0132,1.375E-4
1679931501655,1111490010525613,-0.0413875,-0.0132,-0.00385
1679931501658,1111490013027767,-0.040425,-0.016224999,-0.00385
1679931501660,1111490015529911,-0.040425,-0.021175,-0.001925
1679931501663,1111490018031834,-0.0424875,-0.0221375,-0.0028875
1679931501665,1111490020534295,-0.043449998,-0.0242,-0.0059125
1679931501668,1111490023036372,-0.040425,-0.0312125,-0.0059125
1679931501670,1111490025538536,-0.0394625,-0.0312125,-0.006875
1679931501673,1111490028040459,-0.040425,-0.0342375,-0.0078375
1679931501677,1111490030542613,-0.040425,-0.0372625,-0.0089375
1679931501680,1111490035544781,-0.0413875,-0.043175,-0.0099
1679931501682,1111490035668781,-0.0424875,-0.041249998,-0.012925
1679931501684,1111490038049088,-0.0424875,-0.041249998,-0.012925
1679931501687,1111490040551242,-0.0444125,-0.0391875,-0.0158125
1679931501688,1111490043053396,-0.043449998,-0.043175,-0.0169125
1679931501690,1111490045555449,-0.0444125,-0.0441375,-0.0169125
1679931501693,1111490048057680,-0.0444125,-0.0422125,-0.0169125
1679931501695,1111490050559757,-0.0474375,-0.041249998,-0.0199375
1679931501698,1111490053061988,-0.045375,-0.0352,-0.0169125
1679931501701,1111490055564136,-0.0444125,-0.0372625,-0.0169125
1679931501709,1111490058066290,-0.045375,-0.032175,-0.0169125
1679931501711,1111490060568367,-0.0484,-0.0242,-0.0158125
1679931501711,1111490063070531,-0.0493625,-0.02915,-0.017875
1679931501713,1111490065572454,-0.045375,-0.0262625,-0.012925
1679931501715,1111490068074839,-0.043449998,-0.01925,-0.0169125
1679931501718,1111490070576993,-0.043449998,-0.01925,-0.0169125
1679931501724,1111490073078050,-0.045375,-0.016224999,-0.0158125
1679931501725,1111490075579127,-0.043449998,-0.0092124995,-0.0158125
1679931501727,1111490078083435,-0.0424875,-0.0042625,-0.01485
1679931501728,1111490080585589,-0.040425,-0.0031625,-0.017875
1679931501730,1111490083087743,-0.0424875,-0.0012375,-0.012925
1679931501731,1111490085589897,-0.040425,0.005775,-0.011825
1679931501733,1111490088091839,-0.0374,0.0067375,-0.0158125
1679931501735,1111490090593993,-0.0394625,0.011825,-0.011825
1679931501738,1111490093096147,-0.0383625,0.01485,-0.0169125
1679931501740,1111490095598531,-0.0374,0.0177375,-0.0188375
1679931501743,1111490098100680,-0.0374,0.0207625,-0.01485
1679931501747,1111490100602603,-0.0383625,0.0188375,-0.012925
1679931501749,1111490103104757,-0.0383625,0.0188375,-0.012925
1679931501752,1111490105606911,-0.0334125,0.0268125,-0.0158125
1679931501754,1111490108108978,-0.0374,0.02475,-0.012925
1679931501759,1111490110611208,-0.0364375,0.0237875,-0.011825
1679931501761,1111490113113362,-0.0334125,0.02475,-0.01485
1679931501762,1111490115615516,-0.0364375,0.0268125,-0.012925
1679931501764,1111490118117670,-0.0364375,0.0237875,-0.0158125
1679931501766,1111490120619718,-0.032449998,0.0177375,-0.01485
1679931501769,1111490123121872,-0.0334125,0.0177375,-0.012925
1679931501771,1111490125624103,-0.040425,0.0198,-0.01485
1679931501773,1111490128126256,-0.0364375,0.0177375,-0.0209
1679931501776,1111490130628314,-0.0374,0.0097624995,-0.0209
1679931501779,1111490133130468,-0.0383625,0.0097624995,-0.0209
1679931501781,1111490135632622,-0.040425,0.0097624995,-0.0209
1679931501783,1111490138134545,-0.0394625,0.005775,-0.022824999
1679931501787,1111490140636675,-0.0394625,0.00275,-0.0218625
1679931501790,1111490143139060,-0.040425,-1.375E-4,-0.0218625
1679931501793,1111490145640983,-0.0413875,0.0017875,-0.0209
1679931501793,1111490148143137,-0.040425,0.0017875,-0.0188375
1679931501800,1111490150645260,-0.0374,-0.0042625,-0.0218625
1679931501801,1111490153147414,-0.0374,-0.005225,-0.0199375
1679931501803,1111490155649491,-0.0374,-0.00715,-0.0199375
1679931501805,1111490158151722,-0.035475,-0.00825,-0.0188375
1679931501807,1111490160653876,-0.0364375,-0.005225,-0.0218625
1679931501809,1111490163156021,-0.0394625,-0.00715,-0.017875
1679931501811,1111490165658175,-0.035475,-0.0061875,-0.012925
1679931501813,1111490168160251,-0.035475,-0.00715,-0.0169125
1679931501817,1111490170662405,-0.0314875,-0.0111375,-0.0188375
1679931501819,1111490173164559,-0.0314875,-0.0092124995,-0.0188375
1679931501821,1111490175666771,-0.0334125,-0.0111375,-0.0199375
1679931501823,1111490178168848,-0.0284625,-0.0122375,-0.0199375
1679931501828,1111490180671002,-0.029424999,-0.0132,-0.0218625
1679931501831,1111490183173136,-0.0284625,-0.0122375,-0.0218625
1679931501833,1111490185675289,-0.0273625,-0.0122375,-0.0188375
1679931501835,1111490188177213,-0.0273625,-0.0132,-0.0199375
1679931501838,1111490190679597,-0.029424999,-0.0111375,-0.0199375
1679931501839,1111490193181751,-0.024475,-0.0111375,-0.017875
1679931501841,1111490195683886,-0.0254375,-0.015262499,-0.017875
1679931501843,1111490198186040,-0.0254375,-0.0111375,-0.0188375
1679931501846,1111490200687963,-0.0224125,-0.0122375,-0.0188375
1679931501849,1111490203190117,-0.024475,-0.0132,-0.0158125
1679931501850,1111490205692270,-0.0224125,-0.0122375,-0.0158125
1679931501853,1111490208194434,-0.023375,-0.00715,-0.01485
1679931501856,1111490210696588,-0.0254375,0.0017875,-0.0108624995
1679931501858,1111490213198742,-0.018424999,8.25E-4,-0.012925
1679931501861,1111490215700896,-0.018424999,-0.0012375,-0.0108624995
1679931501865,1111490218203002,-0.0193875,8.25E-4,-0.0108624995
1679931501867,1111490220705156,-0.0174625,0.00275,-0.0059125
1679931501869,1111490223207386,-0.0163625,0.0017875,-0.006875
1679931501871,1111490225709540,-0.0204875,0.00275,-0.006875
1679931501873,1111490228211617,-0.0174625,0.0048125,-0.00385
1679931501877,1111490230713756,-0.0174625,0.00275,-0.0048125
1679931501879,1111490233215910,-0.0174625,0.0048125,-0.00385
1679931501881,1111490235718064,-0.0154,0.00385,-0.0048125
1679931501883,1111490238220295,-0.013475,0.0048125,-0.006875
1679931501888,1111490240722319,-0.012375,0.005775,-0.0078375
1679931501889,1111490243224472,-0.013475,0.0067375,-0.0089375
1679931501891,1111490245726626,-0.0114124995,0.0078375,-0.0078375
1679931501893,1111490248228549,-0.01045,0.00385,-0.006875
1679931501897,1111490250730703,-0.0114124995,0.0048125,-0.0059125
1679931501898,1111490253232891,-0.0094875,0.005775,-0.0028875
1679931501904,1111490255735276,-0.0083875,0.005775,-8.25E-4
1679931501905,1111490258237429,-0.0064625,0.00385,-8.25E-4
1679931501908,1111490260739353,-0.0034375,0.005775,-8.25E-4
1679931501909,1111490263241501,-0.0064625,0.0048125,0.0011
1679931501911,1111490265743655,-4.125E-4,0.0067375,1.375E-4
1679931501916,1111490268245809,-4.125E-4,0.005775,0.0011
1679931501917,1111490270747963,0.0015125,0.0048125,0.0020625
1679931501919,1111490273250107,0.0015125,0.0048125,0.0050875
1679931501921,1111490275752261,0.0045375,0.0017875,0.0011
1679931501924,1111490278254415,0.003575,0.0017875,0.0011
1679931501927,1111490280756491,0.0015125,0.00385,0.0011
1679931501929,1111490283258645,0.0056375,0.0017875,0.0011
1679931501931,1111490285760809,0.0056375,0.0017875,0.0020625
1679931501933,1111490288263040,0.0056375,-1.375E-4,0.0031625
1679931501936,1111490290765194,0.0066,-1.375E-4,0.004125
1679931501940,1111490293267271,0.0066,-0.0031625,0.0050875
1679931501942,1111490295769444,0.003575,-0.0031625,0.0061875
1679931501944,1111490298271597,0.0075625,-0.0042625,0.004125
1679931501946,1111490300773520,0.009625,-0.0042625,0.004125
1679931501949,1111490303275905,0.009625,-0.00825,0.0050875
1679931501951,1111490305778059,0.008525,-0.0111375,0.0050875
1679931501955,1111490308280228,0.0056375,-0.00715,0.0050875
1679931501957,1111490310782382,0.009625,-0.0122375,0.0050875
1679931501959,1111490313284305,0.0105875,-0.016224999,0.0081124995
1679931501961,1111490315786459,0.0105875,-0.0122375,0.00715
1679931501964,1111490318288612,0.008525,-0.014162499,0.00715
1679931501966,1111490320790785,0.008525,-0.014162499,0.0081124995
1679931501969,1111490323292862,0.013612499,-0.016224999,0.009075
1679931501972,1111490325795016,0.013612499,-0.015262499,0.009075
1679931501975,1111490328297170,0.0125124995,-0.014162499,0.0111375
1679931501978,1111490330799416,0.0155375,-0.016224999,0.013062499
1679931501980,1111490333301493,0.0166375,-0.014162499,0.015125
1679931501982,1111490335803723,0.01155,-0.0111375,0.014162499
1679931501983,1111490338305800,0.01155,-0.0122375,0.013062499
1679931501986,1111490340807954,0.013612499,-0.0122375,0.013062499
1679931501988,1111490343310118,0.013612499,-0.010175,0.015125
1679931501990,1111490345812349,0.0155375,-0.0092124995,0.015125
1679931501994,1111490348314426,0.0125124995,-0.0092124995,0.0191125
1679931501999,1111490350816580,0.0166375,-0.00715,0.021175
1679931502008,1111490353318751,0.013612499,-0.0061875,0.0171875
1679931502008,1111490355820905,0.0166375,-0.0061875,0.0191125
1679931502008,1111490358322828,0.0166375,-0.0031625,0.0191125
1679931502009,1111490360825213,0.0155375,-0.0042625,0.021175
1679931502009,1111490363327367,0.013612499,-0.005225,0.021175
1679931502011,1111490365829290,0.013612499,-0.0061875,0.0160875
1679931502014,1111490368331444,0.013612499,-0.005225,0.0160875
1679931502017,1111490370833598,0.0125124995,-0.0031625,0.0171875
1679931502019,1111490373335776,0.0105875,-0.0022,0.0191125
1679931502021,1111490375837852,0.01155,-0.0022,0.0160875
1679931502023,1111490378340083,0.01155,-0.0061875,0.015125
1679931502027,1111490380842237,0.0105875,-0.0031625,0.0160875
1679931502029,1111490383344391,0.013612499,-0.005225,0.014162499
1679931502031,1111490385846444,0.013612499,-0.0031625,0.0160875
1679931502033,1111490388348598,0.0105875,8.25E-4,0.0171875
1679931502037,1111490390850752,0.01155,-0.005225,0.015125
1679931502038,1111490393352982,0.0105875,-0.005225,0.0160875
1679931502041,1111490395855059,0.01155,8.25E-4,0.0160875
1679931502044,1111490398357276,0.01155,0.00385,0.013062499
1679931502047,1111490400859353,0.009625,0.00275,0.013062499
1679931502049,1111490403361507,0.008525,0.0017875,0.014162499
1679931502052,1111490405863421,0.009625,-0.0022,0.014162499
1679931502056,1111490408365575,0.0066,0.00385,0.014162499
1679931502058,1111490410867959,0.0075625,0.0048125,0.014162499
1679931502059,1111490413370113,0.0105875,0.00385,0.015125
1679931502061,1111490415872267,0.009625,0.0097624995,0.014162499
1679931502063,1111490418374247,0.0105875,0.0108624995,0.014162499
1679931502069,1111490420876401,0.0075625,0.0078375,0.015125
1679931502070,1111490423378478,0.0066,0.0097624995,0.014162499
1679931502071,1111490425880939,0.0045375,0.01375,0.0111375
1679931502074,1111490428382853,0.0075625,0.01375,0.013062499
1679931502077,1111490430885006,0.0066,0.0067375,0.015125
1679931502079,1111490433387083,0.0066,0.005775,0.014162499
1679931502083,1111490435889314,0.0026125,0.0067375,0.013062499
1679931502084,1111490438391391,0.003575,0.0097624995,0.00715
1679931502092,1111490440893612,0.0045375,0.0097624995,0.010175
1679931502093,1111490443395689,0.0026125,0.0067375,0.0081124995
1679931502094,1111490445897843,0.003575,0.005775,0.0081124995
1679931502094,1111490448400025,0.0045375,0.0048125,0.0061875
1679931502097,1111490450902179,0.003575,8.25E-4,0.0061875
1679931502099,1111490453404333,0.0026125,0.0048125,0.0050875
1679931502104,1111490455906256,0.00165,0.005775,0.0050875
1679931502104,1111490458408641,0.00165,0.00385,1.375E-4
1679931502107,1111490460910785,0.0045375,0.00385,0.0020625
1679931502109,1111490463412939,0.0045375,8.25E-4,0.0031625
1679931502111,1111490465914862,0.0045375,0.0048125,0.0011
1679931502116,1111490468417016,0.0045375,0.005775,-0.001925
1679931502118,1111490470919179,0.0026125,0.00275,-0.00385
1679931502119,1111490473421564,0.0026125,0.0017875,-0.0048125
1679931502121,1111490475923487,0.003575,0.00385,-0.0059125
1679931502125,1111490478425641,0.0026125,0.0048125,-0.006875
1679931502129,1111490480927752,0.0026125,0.00385,-0.0099
1679931502130,1111490483429906,0.00165,8.25E-4,-0.0108624995
1679931502131,1111490485931983,-0.0044,0.00275,-0.0099
1679931502135,1111490488434136,-0.0044,0.0017875,-0.0108624995
1679931502137,1111490490936367,-0.001375,0.00385,-0.011825
1679931502139,1111490493438507,-0.0053625,0.00275,-0.0108624995
1679931502142,1111490495940661,-0.0044,0.00275,-0.0099
1679931502144,1111490498442738,-0.0064625,0.0048125,-0.0099
1679931502146,1111490500944892,-0.01045,0.0048125,-0.0108624995
1679931502148,1111490503447046,-0.00935,0.0048125,-0.0059125
1679931502150,1111490505949295,-0.00935,0.0048125,-0.0048125
1679931502154,1111490508451372,-0.0114124995,0.0048125,-0.0048125
1679931502157,1111490510953526,-0.0114124995,0.0108624995,-0.0089375
1679931502159,1111490513455666,-0.00935,0.0108624995,-0.00385
1679931502161,1111490515957820,-0.007425,0.0108624995,-0.001925
1679931502165,1111490518459743,-0.00935,0.016775,-0.0048125
1679931502167,1111490520961897,-0.0083875,0.01375,-0.006875
1679931502170,1111490523464276,-0.00935,0.01485,-0.0048125
1679931502172,1111490525966430,-0.0083875,0.016775,-0.0048125
1679931502173,1111490528468353,-0.00935,0.0198,-0.006875
1679931502177,1111490530970507,-0.013475,0.0218625,-0.0078375
1679931502178,1111490533472661,-0.013475,0.0177375,-0.0089375
1679931502181,1111490535974829,-0.0144375,0.016775,-0.0099
1679931502183,1111490538476983,-0.013475,0.0177375,-0.0099
1679931502187,1111490540979137,-0.0154,0.0158125,-0.0099
1679931502189,1111490543481290,-0.013475,0.011825,-0.011825
1679931502191,1111490545983444,-0.0163625,0.0097624995,-0.0158125
1679931502194,1111490548485512,-0.018424999,0.0078375,-0.0169125
1679931502197,1111490550987666,-0.018424999,0.005775,-0.01485
1679931502198,1111490553489897,-0.0224125,0.005775,-0.012925
1679931502203,1111490555992060,-0.0224125,-1.375E-4,-0.012925
1679931502205,1111490558494137,-0.0224125,-1.375E-4,-0.0169125
1679931502207,1111490560996290,-0.023375,8.25E-4,-0.0169125
1679931502209,1111490563498444,-0.024475,-0.0012375,-0.0169125
1679931502211,1111490566000598,-0.0264,-1.375E-4,-0.0169125
1679931502214,1111490568502507,-0.0264,-0.0012375,-0.0169125
1679931502217,1111490571004892,-0.029424999,-0.0031625,-0.0169125
1679931502218,1111490573507046,-0.035475,-0.0022,-0.0158125
1679931502221,1111490576008969,-0.03135,-0.0012375,-0.017875
1679931502223,1111490578511142,-0.03135,-0.0022,-0.0169125
1679931502227,1111490581013526,-0.0334125,-0.0031625,-0.0169125
1679931502228,1111490583515449,-0.0364375,0.00275,-0.0188375
1679931502231,1111490586017603,-0.035475,0.00385,-0.0169125
1679931502234,1111490588519743,-0.035475,0.00275,-0.017875
1679931502237,1111490591021897,-0.035475,0.00275,-0.0218625
1679931502244,1111490593523974,-0.0364375,0.0017875,-0.017875
1679931502244,1111490596026205,-0.0364375,0.0048125,-0.0169125
1679931502246,1111490598528362,-0.0374,0.0097624995,-0.0199375
1679931502248,1111490601030516,-0.0383625,0.0067375,-0.0199375
1679931502249,1111490603532593,-0.0374,0.011825,-0.0158125
1679931502251,1111490606034747,-0.0374,0.011825,-0.017875
1679931502253,1111490608536901,-0.0374,0.0097624995,-0.0199375
1679931502257,1111490611039055,-0.0394625,0.0108624995,-0.0188375
1679931502260,1111490613541286,-0.035475,0.01485,-0.017875
1679931502261,1111490616043362,-0.03135,0.0177375,-0.0158125
1679931502263,1111490618545516,-0.03135,0.0177375,-0.017875
1679931502267,1111490621047646,-0.0334125,0.016775,-0.017875
1679931502269,1111490623549800,-0.0334125,0.022824999,-0.017875
1679931502271,1111490626051723,-0.0334125,0.022824999,-0.0188375
1679931502275,1111490628554108,-0.0334125,0.022824999,-0.011825
1679931502279,1111490631056282,-0.032449998,0.0268125,-0.01485
1679931502281,1111490633558435,-0.029424999,0.0268125,-0.012925
1679931502283,1111490636060589,-0.0264,0.0287375,-0.01485
1679931502285,1111490638562512,-0.03135,0.0268125,-0.012925
1679931502287,1111490641064646,-0.032449998,0.027775,-0.011825
1679931502289,1111490643566800,-0.0303875,0.0298375,-0.0099
1679931502291,1111490646069185,-0.0284625,0.0268125,-0.0108624995
1679931502294,1111490648571108,-0.0284625,0.0287375,-0.012925
1679931502297,1111490651073282,-0.029424999,0.0237875,-0.0108624995
1679931502298,1111490653575435,-0.0303875,0.027775,-0.0099
1679931502302,1111490656077589,-0.024475,0.027775,-0.0108624995
1679931502304,1111490658579666,-0.0254375,0.0268125,-0.0108624995
1679931502307,1111490661081921,-0.0264,0.0237875,-0.0089375
1679931502309,1111490663584075,-0.0224125,0.0218625,-0.0089375
1679931502311,1111490666086229,-0.0254375,0.0207625,-0.0099
1679931502316,1111490668588306,-0.0264,0.0237875,-0.0108624995
1679931502319,1111490671090445,-0.023375,0.02475,-0.0099
1679931502321,1111490673983060,-0.023375,0.022824999,-0.011825
1679931502323,1111490676256906,-0.024475,0.0198,-0.0099
1679931502325,1111490678596906,-0.02145,0.022824999,-0.006875
1679931502329,1111490681099060,-0.0193875,0.0237875,-0.0078375
1679931502331,1111490683601214,-0.0193875,0.027775,-0.006875
1679931502332,1111490686103368,-0.02035,0.0237875,-0.0089375
1679931502334,1111490688605291,-0.02035,0.0207625,-0.0078375
1679931502337,1111490691107445,-0.018424999,0.0198,-0.0099
1679931502338,1111490693609819,-0.0193875,0.0188375,-0.0078375
1679931502342,1111490696111973,-0.0154,0.016775,-0.006875
1679931502344,1111490698613896,-0.013475,0.0198,-0.006875
1679931502347,1111490701116050,-0.0174625,0.0207625,-0.006875
1679931502349,1111490703618200,-0.0163625,0.0198,-0.0059125
1679931502355,1111490706120354,-0.0154,0.0207625,-0.0059125
1679931502357,1111490708622508,-0.0144375,0.0198,-0.00385
1679931502359,1111490711124661,-0.013475,0.0188375,-0.0048125
1679931502361,1111490713626800,-0.0154,0.0198,-0.0048125
1679931502363,1111490716128877,-0.0154,0.0198,-0.0028875
1679931502364,1111490718631031,-0.0114124995,0.0158125,-0.0048125
1679931502367,1111490721133185,-0.00935,0.016775,-0.00385
1679931502369,1111490723635339,-0.01045,0.016775,-0.001925
1679931502371,1111490726137488,-0.00935,0.0177375,-8.25E-4
1679931502373,1111490728639718,-0.007425,0.0198,1.375E-4
1679931502377,1111490731141795,-0.0064625,0.016775,0.0020625
1679931502379,1111490733643949,-0.0053625,0.0158125,1.375E-4
1679931502381,1111490736145891,-0.0044,0.01375,0.0031625
1679931502383,1111490738648045,-0.0064625,0.01375,1.375E-4
1679931502386,1111490741150430,-0.0053625,0.011825,0.004125
1679931502390,1111490743652584,-0.0044,0.0127875,0.0050875
1679931502392,1111490746154493,-0.0034375,0.0097624995,1.375E-4
1679931502395,1111490748656646,-0.001375,0.0078375,1.375E-4
1679931502397,1111490751158800,-0.0064625,0.005775,0.0020625
1679931502399,1111490753660877,-0.007425,0.0067375,0.0031625
1679931502401,1111490756163108,-0.0044,0.005775,0.0031625
1679931502404,1111490758665281,-0.0034375,0.0048125,0.004125
1679931502407,1111490761167435,-0.0053625,8.25E-4,0.0011
1679931502409,1111490763669589,-0.001375,-0.0042625,0.0031625
1679931502412,1111490766171666,-0.0034375,-0.0022,0.0031625
1679931502415,1111490768673819,-0.0044,-0.0012375,0.0061875
1679931502417,1111490771175973,-0.0044,-0.0012375,0.0050875
1679931502418,1111490773678204,-0.0034375,-0.0012375,0.0061875
1679931502421,1111490776180281,-0.001375,-0.0042625,0.004125
1679931502425,1111490778682421,-0.001375,-0.0042625,0.004125
1679931502428,1111490781184575,-0.0044,-0.0012375,0.004125
1679931502432,1111490783686728,-0.0044,-0.0012375,0.004125
1679931502434,1111490786188652,-0.0053625,-0.0022,0.0061875
1679931502435,1111490788691040,-0.0044,-0.0031625,0.00715
1679931502437,1111490791193194,-0.0044,-0.0012375,0.00715
1679931502439,1111490793695348,-0.0064625,0.005775,0.0061875
1679931502442,1111490796197502,-0.0053625,8.25E-4,0.009075
1679931502443,1111490798699425,-0.007425,-1.375E-4,0.010175
1679931502447,1111490801201570,-0.00935,0.00275,0.0111375
1679931502448,1111490803703724,-0.0064625,0.0048125,0.0111375
1679931502451,1111490806206108,-0.0044,0.0097624995,0.014162499
1679931502455,1111490808708031,-0.0064625,0.0127875,0.0171875
1679931502459,1111490811210180,-0.007425,0.0127875,0.014162499
1679931502460,1111490813712334,-0.0064625,0.0127875,0.0160875
1679931502463,1111490816214488,-0.0044,0.0158125,0.0171875
1679931502465,1111490818716642,-0.00935,0.0198,0.0191125
1679931502468,1111490821218805,-0.0083875,0.0207625,0.020075
1679931502472,1111490823720958,-0.0064625,0.02475,0.021175
1679931502473,1111490826223112,-0.00935,0.0328625,0.021175
1679931502476,1111490828725189,-0.007425,0.0347875,0.0191125
1679931502478,1111490831227343,-0.007425,0.0308,0.0191125
1679931502479,1111490833729483,-0.0083875,0.033825,0.0171875
1679931502482,1111490836231637,-0.00935,0.036849998,0.0171875
1679931502484,1111490838733791,-0.0064625,0.0347875,0.0160875
1679931502487,1111490841235944,-0.0053625,0.033825,0.0191125
1679931502489,1111490843737867,-0.007425,0.0347875,0.015125
1679931502492,1111490846240016,-0.007425,0.036849998,0.015125
1679931502494,1111490848742401,-0.0053625,0.033825,0.0160875
1679931502497,1111490851244324,-0.0053625,0.0317625,0.0160875
1679931502501,1111490853746478,-0.0083875,0.0308,0.0191125
1679931502504,1111490856248642,-0.0083875,0.0328625,0.0191125
