system_ts_ms, sensor_ts_ns, gyrX, gyrY, gyrZ
1680019717437,1199705788252984,-0.0287375,0.2712875,0.0600875
1680019717437,1199705790755138,-0.0257125,0.27335,0.061049998
1680019717438,1199705793257600,-0.0257125,0.26235,0.0570625
1680019717440,1199705795759984,-0.0297,0.2563,0.0561
1680019717444,1199705798262138,-0.0276375,0.2382875,0.0570625
1680019717455,1199705800764282,-0.0276375,0.2212375,0.0600875
1680019717456,1199705803266513,-0.0306625,0.204325,0.0631125
1680019717457,1199705805768667,-0.0297,0.1832875,0.0631125
1680019717457,1199705808271051,-0.0306625,0.1612875,0.0710875
1680019717458,1199705810773282,-0.037675,0.1353,0.0771375
1680019717459,1199705813275677,-0.0356125,0.111237496,0.08305
1680019717461,1199705815777831,-0.0336875,0.0842875,0.0900625
1680019717463,1199705818279984,-0.037675,0.060225,0.09515
1680019717465,1199705820782215,-0.037675,0.0452375,0.1040875
1680019717468,1199705823284600,-0.0336875,0.0353375,0.113025
1680019717470,1199705825786845,-0.0367125,0.015262499,0.124025
1680019717472,1199705828288998,-0.0397375,-0.0037125,0.13213749
1680019717475,1199705830791383,-0.0416625,-0.02475,0.13915
1680019717477,1199705833293537,-0.0397375,-0.0297,0.1420375
1680019717483,1199705835795754,-0.042625,-0.0306625,0.1401125
1680019717484,1199705838297908,-0.043725,-0.0427625,0.1431375
1680019717485,1199705840800369,-0.042625,-0.0507375,0.141075
1680019717488,1199705843302523,-0.0446875,-0.05775,0.13805
1680019717490,1199705845804918,-0.0466125,-0.0697125,0.135025
1680019717493,1199705848307071,-0.0446875,-0.076725,0.1291125
1680019717495,1199705850809302,-0.042625,-0.0837375,0.125125
1680019717499,1199705853311456,-0.0397375,-0.0947375,0.125125
1680019717501,1199705855813908,-0.042625,-0.1067,0.1211375
1680019717503,1199705858316061,-0.0446875,-0.1167375,0.11715
1680019717505,1199705860818215,-0.0466125,-0.117699996,0.119075
1680019717508,1199705863320600,-0.042625,-0.104775,0.1211375
1680019717510,1199705865822744,-0.0367125,-0.1106875,0.122099996
1680019717513,1199705868324975,-0.0386375,-0.114675,0.122099996
1680019717516,1199705870827128,-0.0397375,-0.114675,0.124025
1680019717520,1199705873329590,-0.0386375,-0.114675,0.1230625
1680019717522,1199705875831749,-0.0336875,-0.1106875,0.122099996
1680019717524,1199705878333903,-0.0297,-0.0977625,0.1230625
1680019717525,1199705880836287,-0.0287375,-0.0867625,0.124025
1680019717527,1199705883338518,-0.0287375,-0.073699996,0.122099996
1680019717532,1199705885840696,-0.0297,-0.0647625,0.1211375
1680019717533,1199705888343081,-0.026675,-0.054725,0.11605
1680019717535,1199705890845311,-0.0276375,-0.045649998,0.11715
1680019717538,1199705893347696,-0.026675,-0.0306625,0.1120625
1680019717541,1199705895849845,-0.0257125,-0.0207625,0.1101375
1680019717543,1199705898351999,-0.026675,-0.0116875,0.10615
1680019717545,1199705900854229,-0.02365,-0.00275,0.0991375
1680019717550,1199705903356614,-0.0257125,0.0072875,0.09515
1680019717551,1199705905858845,-0.0257125,0.017324999,0.092125
1680019717553,1199705908360990,-0.0287375,0.0243375,0.086075
1680019717556,1199705910863374,-0.0297,0.0353375,0.080025
1680019717559,1199705913365528,-0.0297,0.0452375,0.075075
1680019717561,1199705915867682,-0.0276375,0.0482625,0.0710875
1680019717563,1199705918370120,-0.0276375,0.0562375,0.0671
1680019717565,1199705920872350,-0.0276375,0.060225,0.0600875
1680019717568,1199705923374504,-0.0297,0.06435,0.058025
1680019717570,1199705925876658,-0.0297,0.06435,0.0561
1680019717573,1199705928379047,-0.032725,0.0653125,0.0540375
1680019717575,1199705930881200,-0.0356125,0.0683375,0.0521125
1680019717578,1199705933383662,-0.032725,0.06435,0.048125
1680019717582,1199705935885816,-0.031625,0.066275,0.048125
1680019717583,1199705938388047,-0.0356125,0.069299996,0.0460625
1680019717585,1199705940890201,-0.0356125,0.066275,0.0460625
1680019717588,1199705943392354,-0.037675,0.0653125,0.0460625
1680019717591,1199705945894739,-0.0386375,0.06325,0.048125
1680019717594,1199705948396946,-0.0386375,0.06435,0.0490875
1680019717598,1199705950899330,-0.037675,0.06435,0.050049998
1680019717599,1199705953401484,-0.037675,0.0562375,0.053075
1680019717600,1199705955903715,-0.0397375,0.0562375,0.0561
1680019717603,1199705958405869,-0.042625,0.05335,0.0561
1680019717605,1199705960908263,-0.0397375,0.0452375,0.0570625
1680019717608,1199705963410417,-0.0416625,0.0433125,0.061049998
1680019717610,1199705965912879,-0.0416625,0.041249998,0.064075
1680019717613,1199705968415033,-0.0397375,0.044275,0.064075
1680019717617,1199705970917272,-0.0446875,0.0463375,0.064075
1680019717618,1199705973419426,-0.043725,0.0402875,0.06215
1680019717621,1199705975921811,-0.042625,0.0402875,0.064075
1680019717624,1199705978423965,-0.0446875,0.0452375,0.0650375
1680019717625,1199705980926177,-0.0466125,0.0482625,0.0671
1680019717627,1199705983428561,-0.0466125,0.0433125,0.0671
1680019717632,1199705985930715,-0.0446875,0.044275,0.069025
1680019717634,1199705988432946,-0.0446875,0.0482625,0.069025
1680019717635,1199705990935110,-0.0466125,0.0473,0.0741125
1680019717638,1199705993437494,-0.0446875,0.049225,0.07205
1680019717640,1199705995939725,-0.0477125,0.0512875,0.075075
1680019717643,1199705998442110,-0.048675,0.0512875,0.075075
1680019717645,1199706000944273,-0.045649998,0.05335,0.0741125
1680019717649,1199706003446503,-0.0466125,0.0583,0.0760375
1680019717651,1199706005948657,-0.045649998,0.060225,0.078099996
1680019717653,1199706008451042,-0.0446875,0.060225,0.0790625
1680019717655,1199706010953273,-0.0416625,0.0653125,0.081125
1680019717659,1199706013455417,-0.0416625,0.061325,0.080025
1680019717661,1199706015957802,-0.043725,0.060225,0.0790625
1680019717667,1199706018460033,-0.0416625,0.0573375,0.0851125
1680019717668,1199706020962187,-0.0407,0.0653125,0.086075
1680019717669,1199706023464355,-0.0446875,0.066275,0.0851125
1680019717672,1199706025966739,-0.0446875,0.0622875,0.086075
1680019717673,1199706028468970,-0.0407,0.060225,0.0851125
1680019717675,1199706030971124,-0.043725,0.0543125,0.08305
1680019717678,1199706033473508,-0.043725,0.0583,0.0900625
1680019717682,1199706035975739,-0.0416625,0.0583,0.0900625
1680019717683,1199706038477893,-0.0416625,0.0583,0.087037496
1680019717685,1199706040980047,-0.0407,0.0543125,0.086075
1680019717689,1199706043482508,-0.0407,0.052249998,0.0891
1680019717691,1199706045984662,-0.0397375,0.049225,0.09405
1680019717693,1199706048486816,-0.043725,0.049225,0.0881375
1680019717695,1199706050989201,-0.043725,0.0433125,0.087037496
1680019717700,1199706053491394,-0.0386375,0.041249998,0.087037496
1680019717701,1199706055993547,-0.0397375,0.038225,0.086075
1680019717703,1199706058495932,-0.042625,0.033275,0.0881375
1680019717707,1199706060998163,-0.042625,0.0292875,0.0900625
1680019717709,1199706063500556,-0.0386375,0.028324999,0.0881375
1680019717711,1199706066002710,-0.0397375,0.0243375,0.0881375
1680019717716,1199706068504864,-0.0386375,0.017324999,0.087037496
1680019717716,1199706071007095,-0.0386375,0.0122375,0.086075
1680019717718,1199706073509480,-0.0386375,0.0103124995,0.08305
1680019717721,1199706076011730,-0.0397375,0.00825,0.0851125
1680019717723,1199706078513884,-0.0386375,0.0072875,0.0851125
1680019717725,1199706081016269,-0.0407,0.0023375,0.0851125
1680019717729,1199706083518500,-0.0407,2.75E-4,0.08305
1680019717732,1199706086020653,-0.0386375,-0.00275,0.081125
1680019717733,1199706088523038,-0.042625,-0.0067375,0.081125
1680019717735,1199706091025192,-0.043725,-0.0077,0.08305
1680019717739,1199706093527423,-0.043725,-0.010725,0.081125
1680019717741,1199706096029561,-0.0416625,-0.014712499,0.0771375
1680019717744,1199706098532023,-0.045649998,-0.0187,0.0760375
1680019717749,1199706101034177,-0.043725,-0.0177375,0.0760375
1680019717750,1199706103536562,-0.0397375,-0.0196625,0.07315
1680019717753,1199706106038720,-0.0397375,-0.016775,0.075075
1680019717754,1199706108540951,-0.0407,-0.0187,0.07205
1680019717755,1199706111043105,-0.0386375,-0.016775,0.07205
1680019717758,1199706113545259,-0.042625,-0.0187,0.07205
1680019717760,1199706116047720,-0.0397375,-0.0196625,0.0710875
1680019717763,1199706118549883,-0.0367125,-0.01375,0.070125
1680019717766,1199706121052268,-0.031625,-0.0116875,0.0671
1680019717769,1199706123554422,-0.0306625,-0.0097624995,0.0661375
1680019717771,1199706126056652,-0.0287375,-0.0077,0.070125
1680019717773,1199706128558826,-0.0257125,-0.004675,0.0671
1680019717776,1199706131061211,-0.0246125,-0.004675,0.0650375
1680019717778,1199706133563442,-0.0246125,0.0033,0.064075
1680019717783,1199706136065826,-0.0226875,0.011275,0.0650375
1680019717784,1199706138567980,-0.020624999,0.0133375,0.0650375
1680019717786,1199706141070134,-0.0177375,0.017324999,0.06215
1680019717789,1199706143572365,-0.013612499,0.0213125,0.064075
1680019717791,1199706146074826,-0.01265,0.0243375,0.069025
1680019717793,1199706148576980,-0.0116875,0.028324999,0.0661375
1680019717795,1199706151079152,-0.010725,0.03135,0.064075
1680019717799,1199706153581537,-0.0116875,0.033275,0.0661375
1680019717801,1199706156083691,-0.0086624995,0.0363,0.0671
1680019717803,1199706158585844,-0.0086624995,0.0372625,0.0661375
1680019717805,1199706161088273,-0.009625,0.044275,0.070125
1680019717809,1199706163590504,-0.0056375,0.0433125,0.0710875
1680019717811,1199706166092658,-0.0056375,0.0433125,0.070125
1680019717813,1199706168594811,-0.0056375,0.041249998,0.069025
1680019717816,1199706171097201,-0.0067375,0.041249998,0.0671
1680019717822,1199706173599355,-0.004675,0.0363,0.069025
1680019717822,1199706176101586,-0.00165,0.0353375,0.069025
1680019717824,1199706178603970,-0.00165,0.0342375,0.069025
1680019717826,1199706181106201,-6.875E-4,0.0342375,0.070125
1680019717829,1199706183608344,2.75E-4,0.0292875,0.0671
1680019717830,1199706186110498,0.0023375,0.028324999,0.0671
1680019717833,1199706188612882,0.001375,0.0232375,0.0661375
1680019717836,1199706191115113,0.0042625,0.0182875,0.0650375
1680019717838,1199706193617498,0.0033,0.02035,0.061049998
1680019717840,1199706196119652,0.001375,0.02035,0.06215
1680019717843,1199706198621882,0.0033,0.02035,0.06215
1680019717846,1199706201124036,0.0033,0.0182875,0.0631125
1680019717849,1199706203626421,0.0042625,0.01925,0.061049998
1680019717851,1199706206128575,0.0033,0.017324999,0.0600875
1680019717853,1199706208631036,0.006325,0.016224999,0.058025
1680019717857,1199706211133190,0.006325,0.015262499,0.0600875
1680019717860,1199706213635416,0.0083875,0.0143,0.0600875
1680019717862,1199706216137570,0.00935,0.0122375,0.059125
1680019717864,1199706218639954,0.00935,0.0133375,0.0600875
1680019717866,1199706221142108,0.0103124995,0.0143,0.0570625
1680019717869,1199706223644604,0.011275,0.0143,0.058025
1680019717871,1199706226146758,0.011275,0.00825,0.059125
1680019717873,1199706228648911,0.0163625,0.006325,0.059125
1680019717875,1199706231151142,0.011275,0.0072875,0.0600875
1680019717879,1199706233653527,0.011275,0.006325,0.059125
1680019717880,1199706236155695,0.0133375,2.75E-4,0.058025
1680019717883,1199706238657926,0.0163625,-6.875E-4,0.0551375
1680019717885,1199706241160310,0.017324999,-0.00165,0.053075
1680019717889,1199706243662464,0.017324999,-0.0067375,0.053075
1680019717891,1199706246164613,0.02035,-0.0077,0.048125
1680019717894,1199706248666844,0.0182875,-0.0097624995,0.048125
1680019717897,1199706251169228,0.0213125,-0.0116875,0.0451
1680019717899,1199706253671382,0.0243375,-0.016775,0.0430375
1680019717901,1199706256173637,0.0253,-0.0177375,0.042075
1680019717903,1199706258676021,0.023375,-0.0187,0.0411125
1680019717905,1199706261178252,0.0273625,-0.0207625,0.039049998
1680019717909,1199706263680406,0.028324999,-0.0257125,0.0411125
1680019717911,1199706266182560,0.028324999,-0.0297,0.04015
1680019717913,1199706268684960,0.033275,-0.0317625,0.039049998
1680019717915,1199706271187190,0.03135,-0.0367125,0.04015
1680019717919,1199706273689575,0.033275,-0.0367125,0.037125
1680019717922,1199706276191729,0.034375,-0.0407,0.037125
1680019717923,1199706278693941,0.033275,-0.0446875,0.039049998
1680019717925,1199706281196094,0.034375,-0.0477125,0.036025
1680019717929,1199706283698248,0.0353375,-0.049775,0.036025
1680019717932,1199706286200710,0.0363,-0.049775,0.036025
1680019717934,1199706288703098,0.0353375,-0.0537625,0.0331375
1680019717936,1199706291205252,0.034375,-0.056649998,0.0331375
1680019717939,1199706293707406,0.034375,-0.05775,0.0320375
1680019717941,1199706296209637,0.034375,-0.054725,0.02915
1680019717943,1199706298711791,0.033275,-0.060775,0.02805
1680019717946,1199706301214156,0.034375,-0.060775,0.0301125
1680019717949,1199706303716387,0.0353375,-0.059675,0.02915
1680019717951,1199706306218772,0.0353375,-0.059675,0.026124999
1680019717953,1199706308720926,0.0323125,-0.060775,0.0231
1680019717956,1199706311223085,0.0323125,-0.056649998,0.0231
1680019717959,1199706313725315,0.0323125,-0.054725,0.01705
1680019717961,1199706316227777,0.0292875,-0.0587125,0.0160875
1680019717963,1199706318729931,0.028324999,-0.0507375,0.014025
1680019717966,1199706321232070,0.0292875,-0.04675,0.0121
1680019717970,1199706323734454,0.028324999,-0.0407,0.0111375
1680019717972,1199706326236608,0.0262625,-0.038775,0.0081124995
1680019717974,1199706328738839,0.028324999,-0.0336875,0.0081124995
1680019717976,1199706331241027,0.0292875,-0.0317625,0.009075
1680019717979,1199706333743488,0.0292875,-0.026675,0.00605
1680019717981,1199706336245642,0.0323125,-0.0196625,0.004125
1680019717983,1199706338748027,0.0323125,-0.01265,0.0011
1680019717987,1199706341250181,0.0323125,-0.0097624995,-9.625E-4
1680019717989,1199706343752310,0.033275,-0.004675,-0.0028875
1680019717991,1199706346254541,0.033275,-0.00275,-0.0059125
1680019717993,1199706348756926,0.0323125,0.0033,-0.0059125
1680019717996,1199706351259157,0.0353375,0.00825,-0.006875
1680019717999,1199706353761320,0.0363,0.011275,-0.006875
1680019718001,1199706356263705,0.0353375,0.0122375,-0.007975
1680019718004,1199706358765859,0.0363,0.0143,-0.0099
1680019718008,1199706361268090,0.0402875,0.0143,-0.006875
1680019718010,1199706363770469,0.0372625,0.017324999,-0.0099
1680019718012,1199706366272700,0.0372625,0.0182875,-0.0089375
1680019718014,1199706368774854,0.0372625,0.01925,-0.0099
1680019718016,1199706371277008,0.04235,0.02035,-0.0089375
1680019718019,1199706373779392,0.0402875,0.02035,-0.0089375
1680019718021,1199706376281632,0.039325,0.02035,-0.0099
1680019718023,1199706378784017,0.04235,0.02035,-0.0108624995
1680019718026,1199706381286171,0.044275,0.01925,-0.006875
1680019718030,1199706383788401,0.0413875,0.0182875,-0.0099
1680019718031,1199706386290546,0.039325,0.0213125,-0.01485
1680019718033,1199706388792931,0.0433125,0.01925,-0.01595
1680019718036,1199706391295085,0.0413875,0.0182875,-0.0119624995
1680019718039,1199706393797316,0.0383625,0.0213125,-0.0119624995
1680019718040,1199706396299700,0.039325,0.0143,-0.01595
1680019718045,1199706398801849,0.039325,0.00825,-0.01595
1680019718047,1199706401304080,0.039325,0.006325,-0.0209
1680019718050,1199706403806464,0.039325,0.0023375,-0.018975
1680019718052,1199706406415695,0.0353375,0.0023375,-0.0218625
1680019718055,1199706408810772,0.033275,-0.004675,-0.0229625
1680019718060,1199706411313206,0.0292875,-0.0077,-0.023924999
1680019718066,1199706413815359,0.0243375,-0.0116875,-0.0229625
1680019718066,1199706416317590,0.023375,-0.01265,-0.023924999
1680019718067,1199706418819744,0.023375,-0.016775,-0.028875
1680019718067,1199706421322129,0.022275,-0.02365,-0.0279125
1680019718069,1199706423824264,0.02035,-0.02475,-0.029975
1680019718071,1199706426326494,0.0163625,-0.02475,-0.0328625
1680019718073,1199706428828879,0.0133375,-0.0207625,-0.0358875
1680019718076,1199706431331033,0.011275,-0.021724999,-0.0358875
1680019718079,1199706433833254,0.0103124995,-0.0187,-0.0389125
1680019718082,1199706436335407,0.0083875,-0.0177375,-0.0389125
1680019718084,1199706438837792,0.0053625,-0.021724999,-0.039875
1680019718085,1199706441340023,0.0053625,-0.0207625,-0.039875
1680019718089,1199706443842407,0.0072875,-0.016775,-0.03795
1680019718090,1199706446344566,0.00935,-0.01375,-0.0389125
1680019718093,1199706448846797,0.0072875,-0.014712499,-0.0419375
1680019718096,1199706451348951,0.011275,-0.01375,-0.040975
1680019718099,1199706453851134,0.0083875,-0.010725,-0.0389125
1680019718101,1199706456353595,0.006325,-0.0116875,-0.0358875
1680019718103,1199706458855749,0.00935,-0.0086624995,-0.0339625
1680019718106,1199706461358134,0.00935,-0.0067375,-0.0328625
1680019718109,1199706463860301,0.0072875,-0.0116875,-0.02695
1680019718111,1199706466362531,0.0103124995,-0.0077,-0.0209
1680019718113,1199706468864685,0.011275,-0.005775,-0.017875
1680019718116,1199706471367070,0.00935,-0.005775,-0.01485
1680019718120,1199706473869306,0.0072875,-0.0077,-0.007975
1680019718122,1199706476371460,0.0083875,-0.005775,-0.00495
1680019718124,1199706478873844,0.0072875,-0.00275,-0.001925
1680019718126,1199706481375998,0.0083875,2.75E-4,0.003025
1680019718129,1199706483878229,0.012375,-6.875E-4,0.00605
1680019718131,1199706486380608,0.0103124995,2.75E-4,0.0100375
1680019718133,1199706488882762,0.011275,0.0012375,0.015125
1680019718136,1199706491384993,0.0103124995,0.005225,0.0191125
1680019718139,1199706493887147,0.00935,0.005225,0.0210375
1680019718141,1199706496389556,0.0103124995,0.0042625,0.0240625
1680019718143,1199706498891786,0.011275,0.0133375,0.0270875
1680019718146,1199706501394171,0.012375,0.017324999,0.0270875
1680019718149,1199706503896325,0.011275,0.017324999,0.0320375
1680019718151,1199706506398460,0.0103124995,0.0182875,0.036025
1680019718153,1199706508900690,0.0053625,0.0213125,0.0380875
1680019718157,1199706511403075,0.006325,0.02035,0.0411125
1680019718160,1199706513905306,0.0053625,0.0213125,0.0411125
1680019718161,1199706516407451,0.0053625,0.01925,0.0441375
1680019718163,1199706518909835,0.0023375,0.02035,0.047025
1680019718166,1199706521411989,0.0023375,0.017324999,0.047025
1680019718169,1199706523914220,0.0023375,0.0143,0.0490875
1680019718171,1199706526416374,0.001375,0.015262499,0.053075
1680019718173,1199706528918835,-0.0037125,0.0122375,0.0561
1680019718176,1199706531420989,-0.004675,0.00825,0.0570625
1680019718179,1199706533923374,-0.0037125,0.0072875,0.0600875
1680019718181,1199706536425528,-0.0056375,0.0023375,0.06215
1680019718183,1199706538927749,-0.0056375,-6.875E-4,0.06215
1680019718186,1199706541429903,-0.009625,-0.00275,0.0661375
1680019718189,1199706543932288,-0.0086624995,-0.00275,0.069025
1680019718191,1199706546434519,-0.009625,-0.005775,0.069025
1680019718195,1199706548936652,-0.009625,-0.0067375,0.070125
1680019718196,1199706551439037,-0.0116875,-0.0116875,0.070125
1680019718199,1199706553941191,-0.010725,-0.015675,0.075075
1680019718201,1199706556443422,-0.015675,-0.01375,0.0771375
1680019718203,1199706558945576,-0.0177375,-0.016775,0.075075
1680019718206,1199706561448052,-0.0187,-0.0177375,0.075075
1680019718209,1199706563950206,-0.0187,-0.016775,0.0760375
1680019718211,1199706566452591,-0.0196625,-0.0187,0.0760375
1680019718213,1199706568954744,-0.021724999,-0.0177375,0.0760375
1680019718216,1199706571456883,-0.021724999,-0.0196625,0.078099996
1680019718219,1199706573959114,-0.0226875,-0.0207625,0.0771375
1680019718221,1199706576461499,-0.0226875,-0.0196625,0.075075
1680019718223,1199706578963729,-0.02365,-0.015675,0.0741125
1680019718226,1199706581465883,-0.0226875,-0.014712499,0.075075
1680019718229,1199706583968288,-0.0246125,-0.014712499,0.075075
1680019718232,1199706586470442,-0.0257125,-0.0116875,0.07315
1680019718234,1199706588972596,-0.0257125,-0.0097624995,0.075075
1680019718236,1199706591475057,-0.026675,-0.005775,0.0760375
1680019718239,1199706593977292,-0.026675,-0.004675,0.07315
1680019718241,1199706596479446,-0.0257125,-0.00165,0.07315
1680019718244,1199706598981600,-0.0246125,0.0033,0.0741125
1680019718246,1199706601483984,-0.026675,0.005225,0.0710875
1680019718249,1199706603986147,-0.026675,0.0103124995,0.070125
1680019718251,1199706606488609,-0.021724999,0.0122375,0.07315
1680019718253,1199706608990763,-0.020624999,0.016224999,0.0760375
1680019718257,1199706611492993,-0.0246125,0.02035,0.0760375
1680019718259,1199706613995147,-0.02365,0.0232375,0.0771375
1680019718261,1199706616497532,-0.0226875,0.0232375,0.078099996
1680019718263,1199706618999686,-0.021724999,0.0292875,0.078099996
1680019718266,1199706621501840,-0.020624999,0.028324999,0.0820875
1680019718271,1199706624004287,-0.0177375,0.028324999,0.0820875
1680019718272,1199706626506441,-0.0187,0.03025,0.081125
1680019718274,1199706629008672,-0.015675,0.0323125,0.08305
1680019718276,1199706631510826,-0.014712499,0.0353375,0.087037496
1680019718279,1199706634013210,-0.010725,0.0372625,0.087037496
1680019718281,1199706636515355,-0.0086624995,0.041249998,0.0881375
1680019718283,1199706639017817,-0.0086624995,0.0402875,0.0891
1680019718286,1199706641519970,-0.009625,0.041249998,0.091025
1680019718289,1199706644022201,-0.01265,0.039325,0.0900625
1680019718291,1199706646524350,-0.0086624995,0.039325,0.0900625
1680019718293,1199706649026735,-0.0077,0.0452375,0.0900625
1680019718297,1199706651528889,-0.0086624995,0.0452375,0.091025
1680019718299,1199706654031350,-0.0067375,0.041249998,0.092125
1680019718301,1199706656533504,-0.0077,0.0402875,0.091025
1680019718303,1199706659035658,-0.0067375,0.039325,0.0930875
1680019718307,1199706661537889,-0.0037125,0.0353375,0.09405
1680019718310,1199706664040273,-0.0037125,0.03135,0.0961125
1680019718312,1199706666542408,-0.00165,0.0323125,0.0961125
1680019718314,1199706669044639,-0.00165,0.03135,0.0961125
1680019718316,1199706671547023,-6.875E-4,0.028324999,0.097075
1680019718318,1199706674049177,2.75E-4,0.0232375,0.0991375
1680019718321,1199706676551331,-6.875E-4,0.01925,0.102025
1680019718323,1199706679053562,-0.0056375,0.016224999,0.098037496
1680019718326,1199706681555947,-6.875E-4,0.015262499,0.102025
1680019718329,1199706684058177,-6.875E-4,0.0143,0.100099996
1680019718331,1199706686560331,-0.0037125,0.0143,0.102025
1680019718334,1199706689062735,-0.0037125,0.0103124995,0.10505
1680019718337,1199706691564889,-0.0056375,0.0072875,0.1040875
1680019718339,1199706694067119,-0.004675,0.016224999,0.102025
1680019718341,1199706696569273,-0.004675,0.0133375,0.100099996
1680019718345,1199706699071647,-0.0056375,0.00825,0.103125
1680019718347,1199706701573878,-0.0067375,0.0103124995,0.102025
1680019718350,1199706704076031,-0.0056375,0.00825,0.097075
1680019718352,1199706706578416,-0.0077,0.0072875,0.09515
1680019718354,1199706709080647,-0.0077,0.00825,0.098037496
1680019718356,1199706711582811,-0.0067375,0.006325,0.0991375
1680019718359,1199706714084965,-0.0067375,0.0072875,0.0961125
1680019718361,1199706716587426,-0.0086624995,0.0103124995,0.0961125
1680019718363,1199706719089580,-0.0067375,0.006325,0.0991375
1680019718366,1199706721591984,-0.0067375,0.005225,0.098037496
1680019718369,1199706724094137,-0.0056375,0.006325,0.0961125
1680019718371,1199706726596368,-0.0077,0.006325,0.0991375
1680019718373,1199706729098522,-0.0067375,0.006325,0.100099996
1680019718377,1199706731600912,-0.0037125,0.006325,0.098037496
1680019718379,1199706734103142,-0.0077,0.0072875,0.09515
1680019718383,1199706736605296,-0.004675,0.0122375,0.0961125
1680019718384,1199706739107681,-0.0037125,0.017324999,0.09515
1680019718386,1199706741609835,-0.0056375,0.02035,0.098037496
1680019718389,1199706744112080,-0.0037125,0.0243375,0.0961125
1680019718391,1199706746614464,-0.00165,0.027224999,0.092125
1680019718393,1199706749116695,-6.875E-4,0.0292875,0.0930875
1680019718396,1199706751618849,-0.00165,0.0323125,0.092125
1680019718399,1199706754121219,0.001375,0.039325,0.091025
1680019718401,1199706756623373,0.001375,0.0372625,0.0900625
1680019718403,1199706759125604,0.0023375,0.0402875,0.0900625
1680019718406,1199706761627989,2.75E-4,0.041249998,0.0881375
1680019718409,1199706764130228,0.001375,0.0452375,0.086075
1680019718411,1199706766632382,0.0033,0.0543125,0.0790625
1680019718413,1199706769134767,0.0053625,0.052249998,0.0790625
1680019718417,1199706771636921,0.0083875,0.049225,0.080025
1680019718421,1199706774139071,0.0072875,0.0512875,0.080025
1680019718423,1199706776641301,0.0072875,0.050325,0.080025
1680019718425,1199706779143686,0.006325,0.05335,0.0771375
1680019718426,1199706781645917,0.0083875,0.0543125,0.0771375
1680019718429,1199706784148061,0.00935,0.05335,0.0760375
1680019718431,1199706786650445,0.00935,0.055275,0.0760375
1680019718433,1199706789152599,0.0154,0.0573375,0.07205
1680019718436,1199706791654753,0.012375,0.052249998,0.07205
1680019718439,1199706794157205,0.0133375,0.05335,0.0710875
1680019718441,1199706796659435,0.0163625,0.055275,0.0671
1680019718444,1199706799161589,0.012375,0.05335,0.0710875
1680019718446,1199706801663743,0.0103124995,0.055275,0.070125
1680019718450,1199706804166109,0.0103124995,0.052249998,0.0671
1680019718451,1199706806668262,0.0103124995,0.050325,0.0661375
1680019718453,1199706809170493,0.0072875,0.050325,0.0671
1680019718458,1199706811672878,0.0083875,0.0512875,0.0671
1680019718461,1199706814175109,0.0072875,0.0493625,0.0661375
1680019718462,1199706816735955,0.0072875,0.044275,0.0661375
1680019718464,1199706819179416,0.00935,0.0402875,0.0671
1680019718466,1199706821681801,0.00935,0.039325,0.0650375
1680019718469,1199706824184278,0.00935,0.0383625,0.0650375
1680019718471,1199706826686431,0.0044,0.0353375,0.0631125
1680019718473,1199706829188585,0.0023375,0.033275,0.0650375
1680019718476,1199706831690816,0.001375,0.03135,0.064075
1680019718479,1199706834192970,0.0023375,0.028324999,0.0650375
1680019718481,1199706836695128,0.0023375,0.02035,0.0650375
1680019718484,1199706839197512,0.0033,0.0122375,0.061049998
1680019718486,1199706841699974,0.0023375,0.00825,0.061049998
1680019718489,1199706844202128,2.75E-4,0.0072875,0.059125
1680019718491,1199706846704282,2.75E-4,0.006325,0.0570625
1680019718495,1199706849206512,-0.0037125,0.00825,0.0561
1680019718498,1199706851708666,-0.0066,0.0033,0.053075
1680019718500,1199706854211051,-0.0086624995,0.0042625,0.050049998
1680019718502,1199706856713282,-0.0056375,0.0042625,0.047025
1680019718504,1199706859215666,-0.0086624995,2.75E-4,0.0460625
1680019718506,1199706861717820,-0.0066,0.0012375,0.047025
1680019718509,1199706864220051,-0.0066,0.0042625,0.0451
1680019718511,1199706866722205,-0.0066,0.0012375,0.0441375
1680019718514,1199706869224600,-0.0077,0.0023375,0.0430375
1680019718516,1199706871726831,-0.010725,0.0053625,0.0411125
1680019718519,1199706874228985,-0.009625,0.006325,0.0411125
1680019718521,1199706876731370,-0.010725,0.006325,0.042075
1680019718524,1199706879233508,-0.0077,0.0042625,0.04015
1680019718526,1199706881735970,-0.0086624995,0.0053625,0.04015
1680019718529,1199706884238124,-0.009625,0.0072875,0.0430375
1680019718532,1199706886740355,-0.009625,0.0033,0.04015
1680019718534,1199706889242489,-0.0066,0.00825,0.0430375
1680019718537,1199706891744643,-0.0077,0.011275,0.042075
1680019718540,1199706894247028,-0.0086624995,0.0103124995,0.042075
1680019718541,1199706896749259,-0.004675,0.015262499,0.042075
1680019718544,1199706899251643,-0.0056375,0.02035,0.042075
1680019718546,1199706901753792,-0.0066,0.0163625,0.042075
1680019718549,1199706904256023,-0.0037125,0.0213125,0.0430375
1680019718551,1199706906758177,-6.875E-4,0.0232375,0.0411125
1680019718554,1199706909260331,-6.875E-4,0.0243375,0.0411125
1680019718556,1199706911762792,0.0033,0.0243375,0.042075
1680019718559,1199706914265168,0.0023375,0.028324999,0.04015
1680019718561,1199706916767322,0.0023375,0.033275,0.042075
1680019718563,1199706919269476,0.0044,0.03135,0.0430375
1680019718566,1199706921771715,0.0033,0.0353375,0.0441375
1680019718571,1199706924273869,0.0023375,0.03135,0.0441375
1680019718573,1199706926776254,0.0033,0.0342375,0.0430375
1680019718574,1199706929278485,0.0044,0.0363,0.0441375
1680019718577,1199706931780874,0.0083875,0.039325,0.042075
1680019718579,1199706934283028,0.0053625,0.0372625,0.0430375
1680019718581,1199706936785259,0.0053625,0.0342375,0.042075
1680019718584,1199706939287413,0.0044,0.0372625,0.04015
1680019718586,1199706941789797,0.0044,0.0363,0.0441375
1680019718589,1199706944292028,0.0053625,0.03025,0.0451
1680019718591,1199706946794182,0.0033,0.033275,0.04015
1680019718594,1199706949296567,0.0044,0.0372625,0.0430375
1680019718596,1199706951798720,0.001375,0.033275,0.0411125
1680019718599,1199706954300960,0.0053625,0.0323125,0.0411125
1680019718601,1199706956803114,0.0033,0.033275,0.0411125
1680019718604,1199706959305576,0.0023375,0.0353375,0.039049998
1680019718608,1199706961807729,0.0033,0.0292875,0.0411125
1680019718610,1199706964310124,0.0044,0.0253,0.0380875
1680019718612,1199706966812278,0.0033,0.028324999,0.04015
1680019718614,1199706969314432,0.0023375,0.0232375,0.037125
1680019718617,1199706971816663,0.0033,0.0243375,0.0331375
1680019718620,1199706974319119,0.001375,0.0213125,0.0380875
1680019718622,1199706976821273,0.0023375,0.0213125,0.036025
1680019718624,1199706979323427,0.001375,0.017324999,0.037125
1680019718626,1199706981825811,0.0044,0.0163625,0.0320375
1680019718629,1199706984328042,-6.875E-4,0.02035,0.0331375
1680019718631,1199706986830191,-0.00165,0.017324999,0.0301125
1680019718634,1199706989332576,-0.0037125,0.0163625,0.0301125
1680019718636,1199706991834806,-0.004675,0.0163625,0.02915
1680019718640,1199706994336960,-0.0037125,0.0143,0.02805
1680019718641,1199706996839109,-0.004675,0.015262499,0.0270875
1680019718645,1199706999341494,-0.0066,0.015262499,0.025024999
1680019718647,1199707001843724,-0.0077,0.015262499,0.0240625
1680019718651,1199707004345878,-0.0086624995,0.0163625,0.0231
1680019718652,1199707006848278,-0.009625,0.0163625,0.0221375
1680019718655,1199707009350509,-0.009625,0.015262499,0.0210375
1680019718657,1199707011852663,-0.0116875,0.0133375,0.020075
1680019718660,1199707014355047,-0.0116875,0.0143,0.0160875
1680019718662,1199707016857201,-0.0116875,0.0143,0.015125
1680019718664,1199707019359427,-0.0116875,0.0143,0.013062499
1680019718666,1199707021861811,-0.01265,0.0133375,0.009075
1680019718669,1199707024363965,-0.0116875,0.015262499,0.004125
1680019718672,1199707026866196,-0.0086624995,0.02035,0.00715
1680019718674,1199707029368567,-0.0116875,0.01925,0.004125
1680019718676,1199707031870721,-0.014712499,0.015262499,0.003025
1680019718679,1199707034372874,-0.0116875,0.0103124995,1.375E-4
1680019718684,1199707036875336,-0.010725,0.015262499,1.375E-4
1680019718688,1199707039377490,-0.010725,0.017324999,-0.00495
1680019718688,1199707041879721,-0.01265,0.00825,-0.006875
1680019718689,1199707044381874,-0.0077,0.00825,-0.0099
1680019718691,1199707046884259,-0.0066,0.006325,-0.012925
1680019718694,1199707049386413,-0.0077,0.0053625,-0.01485
1680019718697,1199707051888658,-0.0066,-6.875E-4,-0.0169125
1680019718699,1199707054391042,-0.004675,2.75E-4,-0.0199375
1680019718701,1199707056893273,-0.0037125,-0.00275,-0.0199375
1680019718703,1199707059395427,-0.00165,-0.0037125,-0.0209
1680019718707,1199707061897591,-0.0037125,-0.0097624995,-0.02585
1680019718709,1199707064399975,0.0023375,-0.0116875,-0.0279125
1680019718712,1199707066902129,0.0053625,-0.01265,-0.0279125
1680019718714,1199707069404591,0.0053625,-0.01375,-0.0319
1680019718716,1199707071906754,0.0033,-0.015675,-0.0339625
1680019718720,1199707074408984,0.0044,-0.02365,-0.036849998
1680019718723,1199707076911138,0.0072875,-0.026675,-0.036849998
1680019718724,1199707079413523,0.0103124995,-0.0317625,-0.039875
1680019718727,1199707081915677,0.00935,-0.032725,-0.0429
1680019718730,1199707084417908,0.0103124995,-0.0367125,-0.0438625
1680019718731,1199707086920292,0.0154,-0.043725,-0.0438625
1680019718734,1199707089422523,0.0154,-0.045649998,-0.047849998
1680019718737,1199707091924677,0.0133375,-0.0517,-0.04895
1680019718739,1199707094426831,0.0163625,-0.0587125,-0.0499125
1680019718741,1199707096929215,0.0182875,-0.0606375,-0.0548625
1680019718744,1199707099431446,0.0182875,-0.0627,-0.0548625
1680019718746,1199707101933831,0.0193875,-0.06875,-0.056925
1680019718750,1199707104435990,0.02035,-0.073699996,-0.0578875
1680019718752,1199707106938220,0.022275,-0.07865,-0.05995
1680019718754,1199707109440374,0.023375,-0.07865,-0.061875
1680019718758,1199707111942489,0.0243375,-0.0856625,-0.062975
1680019718760,1199707114444951,0.0253,-0.09075,-0.062975
1680019718762,1199707116947335,0.028324999,-0.0947375,-0.064899996
1680019718764,1199707119449489,0.028324999,-0.0966625,-0.0658625
1680019718766,1199707121951643,0.0273625,-0.098725,-0.0669625
1680019718769,1199707124453874,0.0264,-0.1027125,-0.0669625
1680019718772,1199707126956027,0.028324999,-0.1076625,-0.0688875
1680019718774,1199707129458412,0.0243375,-0.11165,-0.0658625
1680019718777,1199707131960643,0.0213125,-0.1137125,-0.0669625
1680019718780,1199707134463028,0.022275,-0.1167375,-0.0669625
1680019718782,1199707136965181,0.022275,-0.120725,-0.0669625
1680019718784,1199707139467335,0.0213125,-0.12773749,-0.064899996
1680019718786,1199707141969566,0.0193875,-0.12375,-0.062975
1680019718789,1199707144471735,0.0213125,-0.13365,-0.0609125
1680019718791,1199707146974196,0.022275,-0.13365,-0.058849998
1680019718795,1199707149476350,0.022275,-0.131725,-0.058849998
1680019718797,1199707151978735,0.022275,-0.1376375,-0.058849998
1680019718800,1199707154480894,0.017324999,-0.1326875,-0.058849998
1680019718801,1199707156983048,0.0182875,-0.1287,-0.05995
1680019718803,1199707159485278,0.0193875,-0.1307625,-0.0578875
1680019718807,1199707161987740,0.0193875,-0.12773749,-0.05995
1680019718809,1199707164489894,0.023375,-0.1287,-0.0609125
1680019718811,1199707166992052,0.023375,-0.12773749,-0.05995
1680019718814,1199707169494436,0.0213125,-0.1247125,-0.0609125
1680019718817,1199707171996590,0.023375,-0.1186625,-0.0578875
1680019718820,1199707174498821,0.022275,-0.1106875,-0.0609125
1680019718822,1199707177001186,0.022275,-0.104637496,-0.0609125
1680019718824,1199707179503417,0.0243375,-0.1067,-0.0658625
1680019718827,1199707182005571,0.023375,-0.098725,-0.0669625
1680019718829,1199707184507956,0.0264,-0.0977625,-0.0658625
1680019718833,1199707187010125,0.0264,-0.093637496,-0.0688875
1680019718835,1199707189512278,0.0264,-0.09075,-0.06985
1680019718836,1199707192014740,0.0273625,-0.0856625,-0.0688875
1680019718840,1199707194516971,0.0292875,-0.081675,-0.07095
1680019718841,1199707197019125,0.0264,-0.07865,-0.0719125
1680019718844,1199707199521305,0.0264,-0.0746625,-0.072875
1680019718847,1199707202023690,0.0264,-0.0757625,-0.06985
1680019718850,1199707204525844,0.0264,-0.0716375,-0.072875
1680019718852,1199707207028305,0.0273625,-0.06875,-0.07095
1680019718854,1199707209530459,0.0264,-0.06875,-0.07095
1680019718857,1199707212032690,0.0273625,-0.0666875,-0.06985
1680019718860,1199707214534844,0.0264,-0.0636625,-0.06985
1680019718861,1199707217036998,0.028324999,-0.0617375,-0.07095
1680019718864,1199707219539382,0.0292875,-0.05775,-0.0719125
1680019718867,1199707222041590,0.0273625,-0.0636625,-0.07095
1680019718872,1199707224543975,0.028324999,-0.0587125,-0.07095
1680019718873,1199707227046129,0.028324999,-0.056649998,-0.0719125
1680019718875,1199707229548359,0.028324999,-0.056649998,-0.0719125
1680019718876,1199707232050513,0.028324999,-0.0537625,-0.07095
1680019718879,1199707234552667,0.033275,-0.05775,-0.06985
1680019718882,1199707237055052,0.03135,-0.0517,-0.072875
1680019718884,1199707239557513,0.0323125,-0.0477125,-0.07095
1680019718886,1199707242059658,0.0353375,-0.0507375,-0.06985
1680019718890,1199707244561812,0.0323125,-0.0477125,-0.06985
1680019718892,1199707247064043,0.0323125,-0.04675,-0.06985
1680019718894,1199707249566197,0.0353375,-0.0496375,-0.0688875
1680019718897,1199707252068571,0.0363,-0.0517,-0.06985
1680019718900,1199707254570802,0.0323125,-0.0496375,-0.0719125
1680019718901,1199707257073187,0.033275,-0.0526625,-0.0688875
1680019718904,1199707259575340,0.0374,-0.05775,-0.06985
1680019718908,1199707262077585,0.039325,-0.0587125,-0.07095
1680019718910,1199707264579739,0.0402875,-0.065725,-0.07095
1680019718912,1199707267082124,0.0433125,-0.0636625,-0.07095
1680019718914,1199707269584355,0.044275,-0.0647625,-0.07095
1680019718916,1199707272086508,0.044275,-0.06875,-0.07095
1680019718921,1199707274588648,0.0484,-0.070675,-0.06985
1680019718922,1199707277091033,0.0493625,-0.076725,-0.0719125
1680019718924,1199707279593264,0.0493625,-0.0847,-0.0719125
1680019718927,1199707282095648,0.050325,-0.0856625,-0.072875
1680019718929,1199707284597802,0.0523875,-0.0856625,-0.0719125
1680019718931,1199707287100052,0.0543125,-0.0847,-0.07095
1680019718934,1199707289602206,0.055275,-0.092675,-0.0719125
1680019718937,1199707292104360,0.0523875,-0.0947375,-0.072875
1680019718940,1199707294606821,0.0573375,-0.0966625,-0.0749375
1680019718942,1199707297109206,0.0603625,-0.10175,-0.0719125
1680019718946,1199707299611360,0.0573375,-0.104775,-0.0719125
1680019718948,1199707302113513,0.056375,-0.11165,-0.07095
1680019718951,1199707304615744,0.0583,-0.1167375,-0.0719125
1680019718952,1199707307117912,0.061325,-0.1186625,-0.067925
1680019718954,1199707309620297,0.061325,-0.1247125,-0.06985
1680019718957,1199707312122527,0.0653125,-0.1307625,-0.07095
1680019718960,1199707314624912,0.0653125,-0.13365,-0.072875
1680019718961,1199707317127066,0.067375,-0.13475,-0.072875
1680019718964,1199707319629293,0.069299996,-0.1406625,-0.073975
1680019718966,1199707322131447,0.0702625,-0.1467125,-0.0759
1680019718969,1199707324633600,0.0743875,-0.1507,-0.0749375
1680019718971,1199707327136062,0.0763125,-0.147675,-0.0779625
1680019718974,1199707329638220,0.0732875,-0.14973749,-0.0759
1680019718977,1199707332140604,0.0823625,-0.1516625,-0.0759
1680019718980,1199707334642758,0.0823625,-0.1527625,-0.0768625
1680019718983,1199707337144989,0.083325,-0.1527625,-0.0768625
1680019718985,1199707339647129,0.083325,-0.1546875,-0.0779625
1680019718987,1199707342149590,0.088275,-0.1577125,-0.0768625
1680019718989,1199707344651744,0.0903375,-0.1546875,-0.0779625
1680019718992,1199707347154129,0.091299996,-0.147675,-0.0768625
1680019718994,1199707349656283,0.091299996,-0.147675,-0.0749375
1680019718996,1199707352158447,0.0903375,-0.14575,-0.0719125
1680019718999,1199707354660677,0.094325,-0.142725,-0.073975
1680019719002,1199707357163139,0.0922625,-0.1357125,-0.0719125
1680019719004,1199707359665293,0.091299996,-0.1326875,-0.07095
1680019719006,1199707362167442,0.0922625,-0.136675,-0.07095
1680019719010,1199707364669826,0.0933625,-0.13365,-0.06985
1680019719012,1199707367171980,0.0922625,-0.1287,-0.0669625
1680019719014,1199707369674134,0.0922625,-0.1247125,-0.064899996
1680019719017,1199707372176360,0.089375,-0.1247125,-0.062975
1680019719021,1199707374678821,0.088275,-0.115775,-0.062975
1680019719023,1199707377180975,0.0873125,-0.115775,-0.05995
1680019719025,1199707379683129,0.0873125,-0.1106875,-0.062975
1680019719027,1199707382185514,0.08635,-0.1067,-0.0609125
1680019719030,1199707384687672,0.08635,-0.10175,-0.05995
1680019719031,1199707387189903,0.083325,-0.0947375,-0.05995
1680019719034,1199707389692288,0.078375,-0.087725,-0.0578875
1680019719037,1199707392194519,0.0812625,-0.087725,-0.056925
1680019719039,1199707394696683,0.078375,-0.0847,-0.0578875
1680019719041,1199707397198836,0.0812625,-0.07975,-0.0578875
1680019719045,1199707399701221,0.0812625,-0.0757625,-0.058849998
1680019719047,1199707402203375,0.0812625,-0.065725,-0.0609125
1680019719050,1199707404705821,0.078375,-0.0636625,-0.056925
1680019719052,1199707407207975,0.0763125,-0.060775,-0.0559625
1680019719054,1199707409710206,0.0812625,-0.0526625,-0.058849998
1680019719059,1199707412212360,0.0823625,-0.049775,-0.058849998
1680019719061,1199707414714744,0.0842875,-0.0427625,-0.0548625
1680019719063,1199707417216898,0.0842875,-0.0427625,-0.0548625
1680019719065,1199707419719360,0.08635,-0.03575,-0.056925
1680019719067,1199707422221514,0.083325,-0.0306625,-0.056925
1680019719070,1199707424723750,0.0823625,-0.026675,-0.0548625
1680019719073,1199707427225903,0.0842875,-0.0207625,-0.0548625
1680019719075,1199707429728057,0.0873125,-0.0187,-0.05995
1680019719077,1199707432230442,0.0903375,-0.016775,-0.058849998
1680019719079,1199707434732673,0.0903375,-0.015675,-0.0559625
1680019719082,1199707437235028,0.0952875,-0.0086624995,-0.0548625
1680019719084,1199707439737182,0.099275,-0.0097624995,-0.0559625
1680019719087,1199707442239413,0.0983125,-0.010725,-0.0559625
1680019719090,1199707444741572,0.0963875,-0.005775,-0.0539
1680019719091,1199707447243726,0.0963875,-0.004675,-0.0548625
1680019719096,1199707449746110,0.0983125,-0.0037125,-0.0529375
1680019719098,1199707452248572,0.0952875,-0.0037125,-0.0499125
1680019719101,1199707454750735,0.0983125,-0.00275,-0.0499125
1680019719102,1199707457252888,0.099275,-0.005775,-0.050875
1680019719104,1199707459755119,0.099275,-0.0097624995,-0.0499125
1680019719106,1199707462257273,0.1023,-0.0077,-0.045925
1680019719110,1199707464759427,0.1013375,-0.0097624995,-0.045925
1680019719111,1199707467261888,0.1023,-0.01375,-0.045925
1680019719114,1199707469764273,0.1023,-0.01265,-0.047849998
1680019719117,1199707472266427,0.1023,-0.014712499,-0.0438625
1680019719119,1199707474768581,0.1023,-0.0177375,-0.0449625
1680019719122,1199707477270798,0.1023,-0.016775,-0.0438625
1680019719124,1199707479773182,0.100375,-0.015675,-0.0419375
1680019719126,1199707482275413,0.1013375,-0.0196625,-0.0429
1680019719129,1199707484777567,0.100375,-0.0207625,-0.040975
1680019719133,1199707487279955,0.1032625,-0.026675,-0.0429
1680019719135,1199707489782109,0.105325,-0.02475,-0.040975
1680019719138,1199707492284263,0.1023,-0.0317625,-0.040975
1680019719140,1199707494786494,0.1043625,-0.0336875,-0.040975
1680019719142,1199707497288955,0.105325,-0.034649998,-0.040975
1680019719144,1199707499791114,0.1043625,-0.0407,-0.040975
1680019719147,1199707502293268,0.1043625,-0.0427625,-0.039875
1680019719150,1199707504795653,0.1062875,-0.045649998,-0.0389125
1680019719152,1199707507297807,0.1062875,-0.0507375,-0.039875
1680019719155,1199707509800037,0.1073875,-0.056649998,-0.047849998
1680019719157,1199707512302191,0.1093125,-0.0617375,-0.0438625
1680019719160,1199707514804653,0.1123375,-0.060775,-0.039875
1680019719162,1199707517306807,0.1123375,-0.0636625,-0.039875
1680019719164,1199707519809172,0.1142625,-0.060775,-0.040975
1680019719166,1199707522311326,0.1142625,-0.065725,-0.039875
1680019719172,1199707524813480,0.1153625,-0.065725,-0.040975
1680019719173,1199707527315711,0.1172875,-0.071775,-0.0419375
1680019719174,1199707529818172,0.1153625,-0.0757625,-0.0438625
1680019719177,1199707532320326,0.116325,-0.076725,-0.0438625
1680019719180,1199707534822480,0.1172875,-0.07975,-0.0429
1680019719182,1199707537324865,0.11935,-0.0837375,-0.0449625
1680019719185,1199707539827013,0.1172875,-0.0856625,-0.045925
1680019719187,1199707542329244,0.116325,-0.092675,-0.047849998
1680019719190,1199707544831629,0.1153625,-0.092675,-0.0429
1680019719192,1199707547333860,0.1183875,-0.092675,-0.047849998
1680019719194,1199707549836013,0.1203125,-0.10065,-0.050875
1680019719197,1199707552338147,0.1183875,-0.1067,-0.047849998
1680019719199,1199707554840532,0.1183875,-0.11165,-0.050875
1680019719202,1199707557342763,0.11935,-0.109725,-0.050875
1680019719204,1199707559845147,0.121275,-0.11165,-0.0499125
1680019719208,1199707562347310,0.121275,-0.117699996,-0.0499125
1680019719211,1199707564849541,0.121275,-0.1216875,-0.050875
1680019719212,1199707567351695,0.122375,-0.12375,-0.04895
1680019719214,1199707569854079,0.122375,-0.1287,-0.051975
1680019719217,1199707572356233,0.1252625,-0.125675,-0.0529375
1680019719220,1199707574858715,0.1282875,-0.125675,-0.0499125
1680019719222,1199707577360869,0.1282875,-0.1216875,-0.04895
1680019719224,1199707579863023,0.1313125,-0.125675,-0.0499125
1680019719227,1199707582365253,0.132275,-0.12773749,-0.0499125
1680019719230,1199707584867421,0.132275,-0.1296625,-0.050875
1680019719232,1199707587369575,0.1343375,-0.12773749,-0.04895
1680019719234,1199707589871960,0.1353,-0.12375,-0.04895
1680019719237,1199707592374421,0.1313125,-0.12375,-0.045925
1680019719240,1199707594876570,0.1293875,-0.12375,-0.0429
1680019719242,1199707597378724,0.1343375,-0.1186625,-0.0429
1680019719247,1199707599880955,0.133375,-0.1167375,-0.040975
1680019719250,1199707602383339,0.132275,-0.115775,-0.039875
1680019719251,1199707604885503,0.133375,-0.1106875,-0.0429
1680019719253,1199707607387734,0.1313125,-0.10175,-0.040975
1680019719256,1199707609890119,0.1343375,-0.095699996,-0.0429
1680019719259,1199707612392272,0.1353,-0.0977625,-0.0429
1680019719261,1199707614894498,0.132275,-0.08965,-0.0429
1680019719262,1199707617396652,0.1293875,-0.0776875,-0.0419375
1680019719264,1199707619899037,0.1243,-0.0746625,-0.0429
1680019719267,1199707622401267,0.1252625,-0.06765,-0.0419375
1680019719270,1199707624903652,0.1233375,-0.0647625,-0.0429
1680019719272,1199707627405811,0.1203125,-0.0636625,-0.0449625
1680019719275,1199707629907965,0.1172875,-0.0587125,-0.040975
1680019719277,1199707632410196,0.116325,-0.0526625,-0.0389125
1680019719279,1199707634912580,0.10835,-0.0507375,-0.03795
1680019719283,1199707637414820,0.1062875,-0.045649998,-0.0389125
1680019719285,1199707639916974,0.105325,-0.0407,-0.036849998
1680019719287,1199707642419358,0.100375,-0.03575,-0.036849998
1680019719290,1199707644921512,0.0952875,-0.0306625,-0.0358875
1680019719292,1199707647423743,0.0983125,-0.0306625,-0.03795
1680019719294,1199707649925897,0.0922625,-0.0257125,-0.034925
1680019719297,1199707652428358,0.0873125,-0.0187,-0.036849998
1680019719300,1199707654930512,0.088275,-0.014712499,-0.0339625
1680019719302,1199707657432666,0.0873125,-0.0086624995,-0.0328625
1680019719305,1199707659935042,0.0823625,-0.0067375,-0.029975
1680019719312,1199707662437273,0.0823625,-0.0037125,-0.0358875
1680019719322,1199707664939657,0.078375,-6.875E-4,-0.034925
1680019719322,1199707667441811,0.0763125,0.0042625,-0.029975
1680019719323,1199707669943950,0.0743875,0.006325,-0.0319
1680019719323,1199707672446181,0.077275,0.005225,-0.0328625
1680019719323,1199707674948334,0.0812625,0.0072875,-0.029975
1680019719323,1199707677450719,0.078375,0.0133375,-0.0319
1680019719325,1199707679952950,0.07535,0.0122375,-0.028875
1680019719327,1199707682455335,0.07535,0.0122375,-0.0279125
1680019719330,1199707684957488,0.0743875,0.0122375,-0.02695
1680019719331,1199707687459719,0.0743875,0.0122375,-0.0248875
1680019719335,1199707689961873,0.0793375,0.011275,-0.0248875
1680019719337,1199707692464037,0.078375,0.0072875,-0.02585
1680019719340,1199707694966498,0.0763125,0.005225,-0.0248875
1680019719342,1199707697468883,0.077275,0.0072875,-0.0218625
1680019719345,1199707699971037,0.077275,0.00825,-0.0229625
1680019719347,1199707702473191,0.0793375,0.0103124995,-0.0218625
1680019719350,1199707704975421,0.0793375,0.0023375,-0.0218625
1680019719352,1199707707477575,0.0823625,0.0023375,-0.023924999
1680019719354,1199707709979960,0.0812625,0.0033,-0.0279125
1680019719358,1199707712482191,0.078375,-0.004675,-0.0279125
1680019719361,1199707714984565,0.0793375,-0.0086624995,-0.02585
1680019719363,1199707717486719,0.0823625,-0.01375,-0.0328625
1680019719364,1199707719988873,0.0793375,-0.0207625,-0.034925
1680019719367,1199707722491104,0.083325,-0.026675,-0.0319
1680019719370,1199707724993513,0.0823625,-0.0317625,-0.0328625
1680019719372,1199707727495744,0.0793375,-0.0367125,-0.0358875
1680019719375,1199707729997898,0.0823625,-0.043725,-0.0339625
1680019719378,1199707732500283,0.0853875,-0.049775,-0.036849998
1680019719381,1199707735002432,0.08635,-0.0537625,-0.0419375
1680019719383,1199707737504585,0.0873125,-0.06765,-0.0438625
1680019719384,1199707740007047,0.088275,-0.073699996,-0.0449625
1680019719387,1199707742509201,0.0903375,-0.07865,-0.050875
1680019719389,1199707745011432,0.088275,-0.08965,-0.0559625
1680019719392,1199707747513590,0.0853875,-0.095699996,-0.056925
1680019719396,1199707750015975,0.0873125,-0.0996875,-0.058849998
1680019719398,1199707752518129,0.089375,-0.109725,-0.062975
1680019719400,1199707755020283,0.089375,-0.11275,-0.067925
1680019719402,1199707757522730,0.089375,-0.1197625,-0.073975
1680019719404,1199707760024961,0.091299996,-0.125675,-0.0768625
1680019719407,1199707762527115,0.0903375,-0.1296625,-0.078925
1680019719410,1199707765029269,0.091299996,-0.13475,-0.083875
1680019719412,1199707767531653,0.089375,-0.136675,-0.09185
1680019719415,1199707770033807,0.091299996,-0.1406625,-0.095975
1680019719418,1199707772536269,0.089375,-0.148775,-0.095975
1680019719420,1199707775038423,0.0903375,-0.1527625,-0.1018875
1680019719422,1199707777540653,0.0903375,-0.1577125,-0.1049125
1680019719424,1199707780042797,0.0873125,-0.1607375,-0.1098625
1680019719427,1199707782545182,0.0873125,-0.16665,-0.1128875
1680019719430,1199707785047336,0.08635,-0.16775,-0.117975
1680019719433,1199707787549591,0.0842875,-0.1706375,-0.1219625
1680019719435,1199707790051975,0.0842875,-0.1766875,-0.127875
1680019719437,1199707792554206,0.0853875,-0.17875,-0.1348875
1680019719440,1199707795056360,0.0842875,-0.1797125,-0.1419
1680019719442,1199707797558514,0.083325,-0.1846625,-0.1489125
1680019719445,1199707800060888,0.0814,-0.1857625,-0.1529
1680019719448,1199707802563119,0.0793375,-0.1857625,-0.1538625
1680019719450,1199707805065273,0.077275,-0.1846625,-0.15895
1680019719452,1199707807567657,0.0763125,-0.1837,-0.1639
1680019719454,1199707810069888,0.0763125,-0.1816375,-0.166925
1680019719458,1199707812572037,0.0743875,-0.1827375,-0.16995
1680019719460,1199707815074191,0.0743875,-0.1797125,-0.1749
1680019719462,1199707817576576,0.072325,-0.1766875,-0.1758625
1680019719464,1199707820078806,0.0704,-0.1736625,-0.1769625
1680019719467,1199707822581191,0.0704,-0.1727,-0.1788875
1680019719472,1199707825083345,0.069299996,-0.1736625,-0.183975
1680019719473,1199707827585576,0.0704,-0.1727,-0.1859
1680019719474,1199707830087729,0.066275,-0.1706375,-0.188925
1680019719477,1199707832589888,0.0653125,-0.16665,-0.1879625
1680019719479,1199707835092350,0.067375,-0.16775,-0.1898875
1680019719482,1199707837594734,0.067375,-0.16665,-0.19085
1680019719484,1199707840096888,0.0653125,-0.16775,-0.1898875
1680019719487,1199707842599042,0.06435,-0.164725,-0.1868625
1680019719489,1199707845101273,0.0683375,-0.16775,-0.1898875
1680019719492,1199707847603427,0.067375,-0.1656875,-0.188925
1680019719494,1199707850105888,0.069299996,-0.164725,-0.1879625
1680019719498,1199707852608042,0.0704,-0.1596375,-0.1879625
1680019719500,1199707855110427,0.0704,-0.1607375,-0.1859
1680019719502,1199707857612581,0.0683375,-0.1596375,-0.1868625
1680019719504,1199707860114735,0.072325,-0.1596375,-0.188925
1680019719508,1199707862616965,0.072325,-0.1626625,-0.18493749
1680019719511,1199707865119350,0.07535,-0.158675,-0.18287499
1680019719513,1199707867621581,0.077275,-0.1546875,-0.18287499
1680019719514,1199707870123735,0.077275,-0.1577125,-0.1788875
1680019719517,1199707872626119,0.0814,-0.15675,-0.1819125
1680019719520,1199707875128288,0.0793375,-0.14973749,-0.18095
1680019719522,1199707877630519,0.083325,-0.1467125,-0.1758625
1680019719524,1199707880132903,0.08635,-0.1486375,-0.1758625
1680019719527,1199707882635057,0.089375,-0.14575,-0.1758625
1680019719530,1199707885137292,0.089375,-0.142725,-0.1739375
1680019719532,1199707887639677,0.089375,-0.14575,-0.171875
1680019719534,1199707890141831,0.091299996,-0.14465,-0.16885
1680019719538,1199707892643984,0.0924,-0.14465,-0.1648625
1680019719540,1199707895146190,0.0924,-0.1436875,-0.1648625
1680019719542,1199707897648575,0.0933625,-0.1436875,-0.1599125
1680019719546,1199707900150729,0.0952875,-0.1436875,-0.15785
1680019719548,1199707902652959,0.0963875,-0.1376375,-0.15895
1680019719552,1199707905155349,0.0963875,-0.1406625,-0.1549625
1680019719554,1199707907657503,0.099275,-0.1406625,-0.1538625
1680019719556,1199707910159657,0.1023,-0.1436875,-0.1519375
1680019719558,1199707912662118,0.1034,-0.147675,-0.150975
1680019719560,1199707915164272,0.1034,-0.1507,-0.1489125
1680019719562,1199707917666474,0.1062875,-0.1516625,-0.149875
1680019719565,1199707920168628,0.1043625,-0.15675,-0.150975
1680019719567,1199707922671012,0.105325,-0.15675,-0.150975
1680019719570,1199707925173166,0.1093125,-0.1577125,-0.150975
1680019719572,1199707927675397,0.110275,-0.1626625,-0.150975
1680019719575,1199707930177782,0.111375,-0.1617,-0.150975
1680019719578,1199707932680012,0.110275,-0.1687125,-0.1529
1680019719580,1199707935182166,0.110275,-0.16775,-0.155925
1680019719584,1199707937684325,0.1123375,-0.1706375,-0.1519375
1680019719585,1199707940186710,0.116325,-0.1736625,-0.1529
1680019719587,1199707942688941,0.11935,-0.1766875,-0.1549625
1680019719590,1199707945191325,0.1153625,-0.17765,-0.1549625
1680019719592,1199707947693479,0.1144,-0.1846625,-0.15785
1680019719594,1199707950195729,0.1183875,-0.1907125,-0.160875
1680019719597,1199707952697883,0.1203125,-0.1926375,-0.1639
1680019719600,1199707955200267,0.11935,-0.19965,-0.161975
1680019719602,1199707957702498,0.122375,-0.2017125,-0.1648625
1680019719605,1199707960204652,0.1254,-0.2057,-0.1678875
1680019719607,1199707962707036,0.1282875,-0.208725,-0.1709125
1680019719610,1199707965209267,0.1293875,-0.2096875,-0.1739375
1680019719612,1199707967711421,0.132275,-0.2167,-0.177925
1680019719615,1199707970213585,0.1343375,-0.2176625,-0.18095
1680019719619,1199707972715970,0.1313125,-0.22275,-0.18493749
1680019719622,1199707975218200,0.132275,-0.224675,-0.1879625
1680019719624,1199707977720354,0.1353,-0.2277,-0.19195
1680019719625,1199707980222734,0.1364,-0.2297625,-0.1978625
1680019719627,1199707982724965,0.1364,-0.23567499,-0.199925
1680019719630,1199707985227118,0.1343375,-0.241725,-0.20185
1680019719632,1199707987729272,0.1313125,-0.24365,-0.2039125
1680019719635,1199707990231734,0.133375,-0.2476375,-0.2039125
1680019719637,1199707992733902,0.1293875,-0.2536875,-0.20487499
1680019719640,1199707995236286,0.1343375,-0.2607,-0.20487499
1680019719642,1199707997738440,0.1353,-0.26675,-0.2039125
1680019719645,1199708000240671,0.1313125,-0.274725,-0.205975
1680019719647,1199708002742830,0.1282875,-0.2756875,-0.2079
1680019719650,1199708005245214,0.132275,-0.27775,-0.2099625
1680019719652,1199708007747445,0.1282875,-0.2827,-0.2079
1680019719655,1199708010249599,0.127325,-0.2897125,-0.2088625
1680019719660,1199708012751998,0.1293875,-0.29067498,-0.2079
1680019719662,1199708015254152,0.1313125,-0.2937,-0.2088625
1680019719664,1199708017865305,0.133375,-0.296725,-0.2118875
1680019719665,1199708020258767,0.1293875,-0.29273748,-0.21395
1680019719667,1199708022760921,0.1293875,-0.2897125,-0.21395
1680019719670,1199708025263162,0.133375,-0.2916375,-0.216975
1680019719672,1199708027765546,0.132275,-0.2897125,-0.216975
1680019719675,1199708030267700,0.1364,-0.2866875,-0.2179375
1680019719677,1199708032769854,0.138325,-0.2897125,-0.2198625
1680019719679,1199708035272085,0.1364,-0.28875,-0.2198625
1680019719682,1199708037774474,0.138325,-0.2866875,-0.2209625
1680019719685,1199708040276705,0.1392875,-0.2787125,-0.2189
1680019719688,1199708042778859,0.1403875,-0.274725,-0.2228875
1680019719691,1199708045281239,0.1403875,-0.2677125,-0.22385
1680019719692,1199708047783392,0.14135,-0.2597375,-0.2259125
1680019719696,1199708050285623,0.143275,-0.2506625,-0.2259125
1680019719699,1199708052788008,0.14533749,-0.246675,-0.2259125
1680019719702,1199708055290162,0.149325,-0.2536875,-0.22687499
1680019719703,1199708057792315,0.149325,-0.2536875,-0.22687499
1680019719705,1199708060294546,0.15235,-0.25575,-0.2308625
1680019719707,1199708062796931,0.1513875,-0.2607,-0.2308625
1680019719710,1199708065299162,0.149325,-0.263725,-0.2308625
1680019719712,1199708067801335,0.1502875,-0.2677125,-0.23485
1680019719714,1199708070303720,0.1533125,-0.2677125,-0.238975
1680019719717,1199708072805874,0.1573,-0.2726625,-0.2418625
1680019719720,1199708075308028,0.1623875,-0.2726625,-0.2479125
1680019719722,1199708077810465,0.165275,-0.2696375,-0.24887499
1680019719725,1199708080312696,0.165275,-0.2737625,-0.2519
1680019719727,1199708082814850,0.171325,-0.2787125,-0.25795
1680019719730,1199708085317004,0.171325,-0.279675,-0.2638625
1680019719734,1199708087819407,0.1722875,-0.2806375,-0.26895
1680019719735,1199708090321561,0.1813625,-0.27665,-0.26895
1680019719738,1199708092824023,0.182325,-0.27665,-0.2748625
1680019719740,1199708095326177,0.182325,-0.2817375,-0.2778875
1680019719742,1199708097828407,0.1863125,-0.28875,-0.28187498
1680019719745,1199708100330576,0.19139999,-0.2866875,-0.2849
1680019719748,1199708102832730,0.1973125,-0.29067498,-0.287925
1680019719750,1199708105335115,0.2024,-0.2916375,-0.2968625
1680019719752,1199708107837576,0.204325,-0.29067498,-0.2979625
1680019719755,1199708110339730,0.210375,-0.29273748,-0.304975
1680019719757,1199708112841889,0.21133749,-0.3037375,-0.3059375
1680019719760,1199708115344120,0.2143625,-0.3147375,-0.3089625
1680019719762,1199708117846274,0.2143625,-0.3136375,-0.3179
1680019719765,1199708120348428,0.2162875,-0.3157,-0.32285
1680019719767,1199708122850812,0.215325,-0.3196875,-0.32285
1680019719771,1199708125353274,0.2193125,-0.3196875,-0.32793748
1680019719773,1199708127855428,0.2162875,-0.32175,-0.331925
1680019719775,1199708130357581,0.215325,-0.32175,-0.33385
1680019719778,1199708132859807,0.2123,-0.3246375,-0.337975
1680019719780,1199708135361961,0.2123,-0.3267,-0.336875
1680019719783,1199708137864115,0.210375,-0.3276625,-0.337975
1680019719785,1199708140366576,0.210375,-0.3356375,-0.3389375
1680019719787,1199708142868961,0.2083125,-0.3386625,-0.337975
1680019719790,1199708145371115,0.2063875,-0.34265,-0.3359125
1680019719792,1199708147873269,0.2083125,-0.35365,-0.3389375
1680019719794,1199708150375500,0.2063875,-0.3576375,-0.3359125
1680019719797,1199708152877648,0.2052875,-0.3636875,-0.336875
1680019719800,1199708155380110,0.2063875,-0.3686375,-0.337975
1680019719802,1199708157882264,0.2052875,-0.3746875,-0.3359125
1680019719805,1199708160384648,0.2063875,-0.3817,-0.3359125
1680019719809,1199708162886783,0.2083125,-0.384725,-0.33495
1680019719812,1199708165389014,0.2083125,-0.3917375,-0.337975
1680019719813,1199708167891168,0.21133749,-0.3936625,-0.3389375
1680019719815,1199708170393629,0.210375,-0.39765,-0.3389375
1680019719818,1199708172895783,0.2083125,-0.389675,-0.3389375
1680019719820,1199708175398158,0.2052875,-0.38073748,-0.336875
1680019719822,1199708177900312,0.2083125,-0.3817,-0.337975
1680019719824,1199708180402466,0.210375,-0.3856875,-0.3399
1680019719827,1199708182904696,0.2063875,-0.395725,-0.3419625
1680019719830,1199708185407057,0.2063875,-0.4027375,-0.3408625
1680019719832,1199708187909288,0.2052875,-0.400675,-0.3389375
1680019719835,1199708190411442,0.2003375,-0.3997125,-0.342925
1680019719837,1199708192913826,0.2013,-0.4027375,-0.3399
1680019719840,1199708195415975,0.2052875,-0.406725,-0.336875
1680019719842,1199708197918129,0.2013,-0.4046625,-0.337975
1680019719846,1199708200420360,0.199375,-0.3936625,-0.337975
1680019719849,1199708202922744,0.1953875,-0.384725,-0.3328875
1680019719851,1199708205424990,0.1953875,-0.37867498,-0.32793748
1680019719853,1199708207927144,0.1942875,-0.3746875,-0.3249125
1680019719855,1199708210429529,0.193325,-0.367675,-0.3199625
1680019719858,1199708212931682,0.1903,-0.3617625,-0.3139125
1680019719861,1199708215433836,0.1903,-0.3597,-0.3078625
1680019719862,1199708217936274,0.18933749,-0.3587375,-0.304975
1680019719865,1199708220438505,0.18535,-0.3587375,-0.2979625
1680019719868,1199708222940658,0.1843875,-0.356675,-0.28985
1680019719870,1199708225442812,0.1813625,-0.35365,-0.2849
1680019719872,1199708227945197,0.1804,-0.356675,-0.2778875
1680019719875,1199708230447355,0.1813625,-0.362725,-0.2748625
1680019719877,1199708232949816,0.1813625,-0.3617625,-0.2748625
1680019719880,1199708235451970,0.177375,-0.36465,-0.2729375
1680019719884,1199708237954181,0.182325,-0.3636875,-0.271975
1680019719885,1199708240456335,0.182325,-0.362725,-0.2729375
1680019719887,1199708242958489,0.1843875,-0.3617625,-0.270875
1680019719890,1199708245460873,0.18727499,-0.3636875,-0.2729375
1680019719892,1199708247963104,0.18933749,-0.36574998,-0.2739
1680019719895,1199708250465523,0.18933749,-0.36574998,-0.2748625
1680019719899,1199708252967677,0.1942875,-0.36574998,-0.27995
1680019719901,1199708255469907,0.199375,-0.3716625,-0.2858625
1680019719903,1199708257972061,0.2013,-0.3697375,-0.287925
1680019719905,1199708260474451,0.2063875,-0.3686375,-0.2919125
1680019719907,1199708262976605,0.2143625,-0.3746875,-0.2949375
1680019719910,1199708265478835,0.2233,-0.37867498,-0.30085
1680019719912,1199708267981220,0.2272875,-0.3697375,-0.3059375
1680019719915,1199708270483431,0.232375,-0.3606625,-0.3108875
1680019719918,1199708272985585,0.2413125,-0.356675,-0.3169375
1680019719923,1199708275487739,0.248325,-0.3507625,-0.3199625
1680019719924,1199708277990123,0.248325,-0.3597,-0.3199625
1680019719926,1199708280492359,0.2503875,-0.362725,-0.3218875
1680019719928,1199708282994744,0.2473625,-0.362725,-0.3218875
1680019719930,1199708285496897,0.24035,-0.35365,-0.3169375
1680019719934,1199708287999128,0.2363625,-0.351725,-0.309925
1680019719938,1199708290501282,0.2382875,-0.3507625,-0.3059375
1680019719939,1199708293003412,0.237325,-0.3487,-0.303875
1680019719941,1199708295505873,0.2352625,-0.3487,-0.298925
1680019719943,1199708298008027,0.232375,-0.346775,-0.28985
1680019719945,1199708300510412,0.2272875,-0.34265,-0.28187498
1680019719948,1199708303012566,0.2242625,-0.34265,-0.270875
1680019719950,1199708305514792,0.2223375,-0.3477375,-0.2619375
1680019719952,1199708308016945,0.221375,-0.3496625,-0.2638625
1680019719955,1199708310519330,0.220275,-0.356675,-0.2619375
1680019719959,1199708313021561,0.220275,-0.368775,-0.2619375
1680019719961,1199708315523715,0.220275,-0.3777125,-0.271975
1680019719963,1199708318026099,0.2193125,-0.389675,-0.2809125
1680019719965,1199708320528253,0.2193125,-0.39765,-0.2869625
1680019719967,1199708323030484,0.2193125,-0.401775,-0.292875
1680019719970,1199708325532854,0.2173875,-0.4076875,-0.2979625
1680019719972,1199708328035085,0.2162875,-0.4076875,-0.2998875
1680019719975,1199708330537239,0.2143625,-0.411675,-0.303875
1680019719978,1199708333039393,0.2143625,-0.4167625,-0.3078625
1680019719981,1199708335541782,0.2143625,-0.4147,-0.31295
1680019719982,1199708338044012,0.2123,-0.4156625,-0.3179
1680019719985,1199708340546166,0.210375,-0.4137375,-0.32285
1680019719987,1199708343048551,0.2123,-0.40974998,-0.32793748
1680019719991,1199708345550792,0.20927499,-0.4057625,-0.33495
1680019719992,1199708348052945,0.2063875,-0.4046625,-0.3399
1680019719996,1199708350555330,0.2013,-0.39875,-0.342925
1680019719999,1199708353057484,0.2022625,-0.3966875,-0.347875
1680019720001,1199708355559734,0.2033625,-0.3936625,-0.3518625
1680019720003,1199708358062118,0.2003375,-0.3936625,-0.35694999
1680019720005,1199708360564272,0.198275,-0.3887125,-0.359975
1680019720007,1199708363066503,0.198275,-0.3856875,-0.3609375
1680019720010,1199708365568888,0.199375,-0.37867498,-0.358875
1680019720012,1199708368071031,0.193325,-0.37675,-0.3609375
1680019720015,1199708370573185,0.1923625,-0.37565,-0.35694999
1680019720018,1199708373075647,0.1903,-0.3716625,-0.3579125
1680019720021,1199708375577801,0.188375,-0.36574998,-0.3579125
1680019720022,1199708378079941,0.18727499,-0.3597,-0.3548875
1680019720025,1199708380582171,0.1903,-0.3597,-0.353925
1680019720027,1199708383084556,0.18535,-0.357775,-0.3529625
1680019720030,1199708385586710,0.1843875,-0.3507625,-0.3509
1680019720034,1199708388088970,0.18535,-0.345675,-0.348975
1680019720035,1199708390591354,0.18535,-0.340725,-0.3469125
1680019720038,1199708393093508,0.1783375,-0.33275,-0.342925
1680019720040,1199708395595739,0.176275,-0.329725,-0.3419625
1680019720043,1199708398097893,0.176275,-0.329725,-0.3399
1680019720045,1199708400600282,0.1753125,-0.33467498,-0.337975
1680019720047,1199708403102513,0.1753125,-0.33673748,-0.33495
1680019720051,1199708405604667,0.1722875,-0.33275,-0.33385
1680019720052,1199708408107052,0.1692625,-0.33165,-0.3328875
1680019720055,1199708410609205,0.165275,-0.3267,-0.33495
1680019720058,1199708413111445,0.165275,-0.3287625,-0.33385
1680019720061,1199708415613599,0.1612875,-0.33165,-0.33385
1680019720063,1199708418115984,0.1643125,-0.3276625,-0.3328875
1680019720065,1199708420618214,0.165275,-0.3257375,-0.331925
1680019720067,1199708423120585,0.1623875,-0.3227125,-0.3328875
1680019720072,1199708425622739,0.1612875,-0.318725,-0.32793748
1680019720074,1199708428124893,0.165275,-0.3177625,-0.32793748
1680019720075,1199708430627124,0.165275,-0.313775,-0.331925
1680019720078,1199708433129272,0.1683,-0.3177625,-0.3328875
1680019720081,1199708435631734,0.1683,-0.3157,-0.3309625
1680019720082,1199708438133888,0.1683,-0.312675,-0.3309625
1680019720085,1199708440636272,0.1692625,-0.312675,-0.32793748
1680019720087,1199708443138426,0.1703625,-0.3157,-0.32793748
1680019720090,1199708445640580,0.171325,-0.318725,-0.326975
1680019720092,1199708448142811,0.171325,-0.318725,-0.32587498
1680019720095,1199708450645195,0.171325,-0.32175,-0.3298625
1680019720098,1199708453147440,0.17435,-0.32175,-0.32793748
1680019720101,1199708455649594,0.17435,-0.3196875,-0.3309625
1680019720103,1199708458151748,0.1722875,-0.318725,-0.3328875
1680019720105,1199708460654210,0.1733875,-0.3166625,-0.32793748
1680019720109,1199708463156594,0.1582625,-0.31075,-0.30085
1680019720112,1199708465658748,0.1472625,-0.29975,-0.25795
1680019720114,1199708468160902,0.138325,-0.29865,-0.2259125
1680019720115,1199708470663133,0.1392875,-0.302775,-0.2099625
1680019720118,1199708473165286,0.1392875,-0.307725,-0.19085
1680019720120,1199708475667753,0.1403875,-0.313775,-0.1758625
1680019720122,1199708478169907,0.14135,-0.3196875,-0.1739375
1680019720125,1199708480672291,0.143275,-0.3166625,-0.172975
1680019720128,1199708483174445,0.14533749,-0.340725,-0.1819125
1680019720130,1199708485676671,0.1483625,-0.36465,-0.19195
1680019720133,1199708488178825,0.1533125,-0.379775,-0.205975
1680019720135,1199708490680979,0.1513875,-0.39875,-0.2149125
1680019720139,1199708493183440,0.14533749,-0.4137375,-0.2179375
1680019720142,1199708495685825,0.1392875,-0.42267498,-0.2189
1680019720143,1199708498187979,0.1373625,-0.4257,-0.221925
1680019720147,1199708500690133,0.1362625,-0.43175,-0.2209625
1680019720150,1199708503192363,0.14135,-0.439725,-0.22495
1680019720152,1199708505785210,0.14135,-0.444675,-0.23595
1680019720154,1199708508196902,0.1423125,-0.4547125,-0.24887499
1680019720156,1199708510699133,0.144375,-0.4596625,-0.260975
1680019720158,1199708513201287,0.1483625,-0.4607625,-0.2638625
1680019720160,1199708515703671,0.144375,-0.46475,-0.2729375
1680019720163,1199708518205830,0.143275,-0.46667498,-0.2858625
1680019720165,1199708520708061,0.143275,-0.467775,-0.2968625
1680019720167,1199708523210445,0.1472625,-0.4697,-0.3078625
1680019720170,1199708525712599,0.1502875,-0.4626875,-0.314875
1680019720172,1199708528214820,0.1472625,-0.4596625,-0.3199625
1680019720175,1199708530717205,0.14533749,-0.450725,-0.32395
1680019720179,1199708533219359,0.1513875,-0.4437125,-0.32587498
1680019720181,1199708535721512,0.1513875,-0.4327125,-0.3309625
1680019720184,1199708538223994,0.1502875,-0.42473748,-0.3309625
1680019720186,1199708540726148,0.149325,-0.4137375,-0.331925
1680019720189,1199708543228379,0.15235,-0.412775,-0.33495
1680019720191,1199708545730532,0.154275,-0.411675,-0.3328875
1680019720193,1199708548232917,0.149325,-0.411675,-0.3328875
1680019720195,1199708550735071,0.1533125,-0.40865,-0.3328875
1680019720198,1199708553237532,0.15235,-0.4076875,-0.32793748
1680019720200,1199708555739686,0.1502875,-0.40974998,-0.326975
1680019720203,1199708558241840,0.154275,-0.40865,-0.3218875
1680019720205,1199708560744071,0.1513875,-0.4076875,-0.320925
1680019720208,1199708563246225,0.1502875,-0.3966875,-0.315975
1680019720211,1199708565748609,0.15235,-0.389675,-0.314875
1680019720213,1199708568250763,0.1513875,-0.3887125,-0.309925
1680019720215,1199708570753210,0.1502875,-0.3887125,-0.303875
1680019720219,1199708573255364,0.149325,-0.3837625,-0.30195
1680019720222,1199708575757517,0.1502875,-0.37565,-0.298925
1680019720224,1199708578259748,0.149325,-0.37565,-0.292875
1680019720226,1199708580762139,0.1472625,-0.3746875,-0.287925
1680019720228,1199708583264293,0.14533749,-0.3746875,-0.2858625
1680019720230,1199708585766524,0.1472625,-0.37565,-0.282975
1680019720233,1199708588268908,0.1483625,-0.37565,-0.282975
1680019720235,1199708590771139,0.1513875,-0.37565,-0.28393748
1680019720238,1199708593273211,0.1513875,-0.37867498,-0.28187498
1680019720240,1199708595775442,0.1502875,-0.379775,-0.27995
1680019720243,1199708598277826,0.15235,-0.37675,-0.2778875
1680019720246,1199708600780057,0.1533125,-0.3746875,-0.27995
1680019720248,1199708603282211,0.1533125,-0.3777125,-0.2809125
1680019720251,1199708605784595,0.15235,-0.373725,-0.2849
1680019720253,1199708608286749,0.1533125,-0.3727625,-0.282975
1680019720255,1199708610788980,0.154275,-0.36574998,-0.28187498
1680019720260,1199708613291148,0.1563375,-0.3507625,-0.2778875
1680019720263,1199708615793609,0.1593625,-0.3386625,-0.2778875
1680019720265,1199708618383763,0.160325,-0.340725,-0.2809125
1680019720266,1199708620797917,0.1593625,-0.345675,-0.28187498
1680019720269,1199708623300302,0.1623875,-0.3477375,-0.282975
1680019720271,1199708625802514,0.1612875,-0.3496625,-0.2809125
1680019720273,1199708628304667,0.1612875,-0.3526875,-0.28187498
1680019720275,1199708630807052,0.1643125,-0.356675,-0.28393748
1680019720278,1199708633309283,0.165275,-0.356675,-0.282975
1680019720280,1199708635811437,0.1612875,-0.3526875,-0.2858625
1680019720283,1199708638313835,0.166375,-0.3477375,-0.2849
1680019720285,1199708640815989,0.1692625,-0.3477375,-0.28187498
1680019720289,1199708643318220,0.1692625,-0.3496625,-0.2849
1680019720290,1199708645820374,0.171325,-0.35365,-0.2849
1680019720293,1199708648322831,0.171325,-0.3557125,-0.2858625
1680019720297,1199708650824985,0.1722875,-0.351725,-0.2849
1680019720300,1199708653327139,0.1733875,-0.3337125,-0.28393748
1680019720302,1199708655829524,0.1573,-0.3056625,-0.249975
1680019720304,1199708658331744,0.144375,-0.3056625,-0.194975
1680019720305,1199708660833898,0.1392875,-0.3067625,-0.150975
1680019720308,1199708663336283,0.1343375,-0.3056625,-0.1189375
1680019720311,1199708665838514,0.1392875,-0.3056625,-0.094875
1680019720313,1199708668340668,0.1513875,-0.3147375,-0.0889625
1680019720315,1199708670842816,0.160325,-0.329725,-0.084975
1680019720318,1199708673345201,0.165275,-0.3496625,-0.0878625
1680019720320,1199708675847432,0.1643125,-0.373725,-0.0908875
1680019720323,1199708678349816,0.1612875,-0.3927,-0.094875
1680019720325,1199708680851965,0.1582625,-0.406725,-0.1018875
1680019720328,1199708683354196,0.155375,-0.4156625,-0.106975
1680019720330,1199708685856350,0.1513875,-0.4266625,-0.108899996
1680019720334,1199708688358504,0.155375,-0.4467375,-0.1098625
1680019720336,1199708690860879,0.1563375,-0.46475,-0.1238875
1680019720339,1199708693363341,0.155375,-0.47575,-0.1318625
1680019720341,1199708695865495,0.155375,-0.483725,-0.133925
1680019720343,1199708698367649,0.1533125,-0.49665,-0.13585
1680019720345,1199708700869879,0.1563375,-0.5027,-0.139975
1680019720348,1199708703372057,0.1582625,-0.5157625,-0.1538625
1680019720350,1199708705874442,0.1573,-0.52965,-0.166925
1680019720353,1199708708376596,0.1582625,-0.544775,-0.177925
1680019720356,1199708710879057,0.160325,-0.5537125,-0.19085
1680019720358,1199708713381191,0.1593625,-0.554675,-0.2039125
1680019720360,1199708715883422,0.165275,-0.5537125,-0.2179375
1680019720363,1199708718385576,0.1623875,-0.5586625,-0.22687499
1680019720365,1199708720887730,0.1683,-0.5537125,-0.2369125
1680019720368,1199708723390110,0.1722875,-0.5487625,-0.243925
1680019720372,1199708725892341,0.17435,-0.5537125,-0.254925
1680019720374,1199708728394726,0.1733875,-0.5467,-0.26895
1680019720376,1199708730896879,0.177375,-0.5357,-0.2699125
1680019720379,1199708733399100,0.176275,-0.5377625,-0.2778875
1680019720381,1199708735901254,0.1733875,-0.53075,-0.282975
1680019720383,1199708738403639,0.171325,-0.5207125,-0.2858625
1680019720385,1199708740905869,0.1683,-0.5137,-0.2869625
1680019720388,1199708743408254,0.166375,-0.5127375,-0.29095
1680019720391,1199708745910418,0.1612875,-0.50875,-0.29095
1680019720393,1199708748412572,0.1573,-0.5066875,-0.29095
1680019720395,1199708750914803,0.154275,-0.49665,-0.292875
1680019720398,1199708753416956,0.1502875,-0.4846875,-0.293975
1680019720400,1199708755919418,0.149325,-0.4797375,-0.298925
1680019720403,1199708758421572,0.1483625,-0.467775,-0.303875
1680019720405,1199708760923956,0.143275,-0.4547125,-0.3089625
1680019720409,1199708763426119,0.1392875,-0.44275,-0.304975
1680019720412,1199708765928273,0.1373625,-0.439725,-0.3029125
1680019720414,1199708768430504,0.133375,-0.4327125,-0.30085
1680019720415,1199708770932965,0.1252625,-0.4257,-0.2968625
1680019720418,1199708773435119,0.121275,-0.423775,-0.2968625
1680019720421,1199708775937273,0.1183875,-0.417725,-0.2979625
1680019720423,1199708778439658,0.11935,-0.4137375,-0.304975
1680019720426,1199708780941812,0.122375,-0.4137375,-0.315975
1680019720428,1199708783443966,0.1233375,-0.4147,-0.32587498
1680019720431,1199708785946201,0.116325,-0.406725,-0.33385
1680019720433,1199708788448663,0.110275,-0.3997125,-0.336875
1680019720435,1199708790950817,0.1062875,-0.39875,-0.336875
1680019720438,1199708793452971,0.10835,-0.384725,-0.336875
1680019720441,1199708795955364,0.100375,-0.3727625,-0.331925
1680019720443,1199708798457595,0.099275,-0.367675,-0.32587498
1680019720447,1199708800959749,0.0963875,-0.3557125,-0.3218875
1680019720450,1199708803462133,0.0933625,-0.345675,-0.3169375
1680019720452,1199708805964369,0.0933625,-0.3447125,-0.315975
1680019720454,1199708808466523,0.0952875,-0.34375,-0.314875
1680019720456,1199708810968908,0.0933625,-0.3356375,-0.3108875
1680019720460,1199708813471062,0.0933625,-0.33467498,-0.3139125
1680019720462,1199708815973292,0.091299996,-0.3306875,-0.3139125
1680019720463,1199708818475672,0.089375,-0.32175,-0.31295
1680019720466,1199708820977903,0.091299996,-0.32175,-0.31295
1680019720469,1199708823480057,0.091299996,-0.3157,-0.3059375
1680019720471,1199708825982210,0.0924,-0.3147375,-0.3059375
1680019720473,1199708828484609,0.089375,-0.3166625,-0.303875
1680019720475,1199708830986763,0.091299996,-0.3227125,-0.2968625
1680019720479,1199708833489224,0.091299996,-0.32175,-0.2949375
1680019720481,1199708835991378,0.0924,-0.3257375,-0.292875
1680019720484,1199708838493614,0.0924,-0.33165,-0.29095
1680019720486,1199708840995768,0.0933625,-0.33467498,-0.29095
1680019720489,1199708843498153,0.0924,-0.3306875,-0.2919125
1680019720491,1199708846000306,0.0924,-0.3306875,-0.2869625
1680019720493,1199708848502537,0.0952875,-0.33165,-0.28985
1680019720496,1199708851004695,0.0963875,-0.3337125,-0.2979625
1680019720500,1199708853507080,0.100375,-0.3416875,-0.3078625
1680019720502,1199708856009233,0.1043625,-0.3466375,-0.3179
1680019720504,1199708858511695,0.1034,-0.34375,-0.3199625
1680019720506,1199708861013869,0.1013375,-0.3447125,-0.3169375
1680019720509,1199708863516100,0.0963875,-0.3487,-0.309925
1680019720511,1199708866018253,0.0963875,-0.3477375,-0.30195
1680019720513,1199708868520638,0.099275,-0.3416875,-0.30085
1680019720516,1199708871022772,0.099275,-0.340725,-0.2979625
1680019720518,1199708873524926,0.0983125,-0.34375,-0.293975
1680019720522,1199708876027387,0.0963875,-0.3466375,-0.2888875
1680019720525,1199708878529618,0.0952875,-0.3466375,-0.28187498
1680019720526,1199708881031782,0.100375,-0.362725,-0.2748625
1680019720529,1199708883533936,0.100375,-0.37565,-0.28187498
1680019720532,1199708886036320,0.1062875,-0.3796375,-0.28393748
1680019720533,1199708888538474,0.111375,-0.3887125,-0.2869625
1680019720536,1199708891040950,0.110275,-0.39765,-0.28985
1680019720539,1199708893543104,0.1073875,-0.4027375,-0.287925
1680019720541,1199708896045334,0.1073875,-0.4016375,-0.2869625
1680019720543,1199708898547488,0.10835,-0.400675,-0.2849
1680019720546,1199708901049642,0.110275,-0.3997125,-0.28187498
1680019720549,1199708903552037,0.111375,-0.406725,-0.2739
1680019720551,1199708906054498,0.1123375,-0.4107125,-0.26785
1680019720553,1199708908556652,0.1172875,-0.4107125,-0.271975
1680019720555,1199708911058806,0.1203125,-0.4156625,-0.2759625
1680019720566,1199708913561032,0.11935,-0.4236375,-0.2748625
1680019720576,1199708916063186,0.121275,-0.4346375,-0.2778875
1680019720576,1199708918565340,0.122375,-0.4437125,-0.2849
1680019720577,1199708921067801,0.122375,-0.4467375,-0.2849
1680019720577,1199708923570186,0.1233375,-0.4486625,-0.282975
1680019720577,1199708926072340,0.121275,-0.4547125,-0.2858625
1680019720577,1199708928574493,0.1233375,-0.45168748,-0.29095
1680019720577,1199708931076724,0.1263625,-0.45265,-0.30085
1680019720579,1199708933579109,0.1313125,-0.45265,-0.3078625
1680019720581,1199708936081263,0.1353,-0.4607625,-0.3139125
1680019720583,1199708938583479,0.132275,-0.4577375,-0.3188625
1680019720585,1199708941085864,0.127325,-0.4477,-0.320925
1680019720589,1199708943588018,0.132275,-0.4357375,-0.3218875
1680019720590,1199708946090172,0.133375,-0.43065,-0.320925
1680019720593,1199708948592417,0.133375,-0.4217125,-0.3199625
1680019720597,1199708951094570,0.133375,-0.4167625,-0.3199625
1680019720599,1199708953597032,0.133375,-0.417725,-0.3179
1680019720601,1199708956099172,0.132275,-0.4156625,-0.3199625
1680019720603,1199708958601556,0.132275,-0.4167625,-0.3188625
1680019720605,1199708961103710,0.1263625,-0.41965,-0.3179
1680019720609,1199708963605941,0.1263625,-0.4156625,-0.3169375
1680019720611,1199708966108095,0.1263625,-0.4167625,-0.3139125
1680019720613,1199708968610536,0.1243,-0.411675,-0.3108875
1680019720616,1199708971112690,0.122375,-0.406725,-0.3108875
1680019720618,1199708973615075,0.1233375,-0.3997125,-0.309925
1680019720621,1199708976117229,0.1172875,-0.3947625,-0.3078625
1680019720623,1199708978619460,0.1183875,-0.3936625,-0.303875
1680019720625,1199708981121613,0.1153625,-0.3966875,-0.3029125
1680019720629,1199708983624075,0.10835,-0.3917375,-0.30195
1680019720631,1199708986126229,0.105325,-0.3906375,-0.2998875
1680019720635,1199708988628383,0.1062875,-0.395725,-0.30085
1680019720636,1199708991130767,0.105325,-0.3936625,-0.298925
1680019720639,1199708993632921,0.1023,-0.389675,-0.2968625
1680019720641,1199708996135152,0.0983125,-0.3826625,-0.292875
1680019720643,1199708998637536,0.0983125,-0.3727625,-0.29095
1680019720646,1199709001139754,0.0952875,-0.367675,-0.2869625
1680019720648,1199709003641908,0.0853875,-0.3557125,-0.271975
1680019720651,1199709006144062,0.067375,-0.34265,-0.232925
1680019720653,1199709008646447,0.056375,-0.3447125,-0.1978625
1680019720657,1199709011148695,0.055275,-0.35365,-0.1749
1680019720659,1199709013650849,0.0603625,-0.3617625,-0.1639
1680019720662,1199709016153234,0.0594,-0.3686375,-0.150975
1680019720664,1199709018655465,0.0594,-0.3817,-0.14093749
1680019720665,1199709021157618,0.0603625,-0.39875,-0.139975
1680019720669,1199709023659772,0.0603625,-0.40974998,-0.1379125
1680019720672,1199709026162157,0.0594,-0.4236375,-0.14093749
1680019720674,1199709028664388,0.0573375,-0.43175,-0.1428625
1680019720676,1199709031166772,0.0523875,-0.4346375,-0.1419
1680019720678,1199709033668926,0.0512875,-0.4467375,-0.14093749
1680019720680,1199709036171143,0.0523875,-0.4587,-0.1428625
1680019720683,1199709038673297,0.05335,-0.46475,-0.144925
1680019720686,1199709041175681,0.0493625,-0.472725,-0.144925
1680019720689,1199709043677835,0.045375,-0.4827625,-0.1379125
1680019720691,1199709046180297,0.045375,-0.4937625,-0.1309
1680019720693,1199709048682451,0.0493625,-0.4987125,-0.1318625
1680019720696,1199709051184681,0.050325,-0.505725,-0.1318625
1680019720699,1199709053686835,0.045375,-0.5137,-0.1318625
1680019720701,1199709056189224,0.04235,-0.516725,-0.1379125
1680019720703,1199709058691378,0.0433125,-0.5226375,-0.14795
1680019720705,1199709061193609,0.0374,-0.5226375,-0.144925
1680019720711,1199709063695966,0.0363,-0.521675,-0.1379125
1680019720712,1199709066198120,0.033275,-0.5237375,-0.1348875
1680019720714,1199709068700351,0.0353375,-0.51865,-0.1329625
1680019720716,1199709071202505,0.034375,-0.5116375,-0.1309
1680019720718,1199709073704889,0.0323125,-0.5027,-0.1269125
1680019720721,1199709076207091,0.0292875,-0.5027,-0.1208625
1680019720723,1199709078709476,0.0292875,-0.5066875,-0.1159125
1680019720726,1199709081211630,0.0264,-0.4987125,-0.105875
1680019720729,1199709083713783,0.028324999,-0.4926625,-0.10285
1680019720731,1199709086215999,0.028324999,-0.483725,-0.0979
1680019720733,1199709088718384,0.0213125,-0.4846875,-0.086899996
1680019720736,1199709091220538,0.0213125,-0.488675,-0.0759
1680019720739,1199709093722768,0.02035,-0.4807,-0.07095
1680019720741,1199709096225153,0.017324999,-0.47575,-0.0609125
1680019720743,1199709098727292,0.0154,-0.477675,-0.0529375
1680019720747,1199709101229446,0.0133375,-0.4786375,-0.050875
1680019720751,1199709103731677,0.017324999,-0.4717625,-0.0449625
1680019720752,1199709106234066,0.0163625,-0.46475,-0.036849998
1680019720754,1199709108736297,0.0154,-0.4607625,-0.02695
1680019720756,1199709111238451,0.017324999,-0.4547125,-0.0229625
1680019720759,1199709113740835,0.017324999,-0.44275,-0.017875
1680019720761,1199709116242989,0.0154,-0.4376625,-0.012925
1680019720763,1199709118745196,0.0154,-0.43175,-0.007975
1680019720766,1199709121247350,0.0193875,-0.4277625,-0.001925
1680019720769,1199709123749811,0.0193875,-0.43065,0.0011
1680019720771,1199709126251965,0.017324999,-0.4277625,0.0050875
1680019720773,1199709128754128,0.0193875,-0.42473748,0.009075
1680019720777,1199709131256513,0.0182875,-0.4217125,0.015125
1680019720779,1199709133758744,0.0182875,-0.4186875,0.020075
1680019720781,1199709136260897,0.017324999,-0.4167625,0.0231
1680019720784,1199709138763287,0.0193875,-0.4156625,0.0221375
1680019720786,1199709141265518,0.0213125,-0.40974998,0.0240625
1680019720789,1199709143767902,0.02035,-0.4057625,0.0240625
1680019720791,1199709146270056,0.023375,-0.39765,0.0160875
1680019720793,1199709148772210,0.023375,-0.3777125,0.0100375
1680019720796,1199709151274436,0.0253,-0.362725,0.0011
1680019720800,1199709153776590,0.0213125,-0.3507625,-0.0028875
1680019720801,1199709156278974,0.02035,-0.33673748,-0.0089375
1680019720803,1199709158781205,0.0243375,-0.3257375,-0.0099
1680019720806,1199709161283600,0.022275,-0.3136375,-0.0119624995
1680019720809,1199709163785754,0.022275,-0.296725,-0.01595
1680019720811,1199709166287907,0.0253,-0.285725,-0.0099
1680019720813,1199709168790138,0.0264,-0.274725,-0.007975
1680019720816,1199709171292523,0.0292875,-0.2586375,-0.0059125
1680019720819,1199709173794754,0.0273625,-0.2457125,-0.00495
1680019720823,1199709176296907,0.03135,-0.2347125,-0.0099
1680019720824,1199709178799292,0.033275,-0.2286625,-0.0209
1680019720826,1199709181301446,0.0374,-0.2187625,-0.0279125
1680019720829,1199709183803672,0.0363,-0.2017125,-0.034925
1680019720831,1199709186306056,0.0374,-0.19167499,-0.034925
1680019720833,1199709188808287,0.0374,-0.175725,-0.0358875
1680019720836,1199709191310441,0.0374,-0.1596375,-0.0389125
1680019720841,1199709193812811,0.0363,-0.14465,-0.03795
1680019720842,1199709196314964,0.039325,-0.1326875,-0.036849998
1680019720844,1199709198817118,0.0413875,-0.1247125,-0.0339625
1680019720846,1199709201319580,0.04235,-0.1076625,-0.0328625
1680019720850,1199709203821826,0.045375,-0.0966625,-0.0328625
1680019720851,1199709206323979,0.0463375,-0.092675,-0.029975
1680019720854,1199709208826133,0.0512875,-0.0837375,-0.02585
1680019720857,1199709211328518,0.0523875,-0.076725,-0.02585
1680019720861,1199709213830672,0.0543125,-0.06875,-0.0218625
1680019720862,1199709216332903,0.0543125,-0.0617375,-0.0218625
1680019720864,1199709218835287,0.0594,-0.0526625,-0.0199375
1680019720866,1199709221337518,0.061325,-0.048675,-0.018975
1680019720869,1199709223839672,0.0603625,-0.045649998,-0.0169125
1680019720871,1199709226341816,0.067375,-0.034649998,-0.0108624995
1680019720873,1199709228844200,0.072325,-0.0276375,-0.0099
1680019720876,1199709231346354,0.0732875,-0.0207625,-0.0099
1680019720879,1199709233848585,0.077275,-0.01265,-0.00385
1680019720881,1199709236350985,0.0793375,-0.0056375,-0.001925
1680019720884,1199709238853138,0.0814,-0.0086624995,0.003025
1680019720886,1199709241355369,0.0823625,-0.0116875,0.004125
1680019720889,1199709243857754,0.088275,-0.014712499,0.003025
1680019720891,1199709246360004,0.088275,-0.01265,0.00715
1680019720893,1199709248862157,0.091299996,-0.0097624995,0.0100375
1680019720898,1199709251364542,0.0963875,-0.0056375,0.0081124995
1680019720901,1199709253866696,0.099275,-0.004675,0.0081124995
1680019720902,1199709256368951,0.1023,-0.0056375,0.015125
1680019720904,1199709258871335,0.1023,-0.0067375,0.020075
1680019720906,1199709261373489,0.1034,0.0012375,0.01705
1680019720909,1199709263875720,0.1093125,0.0122375,0.0160875
1680019720911,1199709266377874,0.1093125,0.0072875,0.020075
1680019720914,1199709268880273,0.111375,0.0012375,0.0210375
1680019720916,1199709271382427,0.1123375,0.0023375,0.0221375
1680019720920,1199709273884889,0.116325,-0.00275,0.025024999
1680019720922,1199709276387043,0.116325,-0.0056375,0.0240625
1680019720925,1199709278889259,0.1153625,-0.004675,0.025024999
1680019720926,1199709281391413,0.111375,-0.00275,0.0240625
1680019720930,1199709283893798,0.116325,-0.00275,0.0240625
1680019720931,1199709286395952,0.1123375,-0.00165,0.0240625
1680019720935,1199709288898206,0.110275,-0.00275,0.0231
1680019720937,1199709291400591,0.1123375,-0.0067375,0.0221375
1680019720940,1199709293902822,0.1172875,-0.004675,0.0221375
1680019720942,1199709296404976,0.1153625,2.75E-4,0.0210375
1680019720943,1199709298907130,0.1153625,-0.00165,0.0210375
1680019720947,1199709301409499,0.1153625,-0.00165,0.020075
1680019720949,1199709303911730,0.1172875,-6.875E-4,0.020075
1680019720951,1199709306413884,0.116325,-6.875E-4,0.0191125
1680019720954,1199709308916268,0.1153625,-0.00165,0.0210375
1680019720956,1199709311418499,0.1153625,-0.00165,0.015125
1680019720959,1199709313920663,0.1142625,-0.00165,0.013062499
1680019720961,1199709316422817,0.110275,-0.00165,0.01705
1680019720963,1199709318925202,0.10835,-0.00165,0.0160875
1680019720966,1199709321427663,0.1093125,2.75E-4,0.0191125
1680019720970,1199709323929817,0.1142625,-6.875E-4,0.0160875
1680019720972,1199709326431971,0.110275,-0.0077,0.01705
1680019720974,1199709328934202,0.1062875,-0.0067375,0.01705
1680019720977,1199709331436340,0.1043625,-0.004675,0.01705
1680019720980,1199709333938494,0.1032625,-0.005775,0.020075
1680019720981,1199709336440956,0.1023,-0.00275,0.0191125
1680019720983,1199709338943340,0.099275,-0.005775,0.014025
1680019720986,1199709341445494,0.0963875,-0.0037125,0.013062499
1680019720989,1199709343947648,0.094325,-0.00165,0.009075
1680019720991,1199709346449879,0.0952875,0.0033,0.0081124995
1680019720993,1199709348952033,0.0933625,-6.875E-4,0.0050875
1680019720996,1199709351454494,0.0922625,0.0012375,0.003025
1680019720999,1199709353956653,0.0903375,0.0012375,-9.625E-4
1680019721001,1199709356459038,0.0922625,2.75E-4,-0.00495
1680019721003,1199709358961192,0.0903375,0.0012375,-0.0059125
1680019721006,1199709361463422,0.0853875,2.75E-4,-0.0089375
1680019721011,1199709363965581,0.089375,-0.0067375,-0.0119624995
1680019721012,1199709366468043,0.0903375,-0.0196625,-0.0218625
1680019721014,1199709368970197,0.0793375,-0.0297,-0.028875
1680019721017,1199709371472581,0.0702625,-0.0336875,-0.0339625
1680019721020,1199709373974735,0.0543125,-0.026675,-0.0248875
1680019721022,1199709376476889,0.0353375,-0.00165,0.00715
1680019721024,1199709378979120,0.0213125,0.015262499,0.0460625
1680019721026,1199709381481504,0.0213125,0.0103124995,0.07205
1680019721029,1199709383983735,0.0253,0.011275,0.0820875
1680019721031,1199709386485889,0.0213125,0.005225,0.09515
1680019721034,1199709388988278,0.012375,-6.875E-4,0.100099996
1680019721036,1199709391490432,0.0133375,-0.014712499,0.103125
1680019721039,1199709393992662,0.02035,-0.0287375,0.097075
1680019721041,1199709396494816,0.015262499,-0.0446875,0.09405
1680019721044,1199709398997293,0.00935,-0.0587125,0.0930875
1680019721048,1199709401499447,0.0053625,-0.065725,0.09515
1680019721051,1199709404001600,0.0023375,-0.0757625,0.0961125
1680019721052,1199709406504003,-0.0037125,-0.07975,0.091025
1680019721054,1199709409006234,-0.004675,-0.08965,0.086075
1680019721057,1199709411508388,2.75E-4,-0.0977625,0.0790625
1680019721060,1199709414010772,0.0023375,-0.10065,0.07205
1680019721061,1199709416513003,0.0023375,-0.1027125,0.061049998
1680019721063,1199709419015147,2.75E-4,-0.1076625,0.048125
1680019721066,1199709421517301,0.0033,-0.1027125,0.04015
1680019721069,1199709424019685,0.001375,-0.0947375,0.0231
1680019721071,1199709426521916,0.001375,-0.08965,0.0111375
1680019721073,1199709429024301,-0.0037125,-0.07975,0.0011
1680019721076,1199709431526442,-0.0067375,-0.0647625,-0.0028875
1680019721079,1199709434028672,-0.009625,-0.0537625,-0.00385
1680019721081,1199709436531057,-0.01265,-0.038775,-0.006875
1680019721085,1199709439033216,-0.013612499,-0.02475,-0.007975
1680019721087,1199709441535370,-0.0196625,-0.0097624995,-0.0059125
1680019721089,1199709444037831,-0.0196625,-6.875E-4,-0.006875
1680019721091,1199709446539985,-0.0177375,0.0143,-0.0108624995
1680019721094,1199709449042139,-0.0196625,0.0323125,-0.0099
1680019721097,1199709451544389,-0.021724999,0.055275,-0.006875
1680019721099,1199709454046773,-0.02365,0.0763125,-0.006875
1680019721101,1199709456548927,-0.0226875,0.082225,-0.00495
1680019721103,1199709459051158,-0.0226875,0.082225,-0.007975
1680019721107,1199709461553543,-0.0226875,0.0803,-0.007975
1680019721109,1199709464055681,-0.0257125,0.0763125,-0.0099
1680019721111,1199709466557912,-0.0276375,0.0763125,-0.0099
1680019721114,1199709469060066,-0.031625,0.08635,-0.0099
1680019721117,1199709471562451,-0.0297,0.0952875,-0.01595
1680019721119,1199709474064677,-0.026675,0.099275,-0.017875
1680019721123,1199709476566831,-0.026675,0.091299996,-0.01485
1680019721125,1199709479069216,-0.026675,0.0903375,-0.018975
1680019721126,1199709481571447,-0.0276375,0.088275,-0.0229625
1680019721130,1199709484073596,-0.0257125,0.0842875,-0.0199375
1680019721131,1199709486575749,-0.0257125,0.082225,-0.0218625
1680019721133,1199709489078211,-0.0257125,0.0732875,-0.0199375
1680019721137,1199709491580365,-0.02365,0.0683375,-0.0218625
1680019721139,1199709494082749,-0.020624999,0.0672375,-0.0209
1680019721141,1199709496584907,-0.021724999,0.06325,-0.0218625
1680019721144,1199709499087138,-0.021724999,0.052249998,-0.0229625
1680019721147,1199709501589292,-0.0196625,0.0402875,-0.0218625
1680019721150,1199709504091753,-0.0187,0.0323125,-0.023924999
1680019721151,1199709506593907,-0.0196625,0.028324999,-0.0248875
1680019721154,1199709509096292,-0.014712499,0.03135,-0.02585
1680019721156,1199709511598446,-0.014712499,0.0342375,-0.0229625
1680019721161,1199709514100692,-0.01265,0.0323125,-0.0229625
1680019721163,1199709516602845,-0.01265,0.0232375,-0.023924999
1680019721164,1199709519105230,-0.009625,0.0182875,-0.0229625
1680019721166,1199709521607461,-0.0086624995,0.00825,-0.0229625
1680019721170,1199709524109615,-0.0056375,-6.875E-4,-0.0248875
1680019721171,1199709526611994,-0.0037125,-0.0067375,-0.0279125
1680019721174,1199709529114148,-0.004675,-0.01375,-0.029975
1680019721177,1199709531616379,-0.0056375,-0.021724999,-0.0279125
1680019721180,1199709534118764,-0.0037125,-0.0407,-0.0328625
1680019721181,1199709536620936,-0.0056375,-0.054725,-0.034925
1680019721184,1199709539123167,-0.004675,-0.05775,-0.0339625
1680019721189,1199709541625552,-0.00165,-0.065725,-0.0339625
1680019721190,1199709544127706,-0.00165,-0.07865,-0.0389125
1680019721191,1199709546629859,-0.0056375,-0.0807125,-0.036849998
1680019721194,1199709549132312,-0.00165,-0.09075,-0.034925
1680019721198,1199709551634543,-6.875E-4,-0.0996875,-0.0358875
1680019721200,1199709554136620,-0.00165,-0.1087625,-0.0358875
1680019721202,1199709556638836,-6.875E-4,-0.1197625,-0.03795
1680019721204,1199709559141220,-0.0037125,-0.12375,-0.036849998
1680019721206,1199709561643374,-0.004675,-0.12773749,-0.03795
1680019721209,1199709564145605,-0.0056375,-0.13475,-0.0419375
1680019721211,1199709566647989,-0.0086624995,-0.1406625,-0.040975
1680019721213,1199709569150124,-0.0116875,-0.1397,-0.040975
1680019721217,1199709571652355,-0.0116875,-0.1436875,-0.040975
1680019721219,1199709574154509,-0.01265,-0.1467125,-0.0438625
1680019721222,1199709576656893,-0.014712499,-0.1436875,-0.0449625
1680019721224,1199709579159095,-0.014712499,-0.1436875,-0.0449625
1680019721226,1199709581661480,-0.0177375,-0.142725,-0.04895
1680019721229,1199709584163634,-0.0196625,-0.13475,-0.04895
1680019721231,1199709586665865,-0.021724999,-0.12773749,-0.051975
1680019721235,1199709589168008,-0.0196625,-0.12375,-0.0529375
1680019721237,1199709591670162,-0.0226875,-0.1216875,-0.051975
1680019721239,1199709594172624,-0.0226875,-0.114675,-0.050875
1680019721241,1199709596675008,-0.02365,-0.103675,-0.050875
1680019721244,1199709599177162,-0.0246125,-0.0996875,-0.047849998
1680019721247,1199709601679321,-0.0246125,-0.087725,-0.050875
1680019721251,1199709604181552,-0.02365,-0.073699996,-0.04895
1680019721252,1199709606683706,-0.0226875,-0.043725,-0.0429
1680019721253,1199709609186167,-0.021724999,-0.0297,-0.036849998
1680019721257,1199709611688316,-0.020624999,-0.026675,-0.0339625
1680019721260,1199709614190701,-0.0196625,-0.0257125,-0.028875
1680019721261,1199709616692855,-0.0246125,-0.0177375,-0.0279125
1680019721263,1199709619195085,-0.020624999,-0.010725,-0.02695
1680019721266,1199709621697239,-0.021724999,0.0012375,-0.0229625
1680019721270,1199709624199624,-0.0187,0.011275,-0.0218625
1680019721273,1199709626701855,-0.021724999,0.0253,-0.018975
1680019721275,1199709629204239,-0.021724999,0.038225,-0.0169125
1680019721276,1199709631706393,-0.021724999,0.0473,-0.01595
1680019721279,1199709634208557,-0.02365,0.0562375,-0.0108624995
1680019721281,1199709636710788,-0.0246125,0.069299996,-0.0108624995
1680019721284,1199709639213172,-0.0187,0.091299996,-0.0099
1680019721286,1199709641715326,-0.015675,0.1142625,-0.00385
1680019721289,1199709644217581,-0.0177375,0.127325,-0.00385
1680019721292,1199709646719735,-0.01265,0.137225,-9.625E-4
1680019721294,1199709649222119,-0.0116875,0.1463,0.004125
1680019721297,1199709651724350,-0.0116875,0.1472625,0.004125
1680019721299,1199709654226523,-0.009625,0.1533125,0.00715
1680019721301,1199709656728908,-0.0077,0.16733749,0.009075
1680019721304,1199709659231062,-0.0067375,0.181225,0.0081124995
1680019721306,1199709661733292,-0.004675,0.1942875,0.0111375
1680019721311,1199709664235668,-6.875E-4,0.1992375,0.015125
1680019721312,1199709666737899,-6.875E-4,0.20927499,0.013062499
1680019721314,1199709669240053,0.0023375,0.2123,0.01705
1680019721316,1199709671742437,0.0033,0.214225,0.0191125
1680019721319,1199709674244591,0.0033,0.2233,0.0191125
1680019721321,1199709676746840,0.0033,0.23127499,0.020075
1680019721323,1199709679249224,0.0042625,0.23925,0.0221375
1680019721326,1199709681751378,0.0053625,0.248325,0.020075
1680019721329,1199709684253609,0.0042625,0.2523125,0.0191125
1680019721331,1199709686755994,0.0033,0.2602875,0.0210375
1680019721334,1199709689258143,0.0033,0.2682625,0.0210375
1680019721337,1199709691760296,0.0053625,0.27225,0.015125
1680019721340,1199709694262758,0.017324999,0.275275,0.0050875
1680019721342,1199709696764912,0.023375,0.2822875,-0.0059125
1680019721344,1199709699267157,0.015262499,0.2982375,-0.0108624995
1680019721348,1199709701769310,0.0103124995,0.3152875,-0.006875
1680019721351,1199709704271695,0.0023375,0.335225,0.014025
1680019721352,1199709706773849,-0.0067375,0.3433375,0.0411125
1680019721354,1199709709276080,-0.0077,0.3532375,0.0661375
1680019721356,1199709711778464,-0.0037125,0.36025,0.087037496
1680019721359,1199709714280695,0.0033,0.3592875,0.098037496
1680019721361,1199709716782849,0.0053625,0.36135,0.1040875
1680019721364,1199709719285003,0.0083875,0.36135,0.108075
1680019721367,1199709721787387,0.0163625,0.35227498,0.109037496
1680019721370,1199709724289618,0.0213125,0.347325,0.10615
1680019721372,1199709726792003,0.0262625,0.3532375,0.0991375
1680019721374,1199709729294167,0.0292875,0.3553,0.09515
1680019721377,1199709731796397,0.0323125,0.363275,0.092125
1680019721380,1199709734298551,0.0402875,0.36135,0.0851125
1680019721382,1199709736800705,0.044275,0.3642375,0.0790625
1680019721385,1199709739303172,0.045375,0.369325,0.078099996
1680019721387,1199709741805556,0.0463375,0.3782625,0.078099996
1680019721390,1199709744307710,0.0512875,0.3873375,0.080025
1680019721391,1199709746809864,0.055275,0.3883,0.0760375
1680019721394,1199709749312095,0.0583,0.39627498,0.075075
1680019721396,1199709751814234,0.061325,0.4082375,0.075075
1680019721399,1199709754316695,0.061325,0.4192375,0.0760375
1680019721401,1199709756818849,0.0622875,0.434225,0.078099996
1680019721404,1199709759321234,0.0653125,0.4442625,0.0790625
1680019721406,1199709761823406,0.067375,0.451275,0.081125
1680019721410,1199709764325560,0.0683375,0.45925,0.081125
1680019721411,1199709766827791,0.0702625,0.4662625,0.081125
1680019721413,1199709769330253,0.0713625,0.467225,0.087037496
1680019721417,1199709771832387,0.0713625,0.4763,0.0851125
1680019721420,1199709774334541,0.0702625,0.48633748,0.0851125
1680019721423,1199709776836926,0.072325,0.489225,0.0881375
1680019721425,1199709779339080,0.0713625,0.4852375,0.0881375
1680019721427,1199709781841311,0.066275,0.49225,0.0881375
1680019721430,1199709784343676,0.061325,0.495275,0.091025
1680019721431,1199709786845907,0.0592625,0.4943125,0.0961125
1680019721433,1199709789348061,0.0573375,0.4992625,0.09405
1680019721436,1199709791850445,0.055275,0.5072375,0.09405
1680019721439,1199709794352609,0.0573375,0.511225,0.097075
1680019721441,1199709796854840,0.0573375,0.5093,0.0991375
1680019721444,1199709799357225,0.055275,0.511225,0.097075
1680019721446,1199709801859455,0.055275,0.5072375,0.09515
1680019721449,1199709804361599,0.055275,0.5072375,0.091025
1680019721451,1199709806863753,0.0543125,0.5072375,0.086075
1680019721454,1199709809366138,0.056375,0.501325,0.0881375
1680019721457,1199709811868292,0.055275,0.500225,0.0851125
1680019721462,1199709814370738,0.055275,0.4973375,0.087037496
1680019721463,1199709816872892,0.055275,0.49335,0.087037496
1680019721465,1199709819375123,0.0543125,0.4873,0.0891
1680019721467,1199709821877277,0.0543125,0.4833125,0.086075
1680019721470,1199709824379398,0.05335,0.478225,0.087037496
1680019721472,1199709826881782,0.05335,0.47025,0.086075
1680019721474,1199709829384244,0.0482625,0.4653,0.0851125
1680019721476,1199709831886398,0.050325,0.456225,0.0851125
1680019721479,1199709834388551,0.052249998,0.4643375,0.0851125
1680019721481,1199709836890806,0.0512875,0.467225,0.08305
1680019721484,1199709839392960,0.050325,0.468325,0.081125
1680019721486,1199709841895345,0.050325,0.47025,0.0820875
1680019721490,1199709844397541,0.0493625,0.4763,0.080025
1680019721491,1199709846899926,0.0493625,0.478225,0.078099996
1680019721494,1199709849402080,0.0493625,0.48235,0.0771375
1680019721499,1199709851904311,0.052249998,0.4763,0.0760375
1680019721501,1199709854406479,0.0543125,0.4763,0.0741125
1680019721503,1199709857060017,0.0543125,0.479325,0.07205
1680019721505,1199709859411094,0.05335,0.48235,0.07315
1680019721506,1199709861913248,0.0592625,0.48427498,0.07315
1680019721510,1199709864415632,0.0583,0.48633748,0.069025
1680019721511,1199709866917849,0.0603625,0.489225,0.0661375
1680019721515,1199709869420003,0.0592625,0.4943125,0.0671
1680019721516,1199709871922157,0.061325,0.5022875,0.064075
1680019721519,1199709874424618,0.06435,0.5053125,0.064075
1680019721522,1199709876926748,0.066275,0.512325,0.06215
1680019721524,1199709879428902,0.0653125,0.5193375,0.0631125
1680019721526,1199709881931287,0.067375,0.5273125,0.061049998
1680019721530,1199709884433518,0.0683375,0.533225,0.0600875
1680019721532,1199709886935656,0.0702625,0.545325,0.0600875
1680019721535,1199709889438041,0.072325,0.55027497,0.0570625
1680019721539,1199709891940272,0.07425,0.561275,0.053075
1680019721541,1199709894442656,0.0763125,0.5682875,0.050049998
1680019721543,1199709896944815,0.078375,0.5743375,0.0451
1680019721544,1199709899446969,0.0812625,0.57928747,0.04015
1680019721546,1199709901949200,0.0823625,0.578325,0.042075
1680019721550,1199709904451584,0.0812625,0.58025,0.0411125
1680019721552,1199709906953815,0.08525,0.58134997,0.0411125
1680019721554,1199709909455969,0.0903375,0.583275,0.042075
1680019721556,1199709911958354,0.0983125,0.58134997,0.0441375
1680019721559,1199709914460508,0.0983125,0.5823125,0.0430375
1680019721562,1199709916962738,0.094325,0.5872625,0.04015
1680019721564,1199709919465133,0.0933625,0.5902875,0.039049998
1680019721567,1199709921967364,0.0933625,0.5872625,0.0380875
1680019721569,1199709924469518,0.094325,0.5872625,0.0441375
1680019721573,1199709926971671,0.09625,0.5863,0.042075
1680019721574,1199709929474037,0.0922625,0.57928747,0.0441375
1680019721577,1199709931976191,0.0933625,0.57928747,0.0441375
1680019721580,1199709934478652,0.0983125,0.572275,0.042075
1680019721582,1199709936980806,0.09625,0.5643,0.0430375
1680019721584,1199709939483037,0.100375,0.55935,0.0460625
1680019721586,1199709941985195,0.1013375,0.55233747,0.0451
1680019721590,1199709944487580,0.1013375,0.5462875,0.047025
1680019721591,1199709946989733,0.1032625,0.5313,0.053075
1680019721594,1199709949491964,0.1032625,0.5193375,0.053075
1680019721596,1199709951994365,0.1023,0.5102625,0.0570625
1680019721599,1199709954496596,0.099275,0.501325,0.059125
1680019721602,1199709956998749,0.0952875,0.4912875,0.058025
1680019721604,1199709959500903,0.0952875,0.48125,0.059125
1680019721606,1199709962003259,0.0952875,0.4723125,0.0561
1680019721611,1199709964505720,0.09625,0.4632375,0.0521125
1680019721613,1199709967007874,0.0983125,0.4552625,0.048125
1680019721614,1199709969510028,0.100375,0.4433,0.0441375
1680019721617,1199709972012240,0.1023,0.4213,0.0380875
1680019721620,1199709974514394,0.1023,0.402325,0.0341
1680019721622,1199709977016548,0.100375,0.3873375,0.0301125
1680019721624,1199709979519009,0.099275,0.36025,0.031075
1680019721627,1199709982021394,0.0933625,0.33935,0.0320375
1680019721630,1199709984523543,0.0903375,0.3223,0.02915
1680019721632,1199709987025697,0.08525,0.3042875,0.026124999
1680019721634,1199709989527927,0.0793375,0.28325,0.025024999
1680019721637,1199709992030081,0.07425,0.2602875,0.025024999
1680019721640,1199709994532557,0.0713625,0.24035,0.0210375
1680019721642,1199709997034711,0.069299996,0.21835,0.0191125
1680019721644,1199709999537095,0.06435,0.19525,0.01705
1680019721649,1199710002039249,0.0583,0.1802625,0.015125
1680019721651,1199710004541398,0.0592625,0.1643125,0.0111375
1680019721653,1199710007137706,0.056375,0.15125,0.00715
1680019721656,1199710009546090,0.0512875,0.1392875,0.009075
1680019721658,1199710012048244,0.044275,0.13035,0.0050875
1680019721661,1199710014550422,0.041249998,0.1313125,0.004125
1680019721662,1199710017052807,0.0402875,0.13035,0.004125
1680019721664,1199710019555037,0.0372625,0.1172875,0.004125
1680019721666,1199710022057191,0.03135,0.0983125,0.0050875
1680019721670,1199710024559345,0.0262625,0.08525,0.0050875
1680019721671,1199710027061798,0.01925,0.0732875,0.00605
1680019721674,1199710029563951,0.015262499,0.060225,0.004125
1680019721676,1199710032066105,0.0133375,0.0473,-9.625E-4
1680019721679,1199710034568567,0.00825,0.038225,-0.00385
1680019721682,1199710037070721,2.75E-4,0.03025,-0.006875
1680019721686,1199710039573090,-0.00165,0.016224999,-0.0089375
1680019721687,1199710042075244,-0.010725,0.0042625,-0.012925
1680019721690,1199710044577475,-0.014712499,-0.00275,-0.0169125
1680019721692,1199710047079658,-0.0187,-0.01265,-0.0199375
1680019721695,1199710049582119,-0.0226875,-0.0257125,-0.023924999
1680019721697,1199710052084273,-0.0287375,-0.0317625,-0.0248875
1680019721700,1199710054586658,-0.03575,-0.0407,-0.02695
1680019721701,1199710057088812,-0.0367125,-0.0507375,-0.028875
1680019721704,1199710059590993,-0.0397375,-0.0587125,-0.0319
1680019721708,1199710062093224,-0.04675,-0.056649998,-0.0328625
1680019721710,1199710064595686,-0.0496375,-0.0627,-0.0328625
1680019721712,1199710067097840,-0.05775,-0.06765,-0.028875
1680019721714,1199710069599981,-0.0587125,-0.06875,-0.0279125
1680019721716,1199710072102365,-0.0617375,-0.071775,-0.028875
1680019721720,1199710074604519,-0.065725,-0.070675,-0.0279125
1680019721723,1199710077106750,-0.0716375,-0.0666875,-0.0248875
1680019721725,1199710079609138,-0.0746625,-0.0666875,-0.0229625
1680019721727,1199710082111369,-0.076725,-0.06765,-0.0218625
1680019721730,1199710084613523,-0.07865,-0.0627,-0.0209
1680019721732,1199710087115908,-0.07975,-0.05775,-0.018975
1680019721735,1199710089618061,-0.07975,-0.0517,-0.017875
1680019721738,1199710092120297,-0.0826375,-0.0407,-0.018975
1680019721740,1199710094622682,-0.081675,-0.03575,-0.01485
1680019721742,1199710097124836,-0.0807125,-0.0287375,-0.01485
1680019721744,1199710099627066,-0.081675,-0.0207625,-0.01485
1680019721747,1199710102129451,-0.07865,-0.0086624995,-0.01485
1680019721750,1199710104631633,-0.076725,0.0072875,-0.012925
1680019721752,1199710107133787,-0.075625,0.02035,-0.0169125
1680019721755,1199710109636248,-0.0716375,0.039325,-0.01595
1680019721756,1199710112138402,-0.0666875,0.050325,-0.01595
1680019721761,1199710114640575,-0.064625,0.0672375,-0.017875
1680019721763,1199710117142806,-0.0606375,0.0763125,-0.0199375
1680019721765,1199710119645190,-0.0587125,0.0812625,-0.0199375
1680019721767,1199710122147344,-0.054725,0.08635,-0.0199375
1680019721770,1199710124649498,-0.053625,0.09735,-0.0218625
1680019721771,1199710127151960,-0.0496375,0.1062875,-0.0218625
1680019721774,1199710129654190,-0.0446875,0.1233375,-0.0229625
1680019721777,1199710132156344,-0.043725,0.1392875,-0.0218625
1680019721780,1199710134658498,-0.0367125,0.1502875,-0.023924999
1680019721782,1199710137160902,-0.0287375,0.1612875,-0.0229625
1680019721784,1199710139663056,-0.0287375,0.17325,-0.0229625
1680019721787,1199710142165286,-0.026675,0.182325,-0.023924999
1680019721790,1199710144667671,-0.02365,0.1903,-0.0209
1680019721792,1199710147169902,-0.0187,0.19635,-0.0209
1680019721794,1199710149672076,-0.0166375,0.1992375,-0.017875
1680019721798,1199710152174230,-0.013612499,0.2022625,-0.0169125
1680019721801,1199710154676614,-0.0116875,0.20927499,-0.01595
1680019721803,1199710157178835,-0.0067375,0.2193125,-0.01485
1680019721804,1199710159681220,-0.0037125,0.2322375,-0.01595
1680019721807,1199710162183373,-6.875E-4,0.2453,-0.01485
1680019721810,1199710164685604,0.006325,0.253275,-0.0108624995
1680019721815,1199710167187758,0.0103124995,0.26125,-0.0089375
1680019721815,1199710169690148,0.012375,0.2633125,-0.00495
1680019721817,1199710172192378,0.0133375,0.2652375,-0.001925
1680019721820,1199710174694763,0.01925,0.26427498,-0.001925
1680019721823,1199710177196917,0.01925,0.2652375,-0.0028875
1680019721824,1199710179699047,0.01925,0.2673,0.0011
1680019721826,1199710182201278,0.02035,0.26633748,-9.625E-4
1680019721830,1199710184703662,0.0253,0.275275,1.375E-4
1680019721831,1199710187205893,0.0253,0.27225,1.375E-4
1680019721835,1199710189708052,0.0243375,0.2553375,0.0011
1680019721837,1199710192210436,0.02035,0.2443375,0.004125
1680019721840,1199710194712590,0.0213125,0.23127499,0.004125
1680019721842,1199710197214821,0.01925,0.2162875,0.00605
1680019721844,1199710199716975,0.0163625,0.20927499,0.0100375
1680019721847,1199710202219436,0.0182875,0.2013,0.009075
1680019721850,1199710204721590,0.0163625,0.1863125,0.0111375
1680019721852,1199710207223975,0.017324999,0.1722875,0.0121
1680019721854,1199710209726129,0.015262499,0.154275,0.015125
1680019721857,1199710212228364,0.0103124995,0.14135,0.020075
1680019721860,1199710214730517,0.011275,0.127325,0.0221375
1680019721862,1199710217232979,0.00825,0.111237496,0.025024999
1680019721864,1199710219735133,0.00825,0.0952875,0.025024999
1680019721867,1199710222237287,0.006325,0.082225,0.02805
1680019721870,1199710224739657,0.0053625,0.071225,0.02915
1680019721873,1199710227241888,0.0053625,0.0583,0.031075
1680019721875,1199710229744042,0.0033,0.050325,0.031075
1680019721877,1199710232246427,-0.00165,0.038225,0.0320375
1680019721880,1199710234748652,-6.875E-4,0.033275,0.0320375
1680019721882,1199710237250806,-6.875E-4,0.022275,0.0331375
1680019721884,1199710239753191,-0.00165,0.015262499,0.0331375
1680019721887,1199710242255345,-6.875E-4,0.0072875,0.0320375
1680019721890,1199710244757589,-6.875E-4,-6.875E-4,0.02805
1680019721891,1199710247259974,-0.0037125,-0.004675,0.0270875
1680019721895,1199710249762128,-0.004675,-0.0077,0.0240625
1680019721897,1199710252264359,-0.0067375,-0.01265,0.026124999
1680019721900,1199710254766734,-0.0056375,-0.0116875,0.025024999
1680019721902,1199710257268888,-0.004675,-0.014712499,0.0210375
1680019721904,1199710259771042,-0.0037125,-0.015675,0.0231
1680019721907,1199710262273504,-0.004675,-0.016775,0.0221375
1680019721911,1199710264775763,-0.004675,-0.014712499,0.0210375
1680019721913,1199710267277917,-0.00165,-0.01375,0.015125
1680019721915,1199710269780071,-6.875E-4,-0.0116875,0.0121
1680019721917,1199710272282456,-0.0037125,-0.0116875,0.009075
1680019721919,1199710274784609,-0.004675,-0.010725,0.00715
1680019721922,1199710277287056,-0.004675,-0.01265,0.0050875
1680019721924,1199710279789210,-0.0056375,-0.010725,0.009075
1680019721927,1199710282291441,-0.009625,-0.0097624995,0.00715
1680019721930,1199710284793594,-0.0086624995,-0.0097624995,0.004125
1680019721932,1199710287295748,-0.0056375,-0.004675,0.0011
1680019721934,1199710289798109,-0.0077,-0.0067375,-0.0028875
1680019721937,1199710292300570,-0.0086624995,-0.0097624995,-0.006875
1680019721940,1199710294802724,-0.009625,-0.0097624995,-0.0119624995
1680019721942,1199710297304878,-0.0086624995,-0.0056375,-0.0119624995
1680019721944,1199710299807109,-0.0105875,-0.010725,-0.01485
1680019721948,1199710302309263,-0.01265,-0.010725,-0.01595
1680019721951,1199710304811647,-0.013612499,-0.01265,-0.017875
1680019721953,1199710307313878,-0.015675,-0.0166375,-0.018975
1680019721955,1199710309816263,-0.015675,-0.0177375,-0.0199375
1680019721957,1199710312318417,-0.020624999,-0.0187,-0.0199375
1680019721959,1199710314820571,-0.020624999,-0.02365,-0.018975
1680019721962,1199710317322801,-0.026675,-0.026675,-0.0169125
1680019721964,1199710319825191,-0.0246125,-0.0276375,-0.01485
1680019721967,1199710322327422,-0.0246125,-0.0287375,-0.018975
1680019721970,1199710324829576,-0.026675,-0.0297,-0.0169125
1680019721972,1199710327331960,-0.0297,-0.0297,-0.01595
1680019721974,1199710329834114,-0.031625,-0.03575,-0.01595
1680019721978,1199710332336345,-0.0306625,-0.032725,-0.0169125
1680019721980,1199710334838499,-0.0325875,-0.0306625,-0.017875
1680019721982,1199710337340960,-0.0386375,-0.0306625,-0.01485
1680019721986,1199710339843114,-0.0396,-0.0287375,-0.018975
1680019721988,1199710342345268,-0.0435875,-0.026675,-0.0209
1680019721991,1199710344847653,-0.0416625,-0.0257125,-0.018975
1680019721992,1199710347349883,-0.0396,-0.015675,-0.018975
1680019721994,1199710349852037,-0.042625,-0.015675,-0.0199375
1680019721997,1199710352354451,-0.0446875,-0.01265,-0.0218625
1680019721999,1199710354856682,-0.042625,-0.004675,-0.0229625
1680019722002,1199710357359066,-0.045649998,0.0023375,-0.0248875
1680019722005,1199710359861220,-0.0407,0.0053625,-0.023924999
1680019722007,1199710362363359,-0.042625,0.011275,-0.0248875
1680019722010,1199710364865590,-0.0446875,0.01925,-0.0229625
1680019722012,1199710367367974,-0.042625,0.0232375,-0.023924999
1680019722015,1199710369870205,-0.042625,0.0292875,-0.0229625
1680019722017,1199710372372364,-0.0435875,0.033275,-0.0199375
1680019722021,1199710374874749,-0.0446875,0.0383625,-0.0209
1680019722024,1199710377376902,-0.0435875,0.0433125,-0.0218625
1680019722026,1199710379879133,-0.042625,0.044275,-0.0199375
1680019722027,1199710382381518,-0.0435875,0.0473,-0.0199375
1680019722031,1199710384883759,-0.0446875,0.0482625,-0.0169125
1680019722032,1199710387385912,-0.045649998,0.052249998,-0.0169125
1680019722034,1199710389888297,-0.0435875,0.055275,-0.01595
1680019722037,1199710392390451,-0.0435875,0.05335,-0.01595
1680019722040,1199710394892619,-0.042625,0.055275,-0.0119624995
1680019722042,1199710397395080,-0.0407,0.0562375,-0.0119624995
1680019722045,1199710399897234,-0.0416625,0.0562375,-0.0108624995
1680019722047,1199710402399465,-0.0446875,0.052249998,-0.0108624995
1680019722051,1199710404901614,-0.0407,0.0493625,-0.0108624995
1680019722052,1199710407403998,-0.0396,0.0512875,-0.007975
1680019722054,1199710409906152,-0.0407,0.0473,-0.006875
1680019722058,1199710412408614,-0.037675,0.0452375,-0.006875
1680019722062,1199710414910768,-0.0356125,0.0473,-0.00385
1680019722064,1199710417412998,-0.0325875,0.0473,-0.00385
1680019722065,1199710419915152,-0.0286,0.044275,-9.625E-4
1680019722067,1199710422417306,-0.0297,0.0463375,-0.001925
1680019722070,1199710424919696,-0.0257125,0.0463375,-0.001925
1680019722072,1199710427422157,-0.0226875,0.0402875,0.0011
1680019722074,1199710429924311,-0.0226875,0.041249998,0.0020625
1680019722077,1199710432426465,-0.0196625,0.0383625,0.0011
1680019722079,1199710434928619,-0.0176,0.0402875,0.003025
1680019722082,1199710437431061,-0.015675,0.0452375,0.004125
1680019722084,1199710439933215,-0.015675,0.044275,0.00605
1680019722087,1199710442435446,-0.013612499,0.0402875,0.0050875
1680019722090,1199710444937600,-0.0116875,0.0402875,0.003025
1680019722092,1199710447439969,-0.0105875,0.0402875,0.004125
1680019722094,1199710449942123,-0.009625,0.039325,0.003025
1680019722099,1199710452444585,-0.0077,0.0402875,0.003025
1680019722102,1199710454946739,-0.0086624995,0.0463375,0.0020625
1680019722103,1199710457491768,-0.0056375,0.0433125,1.375E-4
1680019722106,1199710459951152,-0.00165,0.0452375,1.375E-4
1680019722107,1199710462453306,-0.0066,0.0463375,-0.0028875
1680019722110,1199710464955691,-0.004675,0.0433125,-0.00385
1680019722112,1199710467457922,-0.004675,0.0402875,-0.001925
1680019722114,1199710469960317,-0.00165,0.0473,-0.001925
1680019722117,1199710472462471,0.001375,0.0512875,-0.00385
1680019722121,1199710474964702,-6.875E-4,0.0482625,-0.006875
1680019722123,1199710477466836,-0.0037125,0.0512875,-0.007975
1680019722124,1199710479969220,-6.875E-4,0.05335,-0.0089375
1680019722127,1199710482471451,-0.0037125,0.050325,-0.006875
1680019722130,1199710484973836,-0.0037125,0.050325,-0.007975
1680019722132,1199710487475990,-0.0037125,0.0473,-0.007975
1680019722136,1199710489978211,-0.0037125,0.0452375,-0.0089375
1680019722139,1199710492480365,-0.004675,0.0433125,-0.0089375
1680019722141,1199710494982750,-0.0037125,0.0402875,-0.0059125
1680019722143,1199710497484981,-0.0056375,0.0402875,-0.0059125
1680019722145,1199710499987134,-0.0086624995,0.0363,-0.006875
1680019722147,1199710502489523,-0.0037125,0.028324999,-0.007975
1680019722150,1199710504991754,-0.0077,0.0273625,-0.0059125
1680019722152,1199710507493908,-0.0066,0.03025,-0.001925
1680019722155,1199710509996062,-0.0077,0.022275,-0.001925
1680019722157,1199710512498538,-0.0077,0.01925,-0.00385
1680019722160,1199710515000692,-0.009625,0.017324999,-0.0028875
1680019722162,1199710517502846,-0.0116875,0.015262499,-0.001925
1680019722164,1199710520005230,-0.0116875,0.0122375,-0.001925
1680019722167,1199710522507461,-0.009625,0.00825,1.375E-4
1680019722169,1199710525009586,-0.0105875,0.0103124995,1.375E-4
1680019722173,1199710527511971,-0.0105875,0.0072875,0.003025
1680019722175,1199710530014201,-0.0116875,0.0023375,0.0011
1680019722178,1199710532516605,-0.0116875,-0.00165,0.004125
1680019722181,1199710535018759,-0.013612499,-0.00165,0.00605
1680019722182,1199710537520913,-0.015675,-0.0037125,0.004125
1680019722184,1199710540023144,-0.015675,-0.0056375,0.00715
1680019722187,1199710542525605,-0.0116875,-0.0067375,0.00605
1680019722190,1199710545027754,-0.0116875,-0.0077,0.0050875
1680019722192,1199710547529908,-0.0116875,-0.0116875,0.00605
1680019722194,1199710550032292,-0.0086624995,-0.015675,0.009075
1680019722197,1199710552534446,-0.0116875,-0.01375,0.014025
1680019722200,1199710555036586,-0.0077,-0.015675,0.0100375
1680019722202,1199710557539048,-0.0066,-0.01375,0.014025
1680019722205,1199710560041278,-0.0086624995,-0.015675,0.013062499
1680019722207,1199710562543432,-0.009625,-0.0177375,0.014025
1680019722211,1199710565045576,-0.0077,-0.0166375,0.0160875
1680019722213,1199710567547961,-0.0056375,-0.015675,0.01705
1680019722215,1199710570050192,-0.004675,-0.01265,0.020075
1680019722218,1199710572552576,-0.004675,-0.01375,0.0160875
1680019722221,1199710575054730,-0.0037125,-0.01265,0.0210375
1680019722223,1199710577556937,-0.0056375,-0.01265,0.0221375
1680019722224,1199710580059091,-0.004675,-0.01265,0.0231
1680019722227,1199710582561475,-0.004675,-0.0067375,0.0240625
1680019722230,1199710585063629,-0.0056375,-0.0097624995,0.0231
1680019722232,1199710587566091,-0.004675,-0.0067375,0.025024999
1680019722235,1199710590068255,-0.0056375,-0.0037125,0.0270875
1680019722237,1199710592570408,-0.0086624995,-0.004675,0.025024999
1680019722240,1199710595072639,-0.0056375,-6.875E-4,0.0270875
1680019722242,1199710597575024,-6.875E-4,0.0012375,0.026124999
1680019722245,1199710600077192,0.0023375,0.0072875,0.02805
1680019722249,1199710602579422,0.0033,0.0072875,0.02805
1680019722252,1199710605081798,0.0033,0.0122375,0.026124999
1680019722254,1199710607583952,0.0023375,0.015262499,0.026124999
1680019722256,1199710610086183,0.0033,0.0213125,0.02915
1680019722259,1199710612588336,0.0072875,0.0232375,0.0301125
1680019722261,1199710615090721,0.0083875,0.022275,0.0270875
1680019722263,1199710617592971,0.00935,0.02035,0.025024999
1680019722264,1199710620095356,0.0083875,0.028324999,0.02805
1680019722267,1199710622597509,0.0083875,0.03025,0.025024999
1680019722270,1199710625099740,0.0103124995,0.0292875,0.0231
1680019722273,1199710627601894,0.00935,0.0342375,0.026124999
1680019722274,1199710630104043,0.0103124995,0.0353375,0.026124999
1680019722277,1199710632606504,0.012375,0.0363,0.0240625
1680019722280,1199710635108658,0.012375,0.0353375,0.026124999
1680019722282,1199710637611043,0.0133375,0.0363,0.025024999
1680019722286,1199710640113192,0.012375,0.0383625,0.020075
1680019722288,1199710642615422,0.0114124995,0.0383625,0.020075
1680019722291,1199710645117576,0.012375,0.0372625,0.020075
1680019722292,1199710647620038,0.0114124995,0.0383625,0.0160875
1680019722294,1199710650122192,0.0133375,0.0383625,0.0210375
1680019722298,1199710652624576,0.012375,0.0353375,0.0210375
1680019722301,1199710655126730,0.012375,0.0323125,0.01705
1680019722302,1199710657628961,0.00935,0.03025,0.015125
1680019722304,1199710660131115,0.0083875,0.0232375,0.0191125
1680019722307,1199710662633499,0.0083875,0.0232375,0.020075
1680019722310,1199710665135749,0.0083875,0.01925,0.020075
1680019722312,1199710667638134,0.0083875,0.0182875,0.01705
1680019722314,1199710670140288,0.0072875,0.017324999,0.01705
1680019722317,1199710672642442,0.0072875,0.015262499,0.015125
1680019722320,1199710675144681,0.0044,0.0133375,0.0160875
1680019722323,1199710677647066,0.001375,0.01925,0.0191125
1680019722325,1199710680149297,0.0033,0.0182875,0.0191125
1680019722327,1199710682651451,4.125E-4,0.0163625,0.0210375
1680019722330,1199710685153802,0.0023375,0.0182875,0.020075
1680019722332,1199710687655956,0.0044,0.022275,0.0210375
1680019722335,1199710690158187,0.0023375,0.015262499,0.0221375
1680019722338,1199710692660571,-6.875E-4,0.0042625,0.0231
1680019722341,1199710695162802,-0.0037125,0.0053625,0.0221375
1680019722342,1199710697664956,-0.0037125,0.00825,0.0221375
1680019722345,1199710700167110,-0.004675,0.0133375,0.0240625
1680019722347,1199710702669495,-0.0037125,0.0053625,0.0210375
1680019722350,1199710705171720,-0.0066,0.006325,0.0231
1680019722352,1199710707674105,-0.009625,0.011275,0.0231
1680019722355,1199710710176259,-0.0086624995,0.006325,0.0231
1680019722357,1199710712678490,-0.009625,0.006325,0.0210375
1680019722362,1199710715180874,-0.0116875,0.011275,0.020075
1680019722363,1199710717683028,-0.01265,0.0103124995,0.0210375
1680019722365,1199710720185182,-0.015675,0.011275,0.0210375
1680019722367,1199710722687643,-0.0166375,0.015262499,0.0210375
1680019722370,1199710725189797,-0.014712499,0.0122375,0.01705
1680019722372,1199710727691980,-0.015675,0.0143,0.0191125
1680019722374,1199710730194211,-0.014712499,0.017324999,0.020075
