system_ts_ms, sensor_ts_ns, accX, accY, accZ
1680019717437,1199705788252984,1.6650001,4.539,8.964001
1680019717437,1199705790755138,1.7029501,4.4479504,8.92605
1680019717438,1199705793257600,1.64295,4.5540004,8.776951
1680019717440,1199705795759984,1.48695,4.43205,8.76795
1680019717444,1199705798262138,1.46595,4.4100003,8.77305
1680019717446,1199705800764282,1.38495,4.5079503,8.80395
1680019717456,1199705803266513,1.3219501,4.4770503,8.707951
1680019717457,1199705805768667,1.29795,4.4050503,8.68395
1680019717457,1199705808271051,1.2049501,4.4479504,8.6650505
1680019717458,1199705810773282,1.164,4.36905,8.713051
1680019717459,1199705813275677,1.0710001,4.4100003,8.667001
1680019717461,1199705815777831,1.179,4.362,8.62905
1680019717463,1199705818279984,1.0540501,4.5079503,8.611951
1680019717465,1199705820782215,1.0489501,4.4749503,8.718
1680019717468,1199705823284600,1.0639501,4.4820004,8.61705
1680019717470,1199705825786845,1.047,4.5150003,8.63805
1680019717472,1199705828288998,1.1880001,4.46295,8.530951
1680019717475,1199705830791383,1.2379501,4.36695,8.731951
1680019717477,1199705833293537,1.2240001,4.386,8.595
1680019717482,1199705835795754,1.19805,4.4029503,8.752951
1680019717483,1199705838297908,1.32,4.36695,8.646001
1680019717485,1199705840800369,1.31295,4.28805,8.694
1680019717488,1199705843302523,1.3750501,4.341,8.65305
1680019717490,1199705845804918,1.29795,4.3450503,8.60505
1680019717492,1199705848307071,1.3270501,4.36005,8.61705
1680019717495,1199705850809302,1.4080501,4.45095,8.66205
1680019717499,1199705853311456,1.2600001,4.4290504,8.59305
1680019717501,1199705855813908,1.284,4.458,8.703
1680019717503,1199705858316061,1.404,4.5349503,8.655001
1680019717505,1199705860818215,1.3939501,4.5589504,8.811001
1680019717507,1199705863320600,1.3990501,4.5919504,8.731951
1680019717510,1199705865822744,1.4250001,4.5199504,8.619
1680019717512,1199705868324975,1.38705,4.4890504,8.72505
1680019717516,1199705870827128,1.3800001,4.46295,8.77995
1680019717519,1199705873329590,1.3270501,4.5079503,8.895
1680019717522,1199705875831749,1.3800001,4.46505,8.868
1680019717524,1199705878333903,1.3770001,4.46805,8.928
1680019717525,1199705880836287,1.3920001,4.4749503,8.863951
1680019717527,1199705883338518,1.44,4.5349503,8.895
1680019717532,1199705885840672,1.44,4.5199504,8.89995
1680019717532,1199705888343081,1.4760001,4.57305,9.0720005
1680019717535,1199705890845311,1.437,4.54395,8.920951
1680019717538,1199705893347696,1.404,4.4869504,8.907001
1680019717541,1199705895849845,1.4470501,4.4940004,8.859
1680019717543,1199705898351999,1.4680501,4.42395,8.895
1680019717545,1199705900854229,1.45395,4.4820004,9.003
1680019717550,1199705903356614,1.401,4.53,8.976001
1680019717550,1199705905858845,1.332,4.46505,9.016951
1680019717552,1199705908360990,1.3770001,4.43205,9.010051
1680019717556,1199705910863374,1.3219501,4.46505,8.979
1680019717559,1199705913365528,1.365,4.4599504,9.019051
1680019717561,1199705915867682,1.3560001,4.4029503,9.08205
1680019717563,1199705918370120,1.2430501,4.4869504,9.096001
1680019717565,1199705920872350,1.2379501,4.59705,9.036
1680019717567,1199705923374504,1.2019501,4.5199504,9.05805
1680019717570,1199705925876658,1.2529501,4.539,8.95005
1680019717573,1199705928379043,1.21695,4.4940004,8.998051
1680019717575,1199705930881200,1.15005,4.52505,8.859
1680019717578,1199705933383662,1.2100501,4.61805,9.0
1680019717582,1199705935885816,1.14705,4.52505,8.955001
1680019717583,1199705938388047,1.09905,4.43205,8.98095
1680019717585,1199705940890201,1.14495,4.4820004,8.940001
1680019717588,1199705943392354,1.11405,4.4749503,9.0070505
1680019717590,1199705945894739,1.116,4.4869504,8.868
1680019717594,1199705948396946,1.1020501,4.4050503,9.03405
1680019717596,1199705950899330,1.1329501,4.4890504,8.872951
1680019717599,1199705953401484,1.15695,4.4820004,8.81295
1680019717600,1199705955903715,1.1400001,4.47195,8.776951
1680019717603,1199705958405869,1.27005,4.44105,8.81805
1680019717605,1199705960908263,1.2019501,4.563,8.82495
1680019717608,1199705963410417,1.32,4.4869504,8.78895
1680019717610,1199705965912879,1.33905,4.4170504,8.658
1680019717612,1199705968415033,1.3609501,4.49595,8.832001
1680019717617,1199705970917272,1.3270501,4.434,8.81595
1680019717618,1199705973419426,1.3410001,4.4749503,8.866051
1680019717621,1199705975921811,1.3990501,4.49205,8.764951
1680019717624,1199705978423965,1.38705,4.49205,8.731951
1680019717625,1199705980926177,1.38495,4.4890504,8.887951
1680019717627,1199705983428561,1.3729501,4.54395,8.821051
1680019717631,1199705985930715,1.3630501,4.4700003,8.79705
1680019717633,1199705988432946,1.38705,4.458,8.821051
1680019717635,1199705990935110,1.3290001,4.4770503,8.79405
1680019717638,1199705993437494,1.28205,4.43205,8.84895
1680019717640,1199705995939725,1.332,4.4170504,8.727
1680019717643,1199705998442110,1.3729501,4.4770503,8.799001
1680019717645,1199706000944273,1.3770001,4.4029503,8.875951
1680019717649,1199706003446503,1.3939501,4.446,8.79195
1680019717651,1199706005948657,1.3770001,4.413,8.83005
1680019717653,1199706008451042,1.2910501,4.46295,8.77305
1680019717655,1199706010953273,1.248,4.39605,8.65305
1680019717659,1199706013455417,1.27695,4.446,8.811001
1680019717661,1199706015957802,1.2739501,4.4029503,8.832001
1680019717667,1199706018460033,1.248,4.47195,8.6980505
1680019717668,1199706020962187,1.26195,4.374,8.842051
1680019717669,1199706023464355,1.19805,4.3890004,8.734051
1680019717672,1199706025966739,1.2720001,4.4560504,8.689051
1680019717673,1199706028468970,1.26705,4.329,8.703
1680019717675,1199706030971124,1.21905,4.3770003,8.787001
1680019717678,1199706033473508,1.23105,4.3450503,8.80095
1680019717682,1199706035975739,1.23405,4.2829504,8.77995
1680019717682,1199706038477893,1.11105,4.25895,8.67405
1680019717685,1199706040980047,1.18605,4.3309503,8.679001
1680019717688,1199706043482508,1.21695,4.3050003,8.95005
1680019717691,1199706045984662,1.23105,4.28595,8.77305
1680019717692,1199706048486816,1.1400001,4.3050003,8.80605
1680019717695,1199706050989201,1.14495,4.2330003,8.776951
1680019717699,1199706053491394,1.1209501,4.2780004,8.740951
1680019717701,1199706055993547,1.1710501,4.2450004,8.81295
1680019717703,1199706058495932,1.18095,4.2330003,8.764951
1680019717706,1199706060998163,1.0540501,4.2660003,8.710051
1680019717709,1199706063500556,1.116,4.2070503,8.866051
1680019717711,1199706066002710,1.179,4.254,8.80095
1680019717716,1199706068504864,1.11405,4.19205,8.84895
1680019717716,1199706071007095,1.14705,4.21395,8.731951
1680019717718,1199706073509480,1.18605,4.2829504,8.8279505
1680019717720,1199706076011730,1.14495,4.23495,8.776951
1680019717722,1199706078513884,1.2409501,4.2979503,8.871
1680019717725,1199706081016269,1.23105,4.21395,8.91405
1680019717728,1199706083518500,1.179,4.2709503,8.81805
1680019717732,1199706086020653,1.16205,4.26405,8.775001
1680019717733,1199706088523038,1.27005,4.3450503,8.856
1680019717735,1199706091025192,1.2720001,4.27395,8.859
1680019717739,1199706093527423,1.3099501,4.32105,8.93505
1680019717741,1199706096029561,1.21905,4.4220004,8.91195
1680019717744,1199706098532023,1.21905,4.4479504,8.95005
1680019717749,1199706101034177,1.2529501,4.36695,8.90205
1680019717750,1199706103536562,1.284,4.458,8.923051
1680019717752,1199706106038720,1.2600001,4.40805,8.919001
1680019717753,1199706108540951,1.3410001,4.53,8.887951
1680019717755,1199706111043105,1.31295,4.4770503,9.010051
1680019717758,1199706113545259,1.353,4.47195,8.868
1680019717760,1199706116047720,1.3609501,4.55595,8.727
1680019717763,1199706118549883,1.27695,4.43895,8.955001
1680019717766,1199706121052268,1.3800001,4.36905,8.79705
1680019717768,1199706123554422,1.3050001,4.37895,8.94705
1680019717770,1199706126056652,1.317,4.4770503,8.78505
1680019717773,1199706128558826,1.296,4.3330503,8.86095
1680019717776,1199706131061211,1.2100501,4.4940004,8.77005
1680019717778,1199706133563442,1.3099501,4.3770003,8.892
1680019717783,1199706136065826,1.2889501,4.3720503,8.83005
1680019717784,1199706138567980,1.1880001,4.4029503,8.854051
1680019717786,1199706141070134,1.28205,4.2450004,8.923051
1680019717789,1199706143572365,1.0879501,4.4029503,8.775001
1680019717790,1199706146074826,1.2360001,4.2780004,8.878051
1680019717793,1199706148576980,1.116,4.2900004,8.95695
1680019717795,1199706151079152,1.13505,4.3050003,8.884951
1680019717798,1199706153581537,1.131,4.341,8.884951
1680019717800,1199706156083691,1.13505,4.2190504,8.856
1680019717803,1199706158585844,1.1380501,4.3770003,8.787001
1680019717805,1199706161088273,1.1209501,4.2259502,8.878051
1680019717808,1199706163590504,1.056,4.242,8.88
1680019717810,1199706166092658,1.0849501,4.28595,8.811001
1680019717813,1199706168594811,1.09905,4.30695,8.832001
1680019717816,1199706171097201,1.1329501,4.2900004,8.799001
1680019717821,1199706173599355,1.1209501,4.2379503,8.842051
1680019717822,1199706176101586,1.143,4.20405,8.75595
1680019717824,1199706178603970,1.18605,4.20405,8.67195
1680019717826,1199706181106201,1.212,4.2109504,8.752951
1680019717828,1199706183608344,1.19505,4.2829504,8.7289505
1680019717830,1199706186110498,1.1380501,4.20405,8.734051
1680019717833,1199706188612882,1.2409501,4.254,8.706
1680019717835,1199706191115113,1.21395,4.197,8.811001
1680019717838,1199706193617498,1.212,4.353,8.77995
1680019717840,1199706196119652,1.2049501,4.26405,8.82495
1680019717843,1199706198621882,1.2720001,4.3099504,8.73705
1680019717845,1199706201124036,1.248,4.209,8.868
1680019717849,1199706203626421,1.2220501,4.4149504,8.787001
1680019717851,1199706206128575,1.2409501,4.2900004,8.718
1680019717853,1199706208631036,1.21395,4.3840504,8.96205
1680019717857,1199706211133190,1.212,4.31895,8.875951
1680019717860,1199706213635416,1.2070501,4.3309503,8.835
1680019717862,1199706216137570,1.24995,4.3240504,8.77305
1680019717864,1199706218639954,1.2409501,4.3770003,8.7289505
1680019717866,1199706221142108,1.2529501,4.48005,8.68605
1680019717869,1199706223644570,1.2379501,4.3840504,8.799001
1680019717871,1199706226146758,1.30305,4.43205,8.751
1680019717873,1199706228648911,1.27005,4.386,8.739
1680019717875,1199706231151142,1.3369501,4.47195,8.634001
1680019717878,1199706233653527,1.26195,4.4050503,8.713051
1680019717880,1199706236155695,1.3579501,4.39305,8.718
1680019717883,1199706238657926,1.26705,4.42695,8.743951
1680019717885,1199706241160310,1.29795,4.4100003,8.67195
1680019717889,1199706243662464,1.1880001,4.46505,8.68605
1680019717891,1199706246164613,1.2580501,4.45095,8.719951
1680019717894,1199706248666844,1.26705,4.33605,8.80095
1680019717897,1199706251169228,1.16205,4.30695,8.78895
1680019717899,1199706253671382,1.19505,4.32105,8.80095
1680019717901,1199706256173637,1.0680001,4.3240504,8.689051
1680019717903,1199706258676021,1.14495,4.30695,8.884951
1680019717905,1199706261178252,1.15695,4.281,8.83695
1680019717909,1199706263680406,1.11405,4.3450503,8.88
1680019717911,1199706266182560,1.0489501,4.2400503,8.809051
1680019717913,1199706268684960,1.0639501,4.26195,8.78205
1680019717915,1199706271187190,1.15005,4.3050003,8.78895
1680019717918,1199706273689575,1.1040001,4.26195,8.821051
1680019717922,1199706276191729,1.11405,4.302,8.715
1680019717923,1199706278693941,1.1329501,4.2450004,8.871
1680019717925,1199706281196094,1.21905,4.19205,8.839951
1680019717929,1199706283698248,1.179,4.254,8.7630005
1680019717932,1199706286200710,1.2379501,4.293,8.856
1680019717934,1199706288703098,1.19805,4.2109504,8.77995
1680019717936,1199706291205252,1.1520001,4.242,8.844001
1680019717939,1199706293707406,1.30305,4.1730003,8.80095
1680019717941,1199706296209637,1.2240001,4.125,8.875951
1680019717943,1199706298711791,1.3440001,4.209,8.82495
1680019717945,1199706301214156,1.3369501,4.2190504,8.916
1680019717949,1199706303716387,1.3410001,4.15605,8.82495
1680019717951,1199706306218772,1.4989501,4.18305,8.88
1680019717953,1199706308720926,1.3939501,4.26195,8.907001
1680019717955,1199706311223080,1.3440001,4.12995,8.991
1680019717959,1199706313725315,1.452,4.2520504,8.811001
1680019717961,1199706316227777,1.48695,4.25895,8.878051
1680019717963,1199706318729931,1.4640001,4.281,8.976001
1680019717965,1199706321232085,1.50405,4.3330503,8.875951
1680019717970,1199706323734454,1.5109501,4.32105,8.83695
1680019717972,1199706326236608,1.4470501,4.38105,8.839951
1680019717974,1199706328738839,1.50195,4.36695,8.799001
1680019717976,1199706331241027,1.5829501,4.4100003,9.031051
1680019717979,1199706333743488,1.5690001,4.3549504,8.98095
1680019717981,1199706336245642,1.5450001,4.386,8.991
1680019717983,1199706338748027,1.605,4.40805,8.976001
1680019717986,1199706341250181,1.452,4.4220004,8.964001
1680019717989,1199706343752310,1.485,4.374,8.872951
1680019717991,1199706346254541,1.5690001,4.4050503,8.96895
1680019717993,1199706348756926,1.473,4.45095,8.90205
1680019717996,1199706351259157,1.5090001,4.39605,8.90205
1680019717999,1199706353761310,1.4280001,4.401,8.991
1680019718000,1199706356263705,1.4320501,4.4479504,8.988001
1680019718003,1199706358765859,1.3440001,4.38105,8.964001
1680019718007,1199706361268090,1.3219501,4.3980002,8.99505
1680019718010,1199706363770469,1.3219501,4.401,8.964001
1680019718011,1199706366272700,1.3290001,4.3770003,9.0070505
1680019718013,1199706368774854,1.2930001,4.3450503,8.91405
1680019718016,1199706371277008,1.28205,4.3500004,8.986051
1680019718019,1199706373779392,1.3770001,4.446,8.890051
1680019718020,1199706376281632,1.3099501,4.28805,9.004951
1680019718023,1199706378784017,1.29795,4.36905,9.049951
1680019718025,1199706381286171,1.35105,4.3240504,8.916
1680019718029,1199706383788401,1.332,4.302,9.0070505
1680019718030,1199706386290555,1.248,4.37895,9.055051
1680019718033,1199706388792931,1.2550501,4.38105,9.003
1680019718035,1199706391295085,1.3050001,4.2979503,8.9740505
1680019718039,1199706393797316,1.3410001,4.2829504,9.0720005
1680019718040,1199706396299700,1.368,4.302,9.0379505
1680019718045,1199706398801849,1.2910501,4.3380003,8.98095
1680019718047,1199706401304080,1.3920001,4.329,8.943001
1680019718050,1199706403806464,1.31295,4.2070503,8.964001
1680019718052,1199706406415695,1.29795,4.3000503,8.931001
1680019718054,1199706408810772,1.36995,4.27395,8.856
1680019718057,1199706411313206,1.42305,4.28805,8.896951
1680019718066,1199706413815359,1.452,4.3170004,8.892
1680019718066,1199706416317590,1.45395,4.2709503,8.92605
1680019718067,1199706418819744,1.4760001,4.24695,8.95905
1680019718067,1199706421322129,1.5450001,4.2520504,8.97105
1680019718069,1199706423824264,1.45395,4.2379503,8.91405
1680019718071,1199706426326494,1.47105,4.254,8.90205
1680019718073,1199706428828879,1.48695,4.254,8.863951
1680019718075,1199706431331033,1.48695,4.3450503,8.916
1680019718079,1199706433833264,1.53795,4.29495,8.81805
1680019718082,1199706436335407,1.45605,4.302,8.896951
1680019718084,1199706438837792,1.5589501,4.4149504,8.81805
1680019718085,1199706441340023,1.4610001,4.33605,8.95695
1680019718089,1199706443842407,1.41795,4.3980002,8.93295
1680019718090,1199706446344566,1.50405,4.37895,8.890051
1680019718093,1199706448846797,1.43505,4.37895,8.895
1680019718096,1199706451348951,1.5160501,4.46295,8.872951
1680019718099,1199706453851105,1.5190501,4.3720503,8.823
1680019718101,1199706456353595,1.5499501,4.43895,8.95695
1680019718103,1199706458855749,1.416,4.4149504,8.928
1680019718105,1199706461358134,1.473,4.46505,8.871
1680019718109,1199706463860288,1.485,4.43205,8.923051
1680019718110,1199706466362531,1.5670501,4.39305,8.86095
1680019718113,1199706468864685,1.416,4.4220004,8.890051
1680019718116,1199706471367070,1.4760001,4.6210504,8.79405
1680019718120,1199706473869306,1.45905,4.54395,8.856
1680019718122,1199706476371460,1.4970001,4.46505,8.895
1680019718124,1199706478873844,1.5670501,4.4599504,8.884951
1680019718126,1199706481375998,1.4080501,4.49595,8.878051
1680019718129,1199706483878229,1.485,4.4890504,8.928
1680019718131,1199706486380608,1.521,4.48395,8.847
1680019718133,1199706488882762,1.52295,4.413,8.821051
1680019718136,1199706491384993,1.47105,4.4440503,8.809051
1680019718139,1199706493887147,1.473,4.4820004,8.928
1680019718141,1199706496389532,1.485,4.40805,8.854051
1680019718143,1199706498891786,1.5280501,4.48395,8.875951
1680019718145,1199706501394171,1.4830501,4.4560504,8.823
1680019718149,1199706503896325,1.4800501,4.4770503,8.883
1680019718151,1199706506398460,1.50705,4.51305,8.95905
1680019718153,1199706508900690,1.4830501,4.43895,8.8279505
1680019718157,1199706511403075,1.36995,4.4029503,8.823
1680019718160,1199706513905306,1.404,4.4440503,8.967
1680019718161,1199706516407451,1.45605,4.329,8.847
1680019718163,1199706518909835,1.4280001,4.4149504,8.734051
1680019718166,1199706521411989,1.4610001,4.49895,8.93295
1680019718169,1199706523914220,1.3729501,4.293,9.010051
1680019718171,1199706526416374,1.3750501,4.3770003,8.887951
1680019718173,1199706528918835,1.45605,4.4599504,8.9740505
1680019718176,1199706531420989,1.3800001,4.42395,8.93295
1680019718179,1199706533923374,1.26195,4.3380003,8.895
1680019718181,1199706536425528,1.3410001,4.3549504,8.93295
1680019718183,1199706538927749,1.3270501,4.4050503,8.95695
1680019718185,1199706541429903,1.3080001,4.434,8.93505
1680019718189,1199706543932288,1.3270501,4.49205,8.83005
1680019718191,1199706546434519,1.212,4.362,8.896951
1680019718194,1199706548936652,1.365,4.3890004,8.868
1680019718196,1199706551439037,1.4110501,4.3309503,8.892
1680019718199,1199706553941191,1.38705,4.37895,8.904
1680019718201,1199706556443422,1.3729501,4.281,8.871
1680019718203,1199706558945576,1.4440501,4.38105,8.91195
1680019718205,1199706561448052,1.3750501,4.374,8.923051
1680019718209,1199706563950206,1.41795,4.40805,8.878051
1680019718211,1199706566452591,1.4250001,4.3309503,8.95905
1680019718213,1199706568954744,1.5160501,4.2829504,8.923051
1680019718216,1199706571456883,1.4490001,4.3330503,8.81805
1680019718219,1199706573959114,1.4970001,4.36905,8.91195
1680019718221,1199706576461499,1.4470501,4.2979503,8.78205
1680019718223,1199706578963729,1.50195,4.28595,8.875951
1680019718226,1199706581465883,1.4610001,4.3980002,8.83695
1680019718229,1199706583968288,1.4320501,4.4290504,8.75595
1680019718232,1199706586470442,1.45395,4.3309503,8.868
1680019718234,1199706588972596,1.3960501,4.4149504,8.875951
1680019718236,1199706591475057,1.50705,4.3450503,8.920951
1680019718239,1199706593977292,1.5330001,4.42695,8.884951
1680019718241,1199706596479446,1.473,4.3500004,8.95005
1680019718243,1199706598981600,1.4470501,4.3570504,8.884951
1680019718246,1199706601483984,1.5499501,4.4770503,8.84895
1680019718249,1199706603986147,1.4640001,4.4479504,8.895
1680019718251,1199706606488609,1.4299501,4.4170504,8.887951
1680019718253,1199706608990763,1.5109501,4.45095,8.871
1680019718256,1199706611492993,1.4419501,4.4820004,8.821051
1680019718259,1199706613995147,1.46595,4.47195,8.78205
1680019718261,1199706616497532,1.4610001,4.4440503,8.809051
1680019718263,1199706618999686,1.50195,4.4100003,8.79705
1680019718265,1199706621501840,1.4080501,4.4149504,8.752951
1680019718270,1199706624004287,1.4080501,4.39305,8.83695
1680019718272,1199706626506441,1.4899501,4.45095,8.859
1680019718274,1199706629008672,1.452,4.57305,8.703
1680019718276,1199706631510826,1.34595,4.54395,8.84895
1680019718279,1199706634013210,1.4610001,4.5079503,8.75595
1680019718281,1199706636515355,1.50405,4.5610504,8.821051
1680019718283,1199706639017817,1.3630501,4.4890504,8.80605
1680019718286,1199706641519970,1.3369501,4.4749503,8.80395
1680019718289,1199706644022201,1.38495,4.46295,8.68395
1680019718291,1199706646524350,1.3729501,4.518,8.706
1680019718293,1199706649026735,1.2889501,4.48005,8.7289505
1680019718296,1199706651528889,1.31505,4.45095,8.77995
1680019718299,1199706654031350,1.401,4.47195,8.75805
1680019718301,1199706656533504,1.2720001,4.43205,8.839951
1680019718303,1199706659035658,1.31505,4.563,8.872951
1680019718307,1199706661537889,1.33905,4.4359503,8.842051
1680019718310,1199706664040273,1.24605,4.353,8.706
1680019718312,1199706666542408,1.2910501,4.39605,8.75595
1680019718313,1199706669044639,1.317,4.4220004,8.75805
1680019718316,1199706671547023,1.27005,4.446,8.86095
1680019718318,1199706674049177,1.3609501,4.4290504,8.878051
1680019718321,1199706676551331,1.31505,4.413,8.743951
1680019718323,1199706679053562,1.3099501,4.3840504,8.851951
1680019718326,1199706681555947,1.33905,4.4100003,8.859
1680019718329,1199706684058177,1.3050001,4.4749503,8.872951
1680019718331,1199706686560331,1.38705,4.362,8.842051
1680019718333,1199706689062735,1.401,4.3380003,8.90205
1680019718336,1199706691564889,1.3369501,4.362,8.892
1680019718339,1199706694067119,1.47105,4.47195,8.79705
1680019718341,1199706696569273,1.4059501,4.506,8.892
1680019718345,1199706699071647,1.389,4.4100003,8.81295
1680019718347,1199706701573878,1.36995,4.4749503,8.81805
1680019718350,1199706704076031,1.416,4.52295,8.923051
1680019718352,1199706706578416,1.3939501,4.45095,8.835
1680019718354,1199706709080647,1.47105,4.3770003,8.871
1680019718356,1199706711582811,1.3939501,4.36005,8.919001
1680019718359,1199706714084965,1.4250001,4.3099504,8.847
1680019718361,1199706716587426,1.404,4.3650002,8.94495
1680019718363,1199706719089580,1.4490001,4.26405,8.81295
1680019718366,1199706721591965,1.3960501,4.293,8.884951
1680019718369,1199706724094137,1.3939501,4.3720503,8.7630005
1680019718371,1199706726596368,1.4250001,4.3330503,8.799001
1680019718373,1199706729098522,1.404,4.29495,8.83695
1680019718376,1199706731600912,1.41795,4.44105,8.718
1680019718378,1199706734103142,1.416,4.254,8.83695
1680019718383,1199706736605296,1.3990501,4.3330503,8.986051
1680019718384,1199706739107681,1.4470501,4.3380003,9.015
1680019718386,1199706741609835,1.4970001,4.34805,8.83695
1680019718389,1199706744112080,1.42305,4.2709503,8.851951
1680019718391,1199706746614464,1.42305,4.21395,9.049951
1680019718393,1199706749116695,1.4680501,4.2379503,8.75805
1680019718396,1199706751618849,1.3560001,4.34805,8.859
1680019718399,1199706754121219,1.3920001,4.2829504,8.92605
1680019718401,1199706756623373,1.49205,4.2190504,8.892
1680019718403,1199706759125604,1.353,4.1989503,8.84895
1680019718406,1199706761627989,1.416,4.2450004,8.809051
1680019718409,1199706764130228,1.4470501,4.31895,8.896951
1680019718411,1199706766632382,1.5109501,4.3770003,8.863951
1680019718413,1199706769134767,1.42005,4.3429503,8.884951
1680019718416,1199706771636921,1.46595,4.26405,8.84895
1680019718420,1199706774139071,1.4320501,4.2979503,8.77995
1680019718422,1199706776641301,1.404,4.3170004,8.734051
1680019718424,1199706779143686,1.47105,4.269,8.731951
1680019718426,1199706781645917,1.4110501,4.22805,8.847
1680019718429,1199706784148061,1.38495,4.3240504,8.811001
1680019718431,1199706786650445,1.404,4.254,8.77995
1680019718433,1199706789152599,1.2889501,4.302,8.79195
1680019718436,1199706791654753,1.38195,4.269,8.68605
1680019718439,1199706794157205,1.34895,4.2829504,8.79195
1680019718441,1199706796659435,1.3770001,4.3170004,8.77995
1680019718444,1199706799161589,1.368,4.2520504,8.863951
1680019718446,1199706801663743,1.3050001,4.33605,8.847
1680019718449,1199706804166109,1.44,4.3840504,8.799001
1680019718451,1199706806668262,1.3800001,4.4029503,8.904
1680019718453,1199706809170493,1.3990501,4.386,8.896951
1680019718458,1199706811672878,1.3050001,4.4290504,8.96205
1680019718460,1199706814175109,1.3609501,4.43895,8.78895
1680019718462,1199706816735955,1.3579501,4.2979503,8.847
1680019718464,1199706819179416,1.4250001,4.44105,8.920951
1680019718466,1199706821681801,1.368,4.45305,8.904
1680019718469,1199706824184263,1.3920001,4.50105,8.866051
1680019718471,1199706826686431,1.3440001,4.434,8.79195
1680019718473,1199706829188585,1.437,4.4149504,8.764951
1680019718476,1199706831690816,1.38705,4.3720503,8.81295
1680019718479,1199706834192970,1.4280001,4.36005,8.83005
1680019718481,1199706836695128,1.437,4.3840504,8.859
1680019718483,1199706839197512,1.4800501,4.4149504,8.93505
1680019718486,1199706841699974,1.45905,4.2829504,8.83005
1680019718489,1199706844202128,1.4680501,4.353,8.77995
1680019718491,1199706846704282,1.4299501,4.3840504,8.799001
1680019718495,1199706849206512,1.3939501,4.3429503,8.832001
1680019718497,1199706851708666,1.42305,4.38105,8.844001
1680019718500,1199706854211051,1.4899501,4.362,8.80605
1680019718502,1199706856713282,1.4760001,4.353,8.99295
1680019718503,1199706859215666,1.5190501,4.36905,8.907001
1680019718506,1199706861717820,1.416,4.4029503,8.96205
1680019718509,1199706864220051,1.5109501,4.36695,9.05805
1680019718511,1199706866722205,1.473,4.31895,8.907001
1680019718513,1199706869224600,1.3939501,4.341,8.863951
1680019718516,1199706871726831,1.4299501,4.31895,8.8279505
1680019718519,1199706874228985,1.437,4.257,8.887951
1680019718521,1199706876731370,1.4800501,4.39305,8.91405
1680019718523,1199706879233523,1.4130001,4.386,8.86095
1680019718526,1199706881735970,1.4419501,4.3770003,8.81595
1680019718529,1199706884238124,1.4800501,4.4100003,8.842051
1680019718532,1199706886740355,1.4970001,4.413,8.904
1680019718534,1199706889242489,1.48695,4.40805,8.904
1680019718537,1199706891744643,1.43505,4.3840504,8.866051
1680019718539,1199706894247028,1.4680501,4.42005,8.884951
1680019718541,1199706896749259,1.52295,4.3309503,8.93295
1680019718543,1199706899251643,1.46595,4.3050003,8.809051
1680019718546,1199706901753792,1.4680501,4.3980002,8.95905
1680019718549,1199706904256023,1.437,4.33605,8.83695
1680019718551,1199706906758177,1.45395,4.434,8.76795
1680019718553,1199706909260331,1.5280501,4.36695,8.839951
1680019718556,1199706911762792,1.47105,4.4149504,8.868
1680019718559,1199706914265168,1.4470501,4.43205,8.8279505
1680019718561,1199706916767322,1.4610001,4.43895,8.799001
1680019718563,1199706919269476,1.45395,4.401,8.77005
1680019718566,1199706921771706,1.416,4.326,8.81595
1680019718571,1199706924273869,1.4950501,4.2829504,8.79705
1680019718572,1199706926776254,1.4610001,4.386,8.713051
1680019718574,1199706929278485,1.38495,4.3549504,8.904
1680019718577,1199706931780874,1.50405,4.374,8.72505
1680019718579,1199706934283028,1.35105,4.329,8.76105
1680019718581,1199706936785259,1.3579501,4.4869504,8.731951
1680019718584,1199706939287413,1.3800001,4.374,8.80395
1680019718586,1199706941789797,1.3990501,4.45095,8.80605
1680019718589,1199706944292028,1.41795,4.42005,8.79405
1680019718591,1199706946794182,1.3410001,4.45305,8.80095
1680019718593,1199706949296567,1.416,4.46295,8.811001
1680019718596,1199706951798720,1.3219501,4.458,8.979
1680019718599,1199706954300960,1.3960501,4.458,8.964001
1680019718601,1199706956803114,1.2360001,4.46805,8.839951
1680019718603,1199706959305576,1.284,4.43205,8.871
1680019718607,1199706961807729,1.3369501,4.47195,8.892
1680019718610,1199706964310124,1.2910501,4.374,8.96205
1680019718612,1199706966812278,1.3080001,4.458,8.859
1680019718614,1199706969314432,1.2859501,4.3240504,8.884951
1680019718617,1199706971816663,1.27695,4.45095,8.976001
1680019718619,1199706974319119,1.3560001,4.3840504,8.908951
1680019718622,1199706976821273,1.3249501,4.46805,8.91195
1680019718624,1199706979323427,1.3099501,4.374,8.916
1680019718626,1199706981825811,1.3050001,4.42695,8.854051
1680019718629,1199706984328042,1.3560001,4.4029503,8.883
1680019718631,1199706986830191,1.3410001,4.37895,8.92605
1680019718633,1199706989332576,1.33395,4.45305,8.940001
1680019718636,1199706991834806,1.353,4.4599504,8.884951
1680019718639,1199706994336960,1.29795,4.43205,8.887951
1680019718641,1199706996839109,1.34595,4.51305,8.92605
1680019718645,1199706999341494,1.3219501,4.40805,8.83695
1680019718647,1199707001843724,1.3080001,4.353,8.91405
1680019718650,1199707004345878,1.3920001,4.4599504,8.851951
1680019718652,1199707006848278,1.38705,4.42395,8.964001
1680019718654,1199707009350509,1.30095,4.47195,8.839951
1680019718657,1199707011852663,1.2889501,4.5199504,8.93295
1680019718660,1199707014355047,1.29795,4.39605,8.883
1680019718661,1199707016857201,1.33395,4.374,8.81805
1680019718663,1199707019359427,1.32,4.36695,8.79705
1680019718666,1199707021861811,1.22595,4.45095,8.868
1680019718669,1199707024363965,1.2360001,4.413,8.92605
1680019718671,1199707026866196,1.2409501,4.5540004,8.776951
1680019718673,1199707029368581,1.26195,4.3570504,8.764951
1680019718676,1199707031870721,1.2550501,4.39605,8.811001
1680019718679,1199707034372874,1.143,4.446,8.811001
1680019718683,1199707036875336,1.21905,4.4700003,8.809051
1680019718687,1199707039377490,1.23405,4.3770003,8.7289505
1680019718688,1199707041879721,1.27695,4.4599504,8.739
1680019718689,1199707044381874,1.2600001,4.446,8.751
1680019718691,1199707046884259,1.3249501,4.5370502,8.719951
1680019718694,1199707049386413,1.2360001,4.4029503,8.679001
1680019718697,1199707051888658,1.28205,4.42395,8.739
1680019718699,1199707054391042,1.21905,4.36005,8.67405
1680019718701,1199707056893273,1.23405,4.3890004,8.73705
1680019718703,1199707059395427,1.2049501,4.39605,8.751
1680019718706,1199707061897591,1.2580501,4.413,8.658
1680019718709,1199707064399975,1.131,4.413,8.67
1680019718711,1199707066902129,1.2220501,4.42695,8.658
1680019718714,1199707069404591,1.1880001,4.3720503,8.67195
1680019718716,1199707071906754,1.1400001,4.36005,8.62395
1680019718720,1199707074408984,1.23405,4.4050503,8.67
1680019718723,1199707076911138,1.19505,4.36695,8.679001
1680019718724,1199707079413523,1.1590501,4.4149504,8.710051
1680019718726,1199707081915677,1.1590501,4.40805,8.60505
1680019718730,1199707084417908,1.1880001,4.3720503,8.65995
1680019718731,1199707086920292,1.2,4.3720503,8.727
1680019718734,1199707089422523,1.26495,4.4029503,8.776951
1680019718737,1199707091924677,1.128,4.36695,8.67
1680019718739,1199707094426831,1.1740501,4.434,8.65005
1680019718741,1199707096929215,1.2220501,4.40805,8.734051
1680019718744,1199707099431446,1.19505,4.386,8.655001
1680019718746,1199707101933831,1.107,4.3840504,8.746051
1680019718750,1199707104435990,1.1590501,4.413,8.64795
1680019718751,1199707106938220,1.167,4.3050003,8.6980505
1680019718754,1199707109440374,1.1550001,4.36005,8.707951
1680019718758,1199707111942489,1.14495,4.40805,8.65995
1680019718760,1199707114444951,1.2070501,4.38105,8.658
1680019718762,1199707116947335,1.2529501,4.3000503,8.6650505
1680019718764,1199707119449489,1.15695,4.38105,8.854051
1680019718766,1199707121951643,1.19505,4.3309503,8.851951
1680019718769,1199707124453874,1.16205,4.4029503,8.689051
1680019718772,1199707126956027,1.1689501,4.43895,8.75805
1680019718774,1199707129458412,1.212,4.39605,8.76795
1680019718777,1199707131960643,1.2739501,4.413,8.746051
1680019718780,1199707134463028,1.2600001,4.4220004,8.62695
1680019718781,1199707136965181,1.21695,4.46505,8.823
1680019718784,1199707139467335,1.1910001,4.43205,8.79405
1680019718786,1199707141969566,1.30305,4.3380003,8.79405
1680019718789,1199707144471735,1.3990501,4.36695,8.88
1680019718791,1199707146974196,1.33395,4.42005,8.7289505
1680019718795,1199707149476350,1.3249501,4.28595,8.76105
1680019718797,1199707151978735,1.3990501,4.4290504,8.78895
1680019718799,1199707154480894,1.353,4.446,8.81595
1680019718801,1199707156983048,1.3990501,4.4749503,8.77995
1680019718803,1199707159485278,1.4320501,4.3450503,8.81295
1680019718806,1199707161987740,1.42305,4.3000503,8.9740505
1680019718809,1199707164489894,1.4080501,4.3549504,8.872951
1680019718811,1199707166992052,1.5190501,4.302,8.80095
1680019718814,1199707169494436,1.4280001,4.4149504,8.787001
1680019718817,1199707171996590,1.4470501,4.37895,8.89995
1680019718820,1199707174498821,1.5109501,4.3890004,8.859
1680019718821,1199707177001186,1.5090001,4.3240504,8.923051
1680019718824,1199707179503417,1.5589501,4.353,8.91195
1680019718826,1199707182005571,1.4899501,4.46805,8.91405
1680019718829,1199707184507956,1.5330001,4.269,8.847
1680019718833,1199707187010125,1.593,4.506,8.854051
1680019718834,1199707189512278,1.49205,4.329,8.835
1680019718836,1199707192014740,1.44,4.353,8.84895
1680019718839,1199707194516971,1.47105,4.3500004,8.896951
1680019718841,1199707197019125,1.5310501,4.3720503,8.79195
1680019718844,1199707199521305,1.5330001,4.413,8.887951
1680019718847,1199707202023690,1.48695,4.4149504,8.77305
1680019718850,1199707204525844,1.5109501,4.4220004,8.79195
1680019718852,1199707207028305,1.437,4.43895,8.77005
1680019718854,1199707209530459,1.4779501,4.4050503,8.856
1680019718857,1199707212032690,1.5469501,4.39305,8.892
1680019718859,1199707214534844,1.4970001,4.434,8.751
1680019718861,1199707217036998,1.4680501,4.3770003,8.81295
1680019718864,1199707219539382,1.4760001,4.39605,8.75595
1680019718866,1199707222041590,1.4760001,4.46805,8.722051
1680019718872,1199707224543975,1.45905,4.4100003,8.78505
1680019718872,1199707227046129,1.4970001,4.44105,8.79195
1680019718874,1199707229548359,1.4899501,4.4820004,8.78205
1680019718876,1199707232050513,1.437,4.4290504,8.839951
1680019718879,1199707234552667,1.43505,4.4890504,8.7630005
1680019718881,1199707237055052,1.4899501,4.458,8.79195
1680019718884,1199707239557513,1.4680501,4.5610504,8.740951
1680019718886,1199707242059658,1.401,4.4890504,8.76105
1680019718889,1199707244561812,1.416,4.4869504,8.682
1680019718891,1199707247064043,1.4250001,4.4290504,8.722051
1680019718894,1199707249566197,1.4110501,4.42005,8.83695
1680019718897,1199707252068571,1.42305,4.4560504,8.752951
1680019718900,1199707254570802,1.4130001,4.46295,8.81805
1680019718901,1199707257073187,1.473,4.31895,8.68395
1680019718904,1199707259575340,1.43505,4.434,8.646001
1680019718908,1199707262077585,1.3729501,4.4029503,8.722051
1680019718910,1199707264579739,1.4250001,4.39605,8.68605
1680019718912,1199707267082124,1.36995,4.4170504,8.64105
1680019718914,1199707269584355,1.3960501,4.4560504,8.6650505
1680019718916,1199707272086508,1.2889501,4.4170504,8.689051
1680019718920,1199707274588648,1.3990501,4.48395,8.68395
1680019718922,1199707277091033,1.45605,4.3450503,8.78205
1680019718924,1199707279593264,1.47105,4.4890504,8.679001
1680019718926,1199707282095648,1.34895,4.5679502,8.65005
1680019718929,1199707284597802,1.365,4.4440503,8.710051
1680019718931,1199707287100052,1.41795,4.42695,8.677051
1680019718934,1199707289602206,1.3920001,4.5420003,8.62905
1680019718937,1199707292104360,1.35105,4.43205,8.67195
1680019718940,1199707294606821,1.38705,4.386,8.722051
1680019718942,1199707297109206,1.4110501,4.458,8.587951
1680019718945,1199707299611360,1.3440001,4.4700003,8.707951
1680019718947,1199707302113513,1.42305,4.4029503,8.75595
1680019718950,1199707304615744,1.38495,4.30695,8.677051
1680019718952,1199707307117912,1.4830501,4.3650002,8.61705
1680019718954,1199707309620297,1.4970001,4.4869504,8.59095
1680019718957,1199707312122527,1.4989501,4.386,8.52105
1680019718959,1199707314624912,1.401,4.43895,8.598001
1680019718961,1199707317127066,1.4830501,4.4890504,8.581051
1680019718964,1199707319629293,1.4760001,4.44105,8.6650505
1680019718966,1199707322131447,1.4440501,4.4749503,8.682
1680019718969,1199707324633600,1.38705,4.4749503,8.64105
1680019718971,1199707327136062,1.45395,4.4440503,8.731951
1680019718974,1199707329638220,1.54005,4.5370502,8.667001
1680019718977,1199707332140604,1.5520501,4.49595,8.694
1680019718980,1199707334642758,1.53495,4.5610504,8.65005
1680019718983,1199707337144989,1.5109501,4.6399503,8.743951
1680019718985,1199707339647129,1.44,4.5589504,8.718
1680019718986,1199707342149590,1.54005,4.5199504,8.713051
1680019718989,1199707344651744,1.6099501,4.46805,8.752951
1680019718992,1199707347154129,1.62195,4.5679502,8.80095
1680019718994,1199707349656283,1.5589501,4.563,8.83005
1680019718996,1199707352158447,1.49205,4.5990005,8.81805
1680019718999,1199707354660677,1.57605,4.5540004,8.78205
1680019719001,1199707357163139,1.5690001,4.458,8.740951
1680019719004,1199707359665293,1.5330001,4.45305,8.871
1680019719006,1199707362167442,1.6459501,4.434,8.79705
1680019719009,1199707364669826,1.6810501,4.48005,8.73705
1680019719011,1199707367171980,1.6720501,4.51305,8.86095
1680019719014,1199707369674134,1.746,4.4220004,8.940001
1680019719017,1199707372176360,1.6309501,4.3890004,8.76795
1680019719021,1199707374678821,1.6290001,4.4479504,8.79195
1680019719023,1199707377180975,1.7989501,4.4170504,8.895
1680019719025,1199707379683129,1.746,4.48005,8.93505
1680019719027,1199707382185514,1.7410501,4.4560504,8.916
1680019719030,1199707384687672,1.76505,4.578,8.878051
1680019719031,1199707387189903,1.761,4.3890004,8.895
1680019719034,1199707389692288,1.8180001,4.5150003,8.82495
1680019719036,1199707392194519,1.8180001,4.4770503,8.875951
1680019719039,1199707394696683,1.7989501,4.5150003,8.916
1680019719041,1199707397198836,1.77495,4.5349503,8.832001
1680019719044,1199707399701221,1.78005,4.4479504,8.875951
1680019719047,1199707402203375,1.81095,4.45095,8.868
1680019719050,1199707404705821,1.7509501,4.506,8.776951
1680019719052,1199707407207975,1.84905,4.51095,8.83005
1680019719054,1199707409710206,1.7029501,4.50105,8.76105
1680019719059,1199707412212360,1.84905,4.446,8.884951
1680019719061,1199707414714744,1.69305,4.5540004,8.863951
1680019719063,1199707417216898,1.746,4.52295,8.682
1680019719065,1199707419719360,1.7490001,4.51305,8.856
1680019719067,1199707422221514,1.76505,4.4890504,8.731951
1680019719070,1199707424723750,1.7820001,4.51305,8.73705
1680019719073,1199707427225903,1.7869501,4.57095,8.787001
1680019719074,1199707429728057,1.7149501,4.5199504,8.81805
1680019719076,1199707432230442,1.7220001,4.58295,8.75595
1680019719079,1199707434732673,1.6669501,4.539,8.8279505
1680019719081,1199707437235028,1.69305,4.5270004,8.610001
1680019719084,1199707439737182,1.72695,4.51305,8.734051
1680019719086,1199707442239413,1.6860001,4.563,8.715
1680019719089,1199707444741567,1.593,4.602,8.66205
1680019719091,1199707447243726,1.6890001,4.5990005,8.706
1680019719095,1199707449746110,1.6360501,4.662,8.677051
1680019719098,1199707452248572,1.605,4.5750003,8.655001
1680019719100,1199707454750735,1.677,4.671,8.677051
1680019719102,1199707457252888,1.6189501,4.638,8.63805
1680019719104,1199707459755119,1.57395,4.69005,8.727
1680019719106,1199707462257273,1.57605,4.602,8.63805
1680019719109,1199707464759427,1.62195,4.6660504,8.775001
1680019719111,1199707467261888,1.57605,4.70205,8.562
1680019719114,1199707469764273,1.62195,4.7530503,8.478001
1680019719116,1199707472266427,1.6000501,4.67595,8.60295
1680019719119,1199707474768581,1.61205,4.75005,8.64795
1680019719122,1199707477270798,1.5640501,4.79295,8.559
1680019719124,1199707479773182,1.6189501,4.7140503,8.646001
1680019719126,1199707482275413,1.57605,4.65705,8.535001
1680019719129,1199707484777567,1.593,4.69995,8.559
1680019719133,1199707487279955,1.5330001,4.6740003,8.538
1680019719135,1199707489782109,1.5330001,4.7070003,8.658
1680019719137,1199707492284263,1.50705,4.6740003,8.6650505
1680019719140,1199707494786494,1.6189501,4.70895,8.587951
1680019719142,1199707497288955,1.5109501,4.7719502,8.571
1680019719144,1199707499791114,1.57095,4.7190003,8.55195
1680019719147,1199707502293268,1.5330001,4.7530503,8.622001
1680019719150,1199707504795653,1.59,4.77705,8.563951
1680019719152,1199707507297807,1.5160501,4.623,8.599951
1680019719155,1199707509800037,1.4610001,4.7239504,8.65005
1680019719156,1199707512302191,1.59,4.77405,8.658
1680019719159,1199707514804653,1.5109501,4.72095,8.610001
1680019719161,1199707517306807,1.5790501,4.8289504,8.581051
1680019719164,1199707519809191,1.5160501,4.73295,8.646001
1680019719166,1199707522311326,1.4470501,4.6740003,8.59095
1680019719171,1199707524813480,1.5979501,4.7140503,8.554951
1680019719173,1199707527315711,1.50405,4.6260004,8.50395
1680019719174,1199707529818172,1.4830501,4.61805,8.47995
1680019719177,1199707532320326,1.5499501,4.75995,8.599951
1680019719180,1199707534822480,1.4760001,4.6930504,8.559
1680019719182,1199707537324865,1.4970001,4.65,8.566951
1680019719185,1199707539827018,1.4419501,4.71705,8.622001
1680019719186,1199707542329244,1.50195,4.671,8.47605
1680019719190,1199707544831629,1.4440501,4.66905,8.599951
1680019719192,1199707547333860,1.4470501,4.7310004,8.566951
1680019719194,1199707549836013,1.437,4.77405,8.61495
1680019719196,1199707552338147,1.34595,4.70895,8.610001
1680019719199,1199707554840532,1.41795,4.77405,8.535001
1680019719201,1199707557342763,1.4059501,4.8169503,8.47995
1680019719204,1199707559845147,1.42005,4.72095,8.502001
1680019719208,1199707562347310,1.4130001,4.7239504,8.512051
1680019719210,1199707564849541,1.48695,4.7689505,8.49705
1680019719212,1199707567351695,1.5109501,4.70505,8.52105
1680019719214,1199707569854079,1.38705,4.77705,8.51895
1680019719217,1199707572356233,1.3939501,4.7190003,8.563951
1680019719220,1199707574858715,1.43505,4.78095,8.578951
1680019719222,1199707577360869,1.48695,4.71705,8.581051
1680019719224,1199707579863023,1.42305,4.6860003,8.63595
1680019719226,1199707582365253,1.5190501,4.827,8.578951
1680019719229,1199707584867421,1.5520501,4.71705,8.59095
1680019719231,1199707587369575,1.5280501,4.67805,8.62395
1680019719234,1199707589871960,1.48695,4.8120003,8.60505
1680019719237,1199707592374421,1.6309501,4.73295,8.734051
1680019719239,1199707594876570,1.6000501,4.84095,8.751
1680019719242,1199707597378724,1.5259501,4.7910004,8.743951
1680019719246,1199707599880955,1.6380001,4.7839503,8.776951
1680019719249,1199707602383339,1.6890001,4.77705,8.746051
1680019719251,1199707604885503,1.6980001,4.7689505,8.859
1680019719253,1199707607387734,1.626,4.7239504,8.863951
1680019719255,1199707609890119,1.7509501,4.77405,8.75805
1680019719258,1199707612392272,1.6789501,4.78095,8.859
1680019719260,1199707614894498,1.7700001,4.7260504,8.887951
1680019719262,1199707617396652,1.7320501,4.86,8.835
1680019719264,1199707619899037,1.761,4.8030005,8.887951
1680019719267,1199707622401267,1.8349501,4.8120003,8.78895
1680019719269,1199707624903652,1.8250501,4.88205,8.923051
1680019719272,1199707627405811,1.7820001,4.7719502,8.908951
1680019719274,1199707629907965,1.81605,4.78905,8.856
1680019719276,1199707632410196,1.9069501,4.81005,8.99295
1680019719279,1199707634912580,1.8400501,4.8030005,8.883
1680019719283,1199707637414820,1.899,4.82205,8.878051
1680019719285,1199707639916974,1.84905,4.8580503,8.895
1680019719287,1199707642419358,1.9189501,4.839,8.875951
1680019719290,1199707644921512,1.84905,4.839,8.8279505
1680019719292,1199707647423743,1.84905,4.899,8.84895
1680019719294,1199707649925897,1.9189501,4.887,8.832001
1680019719297,1199707652428358,1.8199501,4.872,8.8279505
1680019719300,1199707654930512,1.81605,4.8559504,8.703
1680019719302,1199707657432666,1.8319501,4.89405,8.746051
1680019719304,1199707659935042,1.7490001,4.92495,8.64795
1680019719307,1199707662437273,1.8750001,4.92705,8.739
1680019719322,1199707664939657,1.725,4.9180503,8.658
1680019719322,1199707667441811,1.81605,4.9110003,8.655001
1680019719322,1199707669943950,1.7680501,5.004,8.67
1680019719323,1199707672446181,1.8060001,5.0209503,8.689051
1680019719323,1199707674948334,1.7080501,4.98,8.574
1680019719323,1199707677450719,1.7200501,4.947,8.587951
1680019719325,1199707679952950,1.7029501,4.9510503,8.62395
1680019719327,1199707682455335,1.6789501,4.9510503,8.563951
1680019719329,1199707684957488,1.65795,4.98705,8.63595
1680019719331,1199707687459719,1.65795,5.01405,8.566951
1680019719334,1199707689961873,1.6840501,4.9350004,8.454
1680019719337,1199707692464037,1.593,4.9900503,8.598001
1680019719340,1199707694966498,1.6339501,5.0230503,8.571
1680019719342,1199707697468883,1.5880501,4.93905,8.455951
1680019719344,1199707699971037,1.5670501,4.85295,8.401051
1680019719347,1199707702473191,1.5330001,4.8960004,8.45895
1680019719350,1199707704975421,1.5139501,4.91505,8.52105
1680019719351,1199707707477575,1.57395,5.0659504,8.45895
1680019719354,1199707709979960,1.5880501,4.98,8.404051
1680019719358,1199707712482191,1.5690001,4.92705,8.44005
1680019719361,1199707714984565,1.3990501,4.9729505,8.349
1680019719363,1199707717486719,1.42305,4.97805,8.404051
1680019719364,1199707719988873,1.4899501,4.92495,8.373
1680019719367,1199707722491104,1.4470501,4.9080005,8.382
1680019719370,1199707724993513,1.45395,4.9939504,8.394
1680019719372,1199707727495744,1.3960501,4.9080005,8.443951
1680019719374,1199707729997898,1.416,4.95405,8.44905
1680019719378,1199707732500283,1.34595,4.92495,8.425051
1680019719380,1199707735002432,1.4250001,4.93695,8.33895
1680019719382,1199707737504585,1.3249501,4.89405,8.404051
1680019719384,1199707740007047,1.33395,4.89195,8.392051
1680019719387,1199707742509201,1.4299501,4.9180503,8.398951
1680019719389,1199707745011432,1.3249501,5.04195,8.41605
1680019719392,1199707747513590,1.3609501,5.004,8.45895
1680019719396,1199707750015975,1.4250001,4.9080005,8.401051
1680019719398,1199707752518129,1.3729501,4.99905,8.45205
1680019719400,1199707755020283,1.3960501,5.08605,8.392051
1680019719402,1199707757522730,1.34895,4.99695,8.554951
1680019719404,1199707760024961,1.33905,4.97805,8.42805
1680019719407,1199707762527115,1.27695,4.98,8.44905
1680019719410,1199707765029269,1.3800001,4.9110003,8.47995
1680019719412,1199707767531653,1.317,5.0059505,8.44695
1680019719414,1199707770033807,1.3939501,4.97805,8.559
1680019719418,1199707772536269,1.24605,4.9900503,8.526
1680019719420,1199707775038423,1.332,4.92495,8.52105
1680019719422,1199707777540653,1.353,4.89405,8.392051
1680019719424,1199707780042797,1.3770001,4.99695,8.530951
1680019719427,1199707782545182,1.4059501,4.9440002,8.587951
1680019719430,1199707785047336,1.35105,4.92495,8.554951
1680019719433,1199707787549591,1.42005,4.9230003,8.547
1680019719435,1199707790051975,1.3990501,5.0059505,8.578951
1680019719437,1199707792554206,1.353,4.98,8.514
1680019719439,1199707795056360,1.4059501,5.0230503,8.442
1680019719442,1199707797558514,1.41795,4.9750504,8.490001
1680019719444,1199707800060888,1.389,4.93695,8.46105
1680019719447,1199707802563119,1.3249501,4.99695,8.47095
1680019719450,1199707805065273,1.416,5.0500503,8.48805
1680019719452,1199707807567657,1.3800001,5.0470505,8.569051
1680019719454,1199707810069888,1.4299501,5.0500503,8.65305
1680019719457,1199707812572037,1.38195,5.0160003,8.583
1680019719460,1199707815074191,1.4280001,5.0830503,8.61705
1680019719462,1199707817576576,1.4320501,5.03805,8.60295
1680019719464,1199707820078806,1.4680501,5.0020504,8.610001
1680019719467,1199707822581191,1.332,5.0929503,8.48295
1680019719471,1199707825083345,1.404,5.07105,8.547
1680019719473,1199707827585576,1.50195,5.064,8.586
1680019719474,1199707830087729,1.4830501,5.0929503,8.455951
1680019719477,1199707832589888,1.473,5.0470505,8.502001
1680019719479,1199707835092350,1.4899501,5.136,8.490001
1680019719482,1199707837594734,1.50405,5.052,8.425051
1680019719484,1199707840096888,1.5520501,5.0539503,8.50395
1680019719487,1199707842599042,1.57095,5.076,8.524051
1680019719489,1199707845101273,1.52295,4.97805,8.51595
1680019719492,1199707847603427,1.5469501,4.959,8.42805
1680019719494,1199707850105888,1.5979501,5.10195,8.478001
1680019719497,1199707852608042,1.5090001,4.9680004,8.397
1680019719500,1199707855110427,1.6290001,5.0929503,8.358001
1680019719502,1199707857612581,1.6290001,5.13105,8.373
1680019719504,1199707860114735,1.6140001,5.05905,8.524051
1680019719508,1199707862616965,1.6720501,5.0230503,8.394
1680019719511,1199707865119350,1.57395,5.1720004,8.409
1680019719513,1199707867621581,1.5589501,5.02995,8.409
1680019719514,1199707870123735,1.6380001,5.1450005,8.392051
1680019719517,1199707872626119,1.6140001,5.02605,8.3869505
1680019719520,1199707875128288,1.74405,5.052,8.47095
1680019719522,1199707877630519,1.6789501,5.01405,8.500051
1680019719524,1199707880132903,1.6699501,5.0500503,8.370001
1680019719527,1199707882635057,1.6789501,5.004,8.3890505
1680019719530,1199707885137292,1.6860001,5.0740504,8.392051
1680019719532,1199707887639677,1.641,4.98495,8.4210005
1680019719534,1199707890141831,1.7080501,5.0209503,8.32005
1680019719537,1199707892643984,1.674,5.0740504,8.37495
1680019719540,1199707895146190,1.7410501,5.06895,8.337001
1680019719542,1199707897648575,1.677,4.89195,8.28195
1680019719546,1199707900150729,1.7340001,5.076,8.313001
1680019719548,1199707902652959,1.7530501,5.0539503,8.36295
1680019719552,1199707905155349,1.7530501,4.992,8.466001
1680019719554,1199707907657503,1.7989501,4.90605,8.409
1680019719555,1199707910159657,1.6500001,4.9680004,8.380051
1680019719557,1199707912662118,1.77495,4.9350004,8.33895
1680019719560,1199707915164272,1.81305,4.9729505,8.241
1680019719562,1199707917666474,1.81605,4.9939504,8.32995
1680019719564,1199707920168628,1.8589501,4.98495,8.23095
1680019719567,1199707922671012,1.78005,4.8889503,8.32005
1680019719570,1199707925173166,1.8520501,4.899,8.21895
1680019719572,1199707927675397,1.713,5.02605,8.277
1680019719575,1199707930177782,1.761,4.9680004,8.34195
1680019719577,1199707932680012,1.713,4.89195,8.265
1680019719580,1199707935182166,1.7370001,4.9609504,8.302951
1680019719584,1199707937684325,1.8370501,4.92705,8.334001
1680019719585,1199707940186710,1.6480501,4.932,8.265
1680019719587,1199707942688941,1.72695,4.899,8.286
1680019719590,1199707945191325,1.6810501,4.9830003,8.23095
1680019719592,1199707947693479,1.7080501,4.92,8.21205
1680019719594,1199707950195729,1.6459501,4.9030504,8.32005
1680019719597,1199707952697883,1.66005,4.91295,8.286
1680019719599,1199707955200267,1.641,4.9609504,8.31
1680019719602,1199707957702498,1.5619501,4.899,8.3890505
1680019719604,1199707960204652,1.5829501,4.899,8.3560505
1680019719607,1199707962707036,1.6500001,4.9080005,8.31
1680019719610,1199707965209267,1.5790501,4.9510503,8.32005
1680019719612,1199707967711421,1.60695,4.9900503,8.35305
1680019719614,1199707970213575,1.4970001,5.004,8.398951
1680019719618,1199707972715970,1.5259501,4.9680004,8.47305
1680019719622,1199707975218200,1.5190501,5.0659504,8.41605
1680019719624,1199707977720354,1.4440501,4.93695,8.337001
1680019719625,1199707980222734,1.521,5.05905,8.434951
1680019719627,1199707982724965,1.5109501,5.0400004,8.398951
1680019719630,1199707985227118,1.4059501,5.0500503,8.406
1680019719632,1199707987729272,1.5589501,5.05905,8.34195
1680019719634,1199707990231734,1.4610001,5.0950503,8.401051
1680019719637,1199707992733902,1.52295,5.109,8.3869505
1680019719640,1199707995236286,1.5310501,5.109,8.433001
1680019719642,1199707997738440,1.4640001,5.136,8.325001
1680019719645,1199708000240671,1.5640501,5.1979504,8.236051
1680019719647,1199708002742830,1.593,5.17395,8.301001
1680019719650,1199708005245214,1.5589501,5.1600003,8.33895
1680019719652,1199708007747445,1.6789501,5.2530003,8.274
1680019719655,1199708010249599,1.6669501,5.241,8.349
1680019719659,1199708012751998,1.66005,5.2390504,8.3220005
1680019719662,1199708015254152,1.72695,5.3200502,8.257951
1680019719663,1199708017865305,1.6980001,5.2720504,8.31795
1680019719665,1199708020258767,1.7149501,5.28,8.3560505
1680019719667,1199708022760921,1.8370501,5.2000504,8.380051
1680019719670,1199708025263162,1.7149501,5.2530003,8.334001
1680019719672,1199708027765546,1.7770501,5.2530003,8.278951
1680019719674,1199708030267700,1.7580001,5.2699504,8.361
1680019719677,1199708032769854,1.7370001,5.1880503,8.337001
1680019719679,1199708035272085,1.8180001,5.32695,8.20995
1680019719682,1199708037774474,1.7719501,5.2699504,8.21205
1680019719684,1199708040276705,1.9069501,5.28,8.25
1680019719687,1199708042778859,1.8060001,5.2600503,8.31495
1680019719690,1199708045281244,1.8250501,5.28,8.272051
1680019719692,1199708047783392,1.84395,5.28,8.358001
1680019719696,1199708050285623,1.9380001,5.2840505,8.071051
1680019719698,1199708052788008,1.8610501,5.2870502,8.215051
1680019719701,1199708055290162,1.8420001,5.36595,8.104051
1680019719703,1199708057792315,1.89495,5.2909503,8.17905
1680019719704,1199708060294546,1.84695,5.2440004,8.0779505
1680019719707,1199708062796931,1.8559501,5.26305,8.17905
1680019719710,1199708065299162,1.8709501,5.373,8.071051
1680019719712,1199708067801335,1.8229501,5.2440004,8.158951
1680019719714,1199708070303720,1.8199501,5.2320004,8.163
1680019719717,1199708072805874,1.81605,5.241,8.239051
1680019719720,1199708075308028,1.9189501,5.2909503,8.191051
1680019719722,1199708077810465,1.725,5.2870502,8.049001
1680019719724,1199708080312696,1.8040501,5.2840505,8.05605
1680019719727,1199708082814850,1.7320501,5.2870502,8.01
1680019719730,1199708085317004,1.74405,5.36805,8.15205
1680019719734,1199708087819407,1.6810501,5.23605,8.005051
1680019719735,1199708090321561,1.72905,5.2720504,8.02095
1680019719738,1199708092824023,1.7170501,5.36595,8.101951
1680019719740,1199708095326177,1.6720501,5.3370004,8.089951
1680019719742,1199708097828407,1.6669501,5.2600503,7.9440002
1680019719745,1199708100330576,1.6720501,5.2770004,8.18595
1680019719747,1199708102832730,1.65495,5.22405,8.101951
1680019719750,1199708105335115,1.5790501,5.3200502,8.016001
1680019719752,1199708107837576,1.5619501,5.313,8.04705
1680019719754,1199708110339730,1.626,5.30805,8.03505
1680019719757,1199708112841889,1.6290001,5.2909503,8.064
1680019719759,1199708115344120,1.5520501,5.268,8.092051
1680019719762,1199708117846274,1.62195,5.33895,8.161051
1680019719764,1199708120348428,1.5979501,5.32305,8.191051
1680019719767,1199708122850812,1.6890001,5.2770004,8.092051
1680019719771,1199708125353274,1.6360501,5.47095,8.20005
1680019719773,1199708127855428,1.54305,5.42595,8.20005
1680019719775,1199708130357581,1.5259501,5.3869505,8.16705
1680019719778,1199708132859807,1.54005,5.37795,8.277
1680019719780,1199708135361961,1.55505,5.3970003,8.154
1680019719782,1199708137864115,1.6189501,5.3869505,7.9819503
1680019719784,1199708140366576,1.6189501,5.54295,8.125951
1680019719787,1199708142868961,1.6720501,5.45895,8.023951
1680019719790,1199708145371115,1.6360501,5.43795,8.029051
1680019719792,1199708147873269,1.674,5.517,8.097
1680019719794,1199708150375500,1.6099501,5.505,8.145
1680019719797,1199708152877648,1.7320501,5.5480504,7.9750504
1680019719800,1199708155380110,1.746,5.61,8.064
1680019719802,1199708157882264,1.7920501,5.53305,8.1
1680019719805,1199708160384648,1.7560501,5.57205,8.071051
1680019719808,1199708162886783,1.8349501,5.54295,8.121
1680019719812,1199708165389014,1.78005,5.55495,7.99695
1680019719813,1199708167891168,1.77495,5.64795,8.13
1680019719815,1199708170393629,1.77495,5.6839504,8.109
1680019719818,1199708172895783,1.8610501,5.5140004,8.04195
1680019719820,1199708175398158,1.9810501,5.64795,8.023951
1680019719822,1199708177900312,1.9810501,5.5930505,8.052
1680019719824,1199708180402466,2.0020502,5.63205,8.125951
1680019719827,1199708182904696,1.9570501,5.58795,7.9440002
1680019719830,1199708185407057,1.9399501,5.682,7.9729505
1680019719832,1199708187909288,1.96395,5.65605,8.122951
1680019719835,1199708190411442,1.9740001,5.73705,8.02095
1680019719837,1199708192913826,1.9470001,5.6080503,8.0449505
1680019719839,1199708195415980,2.05305,5.7010503,8.083051
1680019719842,1199708197918129,2.01705,5.703,8.03295
1680019719846,1199708200420360,2.02305,5.7010503,8.158951
1680019719848,1199708202922744,2.115,5.65605,8.142
1680019719851,1199708205424990,2.05005,5.7109504,8.0119505
1680019719853,1199708207927144,2.0670002,5.6989503,8.17395
1680019719855,1199708210429529,2.06205,5.64795,8.049001
1680019719858,1199708212931682,2.01195,5.5810504,8.028001
1680019719860,1199708215433836,2.1720002,5.63205,8.016001
1680019719862,1199708217936274,2.12505,5.5690503,8.073
1680019719865,1199708220438505,2.12505,5.63205,7.9750504
1680019719867,1199708222940658,2.15595,5.5860004,7.96995
1680019719870,1199708225442812,2.11995,5.53305,8.023951
1680019719872,1199708227945197,2.21805,5.5410004,7.872
1680019719875,1199708230447355,2.1370502,5.5789504,7.9270506
1680019719877,1199708232949816,2.3070002,5.6599503,7.9249506
1680019719880,1199708235451970,2.26605,5.6599503,7.7550006
1680019719883,1199708237954181,2.28495,5.7109504,7.8220506
1680019719885,1199708240456335,2.25195,5.60295,7.77405
1680019719887,1199708242958489,2.2350001,5.58795,7.8240004
1680019719890,1199708245460873,2.3089502,5.73495,7.8190503
1680019719892,1199708247963104,2.2039502,5.6340003,7.77405
1680019719894,1199708250465523,2.26605,5.63205,7.728
1680019719898,1199708252967677,2.2800002,5.64405,7.6729503
1680019719900,1199708255469907,2.2420502,5.60505,7.7400002
1680019719902,1199708257972061,2.21295,5.60295,7.8460503
1680019719905,1199708260474451,2.1750002,5.565,7.8
1680019719907,1199708262976605,2.09295,5.61495,7.7689505
1680019719910,1199708265478835,2.11305,5.6599503,7.86705
1680019719912,1199708267981220,2.08395,5.5620003,7.8790503
1680019719914,1199708270483451,2.08395,5.5690503,7.9800005
1680019719917,1199708272985585,2.05005,5.63205,7.8409505
1680019719922,1199708275487739,1.899,5.6650505,7.8529506
1680019719924,1199708277990123,1.9810501,5.53305,8.00895
1680019719926,1199708280492359,1.8970501,5.6080503,7.8600006
1680019719927,1199708282994744,1.5670501,5.5600505,7.8
1680019719930,1199708285496897,1.746,5.6269503,7.89795
1680019719932,1199708287999128,1.8199501,5.70795,7.9540505
1680019719938,1199708290501282,1.9549501,5.63205,7.9339504
1680019719939,1199708293003412,1.69605,5.5360503,7.9489503
1680019719941,1199708295505873,1.64295,5.6290503,7.8600006
1680019719942,1199708298008027,1.5139501,5.61,7.872
1680019719945,1199708300510412,1.6789501,5.48505,7.90605
1680019719947,1199708303012566,2.05995,5.7439504,8.06805
1680019719950,1199708305514792,2.11695,5.7130504,8.089951
1680019719952,1199708308016945,2.1720002,5.76105,8.05395
1680019719955,1199708310519330,2.45295,5.84205,8.049001
1680019719959,1199708313021561,2.63205,5.7900004,8.02305
1680019719961,1199708315523715,2.5480502,5.787,8.04705
1680019719963,1199708318026099,2.5819502,5.8500004,8.02305
1680019719965,1199708320528253,2.39295,5.74905,7.8529506
1680019719967,1199708323030484,2.3449502,5.7319503,7.9249506
1680019719970,1199708325532854,2.3160002,5.7510004,7.80495
1680019719972,1199708328035085,2.52195,5.7559505,7.8460503
1680019719975,1199708330537239,2.39805,5.7229505,8.11905
1680019719978,1199708333039393,2.4840002,5.8180504,7.977
1680019719980,1199708335541782,2.3760002,5.8230004,7.9939504
1680019719982,1199708338044012,2.3760002,5.8350005,7.8510003
1680019719984,1199708340546166,2.3430002,5.8350005,7.8619504
1680019719987,1199708343048551,2.39295,5.9599504,7.9009504
1680019719990,1199708345550782,2.328,5.94495,7.8739505
1680019719992,1199708348052945,2.35395,5.931,7.9540505
1680019719996,1199708350555330,2.328,5.94105,8.005051
1680019719999,1199708353057484,2.3110502,6.0079503,8.02305
1680019720001,1199708355559734,2.38995,5.9929504,7.9680004
1680019720002,1199708358062118,2.35395,5.9689503,7.9080005
1680019720004,1199708360564272,2.26605,5.99805,7.9150505
1680019720007,1199708363066503,2.15805,6.0390005,7.9920006
1680019720010,1199708365568888,2.24895,6.0870004,7.9920006
1680019720012,1199708368071031,2.09805,6.0079503,8.023951
1680019720015,1199708370573185,2.22795,5.91405,8.04705
1680019720018,1199708373075647,2.22495,6.04605,7.8840003
1680019720021,1199708375577801,2.163,5.979,7.8430505
1680019720022,1199708378079941,2.2110002,5.98395,7.9129505
1680019720025,1199708380582171,2.24895,5.9290504,7.80495
1680019720027,1199708383084556,2.223,6.012,7.9030504
1680019720030,1199708385586710,2.21805,5.9689503,7.8409505
1680019720034,1199708388088970,2.2060502,6.051,7.9510503
1680019720035,1199708390591354,2.256,6.0480003,7.9420505
1680019720037,1199708393093508,2.23005,6.0030003,7.9579506
1680019720040,1199708395595739,2.3400002,6.144,7.8910503
1680019720042,1199708398097893,2.28495,6.0270004,7.839
1680019720045,1199708400600282,2.32305,6.09105,7.8
1680019720047,1199708403102513,2.232,6.0480003,7.7569504
1680019720050,1199708405604667,2.25195,6.1200004,7.7140503
1680019720052,1199708408107052,2.2780502,6.1750503,7.8190503
1680019720055,1199708410609205,2.21805,6.1800003,7.839
1680019720058,1199708413111445,2.292,6.1390505,7.6900506
1680019720061,1199708415613599,2.2110002,5.99805,7.7710505
1680019720062,1199708418115984,2.22495,6.04605,7.7359505
1680019720065,1199708420618214,2.25405,6.0820503,7.6920004
1680019720067,1199708423120585,2.23005,6.063,7.75995
1680019720072,1199708425622739,2.18205,6.1369505,7.7479506
1680019720074,1199708428124893,2.22495,6.0940504,7.6590004
1680019720075,1199708430627124,2.2729502,6.1990504,7.5870004
1680019720077,1199708433129272,2.1700501,6.2110505,7.7140503
1680019720080,1199708435631734,2.1720002,6.19005,7.6470003
1680019720082,1199708438133888,2.1340501,6.18195,7.7500505
1680019720085,1199708440636272,2.21295,6.1729503,7.58895
1680019720087,1199708443138426,2.2470002,6.07905,7.6399503
1680019720090,1199708445640580,2.14905,6.2089505,7.6900506
1680019720092,1199708448142811,2.2009501,6.2260504,7.6969504
1680019720095,1199708450645195,2.184,6.1729503,7.6420503
1680019720098,1199708453147440,2.2009501,6.09105,7.62795
1680019720100,1199708455649594,2.2470002,6.13005,7.6639504
1680019720102,1199708458151748,2.01195,6.1270504,7.62795
1680019720105,1199708460654210,0.25995,5.5960503,7.0789504
1680019720109,1199708463156594,0.30105,5.5410004,6.9280505
1680019720111,1199708465658748,0.88695,5.91405,7.3690505
1680019720113,1199708468160902,1.179,5.9500504,7.6060505
1680019720115,1199708470663133,1.212,6.0360003,7.6660504
1680019720117,1199708473165286,1.50705,6.0199504,7.6710005
1680019720120,1199708475667753,1.7509501,6.1390505,7.6470003
1680019720122,1199708478169907,2.115,6.1080003,7.7860503
1680019720125,1199708480672291,2.53695,6.22305,7.7430005
1680019720127,1199708483174445,2.9320502,6.23295,7.8889503
1680019720130,1199708485676671,2.697,6.216,7.7160006
1680019720132,1199708488178825,2.57205,6.18195,7.4430003
1680019720135,1199708490680979,2.3689501,6.0820503,7.491
1680019720139,1199708493183440,2.292,6.1249504,7.5199504
1680019720141,1199708495685825,2.21595,6.096,7.4749503
1680019720143,1199708498187979,2.3689501,6.15105,7.5390005
1680019720147,1199708500690133,2.4070501,6.1270504,7.5540004
1680019720150,1199708503192363,2.63205,6.1969504,7.6369505
1680019720152,1199708505785210,2.9629502,6.16095,7.7449503
1680019720154,1199708508196902,2.8170002,6.1920004,7.5750003
1680019720155,1199708510699133,2.4409502,6.1009502,7.5150003
1680019720157,1199708513201287,2.83095,6.1660504,7.52505
1680019720160,1199708515703671,2.70705,6.111,7.6830006
1680019720162,1199708518205830,2.7810001,6.2569504,7.55805
1680019720165,1199708520708061,2.8140001,6.2260504,7.6180506
1680019720167,1199708523210445,2.6869502,6.19005,7.5730505
1680019720170,1199708525712599,2.59905,6.2400002,7.4749503
1680019720172,1199708528214830,2.5200002,6.2400002,7.5220504
1680019720175,1199708530717205,2.43405,6.2760005,7.5660005
1680019720178,1199708533219359,2.52705,6.2449503,7.6129503
1680019720181,1199708535721512,2.52195,6.2730002,7.66095
1680019720184,1199708538223994,2.436,6.3480005,7.5769506
1680019720186,1199708540726148,2.457,6.3619504,7.5940504
1680019720188,1199708543228379,2.4,6.29505,7.5769506
1680019720191,1199708545730532,2.4049501,6.3619504,7.5750003
1680019720192,1199708548232917,2.33295,6.2640004,7.48605
1680019720195,1199708550735071,2.35395,6.3810005,7.5340505
1680019720198,1199708553237532,2.3140502,6.4459505,7.48395
1680019720200,1199708555739686,2.331,6.288,7.5990005
1680019720202,1199708558241840,2.30205,6.3499503,7.563
1680019720205,1199708560744071,2.3740501,6.30495,7.46295
1680019720207,1199708563246225,2.3449502,6.29505,7.6210504
1680019720210,1199708565748609,2.4019501,6.432,7.52505
1680019720212,1199708568250763,2.35695,6.3450003,7.4719505
1680019720215,1199708570753210,2.3830502,6.3520503,7.48605
1680019720218,1199708573255364,2.36595,6.30495,7.3620005
1680019720222,1199708575757517,2.36205,6.29505,7.386
1680019720224,1199708578259748,2.3040001,6.3480005,7.4119506
1680019720226,1199708580762139,2.4739501,6.3480005,7.4119506
1680019720227,1199708583264293,2.46,6.33795,7.4170504
1680019720230,1199708585766524,2.39805,6.249,7.42395
1680019720232,1199708588268908,2.469,6.2850003,7.4599504
1680019720235,1199708590771139,2.4810002,6.29505,7.3639503
1680019720238,1199708593273211,2.4049501,6.28095,7.4029503
1680019720240,1199708595775442,2.50305,6.2779503,7.2850504
1680019720243,1199708598277826,2.46195,6.2779503,7.36005
1680019720245,1199708600780057,2.457,6.3810005,7.3450503
1680019720248,1199708603282211,2.4190502,6.3289504,7.29195
1680019720250,1199708605784595,2.4409502,6.372,7.3549504
1680019720252,1199708608286749,2.3470502,6.3190503,7.3720503
1680019720255,1199708610788980,2.436,6.3480005,7.3000503
1680019720260,1199708613291148,2.493,6.38805,7.3279505
1680019720262,1199708615793609,2.529,6.36705,7.3810506
1680019720264,1199708618383763,2.532,6.36705,7.3309503
1680019720266,1199708620797917,2.5080001,6.3480005,7.4749503
1680019720268,1199708623300302,2.4739501,6.3910503,7.3690505
1680019720271,1199708625802514,2.4499502,6.30705,7.3330503
1680019720273,1199708628304667,2.4550502,6.4480505,7.2949505
1680019720275,1199708630807052,2.53905,6.3310504,7.2829504
1680019720277,1199708633309283,2.4049501,6.261,7.2180004
1680019720280,1199708635811437,2.4499502,6.3169503,7.2709503
1680019720283,1199708638313835,2.4720001,6.34005,7.22805
1680019720285,1199708640815989,2.5440001,6.42705,7.3159504
1680019720288,1199708643318220,2.4450002,6.4429502,7.2570004
1680019720290,1199708645820374,2.5170002,6.333,7.2010503
1680019720292,1199708648322835,2.493,6.3760505,7.2370505
1680019720296,1199708650824985,2.32605,6.249,7.4749503
1680019720300,1199708653327139,0.049050003,5.6530504,6.3559504
1680019720301,1199708655829524,0.34095,5.8380003,6.5400004
1680019720303,1199708658331744,0.52305,5.98605,7.03905
1680019720305,1199708660833898,0.49695003,5.9359503,7.0789504
1680019720307,1199708663336283,1.2550501,6.0360003,7.3570504
1680019720310,1199708665838514,1.9279501,5.9809504,7.4770503
1680019720312,1199708668340668,1.8829501,5.7559505,7.24905
1680019720315,1199708670842816,2.05995,6.0049505,7.3429503
1680019720318,1199708673345201,2.3400002,6.1660504,7.2760506
1680019720320,1199708675847432,2.32605,6.2590504,7.209
1680019720323,1199708678349816,2.60595,6.3240004,7.2850504
1680019720325,1199708680851970,2.1460502,6.33795,7.077
1680019720328,1199708683354196,2.1030002,6.33795,7.1080503
1680019720330,1199708685856350,2.5530002,6.3960004,7.077
1680019720334,1199708688358504,2.7280502,6.4960504,7.0530005
1680019720336,1199708690860879,2.5890002,6.49905,6.97905
1680019720338,1199708693363341,2.4480002,6.5149503,6.91905
1680019720341,1199708695865495,2.3070002,6.4549503,6.8569503
1680019720343,1199708698367649,2.7520502,6.5940003,6.9880505
1680019720345,1199708700869879,2.70405,6.6259503,7.0189505
1680019720348,1199708703372057,2.7829502,6.50295,7.089
1680019720350,1199708705874442,3.0199502,6.6850505,7.1389503
1680019720352,1199708708376596,3.0010502,6.609,7.149
1680019720355,1199708710879057,2.84505,6.4870505,7.005
1680019720357,1199708713381191,2.877,6.50295,7.22805
1680019720360,1199708715883422,2.697,6.54195,7.2130504
1680019720362,1199708718385576,2.8860002,6.6280503,7.4460006
1680019720365,1199708720887730,2.86695,6.6400504,7.53
1680019720367,1199708723390110,2.80695,6.6829505,7.3980002
1680019720371,1199708725892341,2.73495,6.6469502,7.45305
1680019720373,1199708728394726,2.6539502,6.5610003,7.4100003
1680019720375,1199708730896879,2.8500001,6.7380004,7.39095
1680019720378,1199708733399100,2.8140001,6.6660004,7.4050503
1680019720381,1199708735901254,2.69895,6.7930503,7.39305
1680019720383,1199708738403639,2.5819502,6.67605,7.3500004
1680019720385,1199708740905869,2.9650502,6.9150004,7.5850506
1680019720387,1199708743408254,2.4840002,6.6709504,7.2520504
1680019720390,1199708745910418,2.83095,6.78105,7.31895
1680019720392,1199708748412572,2.8840501,6.83895,7.39095
1680019720395,1199708750914803,2.77395,6.7930503,7.4940004
1680019720397,1199708753416956,2.6920502,6.7879505,7.386
1680019720400,1199708755919418,2.97195,6.7549505,7.6180506
1680019720402,1199708758421572,2.63895,6.7380004,7.4700003
1680019720405,1199708760923956,2.4720001,6.63,7.2640505
1680019720409,1199708763426119,2.7210002,6.6780005,7.2900004
1680019720412,1199708765928273,2.8170002,6.69705,7.58895
1680019720413,1199708768430504,2.742,6.6160502,7.5769506
1680019720415,1199708770932965,2.6950502,6.7260003,7.4430003
1680019720418,1199708773435119,2.9290502,6.7330503,7.4359503
1680019720421,1199708775937273,3.4110003,6.9420004,7.563
1680019720423,1199708778439658,3.4039502,6.951,7.45305
1680019720425,1199708780941812,3.3820503,6.93195,7.458
1680019720428,1199708783443966,3.01305,6.8290505,7.2229505
1680019720430,1199708785946201,3.0270002,6.85305,7.2349505
1680019720433,1199708788448663,2.93895,6.90105,7.3720503
1680019720435,1199708790950817,2.90805,6.774,7.31895
1680019720438,1199708793452971,2.5770001,6.7549505,7.1989503
1680019720440,1199708795955355,2.50305,6.7210503,7.08405
1680019720443,1199708798457595,2.733,6.64905,7.2760506
1680019720447,1199708800959749,2.4739501,6.4789505,7.05105
1680019720450,1199708803462133,2.604,6.72795,7.11
1680019720452,1199708805964369,2.673,6.7000504,7.2300005
1680019720454,1199708808466523,2.7640502,6.7759504,7.3380003
1680019720456,1199708810968908,2.7280502,6.702,7.1370006
1680019720460,1199708813471062,2.59395,6.67605,7.08405
1680019720461,1199708815973292,2.66805,6.70695,7.089
1680019720463,1199708818475672,2.5819502,6.597,7.0600505
1680019720465,1199708820977903,2.5800002,6.5779505,7.017
1680019720469,1199708823480057,2.4049501,6.5940003,7.0720506
1680019720470,1199708825982210,2.53695,6.5869503,7.04295
1680019720473,1199708828484609,2.43105,6.6330004,6.9859505
1680019720475,1199708830986763,2.4840002,6.67605,6.9330006
1680019720478,1199708833489224,2.6130002,6.6469502,6.9910502
1680019720480,1199708835991378,2.6230502,6.63705,6.8929505
1680019720484,1199708838493614,2.4859502,6.64905,6.9
1680019720486,1199708840995768,2.63505,6.57,6.8539505
1680019720489,1199708843498153,2.57505,6.54405,6.9280505
1680019720491,1199708846000306,2.6470501,6.5659504,6.95205
1680019720493,1199708848502537,2.8840501,6.6139503,7.1370006
1680019720496,1199708851004695,3.1230001,6.8149505,7.1320505
1680019720499,1199708853507080,2.91,6.6469502,7.0960503
1680019720501,1199708856009233,2.6899502,6.7260003,6.8569503
1680019720503,1199708858511695,2.3470502,6.6730504,6.8539505
1680019720505,1199708861013869,2.4790502,6.6589503,6.8250003
1680019720509,1199708863516100,2.53695,6.6850505,6.9430504
1680019720511,1199708866018253,2.5200002,6.66405,6.9040504
1680019720513,1199708868520638,2.5099502,6.6730504,6.8370004
1680019720515,1199708871022772,2.3710501,6.63705,6.80595
1680019720518,1199708873524926,2.3449502,6.6660004,6.852
1680019720522,1199708876027387,2.1990001,6.59205,6.68205
1680019720524,1199708878529618,2.6250002,6.7260003,6.8230505
1680019720526,1199708881031782,2.73105,6.7000504,6.972
1680019720528,1199708883533936,2.7280502,6.609,6.9310503
1680019720532,1199708886036320,2.87895,6.7450504,6.8640003
1680019720533,1199708888538474,2.73495,6.77895,6.8640003
1680019720536,1199708891040950,2.59395,6.6570005,6.7630506
1680019720539,1199708893543104,2.568,6.62295,6.7270503
1680019720540,1199708896045334,2.59395,6.669,6.8760004
1680019720543,1199708898547488,2.5510502,6.6259503,6.8110504
1680019720545,1199708901049642,2.66805,6.6850505,6.9
1680019720549,1199708903552037,2.62995,6.57,6.8280005
1680019720551,1199708906054498,2.7859502,6.7429504,6.8569503
1680019720553,1199708908556652,2.8530002,6.8479505,6.7540503
1680019720555,1199708911058806,2.8240502,6.7500005,6.84
1680019720560,1199708913561032,3.01605,6.8509502,6.7369504
1680019720576,1199708916063186,2.8620002,6.76905,6.73005
1680019720576,1199708918565340,2.7949502,6.6730504,6.8160005
1680019720577,1199708921067801,2.7949502,6.79995,6.7249503
1680019720577,1199708923570186,2.802,6.7720504,6.7540503
1680019720577,1199708926072340,3.17805,6.9300003,6.7870502
1680019720577,1199708928574493,3.1260002,6.9300003,6.8950505
1680019720577,1199708931076724,3.21705,6.91305,6.8590503
1680019720578,1199708933579109,3.18105,6.9580503,6.7969503
1680019720580,1199708936081263,3.1660502,6.9540005,6.8209505
1680019720583,1199708938583479,3.1039503,6.9540005,6.7579503
1680019720585,1199708941085864,2.94105,6.94605,6.8760004
1680019720589,1199708943588018,2.9269502,7.0399504,6.7699504
1680019720590,1199708946090172,2.9269502,6.9990005,6.7699504
1680019720593,1199708948592417,2.8960502,6.9870005,6.9859505
1680019720597,1199708951094570,2.84295,6.8869505,6.8640003
1680019720599,1199708953597032,2.83605,6.9490504,6.9160504
1680019720601,1199708956099172,2.8570502,6.94395,6.9310503
1680019720603,1199708958601556,2.91,7.1239505,6.8230505
1680019720605,1199708961103710,2.8219502,7.1790004,6.74205
1680019720609,1199708963605941,2.8620002,7.01595,6.8590503
1680019720611,1199708966108095,2.874,7.0639505,6.86595
1680019720613,1199708968610536,2.90295,7.04895,6.86595
1680019720616,1199708971112690,2.8170002,7.1140504,6.8370004
1680019720618,1199708973615075,2.7900002,7.083,6.9019504
1680019720621,1199708976117229,2.838,7.0609503,7.03905
1680019720623,1199708978619460,2.8189502,7.0999503,6.93795
1680019720625,1199708981121613,2.874,7.0279503,6.8089504
1680019720629,1199708983624075,2.86905,7.0999503,6.8539505
1680019720631,1199708986126229,2.8840501,7.1050506,6.9570003
1680019720635,1199708988628383,2.7930002,7.0590005,6.9979506
1680019720636,1199708991130767,2.8500001,7.04505,6.8640003
1680019720639,1199708993632921,2.80695,7.071,7.0150504
1680019720641,1199708996135152,2.73495,6.9799504,6.9859505
1680019720643,1199708998637536,2.7499502,7.04505,6.8970003
1680019720646,1199709001139754,1.7340001,6.62295,6.7900505
1680019720648,1199709003641908,1.2580501,6.63705,6.2749505
1680019720651,1199709006144062,1.2790501,6.5680504,6.4810505
1680019720653,1199709008646447,1.9069501,6.8820004,6.7939506
1680019720657,1199709011148695,2.2729502,6.93195,6.9739504
1680019720659,1199709013650849,1.84395,6.6589503,6.74205
1680019720661,1199709016153234,2.21805,6.7549505,6.68205
1680019720664,1199709018655465,2.5510502,6.80805,6.71505
1680019720665,1199709021157618,2.7190502,6.8359504,6.7369504
1680019720669,1199709023659772,2.6250002,6.702,6.576
1680019720672,1199709026162157,2.7280502,6.762,6.59805
1680019720674,1199709028664388,2.5440001,6.7450504,6.576
1680019720676,1199709031166772,2.7880502,6.8290505,6.64305
1680019720678,1199709033668926,2.88105,6.8599505,6.64305
1680019720680,1199709036171143,2.7880502,6.8100004,6.675
1680019720683,1199709038673297,2.6470501,6.8290505,6.5809503
1680019720685,1199709041175681,2.52705,6.8749504,6.53595
1680019720689,1199709043677835,2.8260002,7.0020003,6.636
1680019720691,1199709046180297,2.9200501,7.07595,6.6270003
1680019720693,1199709048682451,2.9890501,7.01805,6.5790005
1680019720696,1199709051184681,2.8260002,6.9820504,6.531
1680019720699,1199709053686835,3.3049502,7.1050506,6.675
1680019720701,1199709056189224,3.2410502,7.0969505,6.6670504
1680019720703,1199709058691378,2.97195,7.0729504,6.56895
1680019720705,1199709061193609,2.9290502,7.1520004,6.67005
1680019720711,1199709063695966,2.8960502,7.1329503,6.60795
1680019720712,1199709066198120,3.111,7.0999503,6.6889505
1680019720714,1199709068700351,3.13995,7.1140504,6.63105
1680019720716,1199709071202505,3.0870001,7.1520004,6.64305
1680019720718,1199709073704889,3.04695,6.9919505,6.7320004
1680019720721,1199709076207091,3.0370502,7.0020003,6.70305
1680019720723,1199709078709476,3.18105,6.9970503,6.7870502
1680019720726,1199709081211630,2.97195,7.0420504,6.768
1680019720729,1199709083713783,2.9940002,6.97305,6.8280005
1680019720730,1199709086216014,2.80995,6.9250503,6.53805
1680019720733,1199709088718384,3.01605,6.9580503,6.56895
1680019720736,1199709091220538,3.1900501,7.0729504,6.663
1680019720739,1199709093722768,2.9629502,6.97305,6.7219505
1680019720741,1199709096225153,3.24495,7.1070004,6.6940503
1680019720743,1199709098727292,3.3240001,7.1239505,6.80595
1680019720747,1199709101229446,3.2430003,7.00395,6.80205
1680019720750,1199709103731677,3.10905,7.0470004,6.6529503
1680019720752,1199709106234066,3.279,6.978,6.62895
1680019720754,1199709108736297,3.3820503,6.9490504,6.83295
1680019720755,1199709111238451,3.4129503,7.01805,6.7780504
1680019720759,1199709113740835,3.3319502,6.9799504,6.6940503
1680019720761,1199709116242989,3.35595,6.8599505,6.576
1680019720763,1199709118745196,3.38895,6.87195,6.6529503
1680019720766,1199709121247350,3.45405,6.867,6.74595
1680019720769,1199709123749811,3.5140502,6.94605,6.7180505
1680019720771,1199709126251965,3.492,6.84105,6.5929503
1680019720773,1199709128754128,3.4680002,6.8430004,6.6240005
1680019720776,1199709131256513,3.5160003,6.939,6.576
1680019720779,1199709133758744,3.52095,6.9340506,6.4279504
1680019720781,1199709136260897,3.7339501,6.9580503,6.6120005
1680019720784,1199709138763287,3.5779502,6.91095,6.6270003
1680019720786,1199709141265518,3.58995,7.0300503,6.6240005
1680019720789,1199709143767902,4.0350003,7.155,6.6600003
1680019720791,1199709146270056,3.9619503,7.0249505,6.59805
1680019720793,1199709148772210,3.9180002,7.0420504,6.49305
1680019720795,1199709151274436,3.9900002,6.9940505,6.50895
1680019720799,1199709153776590,3.7080002,7.1070004,6.6510005
1680019720800,1199709156278974,3.68895,6.9220505,6.531
1680019720803,1199709158781205,3.7120502,6.9030004,6.63105
1680019720806,1199709161283590,3.7200003,6.8959503,6.5500503
1680019720809,1199709163785754,3.6090002,6.9079504,6.4450502
1680019720811,1199709166287907,3.6690001,6.906,6.5140505
1680019720813,1199709168790138,3.62595,6.9079504,6.5209503
1680019720816,1199709171292523,3.8130002,6.9540005,6.675
1680019720819,1199709173794754,3.9880502,6.9580503,6.5740504
1680019720822,1199709176296907,4.10295,7.10895,6.5740504
1680019720824,1199709178799292,4.08405,6.9750004,6.59595
1680019720826,1199709181301446,3.8730001,7.0609503,6.5550003
1680019720829,1199709183803672,3.7560003,6.9199505,6.4879503
1680019720831,1199709186306056,3.6019502,6.93195,6.5020504
1680019720833,1199709188808287,3.58995,6.9700503,6.5400004
1680019720836,1199709191310441,3.5400002,6.9919505,6.5599504
1680019720841,1199709193812811,3.4630501,6.8910003,6.4759502
1680019720842,1199709196314964,3.59505,6.98505,6.50895
1680019720843,1199709198817118,3.4660501,6.9540005,6.4540505
1680019720846,1199709201319580,3.4039502,6.9270005,6.5020504
1680019720850,1199709203821826,3.37995,6.9610505,6.4470005
1680019720851,1199709206323979,3.35595,6.9150004,6.3820505
1680019720853,1199709208826133,3.3700502,6.9630003,6.339
1680019720856,1199709211328518,3.3390002,6.939,6.43695
1680019720861,1199709213830672,3.28095,6.9220505,6.3700504
1680019720862,1199709216332903,3.28605,6.8269506,6.3780003
1680019720864,1199709218835287,3.3030002,6.9370503,6.42105
1680019720866,1199709221337518,3.32205,6.978,6.28905
1680019720869,1199709223839672,3.31995,6.91095,6.4489503
1680019720871,1199709226341816,3.3010502,6.9679503,6.399
1680019720873,1199709228844200,3.3409503,6.9870005,6.3559504
1680019720876,1199709231346354,3.2290502,6.8910003,6.43305
1680019720879,1199709233848585,3.2650502,6.97305,6.3510003
1680019720881,1199709236350985,3.28095,7.0399504,6.25995
1680019720883,1199709238853138,3.2620502,7.0399504,6.29895
1680019720886,1199709241355369,3.2329502,7.0020003,6.3900003
1680019720889,1199709243857754,3.21195,6.951,6.31995
1680019720891,1199709246360004,3.3240001,7.0609503,6.2410502
1680019720893,1199709248862157,3.2929502,6.9580503,6.3079505
1680019720898,1199709251364542,3.2209501,7.0210505,6.3150005
1680019720900,1199709253866696,3.21705,7.0519505,6.2389503
1680019720902,1199709256368951,3.1519501,7.0590005,6.42495
1680019720904,1199709258871335,3.2209501,7.0230002,6.3510003
1680019720906,1199709261373489,3.2929502,7.0020003,6.3180003
1680019720909,1199709263875720,3.255,6.9870005,6.28905
1680019720911,1199709266377874,3.2740502,6.94605,6.42495
1680019720913,1199709268880273,3.2620502,7.04505,6.3180003
1680019720916,1199709271382427,3.1980002,7.0249505,6.1930504
1680019720919,1199709273884889,3.219,7.0020003,6.294
1680019720922,1199709276387043,3.3030002,7.0930505,6.234
1680019720924,1199709278889259,3.17805,7.071,6.15
1680019720926,1199709281391413,3.2650502,7.1020503,6.28905
1680019720929,1199709283893798,3.3010502,7.1569505,6.327
1680019720931,1199709286395952,3.3630002,7.0690503,6.33405
1680019720935,1199709288898206,3.186,7.07805,6.43695
1680019720937,1199709291400591,3.2430003,7.1959505,6.2700005
1680019720940,1199709293902822,3.2929502,7.1280003,6.4450502
1680019720942,1199709296404976,3.348,7.0519505,6.31995
1680019720943,1199709298907130,3.31695,7.2049503,6.4350004
1680019720946,1199709301409499,3.3049502,7.1740503,6.50895
1680019720949,1199709303911730,3.3460503,7.1380506,6.4159503
1680019720951,1199709306413884,3.25005,7.04895,6.3300004
1680019720954,1199709308916268,3.2290502,7.1359506,6.3799505
1680019720956,1199709311418499,3.1950002,7.1790004,6.2839503
1680019720959,1199709313920663,3.2980502,7.0969505,6.4489503
1680019720961,1199709316422817,3.3240001,7.0849504,6.32205
1680019720963,1199709318925202,3.2329502,7.15005,6.3109503
1680019720966,1199709321427663,3.3010502,7.0950003,6.306
1680019720969,1199709323929817,3.2209501,7.1719503,6.3420005
1680019720972,1199709326431971,3.2650502,7.215,6.2749505
1680019720974,1199709328934202,3.2719502,7.1569505,6.327
1680019720977,1199709331436340,3.2050502,7.2720003,6.3850503
1680019720979,1199709333938494,3.21705,7.2049503,6.4849505
1680019720981,1199709336440956,3.1980002,7.2289505,6.39405
1680019720983,1199709338943340,3.21405,7.2580504,6.4350004
1680019720986,1199709341445494,3.2209501,7.2289505,6.471
1680019720989,1199709343947648,3.2260501,7.2670503,6.49695
1680019720991,1199709346449879,3.15405,7.2750006,6.4759502
1680019720993,1199709348952033,3.21195,7.22205,6.5329504
1680019720996,1199709351454494,3.1879501,7.176,6.45195
1680019720999,1199709353956653,3.1519501,7.1280003,6.5329504
1680019721000,1199709356459038,3.21,7.0470004,6.4450502
1680019721003,1199709358961192,3.17595,6.7720504,6.5280004
1680019721006,1199709361463422,3.1230001,5.9430003,6.4420505
1680019721010,1199709363965581,3.051,5.703,6.4159503
1680019721012,1199709366468043,3.14505,6.0270004,6.2580004
1680019721014,1199709368970197,3.0660002,6.0340505,6.32205
1680019721017,1199709371472581,2.8140001,6.36,6.60795
1680019721019,1199709373974735,1.41795,6.3619504,6.22905
1680019721021,1199709376476889,1.7989501,6.6540003,6.471
1680019721024,1199709378979120,2.3860502,7.215,6.77505
1680019721026,1199709381481504,2.5459502,7.3900504,6.77505
1680019721029,1199709383983735,2.4120002,7.4280005,6.3679504
1680019721031,1199709386485889,2.7540002,7.60305,6.56895
1680019721033,1199709388988278,2.9920502,7.5400505,6.327
1680019721036,1199709391490432,3.2719502,7.629,6.45195
1680019721039,1199709393992662,3.1879501,7.6069503,6.3130503
1680019721041,1199709396494816,3.1950002,7.4539504,6.33405
1680019721044,1199709398997293,3.0559502,7.5690002,6.3420005
1680019721048,1199709401499447,3.3820503,7.7149506,6.4230003
1680019721050,1199709404001600,3.42,7.6750503,6.55695
1680019721052,1199709406504003,3.6090002,7.7130003,6.6340504
1680019721054,1199709409006234,3.6670501,7.7580004,6.663
1680019721056,1199709411508388,3.76305,7.6720505,6.5809503
1680019721060,1199709414010772,3.8059502,7.6120505,6.5929503
1680019721061,1199709416513003,3.79605,7.7779503,6.5550003
1680019721063,1199709419015147,4.05,7.69395,6.8250003
1680019721066,1199709421517301,4.0410004,7.7509503,6.7579503
1680019721069,1199709424019685,4.026,7.59105,6.6529503
1680019721071,1199709426521916,3.7680001,7.60305,6.5140505
1680019721073,1199709429024301,3.6360002,7.5139503,6.591
1680019721076,1199709431526442,3.5809503,7.4350505,6.5740504
1680019721079,1199709434028672,3.52305,7.4659505,6.576
1680019721081,1199709436531057,3.6139503,7.4490004,6.6340504
1680019721084,1199709439033216,3.52605,7.4419503,6.6190505
1680019721086,1199709441535370,3.5329502,7.3390503,6.6190505
1680019721089,1199709444037831,3.4390502,7.3780503,6.6480002
1680019721091,1199709446539985,3.38895,7.3900504,6.6340504
1680019721093,1199709449042139,3.5470502,7.392,6.7270503
1680019721096,1199709451544389,3.4390502,7.2910504,6.7270503
1680019721099,1199709454046773,3.4350002,7.2790504,6.6000004
1680019721101,1199709456548927,3.4080002,7.25505,6.5070004
1680019721103,1199709459051158,3.35805,7.227,6.5550003
1680019721106,1199709461553543,3.384,7.1569505,6.4729505
1680019721109,1199709464055681,3.37995,7.24095,6.3750005
1680019721111,1199709466557912,3.384,7.0969505,6.4849505
1680019721114,1199709469060066,3.3600001,7.0540504,6.5190005
1680019721116,1199709471562451,3.3820503,7.1599503,6.52605
1680019721118,1199709474064677,3.3079503,7.15005,6.4090505
1680019721122,1199709476566831,3.2650502,7.083,6.40605
1680019721124,1199709479069216,3.2569501,7.0330505,6.3799505
1680019721126,1199709481571447,3.2959502,7.1070004,6.3970504
1680019721129,1199709484073596,3.18105,7.08795,6.33195
1680019721131,1199709486575749,3.1639502,7.1070004,6.33195
1680019721133,1199709489078211,3.2410502,6.9970503,6.33195
1680019721137,1199709491580365,3.1999502,7.1449504,6.2910004
1680019721139,1199709494082749,3.183,7.1140504,6.3130503
1680019721141,1199709496584907,3.075,7.1070004,6.327
1680019721144,1199709499087138,3.04395,7.09005,6.1860003
1680019721146,1199709501589292,3.0270002,7.1070004,6.15705
1680019721150,1199709504091753,3.0319502,7.07595,6.2790003
1680019721151,1199709506593907,3.0870001,7.1380506,6.2910004
1680019721153,1199709509096292,3.0199502,7.071,6.36105
1680019721156,1199709511598446,3.04395,7.0470004,6.37305
1680019721161,1199709514100692,3.0040503,7.03695,6.339
1680019721162,1199709516602845,2.9200501,7.1599503,6.14295
1680019721164,1199709519105230,2.9340003,7.1329503,6.2700005
1680019721166,1199709521607461,2.98005,7.1839504,6.29895
1680019721169,1199709524109615,2.9680502,7.1329503,6.22905
1680019721171,1199709526611994,2.9290502,7.12095,6.2029505
1680019721174,1199709529114148,2.913,7.1599503,6.1639504
1680019721177,1199709531616379,2.9509501,7.0519505,6.0490503
1680019721179,1199709534118764,2.9599502,7.1959505,6.16695
1680019721181,1199709536620936,2.9560502,7.09005,6.19995
1680019721183,1199709539123167,3.04905,7.155,6.21495
1680019721189,1199709541625552,3.0559502,7.15005,6.1930504
1680019721189,1199709544127706,2.9560502,7.011,6.40605
1680019721191,1199709546629859,3.0250502,7.0639505,6.19605
1680019721193,1199709549132312,2.97495,7.01805,6.222
1680019721198,1199709551634543,3.0660002,7.0729504,6.2700005
1680019721200,1199709554136620,3.0949502,7.01805,6.3679504
1680019721202,1199709556638836,3.11595,7.0519505,6.2770505
1680019721204,1199709559141220,3.1039503,7.0930505,6.2700005
1680019721206,1199709561643374,3.15,7.176,6.3420005
1680019721209,1199709564145605,3.1570501,7.2340503,6.3580503
1680019721211,1199709566647989,3.2290502,7.1640005,6.2389503
1680019721213,1199709569150124,3.186,7.2910504,6.4159503
1680019721217,1199709571652355,3.2239501,7.3339505,6.4090505
1680019721219,1199709574154509,3.2310002,7.2769504,6.46395
1680019721222,1199709576656893,3.2929502,7.3060503,6.5860505
1680019721224,1199709579159095,3.315,7.2510004,6.4570503
1680019721226,1199709581661480,3.315,7.31505,6.5449505
1680019721229,1199709584163634,3.25005,7.22205,6.4830003
1680019721231,1199709586665865,3.3100502,7.2649503,6.6220503
1680019721235,1199709589168008,3.28905,7.2030005,6.6270003
1680019721236,1199709591670162,3.28905,7.2240005,6.5400004
1680019721239,1199709594172624,3.3049502,7.1980505,6.5479503
1680019721241,1199709596675008,3.3360002,7.15005,6.6270003
1680019721244,1199709599177162,3.3460503,7.2190504,6.5449505
1680019721246,1199709601679321,3.35595,7.1719503,6.663
1680019721250,1199709604181552,3.37995,7.2289505,6.55695
1680019721252,1199709606683706,3.3460503,7.10895,6.6120005
1680019721253,1199709609186167,3.3769503,7.1329503,6.61005
1680019721257,1199709611688316,3.3439503,7.215,6.4879503
1680019721260,1199709614190701,3.3240001,7.2990003,6.4609504
1680019721261,1199709616692855,3.48705,7.1329503,6.5670004
1680019721263,1199709619195085,3.44895,7.1980505,6.5520005
1680019721266,1199709621697239,3.4470003,7.1719503,6.53595
1680019721270,1199709624199624,3.44895,7.2430506,6.564
1680019721273,1199709626701855,3.37995,7.1929502,6.4900503
1680019721274,1199709629204239,3.4630501,7.1910005,6.45195
1680019721276,1199709631706393,3.4390502,7.2030005,6.5020504
1680019721279,1199709634208557,3.44895,7.2070503,6.5160003
1680019721281,1199709636710788,3.4369502,7.2030005,6.531
1680019721283,1199709639213172,3.38895,7.04505,6.5880003
1680019721286,1199709641715326,3.3679502,7.1050506,6.531
1680019721289,1199709644217581,3.28395,7.0350003,6.5190005
1680019721291,1199709646719735,3.35805,7.0279503,6.4900503
1680019721293,1199709649222119,3.3340502,7.0300503,6.3780003
1680019721297,1199709651724350,3.3049502,7.05705,6.3180003
1680019721299,1199709654226523,3.28605,7.04505,6.4420505
1680019721301,1199709656728908,3.2620502,7.1239505,6.471
1680019721303,1199709659231062,3.2569501,7.0020003,6.3750005
1680019721306,1199709661733292,3.3030002,6.9919505,6.40605
1680019721311,1199709664235668,3.1690502,7.0660505,6.37305
1680019721312,1199709666737899,3.1900501,6.951,6.3370504
1680019721314,1199709669240053,3.315,7.05705,6.3460503
1680019721316,1199709671742437,3.17805,7.0210505,6.3799505
1680019721319,1199709674244591,3.2719502,7.04895,6.4140005
1680019721321,1199709676746840,3.255,6.98505,6.2119503
1680019721323,1199709679249224,3.3079503,6.9700503,6.4090505
1680019721326,1199709681751378,3.2050502,6.879,6.3150005
1680019721329,1199709684253609,3.2380502,6.867,6.4159503
1680019721331,1199709686755994,3.1950002,6.84105,6.4140005
1680019721333,1199709689258143,3.3100502,6.4890003,6.3109503
1680019721337,1199709691760296,3.3409503,6.4099503,6.4140005
1680019721339,1199709694262758,3.41805,6.4290004,6.4159503
1680019721341,1199709696764912,3.1950002,6.4410005,6.294
1680019721343,1199709699267157,3.1210501,6.5080504,6.3750005
1680019721348,1199709701769310,2.11695,6.4480505,6.16905
1680019721350,1199709704271695,2.21295,6.57,6.222
1680019721352,1199709706773849,2.3830502,6.7260003,6.2389503
1680019721354,1199709709276080,2.568,6.91305,6.3630004
1680019721356,1199709711778464,2.97705,7.1050506,6.47805
1680019721359,1199709714280695,3.21195,7.2289505,6.5160003
1680019721361,1199709716782849,3.32205,7.25505,6.3750005
1680019721364,1199709719285003,3.3990002,7.3510504,6.4230003
1680019721366,1199709721787387,3.6910503,7.3900504,6.459
1680019721369,1199709724289618,3.7819502,7.51905,6.42495
1680019721372,1199709726792003,3.38895,7.3099504,6.3130503
1680019721374,1199709729294167,3.6690001,7.4059505,6.3679504
1680019721377,1199709731796397,3.7480502,7.392,6.5020504
1680019721380,1199709734298551,3.6690001,7.3560004,6.3780003
1680019721381,1199709736800705,3.6139503,7.3660502,6.36105
1680019721385,1199709739303172,3.5760002,7.4110503,6.399
1680019721387,1199709741805556,3.6120002,7.4329505,6.3970504
1680019721390,1199709744307710,3.5160003,7.3900504,6.4020004
1680019721391,1199709746809864,3.4780502,7.4419503,6.46605
1680019721394,1199709749312095,3.45405,7.3560004,6.40395
1680019721396,1199709751814234,3.44895,7.32705,6.42105
1680019721399,1199709754316695,3.4470003,7.34595,6.4690504
1680019721401,1199709756818849,3.3720002,7.2840004,6.4350004
1680019721403,1199709759321234,3.3700502,7.26,6.4900503
1680019721406,1199709761823387,3.3289502,7.2990003,6.5479503
1680019721410,1199709764325560,3.315,7.2670503,6.5070004
1680019721411,1199709766827791,3.3289502,7.1980505,6.40605
1680019721413,1199709769330253,3.3630002,7.15005,6.6049504
1680019721416,1199709771832387,3.35805,7.2460504,6.5839505
1680019721419,1199709774334541,3.28605,7.2630005,6.4849505
1680019721423,1199709776836926,3.3240001,7.1400003,6.4759502
1680019721425,1199709779339080,3.2929502,7.2240005,6.5670004
1680019721427,1199709781841311,3.28605,7.24095,6.4420505
1680019721429,1199709784343676,3.2410502,7.22205,6.531
1680019721431,1199709786845907,3.2050502,7.287,6.5719504
1680019721433,1199709789348061,3.2310002,7.1689506,6.6240005
1680019721436,1199709791850445,3.1380002,7.1070004,6.5790005
1680019721439,1199709794352609,3.0970502,7.0729504,6.50895
1680019721441,1199709796854840,3.1380002,7.1400003,6.5329504
1680019721443,1199709799357225,3.2310002,7.1239505,6.4300504
1680019721446,1199709801859455,3.2050502,7.0729504,6.5500503
1680019721449,1199709804361599,3.1740003,7.1400003,6.4540505
1680019721451,1199709806863753,3.0300002,7.0540504,6.3900003
1680019721453,1199709809366138,3.0970502,7.0950003,6.3580503
1680019721457,1199709811868292,2.93895,7.15005,6.4759502
1680019721461,1199709814370738,2.9959502,7.08795,6.4900503
1680019721463,1199709816872892,3.04905,7.1310005,6.339
1680019721464,1199709819375123,2.9530501,7.0729504,6.37305
1680019721466,1199709821877277,2.9959502,7.0639505,6.28905
1680019721469,1199709824379398,2.9580002,7.12095,6.3079505
1680019721471,1199709826881782,2.874,7.071,6.354
1680019721474,1199709829384244,2.97195,7.0729504,6.294
1680019721476,1199709831886398,2.913,7.1929502,6.4690504
1680019721479,1199709834388551,2.9560502,7.14795,6.3300004
1680019721481,1199709836890806,2.8840501,7.188,6.4950004
1680019721484,1199709839392960,2.9560502,7.14795,6.4810505
1680019721486,1199709841895345,2.87205,7.15005,6.46395
1680019721490,1199709844397575,2.97195,7.10895,6.39405
1680019721491,1199709846899926,2.98005,7.2289505,6.5160003
1680019721494,1199709849402080,2.8530002,7.2120004,6.4140005
1680019721499,1199709851904311,2.86695,7.2720003,6.4159503
1680019721501,1199709854406479,2.913,7.2340503,6.4540505
1680019721503,1199709857060017,2.8980002,7.2510004,6.5209503
1680019721505,1199709859411094,2.8840501,7.1790004,6.42495
1680019721506,1199709861913248,2.8620002,7.1860504,6.3900003
1680019721509,1199709864415632,2.874,7.1740503,6.6150002
1680019721511,1199709866917849,2.94105,7.071,6.5020504
1680019721514,1199709869420003,2.90505,7.1359506,6.4830003
1680019721516,1199709871922157,2.86695,7.05705,6.46605
1680019721519,1199709874424618,2.8650002,7.00395,6.4830003
1680019721522,1199709876926748,2.9580002,6.9580503,6.4609504
1680019721524,1199709879428902,2.8840501,7.116,6.4420505
1680019721526,1199709881931287,2.8890002,7.1070004,6.603
1680019721529,1199709884433518,2.8909502,7.2360005,6.4350004
1680019721531,1199709886935656,2.8620002,7.1239505,6.4830003
1680019721535,1199709889438041,2.9340003,7.0969505,6.52605
1680019721539,1199709891940272,2.9269502,7.1260505,6.39195
1680019721540,1199709894442656,2.9149501,7.1689506,6.4300504
1680019721543,1199709896944815,2.79795,7.0729504,6.4230003
1680019721544,1199709899446969,2.8980002,7.0729504,6.3679504
1680019721546,1199709901949200,2.6800501,7.0279503,6.50505
1680019721550,1199709904451584,2.709,7.08795,6.3820505
1680019721552,1199709906953815,2.6560502,6.91305,6.4810505
1680019721554,1199709909455969,2.66595,6.8050504,6.4300504
1680019721556,1199709911958354,2.6200502,6.9030004,6.2790003
1680019721559,1199709914460508,2.63205,6.91305,6.306
1680019721561,1199709916962738,2.6230502,7.0090504,6.43695
1680019721564,1199709919465133,2.52705,7.1190004,6.37305
1680019721567,1199709921967364,2.496,7.155,6.4140005
1680019721569,1199709924469518,2.46495,7.2630005,6.4090505
1680019721573,1199709926971671,2.5870502,7.4160004,6.37305
1680019721574,1199709929474037,2.5459502,7.3939505,6.2839503
1680019721577,1199709931976191,2.4120002,7.4400005,6.36105
1680019721579,1199709934478652,2.4139502,7.452,6.3780003
1680019721581,1199709936980806,2.32095,7.5210004,6.2629504
1680019721584,1199709939483037,2.3400002,7.3750505,6.3780003
1680019721586,1199709941985195,2.2710001,7.2750006,6.2239504
1680019721589,1199709944487580,2.15595,7.4010005,6.2959504
1680019721591,1199709946989733,2.1079502,7.2889504,6.2719502
1680019721594,1199709949491964,2.0959501,7.38495,6.33405
1680019721596,1199709951994365,2.05305,7.2580504,6.25995
1680019721599,1199709954496596,2.09295,7.2360005,6.4729505
1680019721601,1199709956998749,2.05005,7.1310005,6.4350004
1680019721604,1199709959500903,2.0670002,7.2310505,6.4090505
1680019721606,1199709962003259,2.046,7.1719503,6.4180503
1680019721611,1199709964505720,1.9879501,7.2990003,6.3510003
1680019721613,1199709967007874,2.055,7.4040003,6.36105
1680019721614,1199709969510028,2.08605,7.3510504,6.5070004
1680019721617,1199709972012240,2.0020502,7.3009505,6.2080503
1680019721620,1199709974514394,1.9399501,7.4370003,6.2749505
1680019721622,1199709977016548,1.9230001,7.3060503,6.1720505
1680019721624,1199709979519009,1.86405,7.38,6.1380005
1680019721627,1199709982021394,1.9189501,7.4730005,6.21705
1680019721629,1199709984523543,1.9780501,7.4400005,6.222
1680019721631,1199709987025697,2.0020502,7.42995,6.3850503
1680019721634,1199709989527927,1.9860001,7.4370003,6.306
1680019721637,1199709992030081,1.9860001,7.4230504,6.4140005
1680019721639,1199709994532557,1.9620001,7.4710503,6.4900503
1680019721641,1199709997034711,2.0070002,7.3939505,6.4230003
1680019721644,1199709999537095,2.02605,7.4110503,6.4159503
1680019721648,1199710002039249,1.9570501,7.4370003,6.471
1680019721651,1199710004541398,1.9900501,7.5139503,6.46605
1680019721653,1199710007137706,2.0359502,7.4130006,6.5790005
1680019721656,1199710009546090,2.0329502,7.3630505,6.564
1680019721658,1199710012048244,2.0070002,7.4329505,6.6270003
1680019721661,1199710014550422,2.043,7.3369503,6.675
1680019721662,1199710017052807,2.0770502,7.4160004,6.663
1680019721664,1199710019555037,2.15295,7.4089503,6.6460505
1680019721666,1199710022057191,1.99995,7.3630505,6.564
1680019721669,1199710024559345,2.0020502,7.3630505,6.675
1680019721671,1199710027061798,2.1100502,7.3680005,6.6550503
1680019721674,1199710029563951,2.15295,7.4760003,6.5860505
1680019721676,1199710032066105,2.12895,7.4350505,6.64305
1680019721679,1199710034568567,2.0959501,7.4350505,6.675
1680019721681,1199710037070721,2.12205,7.4280005,6.708
1680019721686,1199710039573090,2.11695,7.3750505,6.6840005
1680019721687,1199710042075244,2.05005,7.4449506,6.67005
1680019721690,1199710044577475,2.1049502,7.39905,6.7369504
1680019721692,1199710047079658,2.19405,7.4370003,6.6270003
1680019721694,1199710049582119,2.15595,7.35405,6.63105
1680019721697,1199710052084273,2.12895,7.3390503,6.8040004
1680019721700,1199710054586658,2.08095,7.4760003,6.6580505
1680019721701,1199710057088812,2.2350001,7.4089503,6.768
1680019721704,1199710059590993,2.17995,7.35795,6.74595
1680019721707,1199710062093224,2.187,7.3699503,6.6990004
1680019721709,1199710064595686,2.2369502,7.3060503,6.675
1680019721711,1199710067097840,2.2440002,7.3009505,6.696
1680019721714,1199710069599981,2.29905,7.32,6.7440004
1680019721716,1199710072102365,2.26605,7.3819504,6.6220503
1680019721719,1199710074604519,2.33295,7.32705,6.71295
1680019721723,1199710077106750,2.3470502,7.3369503,6.6649504
1680019721725,1199710079609138,2.36595,7.31295,6.6990004
1680019721727,1199710082111369,2.4139502,7.1400003,6.7440004
1680019721729,1199710084613523,2.3809502,7.2430506,6.6940503
1680019721731,1199710087115908,2.35695,7.2510004,6.6649504
1680019721734,1199710089618061,2.42895,7.188,6.67005
1680019721737,1199710092120297,2.4,7.10895,6.7440004
1680019721740,1199710094622682,2.5080001,7.1280003,6.7390504
1680019721742,1199710097124836,2.5770001,7.1959505,6.7510505
1680019721744,1199710099627066,2.57205,7.15005,6.67005
1680019721746,1199710102129451,2.62995,7.21005,6.68205
1680019721750,1199710104631633,2.6590502,7.1860504,6.74595
1680019721752,1199710107133787,2.60595,7.14795,6.68205
1680019721755,1199710109636248,2.7210002,7.1569505,6.6889505
1680019721756,1199710112138402,2.6850002,7.0399504,6.6649504
1680019721761,1199710114640575,2.6419501,6.9820504,6.591
1680019721763,1199710117142806,2.66295,7.0930505,6.4759502
1680019721764,1199710119645190,2.6470501,7.1260505,6.5140505
1680019721767,1199710122147344,2.6250002,7.1260505,6.5860505
1680019721770,1199710124649498,2.76195,7.1119504,6.52605
1680019721771,1199710127151960,2.7450001,7.1860504,6.576
1680019721774,1199710129654190,2.7930002,7.15005,6.6460505
1680019721777,1199710132156344,2.7229502,7.143,6.5550003
1680019721780,1199710134658498,2.673,7.1689506,6.531
1680019721782,1199710137160902,2.661,7.1190004,6.49305
1680019721784,1199710139663056,2.60805,7.1329503,6.4810505
1680019721786,1199710142165286,2.6509502,7.1449504,6.5400004
1680019721789,1199710144667671,2.565,7.1140504,6.4810505
1680019721791,1199710147169902,2.5890002,7.1620502,6.46395
1680019721794,1199710149672076,2.52705,7.1329503,6.47805
1680019721798,1199710152174230,2.5890002,7.176,6.3630004
1680019721800,1199710154676614,2.57505,7.1070004,6.3679504
1680019721802,1199710157178835,2.5150502,7.083,6.55695
1680019721804,1199710159681220,2.56305,7.1310005,6.4300504
1680019721807,1199710162183373,2.53395,7.0969505,6.4420505
1680019721809,1199710164685604,2.5150502,7.07595,6.3559504
1680019721815,1199710167187758,2.388,7.0540504,6.4020004
1680019721815,1199710169690148,2.39805,7.1670003,6.43305
1680019721817,1199710172192378,2.39295,7.0609503,6.3420005
1680019721820,1199710174694763,2.3779502,7.1520004,6.255
1680019721823,1199710177196917,2.35395,7.116,6.3079505
1680019721824,1199710179699047,2.3110502,7.1260505,6.4300504
1680019721826,1199710182201278,2.3110502,7.1119504,6.4540505
1680019721830,1199710184703662,2.2369502,7.10895,6.3750005
1680019721831,1199710187205893,2.163,7.2580504,6.234
1680019721835,1199710189708052,2.2110002,7.1689506,6.2629504
1680019721837,1199710192210436,2.22795,7.0660505,6.3820505
1680019721840,1199710194712590,2.19195,7.1980505,6.22695
1680019721842,1199710197214821,2.046,7.2120004,6.306
1680019721844,1199710199716975,2.12205,7.1020503,6.28695
1680019721847,1199710202219436,2.08905,7.1260505,6.3559504
1680019721850,1199710204721590,2.046,7.1959505,6.3079505
1680019721852,1199710207223975,2.0740502,7.1790004,6.3780003
1680019721854,1199710209726129,2.08395,7.2310505,6.4350004
1680019721857,1199710212228364,2.04795,7.2430506,6.42495
1680019721860,1199710214730517,2.05305,7.2030005,6.31995
1680019721862,1199710217232979,2.0770502,7.15005,6.40395
1680019721864,1199710219735133,2.08395,7.1620502,6.3180003
1680019721866,1199710222237287,2.0959501,7.2030005,6.339
1680019721870,1199710224739657,2.091,7.1689506,6.3970504
1680019721873,1199710227241888,2.05005,7.1640005,6.4609504
1680019721875,1199710229744042,2.0299501,7.1569505,6.531
1680019721876,1199710232246427,2.1679502,7.2390003,6.5500503
1680019721879,1199710234748652,2.1409502,7.2840004,6.5190005
1680019721882,1199710237250806,2.151,7.2840004,6.6169505
1680019721884,1199710239753191,2.1049502,7.2790504,6.5479503
1680019721887,1199710242255345,2.1649501,7.24095,6.576
1680019721890,1199710244757589,2.11305,7.3099504,6.576
1680019721891,1199710247259974,2.232,7.2169504,6.5620503
1680019721895,1199710249762128,2.184,7.1860504,6.6529503
1680019721897,1199710252264359,2.15295,7.2000003,6.5280004
1680019721900,1199710254766734,2.1409502,7.3219504,6.6580505
1680019721902,1199710257268888,2.259,7.2580504,6.6720004
1680019721904,1199710259771042,2.259,7.32,6.6340504
1680019721906,1199710262273504,2.35905,7.2910504,6.70305
1680019721911,1199710264775763,2.3779502,7.2510004,6.6169505
1680019721912,1199710267277917,2.26305,7.2310505,6.64305
1680019721915,1199710269780071,2.30205,7.26,6.5670004
1680019721917,1199710272282456,2.28705,7.24095,6.71505
1680019721919,1199710274784609,2.2369502,7.2460504,6.675
1680019721922,1199710277287056,2.16,7.1959505,6.6649504
1680019721924,1199710279789210,2.232,7.2310505,6.73005
1680019721927,1199710282291441,2.232,7.31295,6.6529503
1680019721930,1199710284793594,2.33505,7.1569505,6.6790504
1680019721932,1199710287295748,2.2470002,7.29405,6.5809503
1680019721934,1199710289798109,2.352,7.2430506,6.6550503
1680019721937,1199710292300570,2.292,7.2910504,6.6049504
1680019721940,1199710294802724,2.2399502,7.3030505,6.4999504
1680019721942,1199710297304878,2.28705,7.2990003,6.636
1680019721944,1199710299807109,2.256,7.2049503,6.5719504
1680019721948,1199710302309263,2.2440002,7.25505,6.5449505
1680019721951,1199710304811647,2.23005,7.248,6.52395
1680019721953,1199710307313878,2.2369502,7.2580504,6.4999504
1680019721955,1199710309816263,2.19405,7.2390003,6.53805
1680019721957,1199710312318417,2.21595,7.2240005,6.6120005
1680019721959,1199710314820571,2.26095,7.28205,6.5620503
1680019721961,1199710317322801,2.3110502,7.2030005,6.53805
1680019721964,1199710319825191,2.295,7.3060503,6.50895
1680019721967,1199710322327422,2.2729502,7.2649503,6.55695
1680019721970,1199710324829576,2.26605,7.2840004,6.5620503
1680019721972,1199710327331960,2.30205,7.3369503,6.5400004
1680019721974,1199710329834114,2.4019501,7.2430506,6.52605
1680019721978,1199710332336345,2.4019501,7.3510504,6.4879503
1680019721980,1199710334838499,2.3809502,7.2649503,6.5929503
1680019721982,1199710337340960,2.388,7.2289505,6.6120005
1680019721985,1199710339843114,2.39805,7.4040003,6.6550503
1680019721988,1199710342345268,2.4190502,7.2910504,6.6000004
1680019721990,1199710344847653,2.4070501,7.3060503,6.6169505
1680019721992,1199710347349883,2.4120002,7.2649503,6.7099504
1680019721994,1199710349852037,2.42595,7.2289505,6.6190505
1680019721997,1199710352354451,2.52495,7.22205,6.636
1680019721999,1199710354856682,2.3740501,7.2030005,6.67005
1680019722002,1199710357359066,2.39505,7.1050506,6.6840005
1680019722004,1199710359861220,2.4070501,7.1790004,6.663
1680019722007,1199710362363359,2.32605,7.1839504,6.6190505
1680019722009,1199710364865590,2.3860502,7.2240005,6.7099504
1680019722012,1199710367367974,2.3860502,7.1980505,6.6550503
1680019722014,1199710369870205,2.33295,7.2670503,6.6220503
1680019722017,1199710372372364,2.4,7.215,6.675
1680019722020,1199710374874749,2.3089502,7.25505,6.59595
1680019722024,1199710377376902,2.29005,7.1719503,6.603
1680019722026,1199710379879133,2.3110502,7.1929502,6.5119505
1680019722027,1199710382381518,2.2680001,7.2030005,6.53595
1680019722030,1199710384883759,2.29005,7.188,6.64305
1680019722032,1199710387385912,2.2710001,7.143,6.59595
1680019722034,1199710389888297,2.22495,7.22205,6.6550503
1680019722036,1199710392390451,2.184,7.08795,6.4999504
1680019722040,1199710394892619,2.21595,7.18095,6.5599504
1680019722042,1199710397395080,2.2369502,7.0540504,6.5740504
1680019722045,1199710399897234,2.2060502,7.07805,6.471
1680019722047,1199710402399465,2.2470002,7.10895,6.5119505
1680019722050,1199710404901614,2.1769502,7.0950003,6.5119505
1680019722052,1199710407403998,2.23005,7.0279503,6.564
1680019722054,1199710409906152,2.2440002,7.1569505,6.5119505
1680019722058,1199710412408614,2.19405,7.0540504,6.59595
1680019722062,1199710414910768,2.26095,7.0999503,6.52395
1680019722063,1199710417412998,2.1649501,7.0090504,6.4140005
1680019722065,1199710419915152,2.17995,7.0249505,6.4230003
1680019722067,1199710422417306,2.15595,7.05705,6.387
1680019722070,1199710424919696,2.3380501,7.1310005,6.43695
1680019722072,1199710427422157,2.2369502,7.0279503,6.531
1680019722074,1199710429924311,2.2080002,7.1860504,6.4570503
1680019722076,1199710432426465,2.256,7.1980505,6.4110003
1680019722079,1199710434928619,2.22795,7.0470004,6.40395
1680019722082,1199710437431061,2.15595,7.2120004,6.459
1680019722084,1199710439933215,2.24895,7.155,6.36105
1680019722087,1199710442435446,2.2060502,7.24095,6.33405
1680019722089,1199710444937600,2.1769502,7.2120004,6.2749505
1680019722092,1199710447439969,2.19195,7.143,6.2580004
1680019722094,1199710449942123,2.163,7.1959505,6.40395
1680019722099,1199710452444585,2.1720002,7.2030005,6.45195
1680019722102,1199710454946739,2.1750002,7.2460504,6.4090505
1680019722103,1199710457491768,2.223,7.2360005,6.4690504
1680019722105,1199710459951152,2.14905,7.1740503,6.4230003
1680019722107,1199710462453306,2.2680001,7.2750006,6.3970504
1680019722110,1199710464955691,2.2110002,7.24095,6.4609504
1680019722112,1199710467457922,2.15805,7.2120004,6.4350004
1680019722114,1199710469960317,2.1390002,7.2120004,6.42495
1680019722117,1199710472462471,2.21595,7.1740503,6.564
1680019722121,1199710474964702,2.0400002,7.188,6.53805
1680019722122,1199710477466836,2.0400002,7.1449504,6.5020504
1680019722124,1199710479969220,2.1409502,7.2649503,6.53805
1680019722127,1199710482471451,2.05995,7.2580504,6.4900503
1680019722130,1199710484973836,2.11995,7.1790004,6.4900503
1680019722132,1199710487475990,2.1409502,7.3440003,6.5670004
1680019722136,1199710489978211,2.02605,7.24095,6.6240005
1680019722139,1199710492480365,2.043,7.3300505,6.5020504
1680019722141,1199710494982750,2.01,7.31295,6.6910505
1680019722143,1199710497484981,2.0959501,7.287,6.5880003
1680019722145,1199710499987134,1.9620001,7.2649503,6.6480002
1680019722147,1199710502489523,2.0400002,7.3080006,6.6190505
1680019722150,1199710504991754,2.0689502,7.2769504,6.591
1680019722152,1199710507493908,2.0070002,7.3030505,6.6220503
1680019722154,1199710509996062,2.01,7.1929502,6.5880003
1680019722157,1199710512498523,2.01195,7.2990003,6.59805
1680019722159,1199710515000692,2.0670002,7.3060503,6.70305
1680019722162,1199710517502846,2.05995,7.3030505,6.5839505
1680019722164,1199710520005230,2.09805,7.3420506,6.5190005
1680019722167,1199710522507461,2.01405,7.2120004,6.64305
1680019722169,1199710525009586,2.01705,7.1140504,6.68205
1680019722173,1199710527511971,2.06205,7.2000003,6.591
1680019722175,1199710530014201,2.11995,7.1740503,6.6190505
1680019722177,1199710532516605,2.055,7.2190504,6.6240005
1680019722180,1199710535018759,2.079,7.1910005,6.53595
1680019722182,1199710537520913,2.0380502,7.2310505,6.4420505
1680019722184,1199710540023144,2.01705,7.1959505,6.6000004
1680019722187,1199710542525605,2.11305,7.1959505,6.6169505
1680019722190,1199710545027754,2.08905,7.2340503,6.5809503
1680019722192,1199710547529908,2.127,7.1359506,6.4999504
1680019722194,1199710550032292,2.1720002,7.2120004,6.55695
1680019722197,1199710552534446,2.16,7.1670003,6.564
1680019722200,1199710555036586,2.21805,7.0420504,6.4420505
1680019722202,1199710557539048,2.14395,7.1719503,6.4609504
1680019722204,1199710560041278,2.091,7.1910005,6.4470005
1680019722207,1199710562543432,2.22495,7.0690503,6.46395
1680019722211,1199710565045576,2.2080002,7.155,6.4849505
1680019722213,1199710567547961,2.1769502,7.116,6.46395
1680019722215,1199710570050192,2.223,7.1520004,6.5020504
1680019722218,1199710572552576,2.1649501,7.0999503,6.4999504
1680019722220,1199710575054730,2.1750002,7.22205,6.4420505
1680019722222,1199710577556937,2.2780502,7.176,6.4279504
1680019722224,1199710580059091,2.2350001,7.2289505,6.4450502
1680019722227,1199710582561475,2.1409502,7.1670003,6.59805
1680019722230,1199710585063629,2.256,7.2240005,6.5209503
1680019722232,1199710587566091,2.3040001,7.1329503,6.4729505
1680019722235,1199710590068255,2.24895,7.1359506,6.52605
1680019722237,1199710592570408,2.184,7.14795,6.53805
1680019722239,1199710595072639,2.2350001,7.071,6.5400004
1680019722242,1199710597575024,2.2420502,7.0969505,6.53595
1680019722245,1199710600077192,2.26305,7.08795,6.6600003
1680019722248,1199710602579422,2.283,7.1070004,6.5280004
1680019722252,1199710605081807,2.184,7.0810504,6.471
1680019722254,1199710607583952,2.2470002,7.1400003,6.55695
1680019722255,1199710610086183,2.29695,7.1280003,6.543
1680019722259,1199710612588336,2.28705,7.2070503,6.56895
1680019722261,1199710615090721,2.33295,7.1860504,6.5620503
1680019722262,1199710617592971,2.32605,7.2310505,6.5809503
1680019722264,1199710620095356,2.2800002,7.25505,6.6150002
1680019722267,1199710622597509,2.21595,7.2049503,6.6169505
1680019722270,1199710625099740,2.21595,7.2000003,6.61005
1680019722272,1199710627601894,2.32605,7.32,6.5740504
1680019722274,1199710630104043,2.3710501,7.2580504,6.55695
1680019722277,1199710632606504,2.29005,7.2910504,6.5790005
1680019722279,1199710635108658,2.25405,7.3030505,6.636
1680019722282,1199710637611043,2.36205,7.3780503,6.59595
1680019722286,1199710640113192,2.23005,7.2889504,6.591
1680019722288,1199710642615422,2.2060502,7.2990003,6.6240005
1680019722290,1199710645117576,2.196,7.3030505,6.6150002
1680019722292,1199710647620038,2.1750002,7.4110503,6.5860505
1680019722294,1199710650122192,2.15595,7.3320003,6.6480002
1680019722298,1199710652624576,2.2780502,7.3060503,6.564
1680019722300,1199710655126730,2.16,7.39905,6.5880003
1680019722302,1199710657628961,2.21805,7.32705,6.5929503
1680019722304,1199710660131115,2.1409502,7.28205,6.68205
1680019722307,1199710662633499,2.21295,7.3339505,6.6649504
1680019722310,1199710665135749,2.079,7.3009505,6.5809503
1680019722312,1199710667638134,2.2399502,7.3390503,6.53805
1680019722314,1199710670140288,2.21595,7.3099504,6.6340504
1680019722317,1199710672642442,2.187,7.3219504,6.60795
1680019722320,1199710675144681,2.058,7.2310505,6.6720004
1680019722323,1199710677647066,2.19195,7.34595,6.663
1680019722325,1199710680149297,2.15295,7.18095,6.7939506
1680019722327,1199710682651451,2.09805,7.188,6.7270503
1680019722330,1199710685153802,2.12505,7.2910504,6.70305
1680019722332,1199710687655956,2.223,7.2910504,6.71295
1680019722335,1199710690158187,2.17995,7.2630005,6.7219505
1680019722338,1199710692660571,2.1769502,7.2990003,6.67005
1680019722340,1199710695162802,2.21805,7.1640005,6.6220503
1680019722342,1199710697664956,2.1990001,7.2169504,6.564
1680019722345,1199710700167110,2.184,7.21005,6.6720004
1680019722347,1199710702669495,2.1750002,7.2289505,6.6340504
1680019722350,1199710705171725,2.2440002,7.1449504,6.6940503
1680019722352,1199710707674105,2.21595,7.1520004,6.5400004
1680019722355,1199710710176259,2.2729502,7.0230002,6.5929503
1680019722357,1199710712678490,2.25405,7.2000003,6.6240005
1680019722361,1199710715180874,2.32305,7.1449504,6.675
1680019722363,1199710717683028,2.283,7.2510004,6.5119505
1680019722365,1199710720185182,2.2440002,7.1050506,6.636
1680019722367,1199710722687643,2.3710501,7.18095,6.6049504
1680019722370,1199710725189797,2.331,7.1020503,6.5449505
1680019722372,1199710727691980,2.39295,7.0729504,6.55695
1680019722374,1199710730194211,2.4480002,7.2340503,6.59805
1680019722378,1199710732696596,2.3760002,7.1740503,6.6150002
1680019722380,1199710735198749,2.33505,7.2000003,6.5670004
1680019722382,1199710737700989,2.3500502,7.2310505,6.6220503
1680019722384,1199710740203374,2.33295,7.1929502,6.56895
1680019722387,1199710742705605,2.292,7.1400003,6.64095
1680019722390,1199710745207758,2.28495,7.1689506,6.6340504
1680019722392,1199710747709912,2.25195,7.1070004,6.636
1680019722394,1199710750212316,2.33295,7.0470004,6.59805
1680019722398,1199710752714547,2.21805,7.0810504,6.6510005
1680019722401,1199710755216931,2.295,7.0519505,6.5880003
1680019722403,1199710757719090,2.19405,7.1119504,6.6270003
1680019722404,1199710760221321,2.2060502,7.1670003,6.6550503
1680019722407,1199710762723475,2.2470002,7.0399504,6.576
1680019722410,1199710765225629,2.23005,7.22205,6.6150002
1680019722412,1199710767728013,2.1990001,7.1070004,6.4950004
1680019722414,1199710770230460,2.2080002,7.1620502,6.6550503
1680019722418,1199710772732614,2.2680001,7.116,6.6870003
1680019722420,1199710775234767,2.2039502,7.1070004,6.4540505
1680019722422,1199710777736998,2.19195,7.176,6.5790005
1680019722425,1199710780239412,2.184,7.1020503,6.4450502
1680019722427,1199710782741566,2.115,7.1310005,6.4830003
1680019722430,1199710785243797,2.11305,7.0950003,6.46395
1680019722432,1199710787746181,2.14395,7.0729504,6.39405
1680019722436,1199710790248325,2.12205,7.1689506,6.52395
1680019722441,1199710792750556,2.2440002,7.1020503,6.55695
1680019722442,1199710795252710,2.1319501,7.1260505,6.3850503
1680019722442,1199710797755094,2.1340501,7.1670003,6.4489503
1680019722445,1199710800257325,2.11305,7.08795,6.5190005
1680019722447,1199710802759479,2.127,7.0470004,6.531
1680019722451,1199710805261863,2.12505,7.1329503,6.4759502
1680019722452,1199710807764094,2.115,7.0279503,6.5140505
1680019722454,1199710810266248,2.1319501,7.15005,6.4420505
1680019722458,1199710812768388,2.1030002,7.22205,6.45195
1680019722460,1199710815270850,2.1319501,7.2030005,6.3370504
1680019722462,1199710817773234,2.09295,7.0020003,6.4090505
1680019722465,1199710820275388,2.15295,7.1599503,6.3780003
1680019722467,1199710822777542,2.0770502,6.9970503,6.5119505
1680019722470,1199710825279807,2.1370502,7.1449504,6.366
1680019722473,1199710827781960,2.09805,7.15005,6.4140005
1680019722475,1199710830284422,2.1049502,7.03695,6.3850503
1680019722477,1199710832786576,2.11305,7.1520004,6.45195
1680019722480,1199710835288720,2.12205,7.0969505,6.4350004
1680019722482,1199710837791181,2.08905,7.1119504,6.3850503
1680019722484,1199710840293335,2.08095,6.9630003,6.387
1680019722488,1199710842795720,2.127,7.1740503,6.4230003
1680019722490,1199710845297884,2.11995,7.1839504,6.4759502
1680019722492,1199710847800114,2.2080002,7.0639505,6.3900003
1680019722495,1199710850302268,2.163,7.2340503,6.3130503
1680019722498,1199710852804730,2.187,7.18095,6.45195
1680019722500,1199710855306903,2.058,7.1070004,6.49695
1680019722502,1199710857809287,2.01195,7.10895,6.5119505
1680019722504,1199710860311441,2.0959501,7.3030505,6.4140005
1680019722507,1199710862813672,2.1769502,7.35795,6.387
1680019722511,1199710865315840,2.1769502,7.3489504,6.6150002
1680019722513,1199710867817994,2.15805,7.34595,6.4950004
1680019722515,1199710870320455,2.1319501,7.4010005,6.5599504
1680019722517,1199710872822840,2.184,7.4209504,6.591
1680019722520,1199710875324994,2.19195,7.3489504,6.61005
1680019722522,1199710877827152,2.15295,7.3780503,6.5190005
1680019722524,1199710880329383,2.091,7.29405,6.6169505
1680019722527,1199710882831537,2.16,7.4089503,6.53805
1680019722530,1199710885333999,2.15595,7.3699503,6.6480002
1680019722532,1199710887836152,2.256,7.3560004,6.5809503
1680019722534,1199710890338547,2.232,7.3060503,6.576
1680019722538,1199710892840701,2.1750002,7.35405,6.5929503
1680019722541,1199710895342932,2.1390002,7.3080006,6.576
1680019722543,1199710897845086,2.2060502,7.38,6.6529503
1680019722545,1199710900347532,2.1370502,7.425,6.636
1680019722549,1199710902849686,2.163,7.2910504,6.6460505
1680019722551,1199710905351840,2.14905,7.34595,6.6460505
1680019722553,1199710907854200,2.091,7.3819504,6.5020504
1680019722555,1199710910356431,2.11305,7.32,6.7560005
1680019722557,1199710912858585,2.151,7.3060503,6.7099504
1680019722560,1199710915360970,2.11305,7.3009505,6.6120005
1680019722562,1199710917863200,2.12505,7.31295,6.55695
1680019722565,1199710920365359,2.15295,7.22205,6.6480002
1680019722567,1199710922867513,2.1079502,7.34595,6.5020504
1680019722570,1199710925369898,2.046,7.2700505,6.6220503
1680019722572,1199710927872129,2.0359502,7.25505,6.6529503
1680019722574,1199710930374513,2.08095,7.29405,6.6390004
1680019722578,1199710932876662,2.1649501,7.2240005,6.603
1680019722580,1199710935378893,2.19405,7.2390003,6.5449505
1680019722583,1199710937881277,2.1030002,7.1860504,6.6649504
1680019722586,1199710940383431,2.22795,7.227,6.5929503
1680019722588,1199710942885585,2.1750002,7.2120004,6.6340504
1680019722591,1199710945388047,2.08905,7.1839504,6.5790005
1680019722592,1199710947890201,2.1769502,7.1719503,6.52395
1680019722595,1199710950392431,2.127,7.188,6.5329504
1680019722597,1199710952894571,2.15295,7.1070004,6.67005
1680019722600,1199710955396956,2.1720002,7.083,6.6120005
1680019722602,1199710957899110,2.2350001,7.071,6.64305
1680019722605,1199710960401340,2.25195,7.1599503,6.53595
1680019722607,1199710962903725,2.2039502,7.1689506,6.56895
1680019722610,1199710965405965,2.2440002,7.22205,6.5400004
1680019722612,1199710967908119,2.26605,7.2120004,6.59595
1680019722615,1199710970410272,2.223,7.1959505,6.59805
1680019722618,1199710972912652,2.3160002,7.24095,6.59595
1680019722620,1199710975415114,2.22495,7.2649503,6.53805
1680019722624,1199710977917268,2.3779502,7.2720003,6.55695
1680019722626,1199710980419421,2.36205,7.2630005,6.59805
1680019722628,1199710982921652,2.352,7.1980505,6.603
1680019722631,1199710985424032,2.36205,7.31295,6.4849505
1680019722632,1199710987926186,2.32095,7.2430506,6.52605
1680019722635,1199710990428416,2.38995,7.1910005,6.55695
1680019722637,1199710992930801,2.3760002,7.1980505,6.531
1680019722640,1199710995432941,2.3430002,7.248,6.531
1680019722643,1199710997935172,2.4100502,7.1929502,6.53805
1680019722645,1199711000437325,2.39805,7.1050506,6.56895
1680019722648,1199711002939710,2.3710501,7.0540504,6.5500503
1680019722651,1199711005441922,2.4019501,7.248,6.64305
1680019722653,1199711007944076,2.42205,7.071,6.52395
1680019722655,1199711010446460,2.3740501,7.1329503,6.5929503
1680019722658,1199711012948691,2.4379501,7.0729504,6.7219505
1680019722662,1199711015450821,2.45295,7.0810504,6.63105
1680019722664,1199711017952975,2.4430501,7.071,6.675
1680019722665,1199711020455436,2.3500502,7.0999503,6.576
1680019722667,1199711022957590,2.3830502,7.0540504,6.6049504
1680019722670,1199711025459965,2.3689501,7.1310005,6.6529503
