system_ts_ms, sensor_ts_ns, gyrX, gyrY, gyrZ
1680010667468,1190655822566011,-0.027224999,-0.26895,0.0059125
1680010667470,1190655825068396,-0.0323125,-0.3040125,-0.0
1680010667472,1190655827570621,-0.0323125,-0.3449875,-0.003025
1680010667474,1190655830073006,-0.039325,-0.385,-0.0070125
1680010667478,1190655832575160,-0.0372625,-0.4239125,-0.009075
1680010667479,1190655835077391,-0.0372625,-0.4609,-0.013062499
1680010667490,1190655837580063,-0.0402875,-0.4959625,-0.0149875
1680010667490,1190655840082217,-0.0422125,-0.528,-0.0121
1680010667490,1190655842584448,-0.0422125,-0.5649875,-0.0180125
1680010667490,1190655845086832,-0.0482625,-0.60101247,-0.018975
1680010667493,1190655847589068,-0.0482625,-0.64295,-0.020075
1680010667495,1190655850091453,-0.0473,-0.6799375,-0.020075
1680010667500,1190655852593914,-0.0462,-0.7220125,-0.018975
1680010667500,1190655855096145,-0.0473,-0.7599625,-0.018975
1680010667502,1190655857598530,-0.049225,-0.803,-0.0180125
1680010667505,1190655860100659,-0.049225,-0.8399875,-0.01705
1680010667508,1190655862602890,-0.0482625,-0.8729875,-0.011
1680010667510,1190655865105275,-0.0452375,-0.8980125,-0.0050875
1680010667512,1190655867607736,-0.0452375,-0.927025,0.001925
1680010667517,1190655870109967,-0.044275,-0.942975,0.007975
1680010667518,1190655872612352,-0.041249998,-0.947925,0.0169125
1680010667520,1190655875114583,-0.041249998,-0.9449,0.0279125
1680010667522,1190655877616967,-0.0363,-0.9359625,0.0429
1680010667525,1190655880119198,-0.0352,-0.925925,0.055
1680010667528,1190655882621674,-0.038225,-0.9119,0.064899996
1680010667531,1190655885124059,-0.0363,-0.898975,0.0749375
1680010667533,1190655887626290,-0.028324999,-0.887975,0.0809875
1680010667536,1190655890128444,-0.0232375,-0.8839875,0.08195
1680010667538,1190655892630832,-0.0253,-0.883025,0.0859375
1680010667540,1190655895133294,-0.028324999,-0.881925,0.084975
1680010667542,1190655897635525,-0.0242,-0.8779375,0.0859375
1680010667546,1190655900137679,-0.0232375,-0.872025,0.0809875
1680010667548,1190655902640063,-0.0242,-0.872025,0.077
1680010667549,1190655905142280,-0.0242,-0.8699625,0.0759
1680010667552,1190655907644972,-0.0242,-0.8589625,0.07095
1680010667555,1190655910147126,-0.0242,-0.8419125,0.0639375
1680010667557,1190655912649357,-0.027224999,-0.832975,0.0539
1680010667561,1190655915151736,-0.0262625,-0.8199125,0.0449625
1680010667562,1190655917653967,-0.0232375,-0.803,0.0389125
1680010667564,1190655920156352,-0.0202125,-0.7849875,0.023924999
1680010667569,1190655922658818,-0.022275,-0.7679375,0.0169125
1680010667571,1190655925161049,-0.022275,-0.7489625,0.007975
1680010667573,1190655927663203,-0.022275,-0.729025,9.625E-4
1680010667575,1190655930165588,-0.0262625,-0.705925,-0.0100375
1680010667579,1190655932667818,-0.027224999,-0.682,-0.0180125
1680010667580,1190655935170193,-0.0292875,-0.6659125,-0.0259875
1680010667582,1190655937672655,-0.0323125,-0.6439125,-0.033
1680010667585,1190655940174885,-0.0323125,-0.617925,-0.0380875
1680010667588,1190655942677270,-0.0352,-0.597025,-0.039049998
1680010667590,1190655945179525,-0.0363,-0.5790125,-0.042075
1680010667592,1190655947681909,-0.0372625,-0.5589375,-0.0460625
1680010667596,1190655950184140,-0.0363,-0.540925,-0.0451
1680010667598,1190655952686602,-0.038225,-0.5229125,-0.050049998
1680010667599,1190655955188986,-0.0363,-0.5049,-0.0490875
1680010667602,1190655957691160,-0.038225,-0.4879875,-0.0490875
1680010667607,1190655960193391,-0.0323125,-0.4679125,-0.0540375
1680010667609,1190655962695776,-0.0292875,-0.4569125,-0.051975
1680010667613,1190655965198006,-0.028324999,-0.447975,-0.051975
1680010667613,1190655967700483,-0.0262625,-0.4360125,-0.053075
1680010667614,1190655970202868,-0.028324999,-0.4250125,-0.0540375
1680010667619,1190655972705098,-0.0262625,-0.41593748,-0.0570625
1680010667619,1190655975207252,-0.027224999,-0.4109875,-0.058025
1680010667622,1190655977709714,-0.0242,-0.3999875,-0.0570625
1680010667625,1190655980212098,-0.0213125,-0.3949,-0.0570625
1680010667630,1190655982714560,-0.015262499,-0.38995,-0.061049998
1680010667630,1190655985216714,-0.0143,-0.3839,-0.0620125
1680010667632,1190655987718945,-0.011275,-0.386925,-0.062975
1680010667634,1190655990221305,-0.006325,-0.3859625,-0.0699875
1680010667638,1190655992723536,-0.0022,-0.38995,-0.0710875
1680010667640,1190655995225921,-0.0022,-0.3920125,-0.073975
1680010667646,1190655997728382,-0.0022,-0.3920125,-0.0760375
1680010667646,1190656000230617,-0.0022,-0.3939375,-0.0790625
1680010667648,1190656002733001,6.875E-4,-0.3999875,-0.0760375
1680010667649,1190656005235232,0.00275,-0.4049375,-0.078099996
1680010667652,1190656007737617,0.0067375,-0.410025,-0.0820875
1680010667654,1190656010239848,0.010725,-0.41593748,-0.08305
1680010667658,1190656012742329,0.014712499,-0.4169,-0.0820875
1680010667662,1190656015244483,0.0187,-0.42295,-0.0840125
1680010667662,1190656017746868,0.0187,-0.4250125,-0.087037496
1680010667665,1190656020249098,0.021724999,-0.4349125,-0.086075
1680010667668,1190656022751483,0.0226875,-0.44494998,-0.088
1680010667670,1190656025253714,0.021724999,-0.451,-0.091025
1680010667672,1190656027756175,0.0226875,-0.462,-0.0900625
1680010667675,1190656030258560,0.021724999,-0.4719,-0.0891
1680010667678,1190656032760732,0.02475,-0.4879875,-0.0891
1680010667681,1190656035262963,0.0226875,-0.5020125,-0.091025
1680010667683,1190656037765347,0.0207625,-0.5159,-0.087037496
1680010667684,1190656040267809,0.014712499,-0.529925,-0.0891
1680010667688,1190656042770036,0.0077,-0.546975,-0.088
1680010667690,1190656045272420,0.0037125,-0.562925,-0.0809875
1680010667695,1190656047774651,-0.005225,-0.572,-0.077
1680010667695,1190656050277036,-0.0103124995,-0.58795,-0.0671
1680010667698,1190656052779275,-0.0122375,-0.5949625,-0.055
1680010667699,1190656055281660,-0.017324999,-0.612975,-0.0400125
1680010667702,1190656057784122,-0.011275,-0.649,-0.022
1680010667706,1190656060286352,0.0037125,-0.6879125,0.014025
1680010667709,1190656062788497,0.00275,-0.7110125,0.0319
1680010667712,1190656065290882,-0.005225,-0.73095,0.044
1680010667713,1190656067793113,-0.0092124995,-0.751025,0.051975
1680010667715,1190656070295497,-0.01925,-0.7569375,0.04895
1680010667720,1190656072797963,-0.0312125,-0.760925,0.0389125
1680010667722,1190656075300193,-0.041249998,-0.7660125,0.0309375
1680010667723,1190656077802578,-0.0422125,-0.771925,0.01595
1680010667726,1190656080304809,-0.044275,-0.77,0.003025
1680010667729,1190656082807194,-0.0473,-0.773025,-0.009075
1680010667730,1190656085309415,-0.0512875,-0.7679375,-0.0210375
1680010667732,1190656087811877,-0.0532125,-0.7679375,-0.0341
1680010667735,1190656090314031,-0.0572,-0.7679375,-0.0430375
1680010667738,1190656092816415,-0.0622875,-0.7679375,-0.0490875
1680010667740,1190656095318646,-0.0672375,-0.7679375,-0.0561
1680010667746,1190656097821022,-0.07425,-0.766975,-0.0589875
1680010667746,1190656100323252,-0.0812625,-0.7660125,-0.061049998
1680010667748,1190656102825714,-0.082225,-0.77,-0.069025
1680010667750,1190656105328099,-0.088275,-0.7739875,-0.0710875
1680010667752,1190656107830324,-0.088275,-0.7759125,-0.0699875
1680010667757,1190656110332478,-0.091299996,-0.7759125,-0.07205
1680010667759,1190656112834940,-0.0952875,-0.77701247,-0.0710875
1680010667762,1190656115337324,-0.0983125,-0.7789375,-0.069025
1680010667763,1190656117839762,-0.0983125,-0.7759125,-0.0650375
1680010667765,1190656120341916,-0.100237496,-0.7709625,-0.0620125
1680010667768,1190656122844147,-0.104225,-0.7679375,-0.0589875
1680010667770,1190656125346531,-0.1062875,-0.7629875,-0.0570625
1680010667772,1190656127848762,-0.1082125,-0.7569375,-0.0510125
1680010667775,1190656130351131,-0.1093125,-0.7489625,-0.0479875
1680010667779,1190656132853592,-0.111237496,-0.7409875,-0.0430375
1680010667780,1190656135355823,-0.111237496,-0.7330125,-0.039049998
1680010667782,1190656137857977,-0.1082125,-0.7249,-0.036025
1680010667785,1190656140360443,-0.1082125,-0.711975,-0.0320375
1680010667788,1190656142862828,-0.1062875,-0.7049625,-0.029975
1680010667790,1190656145365059,-0.105325,-0.6939625,-0.025024999
1680010667796,1190656147867443,-0.104225,-0.6879125,-0.0210375
1680010667797,1190656150369655,-0.1023,-0.6780125,-0.0240625
1680010667798,1190656152872040,-0.1012,-0.6670125,-0.025024999
1680010667800,1190656155374271,-0.09625,-0.656975,-0.025024999
1680010667802,1190656157876655,-0.094325,-0.6469375,-0.0259875
1680010667805,1190656160378886,-0.093225,-0.627,-0.025024999
1680010667808,1190656162881356,-0.0922625,-0.6120125,-0.0270875
1680010667812,1190656165383741,-0.093225,-0.5999125,-0.02805
1680010667813,1190656167885895,-0.0922625,-0.5839625,-0.029975
1680010667815,1190656170388126,-0.088275,-0.5779125,-0.033
1680010667818,1190656172890491,-0.0873125,-0.5649875,-0.0341
1680010667820,1190656175392953,-0.0873125,-0.5489,-0.0350625
1680010667822,1190656177895184,-0.088275,-0.5379,-0.0341
1680010667830,1190656180397568,-0.08525,-0.5259375,-0.0341
1680010667830,1190656182899780,-0.0842875,-0.513975,-0.0341
1680010667833,1190656185402165,-0.08525,-0.5049,-0.0341
1680010667835,1190656187903279,-0.0812625,-0.4959625,-0.0320375
1680010667835,1190656190404396,-0.077275,-0.484,-0.0259875
1680010667838,1190656192908997,-0.0763125,-0.4739625,-0.025024999
1680010667840,1190656195411381,-0.07425,-0.4629625,-0.025024999
1680010667842,1190656197913612,-0.07425,-0.45595,-0.022
1680010667845,1190656200415997,-0.072325,-0.443025,-0.018975
1680010667848,1190656202918228,-0.069299996,-0.432025,-0.0180125
1680010667850,1190656205420612,-0.0653125,-0.4239125,-0.01705
1680010667853,1190656207922843,-0.0642125,-0.4140125,-0.013062499
1680010667855,1190656210425305,-0.0622875,-0.4049375,-0.0160875
1680010667858,1190656212927689,-0.0583,-0.3939375,-0.01705
1680010667861,1190656215429939,-0.0583,-0.3829375,-0.013062499
1680010667862,1190656217932324,-0.0583,-0.374,-0.0160875
1680010667865,1190656220434554,-0.0572,-0.363,-0.0210375
1680010667870,1190656222936915,-0.0562375,-0.3529625,-0.022
1680010667872,1190656225439146,-0.0543125,-0.3389375,-0.0240625
1680010667874,1190656227941530,-0.052249998,-0.32999998,-0.0270875
1680010667875,1190656230443761,-0.0512875,-0.319,-0.0290125
1680010667878,1190656232946146,-0.049225,-0.308,-0.029975
1680010667880,1190656235448372,-0.0452375,-0.298925,-0.029975
1680010667882,1190656237950756,-0.0422125,-0.289025,-0.029975
1680010667885,1190656240453218,-0.039325,-0.27995,-0.0320375
1680010667888,1190656242955448,-0.039325,-0.2729375,-0.033
1680010667890,1190656245457833,-0.0372625,-0.2619375,-0.0341
1680010667892,1190656247960064,-0.039325,-0.2509375,-0.029975
1680010667895,1190656250462449,-0.0363,-0.245025,-0.0320375
1680010667898,1190656252964602,-0.0342375,-0.242,-0.0341
1680010667900,1190656255467064,-0.0352,-0.232925,-0.033
1680010667902,1190656257969304,-0.0342375,-0.22893749,-0.029975
1680010667908,1190656260471688,-0.0323125,-0.223025,-0.0320375
1680010667910,1190656262973919,-0.03025,-0.2189,-0.0270875
1680010667911,1190656265721530,-0.03025,-0.2149125,-0.0259875
1680010667913,1190656267978530,-0.03025,-0.2129875,-0.0270875
1680010667915,1190656270480992,-0.0292875,-0.2079,-0.025024999
1680010667920,1190656272983146,-0.027224999,-0.2019875,-0.0240625
1680010667921,1190656275485530,-0.0262625,-0.2019875,-0.0210375
1680010667923,1190656277987992,-0.0292875,-0.201025,-0.0180125
1680010667925,1190656280490223,-0.027224999,-0.199925,-0.0160875
1680010667928,1190656282992377,-0.0232375,-0.198,-0.01705
1680010667930,1190656285494838,-0.0253,-0.199925,-0.013062499
1680010667932,1190656287997242,-0.0242,-0.1989625,-0.0100375
1680010667935,1190656290499473,-0.0242,-0.1989625,-0.011
1680010667938,1190656293001857,-0.0253,-0.1959375,-0.011
1680010667940,1190656295504088,-0.0242,-0.1940125,-0.007975
1680010667944,1190656298006502,-0.0242,-0.194975,-0.0100375
1680010667947,1190656300508732,-0.0213125,-0.19195,-0.013062499
1680010667949,1190656303011117,-0.0182875,-0.1859,-0.013062499
1680010667952,1190656305513348,-0.022275,-0.18493749,-0.01705
1680010667952,1190656308015809,-0.0202125,-0.1830125,-0.01705
1680010667955,1190656310517963,-0.0202125,-0.177925,-0.0180125
1680010667958,1190656313020348,-0.0202125,-0.1749,-0.020075
1680010667960,1190656315522809,-0.0202125,-0.168025,-0.0210375
1680010667963,1190656318025040,-0.0202125,-0.1599125,-0.022
1680010667965,1190656320527421,-0.022275,-0.1599125,-0.025024999
1680010667968,1190656323029652,-0.0213125,-0.154,-0.0259875
1680010667970,1190656325532036,-0.0232375,-0.143,-0.0259875
1680010667972,1190656328034267,-0.0242,-0.13695,-0.0270875
1680010667975,1190656330536652,-0.0242,-0.1329625,-0.029975
1680010667979,1190656333038882,-0.0202125,-0.1269125,-0.02805
1680010667981,1190656335541267,-0.0232375,-0.1219625,-0.0270875
1680010667983,1190656338043498,-0.0232375,-0.1199,-0.0320375
1680010667986,1190656340545891,-0.0213125,-0.1109625,-0.029975
1680010667988,1190656343048122,-0.0213125,-0.108899996,-0.0290125
1680010667990,1190656345550584,-0.0202125,-0.102025,-0.029975
1680010667993,1190656348052968,-0.01925,-0.099,-0.0290125
1680010667995,1190656350555199,-0.016224999,-0.0919875,-0.029975
1680010667999,1190656353057589,-0.01925,-0.086899996,-0.033
1680010668000,1190656355559819,-0.017324999,-0.0859375,-0.0320375
1680010668003,1190656358061973,-0.015262499,-0.0809875,-0.033
1680010668005,1190656360564435,-0.0143,-0.078925,-0.0341
1680010668008,1190656363066848,-0.0143,-0.069025,-0.0320375
1680010668011,1190656365569079,-0.0133375,-0.0669625,-0.0290125
1680010668013,1190656368071464,-0.0122375,-0.0639375,-0.0270875
1680010668015,1190656370573695,-0.0122375,-0.0589875,-0.025024999
1680010668020,1190656373076074,-0.0122375,-0.0589875,-0.0259875
1680010668022,1190656375578536,-0.0122375,-0.051975,-0.0240625
1680010668023,1190656378080767,-0.0103124995,-0.055,-0.0231
1680010668026,1190656380583151,-0.0072875,-0.056925,-0.0210375
1680010668029,1190656383085382,-0.006325,-0.0529375,-0.020075
1680010668031,1190656385587767,-0.00825,-0.0499125,-0.018975
1680010668033,1190656388089920,-0.0072875,-0.0529375,-0.018975
1680010668035,1190656390592382,-0.00825,-0.051975,-0.022
1680010668038,1190656393094613,-0.005225,-0.0510125,-0.022
1680010668040,1190656395596992,-0.0072875,-0.0539,-0.022
1680010668043,1190656398099223,-0.00935,-0.0589875,-0.0240625
1680010668046,1190656400601608,-0.00825,-0.05995,-0.0240625
1680010668048,1190656403103839,-0.0072875,-0.05995,-0.025024999
1680010668052,1190656405606300,-0.005225,-0.062975,-0.0270875
1680010668053,1190656408108685,-0.005225,-0.067925,-0.0320375
1680010668057,1190656410610916,-0.005225,-0.07095,-0.0320375
1680010668059,1190656413113300,-0.0072875,-0.0749375,-0.029975
1680010668061,1190656415615459,-0.005225,-0.077,-0.0320375
1680010668063,1190656418117690,-0.006325,-0.077,-0.033
1680010668066,1190656420620151,-0.0072875,-0.088,-0.02805
1680010668069,1190656423122536,-0.00825,-0.091025,-0.0270875
1680010668070,1190656425624767,-0.011275,-0.0969375,-0.0270875
1680010668072,1190656428127146,-0.00935,-0.106975,-0.025024999
1680010668075,1190656430629377,-0.0103124995,-0.1109625,-0.022
1680010668078,1190656433131762,-0.0143,-0.11495,-0.018975
1680010668080,1190656435633992,-0.0133375,-0.1219625,-0.0121
1680010668082,1190656438136377,-0.0122375,-0.128975,-0.013062499
1680010668085,1190656440638863,-0.0133375,-0.132,-0.0121
1680010668088,1190656443141017,-0.015262499,-0.135025,-0.0100375
1680010668093,1190656445643247,-0.0213125,-0.139975,-0.007975
1680010668102,1190656448145642,-0.0213125,-0.139975,-0.0039875
1680010668102,1190656450648103,-0.0182875,-0.1419,-0.003025
1680010668102,1190656453150334,-0.01925,-0.1419,-0.0011
1680010668102,1190656455652719,-0.0213125,-0.146025,-0.0
1680010668102,1190656458154950,-0.022275,-0.14795,0.0039875
1680010668106,1190656460657324,-0.0213125,-0.1519375,0.0039875
1680010668109,1190656463159478,-0.022275,-0.1519375,0.0070125
1680010668110,1190656465661940,-0.022275,-0.154,0.0089375
1680010668113,1190656468164170,-0.022275,-0.1529,0.007975
1680010668115,1190656470666555,-0.0213125,-0.1500125,0.0070125
1680010668118,1190656473168781,-0.0213125,-0.150975,0.007975
1680010668120,1190656475671165,-0.01925,-0.150975,0.0119624995
1680010668122,1190656478173396,-0.0213125,-0.1489125,0.014025
1680010668125,1190656480675858,-0.01925,-0.144925,0.0089375
1680010668128,1190656483178242,-0.0182875,-0.144925,0.007975
1680010668131,1190656485680473,-0.017324999,-0.1469875,0.0089375
1680010668134,1190656488182858,-0.017324999,-0.144925,0.0099
1680010668135,1190656490685089,-0.0182875,-0.1379125,0.0089375
1680010668139,1190656493187252,-0.017324999,-0.135025,0.0089375
1680010668140,1190656495689714,-0.017324999,-0.13695,0.0059125
1680010668143,1190656498192099,-0.0133375,-0.1359875,0.0089375
1680010668147,1190656500694329,-0.0122375,-0.1299375,0.0070125
1680010668149,1190656503196714,-0.015262499,-0.1299375,0.001925
1680010668150,1190656505698940,-0.0143,-0.1299375,0.0039875
1680010668153,1190656508201324,-0.0133375,-0.124025,0.0059125
1680010668157,1190656510703786,-0.0133375,-0.1170125,0.0039875
1680010668158,1190656513206017,-0.011275,-0.117975,0.0070125
1680010668160,1190656515708406,-0.0103124995,-0.117975,0.00495
1680010668163,1190656518210560,-0.00935,-0.1170125,0.0059125
1680010668167,1190656520713022,-0.006325,-0.1139875,0.0059125
1680010668171,1190656523215261,-0.005225,-0.1109625,0.0059125
1680010668171,1190656525717646,-2.75E-4,-0.11,0.007975
1680010668174,1190656528219877,-2.75E-4,-0.1109625,0.00495
1680010668175,1190656530722261,0.00165,-0.11,0.0059125
1680010668178,1190656533224492,0.005775,-0.1049125,0.007975
1680010668180,1190656535726858,0.005775,-0.1029875,0.0089375
1680010668182,1190656538229089,0.0067375,-0.0999625,0.0089375
1680010668187,1190656540731473,0.010725,-0.09295,0.0099
1680010668188,1190656543233935,0.0116875,-0.088,0.0119624995
1680010668190,1190656545736094,0.010725,-0.0840125,0.01595
1680010668193,1190656548238324,0.0116875,-0.086899996,0.0169125
1680010668195,1190656550740786,0.0116875,-0.086899996,0.0169125
1680010668198,1190656553243171,0.01265,-0.08195,0.0169125
1680010668200,1190656555745401,0.01375,-0.080025,0.022
1680010668203,1190656558247790,0.014712499,-0.078925,0.022
1680010668207,1190656560750021,0.0116875,-0.078925,0.0229625
1680010668209,1190656563252175,0.010725,-0.080025,0.0229625
1680010668211,1190656565754651,0.010725,-0.080025,0.023924999
1680010668213,1190656568257036,0.0077,-0.078925,0.0259875
1680010668215,1190656570759267,0.0097624995,-0.08195,0.0259875
1680010668221,1190656573261651,0.014712499,-0.088,0.0259875
1680010668221,1190656575763882,0.0116875,-0.084975,0.0259875
1680010668223,1190656578266272,0.0097624995,-0.086899996,0.02695
1680010668227,1190656580768733,0.010725,-0.09295,0.0279125
1680010668229,1190656583270964,0.0116875,-0.091025,0.02695
1680010668231,1190656585773349,0.01375,-0.0919875,0.025024999
1680010668236,1190656588275593,0.0116875,-0.089925,0.025024999
1680010668236,1190656590777978,0.010725,-0.0939125,0.02695
1680010668239,1190656593280132,0.01375,-0.091025,0.023924999
1680010668240,1190656595782593,0.01265,-0.091025,0.022
1680010668245,1190656598284824,0.01375,-0.089925,0.0209
1680010668246,1190656600787209,0.016775,-0.0809875,0.022
1680010668248,1190656603289440,0.01375,-0.0779625,0.022
1680010668250,1190656605791824,0.014712499,-0.08195,0.0209
1680010668253,1190656608294055,0.0177375,-0.0759,0.01595
1680010668256,1190656610796511,0.016775,-0.0749375,0.012925
1680010668258,1190656613298665,0.016775,-0.073975,0.014025
1680010668260,1190656615801127,0.0187,-0.067925,0.0119624995
1680010668263,1190656618303511,0.0187,-0.064899996,0.0070125
1680010668266,1190656620805665,0.0196625,-0.0639375,0.007975
1680010668269,1190656623307896,0.021724999,-0.0620125,0.0089375
1680010668271,1190656625810358,0.02475,-0.0609125,0.007975
1680010668273,1190656628312742,0.02365,-0.0609125,0.0039875
1680010668275,1190656630814973,0.02365,-0.055,9.625E-4
1680010668278,1190656633317363,0.02475,-0.051975,-0.0011
1680010668283,1190656635819593,0.0257125,-0.0499125,-0.0
1680010668284,1190656638321978,0.02365,-0.0499125,9.625E-4
1680010668286,1190656640824209,0.026675,-0.04895,0.0039875
1680010668288,1190656643326568,0.0287375,-0.04895,-0.0
1680010668290,1190656645828799,0.02365,-0.047025,-0.0011
1680010668293,1190656648331261,0.0226875,-0.0449625,0.003025
1680010668295,1190656650833415,0.02475,-0.0429,-0.0011
1680010668298,1190656653335813,0.026675,-0.03795,-0.003025
1680010668302,1190656655838275,0.027775,-0.040975,-0.0039875
1680010668303,1190656658340506,0.027775,-0.036025,-0.0039875
1680010668307,1190656660842890,0.027775,-0.0369875,-0.0020625
1680010668309,1190656663345136,0.0257125,-0.034925,-0.0020625
1680010668312,1190656665847521,0.02365,-0.033,-0.0039875
1680010668313,1190656668349751,0.02365,-0.033,-0.0039875
1680010668315,1190656670852136,0.021724999,-0.0309375,-0.00605
1680010668321,1190656673354328,0.0196625,-0.0309375,-0.0050875
1680010668322,1190656675856712,0.016775,-0.0279125,-0.0070125
1680010668324,1190656678358943,0.0116875,-0.022,-0.0070125
1680010668326,1190656680861328,0.010725,-0.0209,-0.0070125
1680010668328,1190656683363559,0.0097624995,-0.023924999,-0.007975
1680010668330,1190656685866006,0.0097624995,-0.023924999,-0.0100375
1680010668333,1190656688368391,0.0077,-0.0259875,-0.011
1680010668336,1190656690870621,0.0067375,-0.023924999,-0.0121
1680010668338,1190656693373006,0.005775,-0.0279125,-0.0160875
1680010668340,1190656695875237,0.00165,-0.0309375,-0.0160875
1680010668343,1190656698377396,-2.75E-4,-0.029975,-0.020075
1680010668347,1190656700879857,-0.0023375,-0.0339625,-0.020075
1680010668349,1190656703382242,-0.00825,-0.034925,-0.01705
1680010668350,1190656705884473,-0.00935,-0.0290125,-0.01705
1680010668353,1190656708386847,-0.0103124995,-0.033,-0.01705
1680010668357,1190656710889078,-0.015262499,-0.040975,-0.013062499
1680010668359,1190656713391463,-0.016224999,-0.040975,-0.0121
1680010668362,1190656715893919,-0.01925,-0.036025,-0.0121
1680010668363,1190656718396150,-0.01925,-0.0419375,-0.0100375
1680010668366,1190656720898535,-0.01925,-0.044,-0.0121
1680010668369,1190656723400765,-0.0182875,-0.0429,-0.0100375
1680010668371,1190656725902919,-0.02035,-0.047025,-0.007975
1680010668373,1190656728405290,-0.0232375,-0.0479875,-0.009075
1680010668377,1190656730907751,-0.03025,-0.047025,-0.011
1680010668379,1190656733409982,-0.03025,-0.0449625,-0.007975
1680010668380,1190656735912367,-0.03025,-0.044,-0.0070125
1680010668383,1190656738414602,-0.0323125,-0.0449625,-0.009075
1680010668386,1190656740916986,-0.0323125,-0.047025,-0.007975
1680010668389,1190656743419217,-0.038225,-0.045925,-0.0050875
1680010668391,1190656745921602,-0.039325,-0.0449625,-0.00605
1680010668395,1190656748424059,-0.04235,-0.040975,-0.0050875
1680010668396,1190656750926290,-0.0433125,-0.03795,-0.003025
1680010668399,1190656753428675,-0.04235,-0.036025,-0.0020625
1680010668401,1190656755930828,-0.04235,-0.0339625,-0.0020625
1680010668403,1190656758433059,-0.04235,-0.0290125,-0.0
1680010668406,1190656760935511,-0.04235,-0.0259875,9.625E-4
1680010668408,1190656763437895,-0.0452375,-0.025024999,0.0039875
1680010668410,1190656765940126,-0.0463375,-0.018975,0.001925
1680010668413,1190656768442511,-0.0463375,-0.0169125,-0.0
1680010668416,1190656770944747,-0.0473,-0.014025,9.625E-4
1680010668418,1190656773446900,-0.0463375,-0.0099,0.001925
1680010668420,1190656775949362,-0.0473,-0.007975,0.001925
1680010668423,1190656778451747,-0.0463375,-0.00495,0.001925
1680010668426,1190656780953967,-0.0473,-0.00495,0.003025
1680010668429,1190656783456352,-0.0463375,-0.003025,9.625E-4
1680010668433,1190656785958583,-0.0482625,0.0039875,0.003025
1680010668435,1190656788460967,-0.049225,0.0,0.001925
1680010668436,1190656790963429,-0.052249998,-0.001925,-0.0011
1680010668439,1190656793465660,-0.05335,0.0020625,0.001925
1680010668441,1190656795968044,-0.0512875,-0.003025,0.003025
1680010668443,1190656798470275,-0.052249998,-0.0039875,-0.0
1680010668446,1190656800972670,-0.0562375,-0.0039875,-0.0020625
1680010668448,1190656803474824,-0.0543125,-0.011,-0.0
1680010668450,1190656805977285,-0.0573375,-0.012925,-0.0011
1680010668453,1190656808479516,-0.0583,-0.011,-0.0050875
1680010668455,1190656810981900,-0.061325,-0.012925,-0.0039875
1680010668458,1190656813484156,-0.0622875,-0.0169125,-0.00605
1680010668461,1190656815986541,-0.06325,-0.0199375,-0.0070125
1680010668463,1190656818488772,-0.0683375,-0.022,-0.0050875
1680010668468,1190656820991103,-0.0702625,-0.022,-0.0050875
1680010668471,1190656823493565,-0.072325,-0.0259875,-0.0070125
1680010668472,1190656825995796,-0.072325,-0.0279125,-0.00605
1680010668474,1190656828498180,-0.0763125,-0.0259875,-0.00605
1680010668476,1190656831000411,-0.0763125,-0.0209,-0.0070125
1680010668478,1190656833502550,-0.0812625,-0.0259875,-0.003025
1680010668480,1190656836004934,-0.0803,-0.02695,-0.0039875
1680010668483,1190656838507396,-0.0803,-0.0259875,-0.0050875
1680010668486,1190656841009627,-0.0803,-0.02695,-0.0070125
1680010668488,1190656843512059,-0.0803,-0.029975,-0.0070125
1680010668490,1190656846014290,-0.0812625,-0.0259875,-0.00605
1680010668493,1190656848516675,-0.082225,-0.022,-0.007975
1680010668495,1190656851018829,-0.0812625,-0.02695,-0.009075
1680010668498,1190656853521295,-0.08525,-0.0259875,-0.0121
1680010668500,1190656856023757,-0.0842875,-0.022,-0.0100375
1680010668503,1190656858525988,-0.0842875,-0.02695,-0.009075
1680010668508,1190656861028141,-0.0873125,-0.02695,-0.007975
1680010668510,1190656863530511,-0.0873125,-0.025024999,-0.009075
1680010668511,1190656866100742,-0.082225,-0.023924999,-0.011
1680010668514,1190656868535203,-0.0812625,-0.0259875,-0.0121
1680010668515,1190656871037588,-0.08525,-0.0259875,-0.007975
1680010668519,1190656873539819,-0.082225,-0.025024999,-0.013062499
1680010668521,1190656876042218,-0.0803,-0.0279125,-0.0121
1680010668524,1190656878544449,-0.0793375,-0.025024999,-0.0100375
1680010668526,1190656881046603,-0.0793375,-0.0279125,-0.011
1680010668529,1190656883549064,-0.0782375,-0.0319,-0.0070125
1680010668530,1190656886051449,-0.0763125,-0.034925,-0.013062499
1680010668534,1190656888553680,-0.0732875,-0.034925,-0.0180125
1680010668536,1190656891056065,-0.072325,-0.0389125,-0.0160875
1680010668539,1190656893558295,-0.069299996,-0.044,-0.018975
1680010668540,1190656896060675,-0.069299996,-0.0479875,-0.0210375
1680010668544,1190656898563136,-0.0672375,-0.055,-0.022
1680010668547,1190656901065367,-0.0622875,-0.0620125,-0.020075
1680010668550,1190656903567752,-0.0622875,-0.066,-0.020075
1680010668553,1190656906069978,-0.061325,-0.0719125,-0.0210375
1680010668554,1190656908572131,-0.061325,-0.078925,-0.0210375
1680010668556,1190656911074516,-0.061325,-0.080025,-0.020075
1680010668558,1190656913576978,-0.0573375,-0.0829125,-0.020075
1680010668561,1190656916079208,-0.0562375,-0.0859375,-0.01705
1680010668563,1190656918581574,-0.0573375,-0.086899996,-0.0149875
1680010668566,1190656921083805,-0.0562375,-0.091025,-0.0121
1680010668568,1190656923586189,-0.052249998,-0.091025,-0.011
1680010668571,1190656926088420,-0.0512875,-0.0859375,-0.0070125
1680010668573,1190656928590897,-0.049225,-0.0809875,-0.00605
1680010668575,1190656931093281,-0.0452375,-0.077,-0.0050875
1680010668578,1190656933595512,-0.039325,-0.0719125,-0.003025
1680010668583,1190656936097666,-0.0363,-0.067925,-0.0
1680010668584,1190656938600051,-0.0363,-0.062975,-0.003025
1680010668587,1190656941102281,-0.0342375,-0.058025,-0.0011
1680010668590,1190656943604743,-0.0292875,-0.051975,0.0039875
1680010668591,1190656946107128,-0.0292875,-0.04895,0.0039875
1680010668593,1190656948609358,-0.028324999,-0.040975,0.00495
1680010668596,1190656951111723,-0.028324999,-0.0309375,0.0070125
1680010668598,1190656953613954,-0.022275,-0.0290125,0.007975
1680010668600,1190656956116108,-0.0202125,-0.0259875,0.0089375
1680010668603,1190656958618569,-0.022275,-0.02695,0.0119624995
1680010668606,1190656961121022,-0.015262499,-0.0180125,0.01595
1680010668608,1190656963623406,-0.0133375,-0.0149875,0.01595
1680010668611,1190656966125560,-0.0103124995,-0.0119624995,0.018975
1680010668613,1190656968627791,-0.006325,-0.0070125,0.018975
1680010668617,1190656971130147,-0.00825,-0.0070125,0.0209
1680010668620,1190656973632608,-0.0042625,-0.00495,0.022
1680010668622,1190656976134839,-0.0033,-0.0059125,0.0229625
1680010668624,1190656978637223,6.875E-4,-0.00495,0.022
1680010668627,1190656981139439,0.005775,-0.007975,0.022
1680010668630,1190656983641824,0.005775,-0.007975,0.023924999
1680010668632,1190656986143978,0.0086624995,-0.0059125,0.022
1680010668634,1190656988646439,0.0086624995,-0.007975,0.0209
1680010668636,1190656991148670,0.0077,-0.007975,0.0209
1680010668638,1190656993651079,0.0116875,-0.011,0.014025
1680010668641,1190656996153309,0.016775,-0.0119624995,0.0199375
1680010668643,1190656998655694,0.01375,-0.014025,0.01595
1680010668646,1190657001157925,0.0187,-0.01595,0.0099
1680010668649,1190657003660401,0.0196625,-0.018975,0.0119624995
1680010668651,1190657006162786,0.0196625,-0.0259875,0.0119624995
1680010668653,1190657008665017,0.0226875,-0.022,0.011
1680010668658,1190657011167401,0.0257125,-0.018975,0.0089375
1680010668661,1190657013669550,0.0257125,-0.01595,0.0099
1680010668662,1190657016171781,0.027775,-0.0180125,0.0099
1680010668663,1190657018674243,0.027775,-0.01595,0.007975
1680010668667,1190657021176627,0.027775,-0.0169125,0.007975
1680010668669,1190657023678863,0.0297,-0.014025,0.0059125
1680010668671,1190657026181248,0.0336875,-0.0149875,0.007975
1680010668674,1190657028683478,0.0336875,-0.0149875,0.0099
1680010668676,1190657031185863,0.03575,-0.0099,0.0070125
1680010668678,1190657033688325,0.03575,-0.012925,0.007975
1680010668681,1190657036190555,0.038775,-0.0119624995,0.0070125
1680010668683,1190657038692940,0.0407,-0.0099,0.00495
1680010668686,1190657041195171,0.0416625,-0.0099,0.0039875
1680010668688,1190657043697325,0.0477125,-0.0089375,0.003025
1680010668690,1190657046199694,0.0517,-0.0099,0.00495
1680010668695,1190657048702156,0.0526625,-0.011,0.00495
1680010668696,1190657051204387,0.054725,-0.011,0.003025
1680010668699,1190657053706771,0.0587125,-0.0099,0.003025
1680010668702,1190657056208997,0.059675,-0.0099,0.0039875
1680010668703,1190657058711382,0.0617375,-0.012925,0.0059125
1680010668707,1190657061213535,0.0666875,-0.014025,0.0039875
1680010668709,1190657063715997,0.0677875,-0.01595,-0.0
1680010668711,1190657066218247,0.0697125,-0.0169125,-0.0011
1680010668714,1190657068720708,0.06875,-0.0180125,-0.0
1680010668718,1190657071222862,0.071775,-0.022,-0.0011
1680010668724,1190657073725247,0.0746625,-0.023924999,-0.0020625
1680010668724,1190657076227477,0.0757625,-0.02695,-0.0020625
1680010668724,1190657078729954,0.0727375,-0.0319,-0.003025
1680010668726,1190657081232339,0.0727375,-0.036025,-0.0050875
1680010668728,1190657083734569,0.0727375,-0.0419375,-0.00605
1680010668732,1190657086236977,0.0697125,-0.045925,-0.0039875
1680010668734,1190657088739208,0.0697125,-0.0510125,-0.0050875
1680010668735,1190657091241362,0.0697125,-0.0609125,-0.00605
1680010668738,1190657093743823,0.0636625,-0.0639375,-0.00605
1680010668740,1190657096246208,0.0627,-0.0699875,-0.0070125
1680010668743,1190657098748425,0.065725,-0.0779625,-0.007975
1680010668747,1190657101250809,0.0627,-0.08195,-0.007975
1680010668750,1190657103753040,0.059675,-0.086899996,-0.007975
1680010668751,1190657106255425,0.059675,-0.0939125,-0.007975
1680010668753,1190657108757881,0.0587125,-0.0969375,-0.0070125
1680010668755,1190657111260112,0.0567875,-0.10395,-0.007975
1680010668758,1190657113762497,0.0526625,-0.113025,-0.00605
1680010668761,1190657116264727,0.0537625,-0.1159125,-0.009075
1680010668764,1190657118766886,0.0537625,-0.11495,-0.009075
1680010668766,1190657121269271,0.0477125,-0.117975,-0.007975
1680010668770,1190657123771732,0.0517,-0.11495,-0.0100375
1680010668772,1190657126273963,0.049775,-0.111925,-0.011
1680010668773,1190657128776348,0.0427625,-0.1109625,-0.0149875
1680010668775,1190657131278583,0.043725,-0.108899996,-0.013062499
1680010668778,1190657133780967,0.038775,-0.102025,-0.0149875
1680010668781,1190657136283198,0.0397375,-0.099,-0.0149875
1680010668784,1190657138785583,0.0416625,-0.0969375,-0.0160875
1680010668787,1190657141287813,0.0397375,-0.0939125,-0.01705
1680010668790,1190657143790198,0.038775,-0.091025,-0.018975
1680010668791,1190657146292429,0.0397375,-0.0840125,-0.018975
1680010668793,1190657148794890,0.038775,-0.0809875,-0.0210375
1680010668796,1190657151297275,0.0397375,-0.0759,-0.0210375
1680010668799,1190657153799506,0.0397375,-0.0699875,-0.0210375
1680010668801,1190657156301660,0.0427625,-0.0620125,-0.0210375
1680010668803,1190657158804044,0.04675,-0.055,-0.0231
1680010668807,1190657161306271,0.0457875,-0.058025,-0.022
1680010668810,1190657163808732,0.0507375,-0.045925,-0.0210375
1680010668811,1190657166311117,0.0517,-0.0419375,-0.0210375
1680010668814,1190657168813348,0.0526625,-0.0419375,-0.0180125
1680010668816,1190657171315732,0.054725,-0.036025,-0.0180125
1680010668820,1190657173817944,0.054725,-0.034925,-0.020075
1680010668821,1190657176320098,0.054725,-0.033,-0.0180125
1680010668824,1190657178822790,0.0556875,-0.0339625,-0.0180125
1680010668827,1190657181325021,0.0556875,-0.0339625,-0.0121
1680010668832,1190657183827401,0.05775,-0.0339625,-0.0149875
1680010668832,1190657186329555,0.0587125,-0.033,-0.013062499
1680010668835,1190657188831785,0.059675,-0.0339625,-0.0100375
1680010668836,1190657191334170,0.060775,-0.0319,-0.007975
1680010668838,1190657193836637,0.0587125,-0.029975,-0.0050875
1680010668840,1190657196338867,0.0587125,-0.0319,-0.003025
1680010668845,1190657198841252,0.0636625,-0.0319,-0.0011
1680010668846,1190657201343483,0.0617375,-0.0309375,-0.003025
1680010668853,1190657203845848,0.060775,-0.0319,-0.0011
1680010668853,1190657206348002,0.060775,-0.029975,9.625E-4
1680010668853,1190657208850464,0.05775,-0.0309375,0.001925
1680010668857,1190657211352925,0.0567875,-0.0319,0.003025
1680010668858,1190657213855156,0.0556875,-0.033,-0.0011
1680010668861,1190657216357310,0.0526625,-0.036025,-0.0
1680010668863,1190657218859695,0.0517,-0.036025,-0.0011
1680010668867,1190657221361925,0.0477125,-0.0319,-0.0
1680010668869,1190657223864387,0.04675,-0.0319,-0.0
1680010668871,1190657226366772,0.0446875,-0.0309375,-0.0
1680010668874,1190657228869002,0.0446875,-0.033,-0.0
1680010668876,1190657231371387,0.0457875,-0.0290125,-0.0
1680010668878,1190657233873541,0.0457875,-0.0259875,-0.003025
1680010668884,1190657236375738,0.0397375,-0.0279125,-0.0050875
1680010668884,1190657238878199,0.0367125,-0.025024999,-0.0039875
1680010668886,1190657241380584,0.038775,-0.02695,-0.0011
1680010668888,1190657243882814,0.037675,-0.0209,-0.0011
1680010668890,1190657246385199,0.0347875,-0.025024999,-0.0011
1680010668894,1190657248887425,0.0367125,-0.0259875,-0.0011
1680010668896,1190657251389810,0.0306625,-0.018975,9.625E-4
1680010668898,1190657253892271,0.032725,-0.0199375,-0.0011
1680010668900,1190657256394502,0.038775,-0.0209,-0.0
1680010668903,1190657258896867,0.03575,-0.0180125,0.001925
1680010668906,1190657261399098,0.032725,-0.023924999,9.625E-4
1680010668909,1190657263901252,0.0306625,-0.023924999,0.003025
1680010668910,1190657266403637,0.0336875,-0.0169125,9.625E-4
1680010668913,1190657268906098,0.032725,-0.0180125,-0.0
1680010668915,1190657271408343,0.03575,-0.0180125,-0.0011
1680010668921,1190657273910728,0.03575,-0.0169125,-0.0020625
1680010668925,1190657276412973,0.0367125,-0.0169125,-0.0039875
1680010668925,1190657278915358,0.03575,-0.012925,-0.003025
1680010668927,1190657281417589,0.0347875,-0.012925,-0.003025
1680010668931,1190657283920050,0.0347875,-0.011,-0.009075
1680010668932,1190657286422435,0.037675,-0.0180125,-0.0070125
1680010668934,1190657288924666,0.037675,-0.01595,-0.007975
1680010668936,1190657291426820,0.037675,-0.01595,-0.011
1680010668939,1190657293929204,0.0367125,-0.0149875,-0.0121
1680010668941,1190657296431435,0.03575,-0.0180125,-0.013062499
1680010668944,1190657298933897,0.037675,-0.0169125,-0.0149875
1680010668946,1190657301436285,0.037675,-0.018975,-0.0160875
1680010668951,1190657303938516,0.0397375,-0.018975,-0.0180125
1680010668951,1190657306440901,0.0427625,-0.018975,-0.0210375
1680010668954,1190657308943131,0.043725,-0.0199375,-0.0231
1680010668958,1190657311445290,0.04675,-0.025024999,-0.022
1680010668960,1190657313947752,0.0477125,-0.02695,-0.025024999
1680010668962,1190657316450136,0.0507375,-0.0259875,-0.0290125
1680010668963,1190657318952367,0.0517,-0.0309375,-0.0290125
1680010668967,1190657321454752,0.0477125,-0.033,-0.0341
1680010668969,1190657323956998,0.043725,-0.03795,-0.039049998
1680010668971,1190657326459382,0.0457875,-0.0419375,-0.036025
1680010668974,1190657328961844,0.0457875,-0.0389125,-0.040975
1680010668976,1190657331464074,0.043725,-0.044,-0.040975
1680010668979,1190657333966473,0.043725,-0.04895,-0.0380875
1680010668981,1190657336468704,0.0427625,-0.0529375,-0.0380875
1680010668983,1190657338970858,0.0397375,-0.056925,-0.0369875
1680010668987,1190657341473242,0.0397375,-0.05995,-0.036025
1680010668990,1190657343975718,0.0397375,-0.0620125,-0.0350625
1680010668991,1190657346477949,0.038775,-0.0669625,-0.0341
1680010668996,1190657348980333,0.03575,-0.064899996,-0.033
1680010668997,1190657351482564,0.0336875,-0.067925,-0.0341
1680010669003,1190657353984949,0.0336875,-0.066,-0.029975
1680010669004,1190657356487179,0.0336875,-0.0639375,-0.02805
1680010669004,1190657358989641,0.0308,-0.0589875,-0.0320375
1680010669006,1190657361492026,0.0297,-0.0539,-0.036025
1680010669009,1190657363994256,0.0297,-0.0510125,-0.0380875
1680010669011,1190657366496641,0.0297,-0.0479875,-0.040975
1680010669013,1190657368998795,0.0297,-0.0429,-0.0540375
1680010669016,1190657371501026,0.0297,-0.036025,-0.0589875
1680010669019,1190657374003487,0.0297,-0.0290125,-0.0589875
1680010669021,1190657376505858,0.0367125,-0.022,-0.0561
1680010669024,1190657379008089,0.0397375,-0.0199375,-0.051975
1680010669027,1190657381510473,0.0418,-0.0119624995,-0.0479875
1680010669030,1190657384012704,0.04675,-0.003025,-0.0460625
1680010669034,1190657386514868,0.0507375,0.0020625,-0.042075
1680010669035,1190657389017560,0.054725,0.0020625,-0.0400125
1680010669038,1190657391519791,0.0587125,0.0070125,-0.039049998
1680010669040,1190657394022176,0.059675,0.0121,-0.0369875
1680010669042,1190657396524329,0.0627,0.007975,-0.039049998
1680010669043,1190657399026565,0.0677875,0.013062499,-0.040975
1680010669046,1190657401528950,0.071775,0.0149875,-0.0451
1680010669048,1190657404031411,0.0748,0.0160875,-0.0460625
1680010669052,1190657406533642,0.0787875,0.0210375,-0.0479875
1680010669054,1190657409036055,0.0807125,0.0210375,-0.0510125
1680010669056,1190657411538286,0.0837375,0.022,-0.0561
1680010669058,1190657414040670,0.0867625,0.01705,-0.0561
1680010669062,1190657416542824,0.09075,0.014025,-0.0570625
1680010669064,1190657419045281,0.0897875,0.014025,-0.0620125
1680010669069,1190657421547511,0.09075,0.0050875,-0.061049998
1680010669073,1190657424049896,0.092675,0.0020625,-0.0589875
1680010669073,1190657426552127,0.093775,-9.625E-4,-0.0600875
1680010669075,1190657429054550,0.0886875,-0.0059125,-0.0561
1680010669076,1190657431556781,0.0867625,-0.0180125,-0.0540375
1680010669079,1190657434059243,0.0867625,-0.0209,-0.051975
1680010669082,1190657436561627,0.0867625,-0.0319,-0.0490875
1680010669085,1190657439063858,0.0867625,-0.044,-0.050049998
1680010669086,1190657441566243,0.0837375,-0.0539,-0.0451
1680010669088,1190657444068397,0.0867625,-0.058025,-0.0430375
1680010669091,1190657446570627,0.0858,-0.0620125,-0.042075
1680010669094,1190657449073089,0.0807125,-0.067925,-0.042075
1680010669097,1190657451575473,0.0787875,-0.0779625,-0.0369875
1680010669099,1190657454077704,0.0807125,-0.080025,-0.0400125
1680010669102,1190657456580089,0.0787875,-0.0840125,-0.0369875
1680010669104,1190657459082320,0.0776875,-0.084975,-0.0341
1680010669109,1190657461584718,0.0807125,-0.0859375,-0.0341
1680010669111,1190657464086872,0.0858,-0.088,-0.033
1680010669113,1190657466726564,0.0897875,-0.091025,-0.029975
1680010669114,1190657469091795,0.09075,-0.088,-0.0259875
1680010669116,1190657471594026,0.0917125,-0.089925,-0.0270875
1680010669120,1190657474096185,0.09075,-0.0919875,-0.0290125
1680010669121,1190657476598569,0.0917125,-0.086899996,-0.0270875
1680010669123,1190657479100800,0.0917125,-0.0859375,-0.0259875
1680010669126,1190657481603262,0.0947375,-0.0829125,-0.025024999
1680010669129,1190657484105665,0.0947375,-0.08195,-0.0240625
1680010669132,1190657486607896,0.092675,-0.0779625,-0.022
1680010669133,1190657489110281,0.092675,-0.077,-0.025024999
1680010669137,1190657491612435,0.093775,-0.073975,-0.0210375
1680010669139,1190657494114665,0.09075,-0.073975,-0.020075
1680010669141,1190657496617343,0.0917125,-0.077,-0.0180125
1680010669145,1190657499119573,0.0968,-0.078925,-0.018975
1680010669148,1190657501621727,0.092675,-0.077,-0.0180125
1680010669152,1190657504124117,0.0947375,-0.077,-0.020075
1680010669152,1190657506626348,0.0968,-0.080025,-0.0210375
1680010669154,1190657509128732,0.0977625,-0.0840125,-0.020075
1680010669156,1190657511631194,0.1027125,-0.0859375,-0.0160875
1680010669159,1190657514133425,0.1057375,-0.084975,-0.01705
1680010669161,1190657516635813,0.1057375,-0.084975,-0.0180125
1680010669164,1190657519138044,0.1087625,-0.0919875,-0.013062499
1680010669167,1190657521640198,0.1117875,-0.0950125,-0.0149875
1680010669169,1190657524142583,0.1117875,-0.0969375,-0.0149875
1680010669171,1190657526645040,0.11275,-0.095975,-0.0149875
1680010669173,1190657529147271,0.1137125,-0.099,-0.0149875
1680010669176,1190657531649655,0.117699996,-0.1049125,-0.0149875
1680010669178,1190657534151886,0.1216875,-0.108899996,-0.0149875
1680010669183,1190657536654275,0.126775,-0.1139875,-0.0149875
1680010669184,1190657539156506,0.1287,-0.1199,-0.0149875
1680010669187,1190657541658967,0.12979999,-0.124025,-0.009075
1680010669189,1190657544161352,0.1307625,-0.132,-0.0100375
1680010669191,1190657546663583,0.12979999,-0.139975,-0.0100375
1680010669194,1190657549165780,0.1326875,-0.143,-0.009075
1680010669196,1190657551668165,0.1307625,-0.154,-0.00605
1680010669199,1190657554170396,0.12979999,-0.15895,-0.00605
1680010669202,1190657556672857,0.1326875,-0.16499999,-0.0070125
1680010669204,1190657559175256,0.12979999,-0.1689875,-0.00605
1680010669206,1190657561677487,0.126775,-0.1739375,-0.0050875
1680010669209,1190657564179871,0.12773749,-0.179025,-0.0039875
1680010669211,1190657566682102,0.126775,-0.1859,-0.0050875
1680010669213,1190657569184487,0.1227875,-0.19195,-0.0039875
1680010669216,1190657571686948,0.1197625,-0.1940125,-0.0050875
1680010669221,1190657574189179,0.1167375,-0.194975,-0.0011
1680010669223,1190657576691564,0.1188,-0.198,-0.0011
1680010669225,1190657579193718,0.117699996,-0.1989625,-0.0039875
1680010669228,1190657581695948,0.115775,-0.201025,-0.0020625
1680010669231,1190657584198333,0.109725,-0.198,0.001925
1680010669232,1190657586700795,0.1087625,-0.194975,0.00495
1680010669236,1190657589202991,0.1117875,-0.1929125,0.0059125
1680010669237,1190657591705376,0.1067,-0.187,0.00495
1680010669240,1190657594207607,0.1007875,-0.179025,0.007975
1680010669241,1190657596709761,0.1007875,-0.177925,0.0089375
1680010669244,1190657599212145,0.0977625,-0.1749,0.0089375
1680010669246,1190657601714569,0.095699996,-0.1769625,0.0119624995
1680010669249,1190657604216800,0.0968,-0.1639,0.011
1680010669252,1190657606719184,0.092675,-0.1529,0.0089375
1680010669254,1190657609221415,0.087725,-0.1519375,0.0099
1680010669258,1190657611723776,0.087725,-0.146025,0.0099
1680010669260,1190657614226006,0.0858,-0.139975,0.011
1680010669262,1190657616728468,0.0837375,-0.1359875,0.011
1680010669263,1190657619230852,0.07975,-0.1329625,0.0099
1680010669267,1190657621733083,0.07975,-0.124025,0.0089375
1680010669269,1190657624235473,0.0776875,-0.1199,0.0089375
1680010669271,1190657626737627,0.0757625,-0.113025,0.00495
1680010669274,1190657629239857,0.0787875,-0.108899996,0.001925
1680010669276,1190657631742319,0.076725,-0.0999625,0.0039875
1680010669279,1190657634244689,0.076725,-0.0939125,0.0059125
1680010669282,1190657636746919,0.0748,-0.089925,0.0039875
1680010669284,1190657639249304,0.0748,-0.0840125,0.0039875
1680010669286,1190657641751535,0.0748,-0.0749375,0.0059125
1680010669289,1190657644253919,0.0727375,-0.0719125,0.00495
1680010669293,1190657646756381,0.073699996,-0.07095,0.001925
1680010669295,1190657649258612,0.0748,-0.0669625,0.0039875
1680010669297,1190657651760996,0.070675,-0.062975,0.00495
1680010669300,1190657654263136,0.0697125,-0.062975,0.007975
1680010669301,1190657656765367,0.0748,-0.0639375,0.0070125
1680010669303,1190657659267752,0.0748,-0.062975,0.0059125
1680010669307,1190657661770213,0.073699996,-0.058025,0.0059125
1680010669310,1190657664272444,0.071775,-0.062975,0.00495
1680010669312,1190657666774834,0.06875,-0.0639375,0.0059125
1680010669314,1190657669277064,0.070675,-0.064899996,0.0059125
1680010669316,1190657671779449,0.073699996,-0.064899996,0.00495
1680010669319,1190657674281603,0.071775,-0.069025,0.0070125
1680010669321,1190657676784060,0.06875,-0.07095,0.0059125
1680010669324,1190657679286291,0.0697125,-0.073975,0.0089375
1680010669326,1190657681788753,0.06875,-0.078925,0.007975
1680010669329,1190657684290907,0.0697125,-0.0779625,0.0039875
1680010669333,1190657686793276,0.0666875,-0.0840125,0.00495
1680010669334,1190657689295507,0.0617375,-0.088,0.0099
1680010669336,1190657691797968,0.060775,-0.0919875,0.0059125
1680010669339,1190657694300353,0.0587125,-0.0950125,0.0059125
1680010669342,1190657696802584,0.0556875,-0.0999625,0.0059125
1680010669349,1190657699304969,0.0587125,-0.100925,0.0070125
1680010669350,1190657701807122,0.0537625,-0.100925,-0.0
1680010669350,1190657704309353,0.0556875,-0.1109625,0.003025
1680010669351,1190657706811815,0.0528,-0.113025,-0.0
1680010669354,1190657709314189,0.0477125,-0.117975,-0.0
1680010669356,1190657711816420,0.0477125,-0.124025,-0.0
1680010669359,1190657714318805,0.0528,-0.1269125,-0.0011
1680010669361,1190657716821035,0.0528,-0.1280125,-0.003025
1680010669364,1190657719323416,0.0556875,-0.128975,-0.003025
1680010669367,1190657721825878,0.0517,-0.1329625,-0.0039875
1680010669370,1190657724328108,0.0528,-0.1379125,-0.0050875
1680010669372,1190657726830493,0.0528,-0.143,-0.007975
1680010669374,1190657729332724,0.0507375,-0.146025,-0.011
1680010669376,1190657731834859,0.0517,-0.14795,-0.013062499
1680010669379,1190657734337243,0.0507375,-0.14795,-0.01705
1680010669382,1190657736839705,0.0457875,-0.14795,-0.020075
1680010669383,1190657739341936,0.0446875,-0.1519375,-0.0210375
1680010669387,1190657741844305,0.0418,-0.1519375,-0.022
1680010669390,1190657744346536,0.038775,-0.1610125,-0.0240625
1680010669391,1190657746848921,0.0367125,-0.15895,-0.0180125
1680010669394,1190657749351074,0.03575,-0.16293749,-0.020075
1680010669396,1190657751853536,0.0336875,-0.1659625,-0.0259875
1680010669399,1190657754355781,0.0336875,-0.1659625,-0.022
1680010669403,1190657756858165,0.027775,-0.1639,-0.0240625
1680010669404,1190657759360396,0.0297,-0.16293749,-0.022
1680010669408,1190657761862887,0.0257125,-0.161975,-0.020075
1680010669410,1190657764365041,0.0237875,-0.166925,-0.020075
1680010669412,1190657766867502,0.0198,-0.1639,-0.0210375
1680010669414,1190657769369887,0.0187,-0.157025,-0.020075
1680010669416,1190657771872118,0.01375,-0.1579875,-0.0210375
1680010669419,1190657774374290,0.01375,-0.15895,-0.022
1680010669422,1190657776876752,0.0198,-0.150975,-0.0270875
1680010669424,1190657779379137,0.014712499,-0.146025,-0.0259875
1680010669427,1190657781881367,0.0116875,-0.139975,-0.0290125
1680010669430,1190657784383748,0.01375,-0.1329625,-0.0341
1680010669435,1190657786885979,0.0127875,-0.124025,-0.036025
1680010669435,1190657789388363,0.0116875,-0.1199,-0.039049998
1680010669437,1190657791890825,0.0116875,-0.11,-0.0369875
1680010669439,1190657794392979,0.010725,-0.095975,-0.0380875
1680010669441,1190657796895425,0.0077,-0.0859375,-0.036025
1680010669446,1190657799397656,0.0077,-0.0809875,-0.0380875
1680010669448,1190657801899810,0.005775,-0.0759,-0.039049998
1680010669450,1190657804402195,0.0037125,-0.0639375,-0.0369875
1680010669452,1190657806904670,0.0017875,-0.058025,-0.036025
1680010669454,1190657809406901,0.004675,-0.0510125,-0.036025
1680010669457,1190657811909285,0.0037125,-0.0389125,-0.0350625
1680010669459,1190657814411516,0.0037125,-0.0369875,-0.0320375
1680010669462,1190657816913901,0.0037125,-0.029975,-0.0341
1680010669464,1190657819416123,0.0067375,-0.025024999,-0.0341
1680010669467,1190657821918507,0.005775,-0.018975,-0.033
1680010669470,1190657824420738,0.005775,-0.012925,-0.033
1680010669472,1190657826923123,0.0037125,-0.012925,-0.0341
1680010669474,1190657829425353,0.005775,-0.0119624995,-0.0341
1680010669476,1190657831927762,0.0097624995,-0.007975,-0.0320375
1680010669479,1190657834429993,0.010725,-0.0039875,-0.0350625
1680010669483,1190657836932454,0.0097624995,0.0011,-0.036025
1680010669486,1190657839434839,0.0116875,-0.003025,-0.0350625
1680010669487,1190657841937070,0.0127875,-0.0059125,-0.0350625
1680010669490,1190657844439454,0.0116875,-0.00495,-0.036025
1680010669491,1190657846941685,0.010725,0.0,-0.0380875
1680010669494,1190657849444070,0.0097624995,-0.007975,-0.0380875
1680010669496,1190657851946305,0.0097624995,-0.0059125,-0.039049998
1680010669499,1190657854448689,0.0097624995,-0.011,-0.0430375
1680010669501,1190657856950920,0.0116875,-0.012925,-0.044
1680010669504,1190657859453305,0.0116875,-0.0149875,-0.0460625
1680010669507,1190657861955550,0.0097624995,-0.022,-0.0490875
1680010669510,1190657864457935,0.0127875,-0.029975,-0.050049998
1680010669511,1190657866960397,0.0116875,-0.034925,-0.0510125
1680010669514,1190657869462550,0.016775,-0.040975,-0.051975
1680010669517,1190657871964781,0.014712499,-0.0479875,-0.053075
1680010669521,1190657874467171,0.014712499,-0.056925,-0.0510125
1680010669523,1190657876969632,0.01375,-0.062975,-0.050049998
1680010669525,1190657879471786,0.014712499,-0.0719125,-0.051975
1680010669526,1190657881974248,0.01375,-0.0779625,-0.0540375
1680010669529,1190657884476487,0.0127875,-0.089925,-0.0510125
1680010669531,1190657886978872,0.01375,-0.0979,-0.0479875
1680010669534,1190657889481103,0.0127875,-0.099,-0.0451
1680010669537,1190657891983488,0.0116875,-0.1049125,-0.0479875
1680010669539,1190657894485723,0.010725,-0.1109625,-0.0490875
1680010669542,1190657896988185,0.0116875,-0.1170125,-0.0479875
1680010669544,1190657899490339,0.010725,-0.121,-0.0479875
1680010669547,1190657901992723,0.0127875,-0.124025,-0.0430375
1680010669550,1190657904494954,0.0127875,-0.12595,-0.0400125
1680010669552,1190657906997339,0.0127875,-0.12595,-0.0400125
1680010669554,1190657909499569,0.014712499,-0.128975,-0.042075
1680010669559,1190657912002054,0.01375,-0.1280125,-0.042075
1680010669561,1190657914504439,0.014712499,-0.1189375,-0.040975
1680010669562,1190657917006669,0.0127875,-0.1159125,-0.044
1680010669564,1190657919509054,0.0127875,-0.1189375,-0.040975
1680010669566,1190657922011285,0.01375,-0.1189375,-0.0400125
1680010669569,1190657924513655,0.01375,-0.1139875,-0.0430375
1680010669571,1190657927015886,0.01375,-0.111925,-0.042075
1680010669574,1190657929518271,0.0127875,-0.108899996,-0.040975
1680010669577,1190657932020502,0.01375,-0.1029875,-0.042075
1680010669579,1190657934522886,0.010725,-0.100925,-0.044
1680010669581,1190657937025136,0.010725,-0.1029875,-0.0451
1680010669584,1190657939527521,0.0097624995,-0.0979,-0.0479875
1680010669587,1190657942029982,0.010725,-0.0939125,-0.0479875
1680010669590,1190657944532198,0.0097624995,-0.09295,-0.0479875
1680010669592,1190657947034583,0.0127875,-0.086899996,-0.050049998
1680010669595,1190657949536813,0.010725,-0.080025,-0.0490875
1680010669598,1190657952039198,0.0088,-0.0759,-0.0451
1680010669600,1190657954541362,0.0097624995,-0.0759,-0.0490875
1680010669602,1190657957043823,0.0088,-0.073975,-0.0479875
1680010669604,1190657959546054,0.0067375,-0.0669625,-0.0479875
1680010669607,1190657962048439,0.0088,-0.05995,-0.0460625
1680010669609,1190657964550670,0.0097624995,-0.0609125,-0.044
1680010669611,1190657967053049,0.005775,-0.047025,-0.040975
1680010669614,1190657969555280,0.0067375,-0.03795,-0.040975
1680010669616,1190657972057741,6.875E-4,-0.0339625,-0.039049998
1680010669619,1190657974559895,-0.0033,-0.0279125,-0.039049998
1680010669623,1190657977062257,6.875E-4,-0.018975,-0.0400125
1680010669625,1190657979564488,6.875E-4,-0.0070125,-0.0369875
1680010669629,1190657982066872,-2.75E-4,0.0011,-0.0369875
1680010669631,1190657984569103,-0.0033,0.0050875,-0.036025
1680010669635,1190657987071565,-0.005225,0.007975,-0.0350625
1680010669636,1190657989573949,-0.005225,0.01705,-0.0320375
1680010669638,1190657992076180,-0.0061875,0.022,-0.0320375
1680010669640,1190657994578565,-0.0072875,0.0270875,-0.02805
1680010669642,1190657997080795,-0.0042625,0.033,-0.0270875
1680010669644,1190657999583180,-0.0042625,0.036025,-0.0290125
1680010669646,1190658002085632,-0.005225,0.0380875,-0.02805
1680010669649,1190658004587785,-0.0072875,0.040975,-0.0240625
1680010669651,1190658007090016,-0.0042625,0.044,-0.0231
1680010669654,1190658009592411,-2.75E-4,0.051975,-0.0240625
1680010669656,1190658012094642,-0.0042625,0.055,-0.0240625
1680010669659,1190658014597026,-2.75E-4,0.0561,-0.018975
1680010669661,1190658017099488,0.0048125,0.0600875,-0.0180125
1680010669664,1190658019601719,0.005775,0.0671,-0.0160875
1680010669667,1190658022103881,0.0088,0.0671,-0.009075
1680010669671,1190658024606266,0.0127875,0.07205,-0.007975
1680010669673,1190658027108728,0.0177375,0.069025,-0.00605
1680010669675,1190658029610881,0.0198,0.073975,-0.0050875
1680010669677,1190658032113343,0.0237875,0.077,-0.0039875
1680010669679,1190658034615574,0.0237875,0.078099996,0.001925
1680010669681,1190658037117958,0.0237875,0.077,0.0039875
1680010669684,1190658039620189,0.0257125,0.080025,0.0059125
1680010669686,1190658042122574,0.0268125,0.0820875,0.0070125
1680010669689,1190658044624801,0.0268125,0.078099996,0.0059125
1680010669691,1190658047127262,0.0257125,0.0790625,0.0089375
1680010669694,1190658049629647,0.0198,0.0730125,0.0099
1680010669696,1190658052131801,0.0207625,0.0710875,0.0119624995
1680010669699,1190658054634031,0.0237875,0.0671,0.0119624995
1680010669701,1190658057136416,0.0226875,0.061049998,0.014025
1680010669704,1190658059638647,0.021724999,0.051975,0.01595
1680010669709,1190658062141108,0.0226875,0.0460625,0.01595
1680010669712,1190658067143478,0.0187,0.0369875,0.0209
1680010669713,1190658067238247,0.0116875,0.0290125,0.0229625
1680010669715,1190658069648093,0.010725,0.0121,0.0229625
1680010669719,1190658072150324,0.0097624995,0.0,0.0259875
1680010669720,1190658074652719,0.0088,-0.007975,0.02695
1680010669722,1190658077155180,0.0067375,-0.022,0.029975
1680010669725,1190658079657334,0.0037125,-0.0339625,0.0309375
1680010669727,1190658082159565,0.0017875,-0.045925,0.0279125
1680010669730,1190658084661950,-0.0042625,-0.051975,0.0279125
1680010669731,1190658087164165,-0.0072875,-0.05995,0.0279125
1680010669734,1190658089666550,-0.0103124995,-0.064899996,0.0279125
1680010669737,1190658092169011,-0.0143,-0.07095,0.0290125
1680010669739,1190658094671242,-0.0143,-0.0809875,0.0279125
1680010669742,1190658097173613,-0.0171875,-0.080025,0.025024999
1680010669746,1190658099675767,-0.0213125,-0.0840125,0.023924999
1680010669749,1190658102177997,-0.0253,-0.089925,0.0229625
1680010669751,1190658104680459,-0.027224999,-0.088,0.0209
1680010669752,1190658107182829,-0.027224999,-0.0840125,0.022
1680010669754,1190658109685059,-0.0323125,-0.0829125,0.022
1680010669757,1190658112187444,-0.0372625,-0.0809875,0.022
1680010669759,1190658114689675,-0.0391875,-0.0779625,0.022
1680010669761,1190658117192059,-0.0391875,-0.07095,0.0199375
1680010669764,1190658119694310,-0.0422125,-0.066,0.0209
1680010669767,1190658122196695,-0.0422125,-0.0609125,0.022
1680010669769,1190658124699156,-0.0452375,-0.0539,0.022
1680010669772,1190658127201310,-0.0433125,-0.056925,0.0209
1680010669774,1190658129703546,-0.0422125,-0.0529375,0.014025
1680010669777,1190658132205931,-0.0452375,-0.040975,0.0149875
1680010669779,1190658134708161,-0.044275,-0.0369875,0.012925
1680010669783,1190658137210546,-0.0462,-0.033,0.0119624995
1680010669786,1190658139713012,-0.0462,-0.02695,0.0119624995
1680010669789,1190658142215242,-0.0433125,-0.02695,0.0099
1680010669790,1190658144717627,-0.044275,-0.0209,0.0119624995
1680010669792,1190658147219858,-0.044275,-0.0169125,0.0099
1680010669794,1190658149722242,-0.0452375,-0.0149875,0.0070125
1680010669797,1190658152224488,-0.0462,-0.0119624995,0.00495
1680010669799,1190658154726950,-0.0473,-0.007975,0.003025
1680010669803,1190658157229104,-0.049225,-0.00495,0.0059125
1680010669804,1190658159731488,-0.0482625,-0.0070125,0.003025
1680010669807,1190658162233709,-0.049225,-0.011,0.001925
1680010669809,1190658164736094,-0.0452375,-0.012925,-0.0
1680010669812,1190658167238324,-0.0462,-0.0119624995,-0.0020625
1680010669815,1190658169740786,-0.049225,-0.0169125,-0.0011
1680010669817,1190658172243165,-0.0482625,-0.0169125,-0.0011
1680010669821,1190658174745396,-0.0473,-0.0180125,9.625E-4
1680010669823,1190658177247550,-0.0482625,-0.025024999,0.001925
1680010669825,1190658179749935,-0.0482625,-0.02695,-0.0020625
1680010669828,1190658182252156,-0.0473,-0.0309375,-0.0020625
1680010669831,1190658184754617,-0.0462,-0.0319,-0.0011
1680010669832,1190658187257002,-0.0452375,-0.034925,-0.0020625
1680010669835,1190658189759232,-0.0433125,-0.034925,0.001925
1680010669837,1190658192261617,-0.041249998,-0.0339625,0.00495
1680010669841,1190658194763834,-0.0422125,-0.0389125,0.0059125
1680010669842,1190658197266218,-0.0391875,-0.03795,0.00495
1680010669844,1190658199768680,-0.0372625,-0.040975,0.00495
1680010669846,1190658202270911,-0.0342375,-0.036025,0.0059125
1680010669849,1190658204773055,-0.0342375,-0.03795,0.007975
1680010669852,1190658207275439,-0.03025,-0.0389125,0.0099
1680010669854,1190658209777670,-0.0292875,-0.0389125,0.011
1680010669859,1190658212280055,-0.0292875,-0.0369875,0.011
1680010669861,1190658214782521,-0.0281875,-0.0369875,0.012925
1680010669864,1190658217284752,-0.0242,-0.03795,0.0119624995
1680010669865,1190658219787137,-0.0213125,-0.03795,0.0119624995
1680010669867,1190658222289367,-0.01925,-0.0389125,0.0119624995
1680010669870,1190658224791742,-0.0143,-0.0369875,0.0099
1680010669872,1190658227293973,-0.0122375,-0.0389125,0.0099
1680010669874,1190658229796434,-0.0143,-0.036025,0.012925
1680010669878,1190658232298588,-0.011275,-0.040975,0.012925
1680010669879,1190658234800973,-0.00825,-0.0419375,0.0119624995
1680010669882,1190658237303214,-0.00825,-0.044,0.0099
1680010669884,1190658239805598,-0.0072875,-0.045925,0.0099
1680010669887,1190658242307829,-0.005225,-0.045925,0.0089375
1680010669889,1190658244810291,-0.0061875,-0.047025,0.007975
1680010669891,1190658247312675,-0.0022,-0.0499125,0.0099
1680010669896,1190658249814896,-2.75E-4,-0.04895,0.0059125
1680010669898,1190658252317050,0.0017875,-0.0499125,0.003025
1680010669900,1190658254819434,0.0067375,-0.0510125,0.001925
1680010669902,1190658257321665,0.0067375,-0.051975,0.001925
1680010669905,1190658259824132,0.0048125,-0.056925,-0.0020625
1680010669908,1190658262326516,0.0088,-0.056925,-0.0039875
1680010669910,1190658264828747,0.0127875,-0.058025,-0.0039875
1680010669912,1190658267331132,0.0127875,-0.0609125,-0.003025
1680010669914,1190658269833377,0.0116875,-0.0669625,-0.007975
1680010669918,1190658272335762,0.0097624995,-0.067925,-0.011
1680010669920,1190658274838224,0.0116875,-0.069025,-0.013062499
1680010669922,1190658277340453,0.0097624995,-0.0719125,-0.0149875
1680010669924,1190658279842607,0.016775,-0.0749375,-0.0149875
1680010669928,1190658282344992,0.0177375,-0.0759,-0.0149875
1680010669930,1190658284847223,0.0177375,-0.077,-0.018975
1680010669933,1190658287349607,0.0237875,-0.08195,-0.020075
1680010669935,1190658289852069,0.0257125,-0.08195,-0.01705
1680010669938,1190658292354300,0.0308,-0.08195,-0.0180125
1680010669940,1190658294856684,0.032725,-0.0859375,-0.020075
1680010669942,1190658297358915,0.0397375,-0.0859375,-0.022
1680010669945,1190658299861055,0.043725,-0.089925,-0.025024999
1680010669948,1190658302363439,0.04675,-0.086899996,-0.02805
1680010669952,1190658304865901,0.0517,-0.0919875,-0.0259875
1680010669953,1190658307368132,0.05775,-0.091025,-0.0259875
1680010669955,1190658309870521,0.0627,-0.0939125,-0.029975
1680010669958,1190658312372752,0.06875,-0.102025,-0.029975
1680010669960,1190658314875137,0.071775,-0.0999625,-0.0350625
1680010669963,1190658317377368,0.0748,-0.10395,-0.0350625
1680010669964,1190658319879819,0.0787875,-0.1109625,-0.033
1680010669970,1190658322382204,0.0867625,-0.111925,-0.0350625
1680010669976,1190658324884435,0.0897875,-0.1170125,-0.0350625
1680010669976,1190658327386819,0.095699996,-0.124025,-0.036025
1680010669976,1190658329888992,0.1007875,-0.1329625,-0.0350625
1680010669977,1190658332391223,0.0996875,-0.143,-0.0290125
1680010669979,1190658334893684,0.1027125,-0.1500125,-0.02805
1680010669982,1190658337396069,0.1087625,-0.1579875,-0.0270875
1680010669984,1190658339898300,0.11275,-0.16499999,-0.025024999
1680010669988,1190658342400699,0.1188,-0.172975,-0.0240625
1680010669990,1190658344902930,0.1227875,-0.187,-0.0240625
1680010669992,1190658347405084,0.12773749,-0.1959375,-0.0240625
1680010669994,1190658349907546,0.12773749,-0.20295,-0.0231
1680010669998,1190658352409930,0.1287,-0.2149125,-0.020075
1680010669999,1190658354912392,0.1287,-0.2270125,-0.018975
1680010670004,1190658357414546,0.1307625,-0.23595,-0.0210375
1680010670005,1190658359916776,0.1307625,-0.2429625,-0.0149875
1680010670009,1190658362419161,0.1287,-0.2519,-0.0160875
1680010670011,1190658364921626,0.1326875,-0.2589125,-0.01705
1680010670013,1190658367423857,0.1337875,-0.2649625,-0.013062499
1680010670015,1190658369926242,0.13475,-0.2729375,-0.013062499
1680010670017,1190658372428473,0.137775,-0.2820125,-0.013062499
1680010670019,1190658374930867,0.1397,-0.2869625,-0.0100375
1680010670022,1190658377433098,0.1417625,-0.2899875,-0.011
1680010670024,1190658379935483,0.142725,-0.2959,-0.0100375
1680010670029,1190658382437713,0.1397,-0.297,-0.007975
1680010670030,1190658384940098,0.142725,-0.298925,-0.0050875
1680010670033,1190658387442252,0.142725,-0.30195,-0.003025
1680010670034,1190658389944790,0.1447875,-0.300025,-0.00605
1680010670038,1190658392447175,0.1417625,-0.30195,-0.007975
1680010670039,1190658394949406,0.14973749,-0.3029125,-0.007975
1680010670042,1190658397451565,0.153725,-0.3059375,-0.00605
1680010670046,1190658399953949,0.15675,-0.3059375,-0.00605
1680010670048,1190658402456180,0.159775,-0.3059375,-0.011
1680010670050,1190658404958642,0.159775,-0.2930125,-0.0121
1680010670052,1190658407461021,0.1626625,-0.2869625,-0.0149875
1680010670054,1190658409963252,0.1637625,-0.2849,-0.018975
1680010670058,1190658412465637,0.170775,-0.278025,-0.0210375
1680010670059,1190658414967790,0.1736625,-0.27101249,-0.0259875
1680010670062,1190658417470039,0.1747625,-0.264,-0.0231
1680010670065,1190658419972501,0.1766875,-0.2600125,-0.0259875
1680010670069,1190658422474885,0.1777875,-0.253,-0.02805
1680010670071,1190658424977116,0.181775,-0.242,-0.0290125
1680010670072,1190658427479488,0.1837,-0.2409,-0.029975
1680010670075,1190658429981719,0.1846625,-0.234025,-0.029975
1680010670078,1190658432484103,0.192775,-0.22893749,-0.0320375
1680010670085,1190658434986578,0.192775,-0.2239875,-0.0320375
1680010670090,1190658437488808,0.1967625,-0.2149125,-0.036025
1680010670090,1190658439991193,0.2057,-0.2129875,-0.0350625
1680010670090,1190658442493424,0.2066625,-0.20899999,-0.0341
1680010670090,1190658444995578,0.2077625,-0.2039125,-0.0341
1680010670092,1190658447497962,0.21367499,-0.201025,-0.036025
1680010670094,1190658450000420,0.21367499,-0.198,-0.039049998
1680010670098,1190658452502651,0.2176625,-0.1959375,-0.0350625
1680010670100,1190658455005035,0.2237125,-0.1940125,-0.0341
1680010670102,1190658457507266,0.2267375,-0.19195,-0.0350625
1680010670104,1190658460009651,0.2316875,-0.19195,-0.0350625
1680010670108,1190658462511800,0.2327875,-0.190025,-0.0341
1680010670111,1190658465014261,0.236775,-0.1909875,-0.036025
1680010670112,1190658467516492,0.2407625,-0.1929125,-0.0350625
1680010670115,1190658470018885,0.24475,-0.1929125,-0.033
1680010670119,1190658472521116,0.24475,-0.190025,-0.029975
1680010670122,1190658475023501,0.2426875,-0.1909875,-0.029975
1680010670123,1190658477525732,0.241725,-0.190025,-0.02805
1680010670125,1190658480028189,0.2457125,-0.1909875,-0.025024999
1680010670128,1190658482530574,0.2517625,-0.198,-0.025024999
1680010670130,1190658485032805,0.2506625,-0.1989625,-0.0231
1680010670132,1190658487535189,0.2547875,-0.201025,-0.0210375
1680010670134,1190658490037420,0.257675,-0.210925,-0.018975
1680010670138,1190658492539607,0.2597375,-0.21395,-0.0149875
1680010670140,1190658495042068,0.2597375,-0.2160125,-0.0121
1680010670142,1190658497544453,0.2536875,-0.22495,-0.0149875
1680010670145,1190658500046684,0.2547875,-0.22893749,-0.013062499
1680010670148,1190658502549068,0.252725,-0.23595,-0.0149875
1680010670150,1190658505051299,0.2426875,-0.2409,-0.009075
1680010670153,1190658507553684,0.2347125,-0.243925,-0.0100375
1680010670154,1190658510055915,0.2297625,-0.249975,-0.011
1680010670160,1190658512558270,0.2286625,-0.25795,-0.0100375
1680010670163,1190658515060501,0.225775,-0.2649625,-0.011
1680010670164,1190658517562963,0.219725,-0.26895,-0.009075
1680010670165,1190658520065116,0.2127125,-0.275,-0.0149875
1680010670169,1190658522567501,0.2066625,-0.2820125,-0.0160875
1680010670170,1190658525069958,0.202675,-0.28393748,-0.018975
1680010670172,1190658527572188,0.202675,-0.2849,-0.018975
1680010670174,1190658530074573,0.202675,-0.282975,-0.0210375
1680010670179,1190658532576804,0.1956625,-0.2789875,-0.02805
1680010670179,1190658535079188,0.19373749,-0.2649625,-0.0341
1680010670183,1190658537581414,0.1887875,-0.2589125,-0.036025
1680010670186,1190658540083799,0.1827375,-0.2429625,-0.0369875
1680010670188,1190658542586030,0.1797125,-0.2369125,-0.042075
1680010670191,1190658545088400,0.181775,-0.227975,-0.0460625
1680010670193,1190658547590631,0.17875,-0.2099625,-0.0479875
1680010670197,1190658550093016,0.1827375,-0.19195,-0.0490875
1680010670202,1190658552595241,0.1846625,-0.179025,-0.0490875
1680010670202,1190658555097703,0.186725,-0.1610125,-0.050049998
1680010670203,1190658557600087,0.186725,-0.144925,-0.051975
1680010670205,1190658560102318,0.192775,-0.133925,-0.053075
1680010670210,1190658562604703,0.1967625,-0.11,-0.053075
1680010670210,1190658565106934,0.1956625,-0.0969375,-0.0540375
1680010670213,1190658567609088,0.1997875,-0.084975,-0.0570625
1680010670216,1190658570111549,0.203775,-0.069025,-0.0600875
1680010670219,1190658572613934,0.2066625,-0.056925,-0.062975
1680010670220,1190658575116164,0.2096875,-0.0449625,-0.0680625
1680010670222,1190658577618549,0.21175,-0.033,-0.0730125
1680010670226,1190658580120771,0.2127125,-0.02695,-0.0760375
1680010670230,1190658582623155,0.21573749,-0.0180125,-0.0809875
1680010670231,1190658585125617,0.2167,-0.0059125,-0.086075
1680010670236,1190658587627761,0.2127125,0.0050875,-0.091025
1680010670237,1190658590129992,0.2107875,0.011,-0.09405
1680010670243,1190658592632376,0.21367499,0.0180125,-0.0950125
1680010670244,1190658595134607,0.21367499,0.022,-0.098037496
1680010670245,1190658597637006,0.2107875,0.018975,-0.100099996
1680010670245,1190658600139467,0.21175,0.0231,-0.1029875
1680010670248,1190658602641698,0.21367499,0.0180125,-0.10505
1680010670250,1190658605144083,0.21175,0.011,-0.1060125
1680010670253,1190658607646313,0.21175,0.0020625,-0.1029875
1680010670255,1190658610148684,0.2107875,-0.0059125,-0.106975
1680010670258,1190658612650915,0.2057,-0.014025,-0.109037496
1680010670260,1190658615153299,0.203775,-0.023924999,-0.109037496
1680010670262,1190658617655530,0.1986875,-0.0389125,-0.106975
1680010670266,1190658620157934,0.1907125,-0.0539,-0.10505
1680010670268,1190658622660165,0.186725,-0.0669625,-0.108075
1680010670272,1190658625162549,0.1846625,-0.080025,-0.109037496
1680010670273,1190658627664780,0.1797125,-0.09295,-0.109037496
1680010670275,1190658630167256,0.1766875,-0.10395,-0.1111
1680010670278,1190658632669641,0.1747625,-0.1109625,-0.109037496
1680010670280,1190658635171795,0.17173749,-0.1139875,-0.1060125
1680010670282,1190658637674026,0.1667875,-0.1219625,-0.1060125
1680010670286,1190658640176410,0.1667875,-0.1249875,-0.1029875
1680010670288,1190658642678650,0.1656875,-0.117975,-0.1010625
1680010670290,1190658645181112,0.1617,-0.1189375,-0.1029875
1680010670292,1190658647683496,0.1607375,-0.1189375,-0.1040875
1680010670295,1190658650185727,0.1557875,-0.111925,-0.10505
1680010670298,1190658652688112,0.1546875,-0.1109625,-0.106975
1680010670299,1190658655190342,0.1527625,-0.10395,-0.1120625
1680010670304,1190658657692727,0.1507,-0.0999625,-0.1111
1680010670305,1190658660195189,0.14973749,-0.0979,-0.1120625
1680010670310,1190658662697323,0.1447875,-0.0979,-0.113025
1680010670313,1190658665199554,0.1417625,-0.09295,-0.119075
1680010670314,1190658667701939,0.1417625,-0.091025,-0.120037496
1680010670316,1190658670204170,0.137775,-0.091025,-0.122099996
1680010670319,1190658672706554,0.136675,-0.0859375,-0.1230625
1680010670320,1190658675209011,0.1357125,-0.0829125,-0.12705
1680010670323,1190658677711242,0.1287,-0.088,-0.1280125
1680010670325,1190658680213626,0.1287,-0.0950125,-0.128975
1680010670328,1190658682715857,0.1307625,-0.0950125,-0.128975
1680010670330,1190658685218257,0.12773749,-0.0979,-0.132
1680010670332,1190658687720410,0.12375,-0.100925,-0.1331
1680010670336,1190658690222949,0.1227875,-0.106975,-0.1359875
1680010670338,1190658692725103,0.1227875,-0.108899996,-0.13805
1680010670340,1190658695227487,0.120725,-0.1219625,-0.1390125
1680010670342,1190658697729723,0.1186625,-0.128975,-0.141075
1680010670347,1190658700232108,0.1137125,-0.135025,-0.1480875
1680010670349,1190658702734339,0.1186625,-0.143,-0.1500125
1680010670351,1190658705291805,0.1247125,-0.143,-0.1530375
1680010670353,1190658707739190,0.1227875,-0.146025,-0.1530375
1680010670355,1190658710241421,0.12375,-0.1489125,-0.1530375
1680010670358,1190658712743574,0.125675,-0.150975,-0.154
1680010670360,1190658715245959,0.125675,-0.1549625,-0.152075
1680010670362,1190658717748218,0.126775,-0.1610125,-0.152075
1680010670365,1190658720250679,0.1287,-0.1639,-0.150975
1680010670368,1190658722753064,0.1337875,-0.1689875,-0.1500125
1680010670370,1190658725255295,0.1326875,-0.1739375,-0.14905
1680010670372,1190658727757684,0.13475,-0.177925,-0.14905
1680010670375,1190658730259915,0.1387375,-0.18493749,-0.152075
1680010670380,1190658732762300,0.137775,-0.1959375,-0.1530375
1680010670380,1190658735264531,0.1397,-0.2039125,-0.157025
1680010670384,1190658737766982,0.1417625,-0.210925,-0.16005
1680010670387,1190658740269136,0.1387375,-0.2129875,-0.1640375
1680010670390,1190658742771521,0.137775,-0.2149125,-0.17105
1680010670390,1190658745273751,0.1357125,-0.223025,-0.172975
1680010670393,1190658747776136,0.136675,-0.2270125,-0.1771
1680010670395,1190658750278377,0.1357125,-0.2270125,-0.179025
1680010670398,1190658752780838,0.13475,-0.227975,-0.18205
1680010670400,1190658755283223,0.13475,-0.2319625,-0.183975
1680010670402,1190658757785454,0.13475,-0.2349875,-0.183975
1680010670405,1190658760287607,0.13475,-0.23595,-0.1860375
1680010670408,1190658762789992,0.1337875,-0.2399375,-0.1881
1680010670409,1190658765292223,0.1287,-0.2399375,-0.187
1680010670412,1190658767794684,0.12773749,-0.242,-0.1881
1680010670415,1190658770297069,0.120725,-0.2429625,-0.1890625
1680010670418,1190658772799300,0.1137125,-0.242,-0.1909875
1680010670422,1190658775301684,0.103675,-0.242,-0.1909875
1680010670423,1190658777803915,0.095699996,-0.2429625,-0.1970375
1680010670426,1190658780306314,0.0867625,-0.245025,-0.19305
1680010670430,1190658782808775,0.076725,-0.2479125,-0.194975
1680010670431,1190658785311006,0.070675,-0.24695,-0.1991
1680010670435,1190658787813160,0.0627,-0.2490125,-0.1991
1680010670435,1190658790315545,0.0587125,-0.2569875,-0.2019875
1680010670438,1190658792817751,0.0556875,-0.2589125,-0.2050125
1680010670440,1190658795320136,0.0507375,-0.2509375,-0.2110625
1680010670442,1190658797822598,0.0427625,-0.243925,-0.2110625
1680010670445,1190658800324828,0.0397375,-0.2369125,-0.212025
1680010670448,1190658802827180,0.0347875,-0.2239875,-0.2140875
1680010670450,1190658805329411,0.0287375,-0.2160125,-0.2110625
1680010670453,1190658807831565,0.0226875,-0.205975,-0.21505
1680010670455,1190658810333949,0.0177375,-0.1909875,-0.2160125
1680010670460,1190658812836478,0.0177375,-0.1749,-0.212025
1680010670461,1190658815338632,0.01375,-0.1579875,-0.21505
1680010670463,1190658817841016,0.0097624995,-0.1419,-0.212025
1680010670466,1190658820343247,0.0116875,-0.1249875,-0.212025
1680010670468,1190658822845632,0.0127875,-0.108899996,-0.2140875
1680010670470,1190658825347867,0.0086624995,-0.0939125,-0.212025
1680010670472,1190658827850329,0.0086624995,-0.078925,-0.2110625
1680010670475,1190658830352714,0.0097624995,-0.062975,-0.2101
1680010670478,1190658832854944,0.0116875,-0.0449625,-0.20899999
1680010670479,1190658835357098,0.0116875,-0.0309375,-0.2101
1680010670483,1190658837859493,0.010725,-0.0180125,-0.2101
1680010670485,1190658840361724,0.010725,-0.007975,-0.2030875
1680010670488,1190658842864185,0.0116875,0.0020625,-0.198
1680010670489,1190658845366570,0.01375,0.0121,-0.194975
1680010670492,1190658847868805,0.014712499,0.020075,-0.190025
1680010670497,1190658850371190,0.01375,0.025024999,-0.1830125
1680010670499,1190658852873421,0.014712499,0.031075,-0.1780625
1680010670501,1190658855375575,0.0196625,0.0350625,-0.172975
1680010670503,1190658857878036,0.0226875,0.036025,-0.172975
1680010670506,1190658860380421,0.02365,0.036025,-0.1670625
1680010670508,1190658862882882,0.02365,0.0341,-0.161975
1680010670510,1190658865385036,0.02365,0.0350625,-0.16005
1680010670513,1190658867887267,0.027775,0.0341,-0.1530375
1680010670515,1190658870389652,0.0287375,0.029975,-0.14905
1680010670519,1190658872892113,0.027775,0.0240625,-0.1441
1680010670521,1190658875394344,0.026675,0.022,-0.1441
1680010670523,1190658877896729,0.026675,0.014025,-0.13805
1680010670525,1190658880398944,0.027775,0.00605,-0.135025
1680010670528,1190658882901098,0.026675,0.003025,-0.1359875
1680010670530,1190658885403483,0.0287375,-0.007975,-0.1340625
1680010670533,1190658887905944,0.0297,-0.0149875,-0.1331
1680010670535,1190658890408165,0.0287375,-0.022,-0.132
1680010670538,1190658892910550,0.0287375,-0.033,-0.135025
1680010670540,1190658895412781,0.0297,-0.0419375,-0.1340625
1680010670542,1190658897915165,0.0257125,-0.0529375,-0.1340625
1680010670546,1190658900417396,0.0226875,-0.062975,-0.1331
1680010670548,1190658902919767,0.0196625,-0.0719125,-0.1310375
1680010670550,1190658905422228,0.0187,-0.080025,-0.1310375
1680010670552,1190658907924382,0.01375,-0.0919875,-0.1331
1680010670556,1190658910426844,0.0097624995,-0.100925,-0.132
1680010670558,1190658912929011,0.0097624995,-0.1109625,-0.128975
1680010670560,1190658915431242,0.0077,-0.1159125,-0.128975
1680010670563,1190658917933704,0.0037125,-0.121,-0.1260875
1680010670565,1190658920436088,-2.75E-4,-0.1280125,-0.1249875
1680010670569,1190658922938314,-0.0023375,-0.13695,-0.1260875
1680010670572,1190658925440699,6.875E-4,-0.143,-0.128975
1680010670573,1190658927942930,0.00165,-0.143,-0.1280125
1680010670575,1190658930445083,0.00275,-0.1439625,-0.1260875
1680010670579,1190658932947526,-0.0042625,-0.1500125,-0.1260875
1680010670580,1190658935449911,-0.0033,-0.1529,-0.1230625
1680010670583,1190658937952141,-0.0033,-0.1519375,-0.1230625
1680010670586,1190658940454526,-0.00935,-0.14795,-0.117975
1680010670589,1190658942956762,-0.00825,-0.1469875,-0.1170125
1680010670590,1190658945459146,-0.0072875,-0.1489125,-0.1120625
1680010670594,1190658947961608,-0.00825,-0.1419,-0.11
1680010670599,1190658950463839,-0.00935,-0.143,-0.108075
1680010670600,1190658952966204,-0.0072875,-0.133925,-0.108075
1680010670600,1190658955468435,-0.0042625,-0.135025,-0.1060125
1680010670602,1190658957970820,-0.0042625,-0.1309,-0.1040875
1680010670605,1190658960472974,-0.0033,-0.12595,-0.1040875
1680010670609,1190658962975440,6.875E-4,-0.1219625,-0.1040875
1680010670611,1190658965477671,0.00275,-0.117975,-0.1010625
1680010670613,1190658967980055,0.0067375,-0.1159125,-0.1010625
1680010670615,1190658970482286,0.0116875,-0.111925,-0.099
1680010670618,1190658972984671,0.01265,-0.1029875,-0.098037496
1680010670620,1190658975486902,0.0187,-0.0999625,-0.099
1680010670623,1190658977989286,0.0207625,-0.0950125,-0.095975
1680010670626,1190658980491517,0.021724999,-0.0950125,-0.098037496
1680010670629,1190658982993902,0.026675,-0.088,-0.098037496
1680010670631,1190658985496136,0.0297,-0.084975,-0.098037496
1680010670632,1190658987998521,0.027775,-0.0840125,-0.099
1680010670636,1190658990500752,0.0306625,-0.08195,-0.100099996
1680010670638,1190658993003213,0.03575,-0.0809875,-0.1010625
1680010670640,1190658995505598,0.037675,-0.077,-0.1010625
1680010670642,1190658998007743,0.0407,-0.0759,-0.1040875
1680010670648,1190659000510204,0.0446875,-0.078925,-0.102025
1680010670649,1190659003012435,0.0507375,-0.078925,-0.1029875
1680010670653,1190659005514796,0.0556875,-0.077,-0.1029875
1680010670653,1190659008017027,0.0617375,-0.077,-0.1040875
1680010670655,1190659010519411,0.06875,-0.0840125,-0.102025
1680010670659,1190659013021642,0.070675,-0.086899996,-0.102025
1680010670660,1190659015524027,0.0776875,-0.0859375,-0.1029875
1680010670664,1190659018026468,0.0807125,-0.091025,-0.1029875
1680010670666,1190659020528699,0.0867625,-0.0939125,-0.1040875
1680010670668,1190659023030853,0.0917125,-0.0950125,-0.106975
1680010670670,1190659025533237,0.0917125,-0.095975,-0.108075
1680010670674,1190659028035459,0.092675,-0.100925,-0.1060125
1680010670675,1190659030537844,0.0947375,-0.1029875,-0.106975
1680010670680,1190659033040305,0.0977625,-0.10395,-0.108075
1680010670680,1190659035542536,0.10175,-0.106975,-0.11
1680010670685,1190659038044921,0.10175,-0.111925,-0.108075
1680010670686,1190659040547151,0.10065,-0.111925,-0.108075
1680010670688,1190659043049536,0.0996875,-0.113025,-0.109037496
1680010670690,1190659045551767,0.095699996,-0.111925,-0.106975
1680010670693,1190659048054228,0.0947375,-0.1139875,-0.1060125
1680010670695,1190659050556396,0.092675,-0.113025,-0.106975
1680010670699,1190659053058781,0.09075,-0.1170125,-0.1040875
1680010670700,1190659055561012,0.08965,-0.117975,-0.1060125
1680010670703,1190659058063396,0.0947375,-0.124025,-0.1120625
1680010670706,1190659060565622,0.087725,-0.1269125,-0.113025
1680010670708,1190659063068084,0.0807125,-0.132,-0.1150875
1680010670710,1190659065570468,0.0776875,-0.14093749,-0.11605
1680010670712,1190659068072699,0.082775,-0.144925,-0.1170125
1680010670714,1190659070574853,0.07865,-0.1529,-0.1150875
1680010670719,1190659073077261,0.076725,-0.1549625,-0.11
1680010670722,1190659075579492,0.0776875,-0.1549625,-0.109037496
1680010670723,1190659078081954,0.0746625,-0.1610125,-0.108075
1680010670726,1190659080584338,0.071775,-0.16293749,-0.1060125
1680010670729,1190659083086565,0.073699996,-0.1639,-0.106975
1680010670731,1190659085588950,0.0727375,-0.15895,-0.10505
1680010670733,1190659088091181,0.070675,-0.154,-0.1060125
1680010670736,1190659090593565,0.0697125,-0.1500125,-0.106975
1680010670738,1190659093096031,0.070675,-0.1469875,-0.10505
1680010670740,1190659095598262,0.06765,-0.133925,-0.11
1680010670743,1190659098100415,0.0636625,-0.1309,-0.1120625
1680010670746,1190659100602800,0.065725,-0.117975,-0.1111
1680010670749,1190659103105051,0.0617375,-0.106975,-0.1150875
1680010670750,1190659105607435,0.0617375,-0.0950125,-0.1111
1680010670752,1190659108109897,0.0636625,-0.0829125,-0.108075
1680010670755,1190659110612128,0.065725,-0.0719125,-0.113025
1680010670760,1190659113114487,0.0666875,-0.062975,-0.1150875
1680010670761,1190659115616718,0.06765,-0.0499125,-0.1170125
1680010670763,1190659118118872,0.06875,-0.0429,-0.11605
1680010670765,1190659120621257,0.073699996,-0.0319,-0.121
1680010670769,1190659123123718,0.0746625,-0.0180125,-0.122099996
1680010670770,1190659125625954,0.0746625,-0.0099,-0.122099996
1680010670772,1190659128128339,0.0757625,-0.00495,-0.1230625
1680010670775,1190659130630569,0.0776875,0.0039875,-0.124025
1680010670778,1190659133132954,0.07975,0.0160875,-0.124025
1680010670780,1190659135635176,0.07975,0.020075,-0.121
1680010670783,1190659138137637,0.07975,0.0210375,-0.121
1680010670786,1190659140640022,0.0837375,0.0231,-0.1170125
1680010670788,1190659143142253,0.0847,0.031075,-0.1150875
1680010670790,1190659145644415,0.082775,0.0369875,-0.113025
1680010670792,1190659148146800,0.082775,0.040975,-0.106975
1680010670797,1190659150649031,0.0807125,0.044,-0.1010625
1680010670799,1190659153151492,0.0807125,0.044,-0.1010625
1680010670803,1190659155653877,0.07865,0.0451,-0.100099996
1680010670803,1190659158156108,0.07865,0.047025,-0.0950125
1680010670805,1190659160658492,0.0807125,0.0460625,-0.091025
1680010670808,1190659163160723,0.0776875,0.0451,-0.084975
1680010670810,1190659165662877,0.0776875,0.0430375,-0.0809875
1680010670813,1190659168165325,0.076725,0.039049998,-0.078099996
1680010670815,1190659170667709,0.076725,0.0320375,-0.0760375
1680010670820,1190659173169940,0.07975,0.0350625,-0.0710875
1680010670821,1190659175672325,0.082775,0.0320375,-0.0680625
1680010670823,1190659178174569,0.082775,0.02805,-0.069025
1680010670826,1190659180676954,0.07975,0.0240625,-0.0620125
1680010670829,1190659183179416,0.0837375,0.0210375,-0.0589875
1680010670831,1190659185681646,0.082775,0.0160875,-0.0589875
1680010670836,1190659188184031,0.0837375,0.011,-0.0561
1680010670837,1190659190686262,0.07975,0.007975,-0.053075
1680010670839,1190659193188646,0.07865,0.0,-0.053075
1680010670841,1190659195690800,0.076725,-0.001925,-0.050049998
1680010670843,1190659198193262,0.0746625,-0.0070125,-0.0490875
1680010670845,1190659200695488,0.073699996,-0.0099,-0.0460625
1680010670848,1190659203197872,0.0746625,-0.014025,-0.042075
1680010670851,1190659205700103,0.0727375,-0.0180125,-0.0430375
1680010670853,1190659208202488,0.0727375,-0.0209,-0.044
1680010670855,1190659210704718,0.073699996,-0.0199375,-0.042075
1680010670858,1190659213207103,0.0697125,-0.029975,-0.040975
1680010670860,1190659215709334,0.0666875,-0.0309375,-0.0451
1680010670863,1190659218211718,0.06875,-0.0309375,-0.042075
1680010670867,1190659220713954,0.06765,-0.0319,-0.040975
1680010670869,1190659223216339,0.06765,-0.034925,-0.042075
1680010670872,1190659225718570,0.0627,-0.036025,-0.0400125
1680010670874,1190659228221031,0.065725,-0.0369875,-0.042075
1680010670876,1190659230723416,0.0627,-0.0339625,-0.0430375
1680010670878,1190659233225632,0.0617375,-0.0339625,-0.0451
1680010670880,1190659235728017,0.0617375,-0.0339625,-0.0490875
1680010670882,1190659238230248,0.0627,-0.036025,-0.0479875
1680010670887,1190659240732617,0.06765,-0.0309375,-0.0510125
1680010670888,1190659243234848,0.070675,-0.0290125,-0.0490875
1680010670890,1190659245737233,0.0666875,-0.0279125,-0.050049998
1680010670893,1190659248239464,0.06765,-0.025024999,-0.0540375
1680010670895,1190659250741848,0.06765,-0.023924999,-0.055
1680010670898,1190659253244065,0.0666875,-0.029975,-0.0540375
1680010670902,1190659255746450,0.0617375,-0.025024999,-0.055
1680010670903,1190659258248911,0.059675,-0.0199375,-0.055
1680010670906,1190659260751065,0.0556875,-0.0180125,-0.0561
1680010670910,1190659263253296,0.0507375,-0.0180125,-0.053075
1680010670912,1190659265755680,0.04675,-0.022,-0.0490875
1680010670914,1190659268257911,0.0427625,-0.0199375,-0.0479875
1680010670915,1190659270760296,0.043725,-0.0199375,-0.0451
1680010670919,1190659273262761,0.038775,-0.025024999,-0.040975
1680010670921,1190659275764992,0.037675,-0.0290125,-0.0369875
1680010670923,1190659278267377,0.03575,-0.033,-0.036025
1680010670925,1190659280769608,0.0297,-0.0309375,-0.0350625
1680010670928,1190659283272016,0.032725,-0.0369875,-0.033
1680010670930,1190659285774247,0.0306625,-0.040975,-0.0320375
1680010670933,1190659288276709,0.027775,-0.040975,-0.0290125
1680010670935,1190659290778862,0.027775,-0.040975,-0.0290125
1680010670939,1190659293281238,0.0287375,-0.0369875,-0.036025
1680010670940,1190659295783469,0.0287375,-0.0389125,-0.0400125
1680010670943,1190659298285853,0.02475,-0.0389125,-0.039049998
1680010670948,1190659300788084,0.0196625,-0.036025,-0.039049998
1680010670953,1190659303290560,0.014712499,-0.0339625,-0.040975
1680010670954,1190659305942560,0.016775,-0.029975,-0.040975
1680010670954,1190659308295098,0.014712499,-0.022,-0.0369875
1680010670956,1190659310797329,0.01265,-0.0169125,-0.0350625
1680010670959,1190659313299714,0.0116875,-0.0149875,-0.033
1680010670960,1190659315801935,0.014712499,-0.0070125,-0.0290125
1680010670963,1190659318304397,0.014712499,0.0020625,-0.025024999
1680010670967,1190659320806782,0.014712499,0.0070125,-0.0231
1680010670970,1190659323309007,0.0116875,0.0100375,-0.018975
1680010670971,1190659325811392,0.010725,0.0121,-0.01705
1680010670973,1190659328313623,0.0116875,0.0160875,-0.0160875
1680010670975,1190659330816007,0.014712499,0.014025,-0.0121
1680010670978,1190659333318469,0.01375,0.022,-0.0070125
1680010670980,1190659335820719,0.010725,0.020075,-0.007975
1680010670984,1190659338322872,0.01265,0.0240625,-0.0070125
1680010670987,1190659340825257,0.01265,0.025024999,-0.0070125
1680010670989,1190659343327488,0.016775,0.02805,-0.007975
1680010670991,1190659345829882,0.0187,0.031075,-0.0070125
1680010670993,1190659348332343,0.0177375,0.0290125,-0.007975
1680010670995,1190659350834574,0.0177375,0.029975,-0.009075
1680010670998,1190659353336958,0.0177375,0.0320375,-0.00605
1680010671001,1190659355839189,0.01375,0.0270875,-0.009075
1680010671003,1190659358341343,0.0198,0.025024999,-0.009075
1680010671005,1190659360843728,0.0198,0.022,-0.0121
1680010671009,1190659363346189,0.014712499,0.0231,-0.0121
1680010671010,1190659365848420,0.016775,0.0231,-0.009075
1680010671013,1190659368350829,0.016775,0.020075,-0.0100375
1680010671015,1190659370853059,0.0116875,0.013062499,-0.0100375
1680010671019,1190659373355444,0.0116875,0.0070125,-0.0100375
1680010671022,1190659375857675,0.0088,0.0020625,-0.011
1680010671024,1190659378360074,0.0067375,-9.625E-4,-0.0121
1680010671027,1190659380862536,0.0067375,-0.0070125,-0.0070125
1680010671030,1190659383364767,0.0067375,-0.014025,-0.0050875
1680010671032,1190659385866921,0.00275,-0.01595,-0.003025
1680010671034,1190659388369305,-2.75E-4,-0.023924999,-0.003025
1680010671035,1190659390871536,-0.0022,-0.033,-0.003025
1680010671039,1190659393373921,-0.0033,-0.0389125,-0.0
1680010671040,1190659395876382,-0.0042625,-0.0429,-0.0011
1680010671043,1190659398378613,-0.0072875,-0.0479875,0.003025
1680010671047,1190659400880978,-0.0103124995,-0.056925,0.0039875
1680010671049,1190659403383208,-0.011275,-0.0669625,0.001925
1680010671052,1190659405885362,-0.016224999,-0.0699875,0.00495
1680010671054,1190659408387747,-0.017324999,-0.0749375,0.007975
1680010671057,1190659410890213,-0.0202125,-0.077,0.0039875
1680010671061,1190659413392444,-0.0213125,-0.0809875,9.625E-4
1680010671062,1190659415894829,-0.0202125,-0.0829125,0.0039875
1680010671064,1190659418397060,-0.01925,-0.0840125,-0.0
1680010671066,1190659420899444,-0.0213125,-0.0859375,-0.0011
1680010671069,1190659423401675,-0.01925,-0.0809875,-0.0011
1680010671070,1190659425904136,-0.0182875,-0.078925,-0.007975
1680010671073,1190659428406521,-0.0213125,-0.0809875,-0.0121
1680010671075,1190659430908752,-0.022275,-0.0749375,-0.0121
1680010671079,1190659433410921,-0.022275,-0.064899996,-0.020075
1680010671080,1190659435913305,-0.0202125,-0.0620125,-0.0231
1680010671083,1190659438415536,-0.0202125,-0.0589875,-0.0259875
1680010671086,1190659440917998,-0.0253,-0.051975,-0.029975
1680010671089,1190659443420358,-0.0232375,-0.0479875,-0.0341
1680010671091,1190659445922589,-0.022275,-0.0389125,-0.0430375
1680010671093,1190659448424974,-0.0232375,-0.029975,-0.0451
1680010671097,1190659450927204,-0.0202125,-0.02695,-0.0460625
1680010671100,1190659453429353,-0.0213125,-0.022,-0.0490875
1680010671101,1190659455931815,-0.0182875,-0.014025,-0.051975
1680010671103,1190659458434199,-0.0182875,-0.0089375,-0.0510125
1680010671106,1190659460936430,-0.01925,-0.0059125,-0.053075
1680010671109,1190659463438810,-0.0132,-0.001925,-0.0561
1680010671111,1190659465941041,-0.0132,0.0011,-0.0589875
1680010671113,1190659468443425,-0.0143,0.0039875,-0.0570625
1680010671116,1190659470945887,-0.0092124995,0.0039875,-0.055
1680010671120,1190659473448128,-0.0103124995,0.0050875,-0.055
1680010671121,1190659475950512,-0.0122375,0.003025,-0.0540375
1680010671123,1190659478452743,-0.00825,0.0039875,-0.055
1680010671125,1190659480954897,-0.0072875,0.003025,-0.053075
1680010671129,1190659483457281,-0.005225,0.0070125,-0.0510125
1680010671131,1190659485959767,-0.0042625,0.0121,-0.050049998
1680010671135,1190659488461998,-0.005225,0.00605,-0.044
1680010671136,1190659490964382,-0.0022,0.0039875,-0.042075
1680010671139,1190659493466613,-0.0022,0.0020625,-0.0400125
1680010671141,1190659495969017,6.875E-4,-0.003025,-0.0350625
1680010671143,1190659498471248,0.00275,-0.007975,-0.0350625
1680010671146,1190659500973632,0.0037125,-0.0099,-0.0341
1680010671149,1190659503475863,0.0017875,-0.014025,-0.029975
1680010671151,1190659505978248,0.004675,-0.0209,-0.029975
1680010671153,1190659508480478,0.004675,-0.0279125,-0.02805
1680010671156,1190659510982863,0.00275,-0.0339625,-0.0259875
1680010671158,1190659513485094,0.0037125,-0.0449625,-0.0231
1680010671161,1190659515987555,0.004675,-0.051975,-0.0240625
1680010671163,1190659518489940,0.0037125,-0.058025,-0.025024999
1680010671166,1190659520992171,0.0037125,-0.0620125,-0.0270875
1680010671168,1190659523494555,0.0067375,-0.066,-0.0290125
1680010671172,1190659525996786,0.005775,-0.073975,-0.033
1680010671174,1190659528498954,0.0037125,-0.0759,-0.033
1680010671176,1190659531001415,0.0067375,-0.0809875,-0.039049998
1680010671178,1190659533503800,0.0088,-0.08195,-0.040975
1680010671180,1190659536006031,0.0088,-0.089925,-0.039049998
1680010671183,1190659538508416,0.010725,-0.091025,-0.0430375
1680010671186,1190659541010627,0.0127875,-0.095975,-0.0479875
1680010671188,1190659543513012,0.0127875,-0.0979,-0.051975
1680010671190,1190659546015473,0.014712499,-0.099,-0.051975
1680010671193,1190659548517627,0.01375,-0.099,-0.0561
1680010671195,1190659551019858,0.0177375,-0.10395,-0.0600875
1680010671198,1190659553522213,0.0187,-0.108899996,-0.0620125
1680010671200,1190659556024443,0.0198,-0.106975,-0.066
1680010671203,1190659558526828,0.0226875,-0.1079375,-0.0680625
1680010671206,1190659561029290,0.027775,-0.11,-0.0710875
1680010671210,1190659563531525,0.027775,-0.111925,-0.075075
1680010671213,1190659566033910,0.0297,-0.11495,-0.0790625
1680010671214,1190659568536064,0.0336875,-0.1170125,-0.0840125
1680010671215,1190659571038525,0.03575,-0.1199,-0.087037496
1680010671221,1190659573540679,0.0367125,-0.1189375,-0.0900625
1680010671225,1190659576043184,0.0407,-0.1189375,-0.09405
1680010671225,1190659578545415,0.043725,-0.1199,-0.098037496
1680010671226,1190659581047799,0.0457875,-0.1219625,-0.100099996
1680010671229,1190659583550030,0.0427625,-0.121,-0.102025
1680010671231,1190659586052406,0.0457875,-0.1269125,-0.10505
1680010671233,1190659588554636,0.04675,-0.124025,-0.10505
1680010671235,1190659591057098,0.0477125,-0.12595,-0.1060125
1680010671239,1190659593559483,0.0517,-0.128975,-0.109037496
1680010671240,1190659596061636,0.049775,-0.132,-0.11
1680010671243,1190659598563871,0.0537625,-0.132,-0.11
1680010671247,1190659601066256,0.0537625,-0.13695,-0.1120625
1680010671249,1190659603568487,0.0556875,-0.1379125,-0.1120625
1680010671252,1190659606070948,0.0587125,-0.139975,-0.1170125
1680010671253,1190659608573069,0.059675,-0.143,-0.117975
1680010671256,1190659611075454,0.059675,-0.139975,-0.1170125
1680010671259,1190659613577684,0.060775,-0.1419,-0.11605
1680010671261,1190659616080146,0.0627,-0.144925,-0.117975
1680010671263,1190659618582540,0.0677875,-0.1439625,-0.122099996
1680010671268,1190659621084770,0.071775,-0.139975,-0.124025
1680010671269,1190659623587155,0.0776875,-0.139975,-0.1331
1680010671271,1190659626089386,0.07975,-0.1419,-0.135025
1680010671274,1190659628591756,0.07975,-0.1469875,-0.1370875
1680010671275,1190659631094218,0.0757625,-0.144925,-0.13805
1680010671279,1190659633596372,0.082775,-0.1500125,-0.1340625
1680010671280,1190659636098603,0.0837375,-0.1549625,-0.13805
1680010671285,1190659638601011,0.0837375,-0.15895,-0.139975
1680010671286,1190659641103242,0.087725,-0.1579875,-0.139975
1680010671289,1190659643605627,0.0886875,-0.150975,-0.1390125
1680010671291,1190659646108088,0.0886875,-0.1519375,-0.13805
1680010671293,1190659648610319,0.0858,-0.1549625,-0.13805
1680010671296,1190659651112679,0.0897875,-0.157025,-0.141075
1680010671299,1190659653614833,0.0917125,-0.1599125,-0.1441
1680010671300,1190659656117064,0.0886875,-0.154,-0.143
1680010671303,1190659658619449,0.0886875,-0.1519375,-0.1450625
1680010671307,1190659661121890,0.0897875,-0.14795,-0.1450625
1680010671309,1190659663624121,0.0917125,-0.1519375,-0.1441
1680010671311,1190659666126506,0.09075,-0.1469875,-0.146025
1680010671314,1190659668628736,0.0947375,-0.14093749,-0.14905
1680010671315,1190659671131121,0.0977625,-0.139975,-0.14905
1680010671319,1190659673633323,0.0977625,-0.139975,-0.1500125
1680010671322,1190659676135784,0.0977625,-0.1359875,-0.150975
1680010671324,1190659678638169,0.0977625,-0.1299375,-0.1530375
1680010671326,1190659681140323,0.10175,-0.1299375,-0.1579875
1680010671329,1190659683642545,0.103675,-0.1219625,-0.1590875
1680010671331,1190659686144929,0.1057375,-0.1170125,-0.1590875
1680010671333,1190659688647160,0.1057375,-0.1170125,-0.16005
1680010671337,1190659691149622,0.1027125,-0.1170125,-0.161975
1680010671339,1190659693651987,0.1007875,-0.1170125,-0.1610125
1680010671341,1190659696154218,0.0996875,-0.1109625,-0.16499999
1680010671343,1190659698656603,0.0996875,-0.108899996,-0.16499999
1680010671347,1190659701158756,0.095699996,-0.1109625,-0.1661
1680010671349,1190659703660987,0.0977625,-0.10395,-0.1689875
1680010671352,1190659706163449,0.0977625,-0.10395,-0.168025
1680010671353,1190659708665833,0.092675,-0.108899996,-0.1670625
1680010671356,1190659711168064,0.09075,-0.1029875,-0.168025
1680010671360,1190659713670458,0.0897875,-0.10395,-0.1670625
1680010671362,1190659716172689,0.092675,-0.111925,-0.1689875
1680010671365,1190659718675073,0.092675,-0.111925,-0.1689875
1680010671367,1190659721177304,0.092675,-0.1170125,-0.168025
1680010671369,1190659723679689,0.092675,-0.1199,-0.1670625
1680010671371,1190659726181944,0.0917125,-0.1219625,-0.16499999
1680010671376,1190659728684406,0.0917125,-0.1249875,-0.168025
1680010671377,1190659731186560,0.0917125,-0.132,-0.168025
1680010671379,1190659733688944,0.0917125,-0.1359875,-0.168025
1680010671381,1190659736191392,0.0947375,-0.1379125,-0.1750375
1680010671386,1190659738693623,0.095699996,-0.1419,-0.18205
1680010671387,1190659741196007,0.095699996,-0.144925,-0.1860375
1680010671390,1190659743698238,0.092675,-0.144925,-0.1890625
1680010671391,1190659746200594,0.0886875,-0.1469875,-0.1940125
1680010671394,1190659748702748,0.0867625,-0.154,-0.2019875
1680010671397,1190659751205209,0.0847,-0.15895,-0.201025
1680010671400,1190659753707440,0.0867625,-0.16293749,-0.2030875
1680010671402,1190659756209819,0.0847,-0.16293749,-0.2050125
1680010671404,1190659758712050,0.0847,-0.16499999,-0.20405
1680010671406,1190659761214435,0.0807125,-0.1709125,-0.20405
1680010671409,1190659763716666,0.082775,-0.1799875,-0.2050125
1680010671411,1190659766219127,0.0847,-0.177925,-0.205975
1680010671414,1190659768721272,0.0867625,-0.1769625,-0.2101
1680010671416,1190659771223657,0.0867625,-0.177925,-0.212025
1680010671421,1190659773725887,0.087725,-0.177925,-0.216975
1680010671421,1190659776228272,0.0867625,-0.176,-0.2140875
1680010671424,1190659778730517,0.0807125,-0.177925,-0.212025
1680010671427,1190659781232978,0.07975,-0.177925,-0.212025
1680010671431,1190659783735363,0.076725,-0.1749,-0.2101
1680010671433,1190659786237594,0.0776875,-0.1749,-0.205975
1680010671436,1190659788739973,0.0787875,-0.172975,-0.205975
1680010671439,1190659793742204,0.07975,-0.1749,-0.207075
1680010671441,1190659794241897,0.0787875,-0.1709125,-0.207075
1680010671442,1190659796335973,0.07975,-0.1659625,-0.2080375
1680010671445,1190659798749204,0.0807125,-0.1639,-0.2080375
1680010671446,1190659801251459,0.07975,-0.157025,-0.20899999
1680010671449,1190659803753844,0.0807125,-0.154,-0.2101
1680010671451,1190659806256074,0.0847,-0.1549625,-0.2140875
1680010671454,1190659808758459,0.0807125,-0.1529,-0.2110625
1680010671456,1190659811260921,0.0807125,-0.1519375,-0.212025
1680010671459,1190659813763127,0.0847,-0.1500125,-0.212025
1680010671461,1190659816265281,0.0776875,-0.14795,-0.21505
1680010671464,1190659818767666,0.076725,-0.1489125,-0.21505
1680010671467,1190659821269907,0.0727375,-0.146025,-0.2140875
1680010671470,1190659823772291,0.0727375,-0.144925,-0.2140875
1680010671473,1190659826274753,0.0727375,-0.146025,-0.2140875
1680010671475,1190659828776984,0.071775,-0.1489125,-0.2110625
1680010671477,1190659831279368,0.0666875,-0.1519375,-0.212025
1680010671479,1190659833781599,0.065725,-0.154,-0.207075
1680010671481,1190659836283984,0.0627,-0.161975,-0.20405
1680010671483,1190659838786214,0.0617375,-0.1659625,-0.2019875
1680010671486,1190659841288676,0.0617375,-0.168025,-0.201025
1680010671489,1190659843790844,0.0617375,-0.176,-0.1991
1680010671491,1190659846293228,0.0587125,-0.176,-0.194975
1680010671494,1190659848795459,0.0528,-0.183975,-0.187
1680010671496,1190659851297844,0.0477125,-0.1819125,-0.18205
1680010671499,1190659853800069,0.049775,-0.1819125,-0.179025
1680010671501,1190659856302531,0.0528,-0.1819125,-0.1750375
1680010671504,1190659858804916,0.049775,-0.1859,-0.17105
1680010671507,1190659861307146,0.0528,-0.183975,-0.1689875
1680010671511,1190659863809310,0.0517,-0.1819125,-0.1661
1680010671513,1190659866311695,0.04675,-0.179025,-0.1640375
1680010671515,1190659868813926,0.049775,-0.172975,-0.161975
1680010671517,1190659871316387,0.0528,-0.1689875,-0.1590875
1680010671522,1190659873818738,0.0477125,-0.1610125,-0.1579875
1680010671524,1190659876320969,0.0507375,-0.1519375,-0.1551
1680010671526,1190659878823353,0.0556875,-0.144925,-0.1551
1680010671528,1190659881325584,0.0528,-0.133925,-0.1530375
1680010671530,1190659883827724,0.0507375,-0.12595,-0.1530375
1680010671531,1190659886330416,0.054725,-0.11495,-0.1530375
1680010671534,1190659888832647,0.0556875,-0.1049125,-0.1500125
1680010671537,1190659891335032,0.054725,-0.0969375,-0.14905
1680010671539,1190659893837170,0.054725,-0.0829125,-0.146025
1680010671541,1190659896339401,0.0537625,-0.073975,-0.143
1680010671544,1190659898841786,0.0528,-0.0620125,-0.141075
1680010671549,1190659901344247,0.0507375,-0.0510125,-0.139975
1680010671552,1190659903846464,0.0507375,-0.0429,-0.143
1680010671554,1190659906581849,0.0507375,-0.0369875,-0.139975
1680010671555,1190659908851080,0.0477125,-0.033,-0.1359875
1680010671556,1190659911353233,0.04675,-0.0259875,-0.1390125
1680010671559,1190659913855618,0.043725,-0.023924999,-0.139975
1680010671562,1190659916358065,0.0457875,-0.0199375,-0.1390125
1680010671563,1190659918860295,0.0457875,-0.0199375,-0.135025
1680010671569,1190659921362680,0.0446875,-0.023924999,-0.132
1680010671570,1190659923864911,0.0418,-0.0279125,-0.132
1680010671571,1190659926367305,0.0418,-0.0290125,-0.12705
1680010671574,1190659928869536,0.0397375,-0.034925,-0.1230625
1680010671576,1190659931371921,0.0367125,-0.040975,-0.11605
1680010671580,1190659933874382,0.0347875,-0.0449625,-0.1150875
1680010671581,1190659936376613,0.0308,-0.056925,-0.1111
1680010671588,1190659938879012,0.0257125,-0.0620125,-0.10505
1680010671589,1190659941381166,0.0237875,-0.0639375,-0.099
1680010671591,1190659943883396,0.021724999,-0.064899996,-0.0950125
1680010671593,1190659946385849,0.0198,-0.067925,-0.0900625
1680010671594,1190659948888233,0.0207625,-0.067925,-0.086075
1680010671596,1190659951390464,0.0198,-0.073975,-0.0820875
1680010671598,1190659953892849,0.0177375,-0.078925,-0.078099996
1680010671601,1190659956395080,0.0177375,-0.073975,-0.073975
1680010671603,1190659958897262,0.0127875,-0.0749375,-0.077
1680010671606,1190659961399723,0.014712499,-0.07095,-0.0820875
1680010671610,1190659963902108,0.01375,-0.0669625,-0.0820875
1680010671612,1190659966404338,0.0127875,-0.0669625,-0.084975
1680010671615,1190659968906695,0.0037125,-0.064899996,-0.0900625
1680010671616,1190659971408926,0.004675,-0.0639375,-0.0891
1680010671619,1190659973911310,0.00275,-0.062975,-0.091025
1680010671623,1190659976413772,0.00275,-0.0529375,-0.0891
1680010671625,1190659978915940,0.0067375,-0.0510125,-0.091025
1680010671629,1190659981418171,0.0037125,-0.0429,-0.0919875
1680010671633,1190659986420555,-2.75E-4,-0.03795,-0.0900625
1680010671635,1190659986524325,-2.75E-4,-0.0290125,-0.087037496
1680010671637,1190659989032545,-2.75E-4,-0.023924999,-0.084975
1680010671639,1190659991427622,-0.005225,-0.0169125,-0.0820875
1680010671641,1190659993929853,-0.00825,-0.014025,-0.0730125
1680010671643,1190659996432238,-0.0072875,-0.00495,-0.0710875
1680010671645,1190659998934468,-0.006325,-9.625E-4,-0.0671
1680010671646,1190660001436848,-0.00825,0.0011,-0.066
1680010671649,1190660003939079,-0.0092124995,0.007975,-0.061049998
1680010671651,1190660006441463,-0.011275,0.0121,-0.058025
1680010671654,1190660008943694,-0.015262499,0.01705,-0.058025
1680010671657,1190660011446065,-0.0143,0.0180125,-0.0561
1680010671661,1190660013948296,-0.0143,0.0210375,-0.051975
1680010671663,1190660016450680,-0.015262499,0.0240625,-0.051975
1680010671666,1190660018952911,-0.0122375,0.02805,-0.055
1680010671669,1190660021455306,-0.0182875,0.0341,-0.053075
1680010671671,1190660023957767,-0.0143,0.0369875,-0.0490875
1680010671672,1190660026459921,-0.0103124995,0.044,-0.0479875
1680010671674,1190660028962152,-0.0103124995,0.0460625,-0.0479875
1680010671676,1190660031464536,-0.0103124995,0.050049998,-0.0451
1680010671679,1190660033966771,-0.011275,0.0540375,-0.0451
1680010671682,1190660036469156,-0.00825,0.058025,-0.0451
1680010671684,1190660038971617,-0.00825,0.061049998,-0.0451
1680010671687,1190660041473848,-0.0072875,0.066,-0.0490875
1680010671689,1190660043976253,-0.0042625,0.0710875,-0.0540375
1680010671691,1190660046478407,-0.00825,0.0760375,-0.0540375
1680010671694,1190660048980868,-0.0103124995,0.073975,-0.051975
1680010671698,1190660051483022,-0.0092124995,0.077,-0.0561
1680010671701,1190660053985574,-0.0092124995,0.0790625,-0.058025
1680010671703,1190660056487728,-0.0072875,0.080025,-0.061049998
1680010671704,1190660058990113,-0.0042625,0.0809875,-0.066
1680010671707,1190660061492344,-0.006325,0.0809875,-0.061049998
1680010671711,1190660063994693,-0.0042625,0.0809875,-0.0650375
1680010671712,1190660066496924,-0.0042625,0.078099996,-0.066
1680010671714,1190660068999386,-0.005225,0.078099996,-0.066
1680010671716,1190660071501770,-0.0042625,0.073975,-0.062975
1680010671719,1190660074003924,-0.005225,0.07205,-0.0620125
1680010671721,1190660076506160,-0.0022,0.0671,-0.061049998
1680010671724,1190660079008544,-0.0022,0.069025,-0.0620125
1680010671727,1190660081510775,-0.0033,0.0650375,-0.061049998
1680010671730,1190660084013237,-2.75E-4,0.0600875,-0.0561
1680010671732,1190660086515650,6.875E-4,0.058025,-0.0561
1680010671735,1190660089017881,0.00275,0.0570625,-0.055
1680010671738,1190660091520266,0.0037125,0.051975,-0.0540375
1680010671740,1190660094022420,0.004675,0.047025,-0.0540375
1680010671742,1190660096524659,0.004675,0.0430375,-0.0561
1680010671744,1190660099027121,0.005775,0.0369875,-0.0561
1680010671748,1190660101529583,0.004675,0.036025,-0.055
1680010671750,1190660104031736,0.0067375,0.033,-0.058025
1680010671753,1190660106534126,0.0077,0.033,-0.0589875
1680010671754,1190660109036357,0.0077,0.0341,-0.0600875
1680010671757,1190660111538741,0.0077,0.0320375,-0.062975
1680010671759,1190660114041203,0.0116875,0.02805,-0.0600875
1680010671762,1190660116543453,0.014712499,0.031075,-0.061049998
1680010671764,1190660119045837,0.016775,0.029975,-0.062975
1680010671767,1190660121547991,0.0177375,0.025024999,-0.0650375
1680010671769,1190660124050222,0.021724999,0.0270875,-0.0680625
1680010671773,1190660126552579,0.02475,0.0270875,-0.07205
1680010671775,1190660129055040,0.02475,0.025024999,-0.075075
1680010671777,1190660131557271,0.026675,0.025024999,-0.077
1680010671779,1190660134059656,0.0287375,0.025024999,-0.0790625
1680010671781,1190660136561886,0.0297,0.0231,-0.0820875
1680010671784,1190660139064275,0.0287375,0.0231,-0.084975
1680010671787,1190660141566429,0.0297,0.020075,-0.086075
1680010671791,1190660144068890,0.0297,0.0231,-0.0891
1680010671792,1190660146571121,0.032725,0.018975,-0.0919875
1680010671795,1190660149073506,0.0297,0.01705,-0.0891
1680010671797,1190660151575737,0.032725,0.0160875,-0.091025
1680010671800,1190660154078121,0.0347875,0.013062499,-0.0950125
1680010671803,1190660156580352,0.032725,0.0100375,-0.098037496
1680010671804,1190660159082813,0.032725,0.013062499,-0.0950125
1680010671807,1190660161584967,0.0297,0.011,-0.0950125
1680010671811,1190660164087429,0.027775,0.0020625,-0.098037496
1680010671813,1190660166589813,0.0297,0.003025,-0.095975
1680010671815,1190660169091972,0.0297,0.003025,-0.0930875
1680010671817,1190660171594203,0.0297,0.0,-0.09405
1680010671819,1190660174096665,0.0297,-0.007975,-0.0891
1680010671822,1190660176599049,0.027775,-0.0059125,-0.0891
1680010671824,1190660179101280,0.0287375,-0.007975,-0.091025
1680010671828,1190660181603680,0.0308,-0.0119624995,-0.0891
1680010671830,1190660184105910,0.0347875,-0.014025,-0.0891
1680010671832,1190660186608295,0.032725,-0.014025,-0.086075
1680010671834,1190660189110526,0.0308,-0.01595,-0.0809875
1680010671837,1190660191612900,0.0367125,-0.0209,-0.0840125
1680010671840,1190660194115131,0.03575,-0.02695,-0.0891
1680010671841,1190660196617516,0.0407,-0.029975,-0.0919875
1680010671845,1190660199119747,0.0427625,-0.029975,-0.09405
1680010671853,1190660201622116,0.0407,-0.033,-0.09405
1680010671854,1190660204124578,0.038775,-0.03795,-0.099
1680010671854,1190660206626809,0.0367125,-0.045925,-0.099
1680010671854,1190660209128962,0.0367125,-0.0510125,-0.098037496
1680010671856,1190660211631347,0.0407,-0.05995,-0.098037496
1680010671859,1190660214133819,0.0427625,-0.064899996,-0.1010625
1680010671861,1190660216635972,0.0418,-0.069025,-0.1029875
1680010671864,1190660219138434,0.0427625,-0.078925,-0.1029875
1680010671867,1190660221640665,0.0446875,-0.0829125,-0.102025
1680010671870,1190660224142795,0.0397375,-0.091025,-0.102025
1680010671872,1190660226645256,0.037675,-0.099,-0.102025
1680010671874,1190660229147718,0.037675,-0.1049125,-0.10505
1680010671876,1190660231649872,0.0347875,-0.11,-0.106975
1680010671879,1190660234152256,0.032725,-0.1170125,-0.1111
1680010671881,1190660236654522,0.0336875,-0.12595,-0.1150875
1680010671888,1190660239156907,0.038775,-0.1269125,-0.117975
1680010671889,1190660241659137,0.037675,-0.1309,-0.1260875
1680010671890,1190660244161599,0.03575,-0.1379125,-0.1280125
1680010671892,1190660246663993,0.03575,-0.146025,-0.1359875
1680010671894,1190660249166223,0.0347875,-0.1500125,-0.141075
1680010671896,1190660251668377,0.027775,-0.154,-0.14905
1680010671899,1190660254170762,0.027775,-0.1549625,-0.154
1680010671902,1190660256672993,0.026675,-0.1639,-0.16005
1680010671904,1190660259175445,0.027775,-0.1659625,-0.1640375
1680010671906,1190660261677830,0.026675,-0.1709125,-0.1640375
1680010671909,1190660264180060,0.021724999,-0.177925,-0.168025
1680010671911,1190660266682445,0.014712499,-0.179025,-0.17105
1680010671913,1190660269184671,0.0127875,-0.18493749,-0.1689875
1680010671916,1190660271686825,0.0077,-0.19195,-0.16499999
1680010671920,1190660274189286,0.0067375,-0.1909875,-0.16499999
1680010671923,1190660276691671,0.0067375,-0.1909875,-0.16005
1680010671926,1190660279193887,-2.75E-4,-0.1929125,-0.1560625
1680010671928,1190660281696271,-0.0033,-0.1969,-0.1530375
1680010671931,1190660284198502,-0.0033,-0.1989625,-0.150975
1680010671932,1190660286700887,-0.006325,-0.198,-0.1441
1680010671934,1190660289203329,-0.0042625,-0.198,-0.143
1680010671936,1190660291705560,-0.0033,-0.2039125,-0.1441
1680010671939,1190660294207945,-0.0072875,-0.20899999,-0.1450625
1680010671942,1190660296710175,-0.005225,-0.2099625,-0.1480875
1680010671944,1190660299212329,-0.0072875,-0.205975,-0.1450625
1680010671947,1190660301714709,-0.00825,-0.20295,-0.1500125
1680010671950,1190660304217170,-0.00825,-0.205975,-0.1500125
1680010671951,1190660306719401,-0.0092124995,-0.194975,-0.14905
1680010671954,1190660309221786,-0.011275,-0.1929125,-0.1480875
1680010671956,1190660311724017,-0.0143,-0.1819125,-0.1530375
1680010671961,1190660314226425,-0.011275,-0.1689875,-0.1551
1680010671962,1190660316728656,-0.011275,-0.161975,-0.1579875
1680010671964,1190660319231041,-0.011275,-0.1500125,-0.16005
1680010671966,1190660321733271,-0.0092124995,-0.133925,-0.16499999
1680010671969,1190660324235651,-0.0103124995,-0.12595,-0.1720125
1680010671971,1190660326737882,-0.0103124995,-0.1109625,-0.1780625
1680010671974,1190660329240266,-0.00825,-0.0939125,-0.183975
1680010671976,1190660331742497,-0.00825,-0.080025,-0.190025
1680010671979,1190660334244969,-0.00825,-0.066,-0.198
1680010671981,1190660336747353,-0.005225,-0.0510125,-0.2050125
1680010671984,1190660339249584,-0.0042625,-0.0339625,-0.2101
1680010671987,1190660341751969,-0.0042625,-0.0199375,-0.2160125
1680010671990,1190660344254181,-0.0042625,-0.00495,-0.2239875
1680010671991,1190660346756334,-0.0033,0.0100375,-0.2270125
1680010671994,1190660349258796,-0.0033,0.0290125,-0.229075
1680010671998,1190660351761181,-0.0033,0.040975,-0.2349875
1680010672000,1190660354263396,-0.0022,0.0561,-0.24007499
1680010672002,1190660356765781,6.875E-4,0.0699875,-0.2431
1680010672004,1190660359268012,6.875E-4,0.080025,-0.2470875
1680010672006,1190660361770396,-0.0022,0.084975,-0.251075
1680010672009,1190660364272858,0.00275,0.088,-0.2541
1680010672011,1190660366775022,0.0017875,0.0900625,-0.2550625
1680010672014,1190660369277252,0.0067375,0.087037496,-0.2569875
1680010672016,1190660371779637,0.0088,0.086075,-0.262075
1680010672019,1190660374281868,0.010725,0.088,-0.267025
1680010672021,1190660376784248,0.0116875,0.0840125,-0.2660625
1680010672024,1190660379286709,0.0127875,0.077,-0.2679875
1680010672027,1190660381788940,0.0127875,0.0680625,-0.27101249
1680010672030,1190660384291094,0.0116875,0.061049998,-0.27307498
1680010672032,1190660386793483,0.0116875,0.0510125,-0.271975
1680010672036,1190660389295714,0.010725,0.040975,-0.2740375
1680010672038,1190660391798099,0.010725,0.029975,-0.2740375
1680010672040,1190660394300560,0.010725,0.01705,-0.2690875
1680010672042,1190660396802805,0.0088,0.0050875,-0.2690875
1680010672044,1190660399305190,0.0067375,-0.0039875,-0.2651
1680010672046,1190660401807420,0.005775,-0.0199375,-0.25905
1680010672049,1190660404309805,0.0037125,-0.036025,-0.2550625
1680010672051,1190660406812036,0.004675,-0.047025,-0.2470875
1680010672054,1190660409314507,0.00275,-0.055,-0.24007499
1680010672056,1190660411816892,6.875E-4,-0.069025,-0.2321
1680010672059,1190660414319046,0.0017875,-0.080025,-0.227975
1680010672061,1190660416821277,0.004675,-0.0809875,-0.223025
1680010672064,1190660419323666,0.005775,-0.086899996,-0.22
1680010672067,1190660421825897,0.0077,-0.088,-0.212025
1680010672070,1190660424328359,0.0067375,-0.086899996,-0.205975
1680010672074,1190660426830743,0.0067375,-0.0950125,-0.2000625
1680010672075,1190660429332998,0.010725,-0.091025,-0.190025
1680010672077,1190660431835383,0.0177375,-0.0859375,-0.187
1680010672080,1190660434337536,0.0207625,-0.0809875,-0.1830125
1680010672082,1190660436839767,0.026675,-0.077,-0.1750375
1680010672086,1190660439342229,0.032725,-0.0669625,-0.1700875
1680010672087,1190660441844613,0.037675,-0.05995,-0.16499999
1680010672090,1190660444346844,0.0407,-0.055,-0.1560625
1680010672092,1190660446849229,0.04675,-0.0510125,-0.152075
1680010672094,1190660449351460,0.0517,-0.0429,-0.146025
1680010672097,1190660451853613,0.060775,-0.033,-0.13805
1680010672100,1190660454356075,0.0677875,-0.0259875,-0.1331
1680010672102,1190660456858536,0.0727375,-0.0199375,-0.132
1680010672104,1190660459360690,0.0837375,-0.014025,-0.12705
1680010672107,1190660461863070,0.0886875,-0.0070125,-0.1249875
1680010672112,1190660464365301,0.093775,-0.0059125,-0.121
1680010672113,1190660466867685,0.0977625,-0.001925,-0.1150875
1680010672115,1190660469370147,0.103675,0.0050875,-0.109037496
1680010672120,1190660471872407,0.11275,0.011,-0.1029875
1680010672122,1190660476874791,0.1216875,0.00605,-0.102025
1680010672123,1190660477012945,0.126775,0.003025,-0.09405
1680010672125,1190660479379407,0.1326875,-0.001925,-0.087037496
1680010672128,1190660481881561,0.1387375,-0.001925,-0.0820875
1680010672131,1190660484384002,0.148775,-0.003025,-0.0730125
1680010672133,1190660486886233,0.14575,-0.0059125,-0.061049998
1680010672136,1190660489388617,0.14973749,-0.0070125,-0.051975
1680010672137,1190660491890848,0.1557875,-0.012925,-0.040975
1680010672140,1190660494393228,0.1617,-0.01595,-0.0320375
1680010672141,1190660496895459,0.17379999,-0.022,-0.0240625
1680010672144,1190660499397843,0.1837,-0.022,-0.0160875
1680010672150,1190660501900074,0.1876875,-0.0279125,-0.0050875
1680010672152,1190660504402459,0.1967625,-0.029975,9.625E-4
1680010672154,1190660507234766,0.2057,-0.029975,0.0089375
1680010672157,1190660509407074,0.21367499,-0.0290125,0.0209
1680010672160,1190660511909305,0.2217875,-0.0309375,0.0290125
1680010672163,1190660514411800,0.2237125,-0.0319,0.0369875
1680010672164,1190660516914185,0.2316875,-0.0339625,0.04895
1680010672166,1190660519416416,0.2316875,-0.0309375,0.05995
1680010672167,1190660521918800,0.2327875,-0.033,0.0730125
1680010672169,1190660524421031,0.2398,-0.0339625,0.086899996
1680010672172,1190660526923416,0.2457125,-0.034925,0.102025
1680010672174,1190660529425647,0.246675,-0.0339625,0.11495
1680010672176,1190660531928031,0.2508,-0.0319,0.1249875
1680010672180,1190660534430262,0.2517625,-0.0319,0.135025
1680010672182,1190660536932637,0.2497,-0.029975,0.146025
1680010672186,1190660539434867,0.2508,-0.0290125,0.157025
1680010672190,1190660541937252,0.252725,-0.0259875,0.15895
1680010672192,1190660544439714,0.252725,-0.0209,0.1689875
1680010672194,1190660546941882,0.2547875,-0.0149875,0.172975
1680010672195,1190660549444113,0.2536875,-0.00495,0.177925
1680010672197,1190660551946498,0.2567125,0.003025,0.187
1680010672200,1190660554448729,0.257675,0.0149875,0.1940125
1680010672201,1190660556951113,0.257675,0.029975,0.1929125
1680010672204,1190660559453565,0.2607,0.0451,0.188925
1680010672207,1190660561955795,0.257675,0.061049998,0.190025
1680010672209,1190660564458180,0.2607,0.073975,0.190025
1680010672212,1190660566960411,0.2618,0.0900625,0.1859
1680010672214,1190660569462565,0.2627625,0.113025,0.1819125
1680010672217,1190660571964949,0.2618,0.130075,0.1769625
1680010672221,1190660574467488,0.2657875,0.150975,0.1739375
1680010672223,1190660576969622,0.26675,0.1689875,0.172975
1680010672225,1190660579472006,0.2728,0.1940125,0.1689875
1680010672230,1190660581974237,0.2728,0.2211,0.1659625
1680010672232,1190660584476622,0.2756875,0.2490125,0.161975
1680010672235,1190660586978852,0.279675,0.27101249,0.15895
1680010672236,1190660589481314,0.279675,0.2981,0.1610125
1680010672241,1190660591983699,0.2847625,0.3210625,0.1599125
1680010672242,1190660594485852,0.2877875,0.337975,0.15895
1680010672243,1190660596988083,0.285725,0.35901248,0.1610125
1680010672245,1190660599490458,0.2866875,0.377025,0.16293749
1680010672247,1190660601992689,0.29067498,0.3950375,0.1639
1680010672250,1190660604495150,0.28875,0.4090625,0.16499999
1680010672252,1190660606997535,0.291775,0.4200625,0.16995
1680010672254,1190660609499766,0.2957625,0.43505,0.172975
1680010672257,1190660612002155,0.29975,0.44605,0.179025
1680010672262,1190660614504309,0.29975,0.4580125,0.18493749
1680010672263,1190660617006540,0.3007125,0.46805,0.187
1680010672265,1190660619509015,0.3047,0.4769875,0.19195
1680010672267,1190660622011400,0.307725,0.4851,0.1989625
1680010672270,1190660624513631,0.3067625,0.4970625,0.20295
1680010672273,1190660627016015,0.3067625,0.5050375,0.205975
1680010672275,1190660629518246,0.3086875,0.5099875,0.20693749
1680010672278,1190660632020651,0.3117125,0.51301247,0.2079
1680010672280,1190660634523112,0.3157,0.5181,0.212025
1680010672282,1190660637025343,0.318725,0.5270375,0.2129875
1680010672284,1190660639527728,0.3168,0.531025,0.2149125
1680010672287,1190660642029872,0.3168,0.5380375,0.2129875
1680010672289,1190660644532102,0.318725,0.5460125,0.2149125
1680010672291,1190660647034487,0.3157,0.5511,0.2149125
1680010672294,1190660649536718,0.3168,0.5520625,0.212025
1680010672298,1190660652039189,0.3157,0.5539875,0.212025
1680010672300,1190660654541574,0.3147375,0.561,0.20899999
1680010672302,1190660657043805,0.3168,0.559075,0.2079
1680010672304,1190660659546189,0.3117125,0.557975,0.2039125
1680010672307,1190660662048343,0.307725,0.55,0.20295
1680010672310,1190660664550583,0.3086875,0.5490375,0.201025
1680010672312,1190660667053045,0.3097875,0.548075,0.1959375
1680010672314,1190660669555429,0.307725,0.5460125,0.1940125
1680010672316,1190660672057660,0.3058,0.531025,0.190025
1680010672320,1190660674560050,0.3007125,0.526075,0.190025
1680010672321,1190660677062280,0.2957625,0.520025,0.188925
1680010672324,1190660679564665,0.2957625,0.5160375,0.1859
1680010672326,1190660682066896,0.2937,0.5050375,0.1859
1680010672330,1190660684569357,0.2877875,0.4940375,0.1830125
1680010672332,1190660687071742,0.2817375,0.4851,0.177925
1680010672336,1190660689573973,0.279675,0.4800125,0.1739375
1680010672339,1190660692076126,0.2787125,0.4741,0.172975
1680010672340,1190660694578511,0.2756875,0.46805,0.1720125
1680010672342,1190660697080973,0.274725,0.4640625,0.1720125
1680010672344,1190660699583203,0.2737625,0.4560875,0.168025
1680010672347,1190660702085588,0.268675,0.44605,0.1639
1680010672350,1190660704587819,0.2677125,0.4411,0.15895
1680010672352,1190660707090217,0.268675,0.43505,0.15895
1680010672354,1190660709592371,0.2657875,0.432025,0.15895
1680010672357,1190660712094833,0.2646875,0.4310625,0.1549625
1680010672359,1190660714597064,0.2646875,0.429,0.1519375
1680010672362,1190660717099468,0.2597375,0.4280375,0.1469875
1680010672364,1190660719601699,0.2618,0.432025,0.14093749
1680010672367,1190660722104084,0.2627625,0.43408749,0.1359875
1680010672369,1190660724606314,0.258775,0.4411,0.1309
1680010672373,1190660727108780,0.2567125,0.4450875,0.1269125
1680010672375,1190660729610934,0.2536875,0.4530625,0.124025
1680010672377,1190660732113318,0.2508,0.460075,0.1249875
1680010672380,1190660734615549,0.2508,0.4659875,0.1189375
1680010672382,1190660737117934,0.246675,0.47808748,0.1189375
1680010672384,1190660739620175,0.2487375,0.484,0.1189375
1680010672387,1190660742122636,0.246675,0.4940375,0.111925
1680010672390,1190660744625021,0.2497,0.5110875,0.108899996
1680010672392,1190660747127252,0.2487375,0.520025,0.106975
1680010672394,1190660749629405,0.2497,0.524975,0.1049125
1680010672397,1190660752131867,0.252725,0.54408747,0.0999625
1680010672400,1190660754634252,0.2547875,0.553025,0.095975
1680010672403,1190660757136482,0.25575,0.5621,0.0939125
1680010672405,1190660759638857,0.252725,0.5770875,0.09295
1680010672407,1190660762141088,0.252725,0.5841,0.091025
1680010672411,1190660764643472,0.252725,0.590975,0.089925
1680010672413,1190660767145703,0.2508,0.5979875,0.088
1680010672415,1190660769648079,0.2497,0.6040375,0.088
1680010672417,1190660772150540,0.246675,0.6089875,0.091025
1680010672420,1190660774652771,0.2426875,0.6150375,0.089925
1680010672422,1190660777154925,0.241725,0.6199875,0.089925
1680010672425,1190660779657310,0.2398,0.619025,0.089925
1680010672428,1190660782159535,0.236775,0.6230125,0.0919875
1680010672431,1190660784661920,0.2327875,0.6230125,0.0939125
1680010672433,1190660787164381,0.224675,0.619025,0.0969375
1680010672434,1190660789666612,0.22275,0.6120125,0.095975
1680010672437,1190660792168997,0.22275,0.6070625,0.095975
1680010672440,1190660794671228,0.219725,0.597025,0.0979
