system_ts_ms, sensor_ts_ns, gyrX, gyrY, gyrZ
1680015134226,1195122577362149,0.0185625,-0.0169125,-0.033
1680015134227,1195122579864379,0.01155,-0.017875,-0.0259875
1680015134231,1195122582366764,0.0075625,-0.0199375,-0.018975
1680015134232,1195122584868995,0.0056375,-0.0248875,-0.0100375
1680015134232,1195122587371379,-4.125E-4,-0.0248875,0.0
1680015134234,1195122589873841,-0.0044,-0.023924999,0.009075
1680015134249,1195122592376077,-0.0083875,-0.0209,0.020075
1680015134250,1195122594878461,-0.007425,-0.0209,0.0259875
1680015134250,1195122597380615,-0.007425,-0.02585,0.029975
1680015134251,1195122599882846,-0.0083875,-0.023924999,0.0369875
1680015134251,1195122602385323,-0.007425,-0.023924999,0.039049998
1680015134252,1195122604887784,-0.0094875,-0.02695,0.0400125
1680015134252,1195122607389938,-0.0064625,-0.0319,0.039049998
1680015134264,1195122609892323,-0.007425,-0.0319,0.039049998
1680015134264,1195122612394562,-0.007425,-0.0328625,0.040975
1680015134265,1195122614896947,-0.0044,-0.033825,0.040975
1680015134265,1195122617399178,-0.0053625,-0.036849998,0.03795
1680015134266,1195122619901639,-0.0064625,-0.034925,0.033
1680015134267,1195122622404024,-0.0053625,-0.0328625,0.033
1680015134274,1195122624906255,-0.0083875,-0.0328625,0.0320375
1680015134275,1195122627408639,-0.0064625,-0.034925,0.029975
1680015134276,1195122629910870,-0.002475,-0.03795,0.02695
1680015134277,1195122632413278,0.0026125,-0.03795,0.0259875
1680015134279,1195122634915739,-0.002475,-0.0429,0.0259875
1680015134285,1195122637417970,0.0015125,-0.0468875,0.025024999
1680015134285,1195122639920355,0.0045375,-0.047849998,0.0229625
1680015134287,1195122642422585,0.0066,-0.0539,0.0229625
1680015134291,1195122644924965,0.0056375,-0.0548625,0.025024999
1680015134292,1195122647427119,0.003575,-0.0609125,0.02695
1680015134294,1195122649929580,0.0026125,-0.0609125,0.0240625
1680015134301,1195122652431788,-0.001375,-0.0628375,0.020075
1680015134301,1195122654934173,-0.007425,-0.05995,0.013062499
1680015134303,1195122657436404,-0.012375,-0.061875,0.018975
1680015134305,1195122659938788,-0.0174625,-0.064899996,0.018975
1680015134307,1195122662441019,-0.024475,-0.0628375,0.0119624995
1680015134310,1195122664943395,-0.0284625,-0.0658625,0.009075
1680015134312,1195122667445856,-0.0334125,-0.0658625,0.009075
1680015134318,1195122669948087,-0.0303875,-0.064899996,0.00605
1680015134318,1195122672450472,-0.0334125,-0.067925,0.003025
1680015134320,1195122674952682,-0.0394625,-0.06985,-9.625E-4
1680015134322,1195122677455067,-0.0424875,-0.06985,-0.001925
1680015134325,1195122679957298,-0.0394625,-0.0719125,-0.00605
1680015134328,1195122682459759,-0.0413875,-0.0738375,-0.0100375
1680015134331,1195122684961923,-0.040425,-0.0759,-0.0149875
1680015134335,1195122687464308,-0.0374,-0.0768625,-0.0180125
1680015134336,1195122689966539,-0.0383625,-0.077825,-0.0199375
1680015134340,1195122692469000,-0.0383625,-0.0798875,-0.025024999
1680015134341,1195122694971154,-0.035475,-0.0848375,-0.0290125
1680015134342,1195122697473630,-0.0303875,-0.09185,-0.0339625
1680015134345,1195122699976014,-0.024475,-0.0979,-0.0419375
1680015134351,1195122702478245,-0.0204875,-0.0988625,-0.045925
1680015134352,1195122704980630,-0.0174625,-0.1018875,-0.051975
1680015134352,1195122707482841,-0.013475,-0.11495,-0.055
1680015134354,1195122709985226,-0.007425,-0.117837496,-0.05995
1680015134358,1195122712487687,-0.0044,-0.1208625,-0.0669625
1680015134360,1195122714989918,-0.0053625,-0.12595,-0.073975
1680015134362,1195122717492284,-0.002475,-0.133925,-0.078925
1680015134370,1195122719994515,-4.125E-4,-0.1419,-0.0859375
1680015134371,1195122722496668,0.0056375,-0.144925,-0.0919875
1680015134372,1195122724999053,0.0066,-0.1489125,-0.098037496
1680015134374,1195122727501601,0.0075625,-0.1508375,-0.1060125
1680015134376,1195122730003985,0.0105875,-0.1529,-0.113025
1680015134378,1195122732506139,0.01155,-0.15785,-0.120037496
1680015134381,1195122735008370,0.0166375,-0.15785,-0.12705
1680015134385,1195122737510754,0.0215875,-0.1648625,-0.13805
1680015134385,1195122740012971,0.0235125,-0.1678875,-0.144925
1680015134388,1195122742515433,0.0265375,-0.16885,-0.1519375
1680015134390,1195122745017817,0.031625,-0.1728375,-0.16005
1680015134392,1195122747520048,0.0345125,-0.18287499,-0.166925
1680015134394,1195122750022423,0.036575,-0.19085,-0.1739375
1680015134403,1195122752524884,0.0356125,-0.198825,-0.18205
1680015134404,1195122755027038,0.036575,-0.209825,-0.1879625
1680015134405,1195122757529269,0.0396,-0.2189,-0.1940125
1680015134407,1195122760031698,0.0375375,-0.23485,-0.1989625
1680015134408,1195122762534082,0.0356125,-0.2448875,-0.2019875
1680015134412,1195122765036236,0.0386375,-0.253825,-0.20295
1680015134414,1195122767538698,0.0386375,-0.26895,-0.201025
1680015134418,1195122770040923,0.0396,-0.2858625,-0.2019875
1680015134419,1195122772543308,0.0386375,-0.292875,-0.201025
1680015134420,1195122775045539,0.0405625,-0.303875,-0.199925
1680015134422,1195122777547923,0.042625,-0.3139125,-0.1970375
1680015134424,1195122780050154,0.04455,-0.319825,-0.1940125
1680015134428,1195122782552592,0.0455125,-0.3328875,-0.1909875
1680015134430,1195122785054976,0.0485375,-0.3389375,-0.1909875
1680015134436,1195122787557207,0.0545875,-0.341825,-0.187
1680015134437,1195122790059592,0.058575,-0.347875,-0.1860375
1680015134438,1195122792561802,0.058575,-0.3509,-0.1860375
1680015134440,1195122795063956,0.0595375,-0.3518625,-0.183975
1680015134442,1195122797566649,0.0625625,-0.35585,-0.179025
1680015134444,1195122800068879,0.063525,-0.352825,-0.1769625
1680015134453,1195122802571240,0.063525,-0.3509,-0.172975
1680015134455,1195122805073394,0.064625,-0.3509,-0.16995
1680015134456,1195122807575625,0.0675125,-0.3518625,-0.168025
1680015134457,1195122810078009,0.0686125,-0.3488375,-0.1610125
1680015134459,1195122812580471,0.063525,-0.347875,-0.15895
1680015134461,1195122815082717,0.063525,-0.34485,-0.1549625
1680015134462,1195122817585101,0.063525,-0.3438875,-0.14795
1680015134468,1195122820087332,0.063525,-0.3438875,-0.14093749
1680015134469,1195122822589717,0.0625625,-0.3408625,-0.1359875
1680015134470,1195122825091947,0.0606375,-0.3399,-0.1310375
1680015134473,1195122827594409,0.0606375,-0.3408625,-0.1219625
1680015134475,1195122830096794,0.0576125,-0.336875,-0.11605
1680015134478,1195122832599024,0.053625,-0.331925,-0.106975
1680015134480,1195122835101409,0.0515625,-0.3249125,-0.0999625
1680015134485,1195122837603654,0.0485375,-0.32587498,-0.09405
1680015134487,1195122840106038,0.0496375,-0.3179,-0.0889625
1680015134489,1195122842608269,0.0435875,-0.314875,-0.087037496
1680015134492,1195122845110654,0.0386375,-0.3108875,-0.078925
1680015134494,1195122847612903,0.0356125,-0.3029125,-0.0760375
1680015134496,1195122850115365,0.0295625,-0.2959,-0.0730125
1680015134502,1195122852617519,0.0286,-0.2849,-0.07205
1680015134503,1195122855119904,0.0246125,-0.27885,-0.067925
1680015134504,1195122857622360,0.020624999,-0.2699125,-0.0650375
1680015134505,1195122860124591,0.013612499,-0.259875,-0.061049998
1680015134508,1195122862626975,0.0066,-0.2519,-0.0589875
1680015134510,1195122865129206,0.003575,-0.2418625,-0.055
1680015134512,1195122867631591,0.0055,-0.2338875,-0.0540375
1680015134518,1195122870133794,-4.125E-4,-0.2228875,-0.051975
1680015134519,1195122872636255,-0.007425,-0.2149125,-0.0529375
1680015134522,1195122875138640,-0.013475,-0.20295,-0.0559625
1680015134525,1195122877640880,-0.0154,-0.1948375,-0.0559625
1680015134526,1195122880143033,-0.0193875,-0.1838375,-0.0529375
1680015134529,1195122882645418,-0.0204875,-0.1739375,-0.055
1680015134538,1195122885147649,-0.024475,-0.166925,-0.0540375
1680015134539,1195122887650341,-0.0303875,-0.1568875,-0.0529375
1680015134540,1195122890152514,-0.029424999,-0.1419,-0.051975
1680015134542,1195122892654745,-0.0364375,-0.132825,-0.0510125
1680015134543,1195122895157129,-0.0394625,-0.127875,-0.051975
1680015134543,1195122897659360,-0.0424875,-0.117837496,-0.051975
1680015134545,1195122900161745,-0.0444125,-0.1079375,-0.051975
1680015134552,1195122902664186,-0.0523875,-0.1018875,-0.0529375
1680015134552,1195122905166417,-0.056375,-0.095837496,-0.050049998
1680015134553,1195122907668802,-0.0633875,-0.0908875,-0.051975
1680015134555,1195122910171032,-0.062425,-0.0848375,-0.0540375
1680015134558,1195122912673427,-0.0614625,-0.08195,-0.0559625
1680015134562,1195122915175658,-0.0694375,-0.083875,-0.051975
1680015134564,1195122917678042,-0.0715,-0.0829125,-0.0559625
1680015134566,1195122920180273,-0.0743875,-0.083875,-0.05995
1680015134578,1195122922682677,-0.0743875,-0.08195,-0.061049998
1680015134579,1195122925185138,-0.0724625,-0.08085,-0.062975
1680015134581,1195122927687292,-0.0754875,-0.0848375,-0.069025
1680015134582,1195122930189523,-0.078375,-0.089925,-0.0730125
1680015134584,1195122932692033,-0.07645,-0.0969375,-0.0779625
1680015134586,1195122935194417,-0.0804375,-0.106837496,-0.0809875
1680015134587,1195122937696648,-0.082499996,-0.11495,-0.087037496
1680015134589,1195122940199033,-0.0834625,-0.12485,-0.091025
1680015134591,1195122942701253,-0.0834625,-0.1379125,-0.09405
1680015134592,1195122945203638,-0.0834625,-0.1508375,-0.0999625
1680015134596,1195122947706100,-0.08745,-0.1639,-0.10505
1680015134598,1195122950208330,-0.0884125,-0.1709125,-0.106975
1680015134600,1195122952710710,-0.090475,-0.1838375,-0.1079375
1680015134603,1195122955212941,-0.090475,-0.1969,-0.113025
1680015134604,1195122957715325,-0.08745,-0.20693749,-0.117975
1680015134610,1195122960217556,-0.08745,-0.2149125,-0.117975
1680015134612,1195122962720018,-0.08745,-0.2259125,-0.120037496
1680015134613,1195122965222422,-0.0864875,-0.23485,-0.117975
1680015134614,1195122967724576,-0.084425,-0.2448875,-0.1170125
1680015134615,1195122970226807,-0.0864875,-0.2479125,-0.1189375
1680015134619,1195122972729192,-0.089375,-0.253825,-0.122925
1680015134620,1195122975231422,-0.0884125,-0.2638625,-0.120037496
1680015134623,1195122977733888,-0.090475,-0.26785,-0.1170125
1680015134625,1195122980236272,-0.090475,-0.2668875,-0.1189375
1680015134628,1195122982738503,-0.089375,-0.275825,-0.120037496
1680015134630,1195122985240888,-0.089375,-0.2828375,-0.113025
1680015134632,1195122987743110,-0.08745,-0.2858625,-0.1109625
1680015134637,1195122990245494,-0.0853875,-0.2919125,-0.109037496
1680015134640,1195122992747956,-0.07645,-0.2949375,-0.10505
1680015134641,1195122995250187,-0.067375,-0.2938375,-0.102025
1680015134643,1195122997752566,-0.0584375,-0.2888875,-0.0999625
1680015134645,1195123000254797,-0.046475,-0.286825,-0.100925
1680015134649,1195123002757182,-0.0385,-0.2949375,-0.10505
1680015134651,1195123005259335,-0.029424999,-0.298925,-0.109037496
1680015134652,1195123007761797,-0.024475,-0.3059375,-0.11605
1680015134655,1195123010264004,-0.024475,-0.31185,-0.124025
1680015134658,1195123012766388,-0.0224125,-0.3188625,-0.128975
1680015134660,1195123015268619,-0.0224125,-0.330825,-0.135025
1680015134663,1195123017771004,-0.0165,-0.3408625,-0.1390125
1680015134665,1195123020273249,-0.0114124995,-0.342925,-0.144925
1680015134668,1195123022775710,-4.125E-4,-0.3518625,-0.1549625
1680015134670,1195123025278095,0.0125124995,-0.3619,-0.1640375
1680015134674,1195123027780326,0.025575,-0.3628625,-0.1659625
1680015134676,1195123030282701,0.0375375,-0.363825,-0.172975
1680015134679,1195123032784932,0.0495,-0.35694999,-0.176
1680015134680,1195123035287317,0.0576125,-0.352825,-0.18493749
1680015134683,1195123037789778,0.064625,-0.3499375,-0.19195
1680015134686,1195123040292009,0.069575,-0.34485,-0.1970375
1680015134688,1195123042794163,0.064625,-0.3389375,-0.201025
1680015134692,1195123045296624,0.0686125,-0.3298625,-0.20405
1680015134693,1195123047799009,0.0675125,-0.32395,-0.20295
1680015134695,1195123050301240,0.0655875,-0.3218875,-0.20295
1680015134698,1195123052803609,0.0675125,-0.31185,-0.199925
1680015134700,1195123055305840,0.0675125,-0.303875,-0.199925
1680015134702,1195123057808225,0.0655875,-0.30085,-0.1940125
1680015134705,1195123060310455,0.0655875,-0.2919125,-0.190025
1680015134709,1195123062812816,0.0655875,-0.2809125,-0.18493749
1680015134712,1195123065315047,0.0686125,-0.264825,-0.18095
1680015134714,1195123067817508,0.069575,-0.259875,-0.172975
1680015134715,1195123070319893,0.0715,-0.253825,-0.1689875
1680015134720,1195123072822119,0.0705375,-0.2479125,-0.166925
1680015134722,1195123075324503,0.0705375,-0.237875,-0.1640375
1680015134724,1195123077826734,0.0715,-0.22495,-0.155925
1680015134726,1195123080329119,0.0705375,-0.215875,-0.1519375
1680015134728,1195123082831580,0.069575,-0.2058375,-0.14905
1680015134731,1195123085333816,0.0715,-0.1948375,-0.1439625
1680015134733,1195123087836201,0.0686125,-0.18095,-0.139975
1680015134735,1195123090338355,0.0675125,-0.1758625,-0.13695
1680015134738,1195123092840585,0.0675125,-0.165825,-0.128975
1680015134740,1195123095342970,0.064625,-0.15895,-0.121
1680015134743,1195123097845499,0.0625625,-0.1489125,-0.1170125
1680015134745,1195123100347653,0.058575,-0.144925,-0.111925
1680015134750,1195123102850038,0.0545875,-0.1398375,-0.10395
1680015134752,1195123105352259,0.052525,-0.133925,-0.0999625
1680015134753,1195123107854643,0.04455,-0.1318625,-0.09295
1680015134755,1195123110356874,0.042625,-0.1309,-0.0840125
1680015134759,1195123112859336,0.0375375,-0.133925,-0.0749375
1680015134760,1195123115361720,0.0295625,-0.1318625,-0.0669625
1680015134763,1195123117863965,0.0265375,-0.1318625,-0.066
1680015134765,1195123120366350,0.0215875,-0.13585,-0.0589875
1680015134768,1195123122868580,0.013612499,-0.14093749,-0.04895
1680015134771,1195123125370965,0.009625,-0.1419,-0.0430375
1680015134773,1195123127873447,0.0055,-0.144925,-0.03795
1680015134775,1195123130375600,-4.125E-4,-0.1458875,-0.033
1680015134778,1195123132877831,-0.0044,-0.1529,-0.0290125
1680015134780,1195123135380216,-0.0055,-0.1538625,-0.02695
1680015134783,1195123137882447,-0.0083875,-0.1508375,-0.023924999
1680015134787,1195123140384831,-0.01045,-0.149875,-0.0229625
1680015134791,1195123142887293,-0.012375,-0.14685,-0.0229625
1680015134792,1195123145389524,-0.0144375,-0.1489125,-0.0210375
1680015134793,1195123147891898,-0.0193875,-0.1489125,-0.018975
1680015134796,1195123150394129,-0.0193875,-0.1508375,-0.0229625
1680015134801,1195123152896514,-0.02145,-0.1489125,-0.0210375
1680015134802,1195123155398744,-0.0264,-0.1519375,-0.0199375
1680015134803,1195123157901206,-0.0224125,-0.15895,-0.0229625
1680015134806,1195123160403601,-0.018424999,-0.160875,-0.0180125
1680015134809,1195123162905831,-0.0193875,-0.1568875,-0.01705
1680015134811,1195123165408216,-0.0165,-0.154825,-0.0180125
1680015134813,1195123167910370,-0.0165,-0.16293749,-0.012925
1680015134815,1195123170412850,-0.0174625,-0.1678875,-0.007975
1680015134819,1195123172915312,-0.0174625,-0.16995,-0.0039875
1680015134820,1195123175417543,-0.018424999,-0.166925,-0.003025
1680015134825,1195123177919697,-0.0204875,-0.1678875,-0.00495
1680015134826,1195123180422100,-0.0204875,-0.1678875,-0.001925
1680015134829,1195123182924331,-0.0204875,-0.1678875,-9.625E-4
1680015134832,1195123185426716,-0.0204875,-0.165825,-0.001925
1680015134833,1195123187929177,-0.0224125,-0.16885,9.625E-4
1680015134837,1195123190431393,-0.023375,-0.1639,0.0
1680015134839,1195123192933777,-0.018424999,-0.1648625,9.625E-4
1680015134840,1195123195436008,-0.018424999,-0.165825,9.625E-4
1680015134843,1195123197938393,-0.013475,-0.165825,9.625E-4
1680015134853,1195123200440624,-0.007425,-0.166925,-9.625E-4
1680015134865,1195123202943100,-0.0044,-0.1678875,-9.625E-4
1680015134866,1195123205445485,-0.001375,-0.16995,-0.001925
1680015134866,1195123207947716,0.0015125,-0.16995,-0.007975
1680015134866,1195123210450100,0.0045375,-0.1709125,-0.0100375
1680015134866,1195123212952331,0.008525,-0.16885,-0.01705
1680015134866,1195123215454485,0.01155,-0.166925,-0.0210375
1680015134866,1195123217956946,0.0155375,-0.166925,-0.023924999
1680015134866,1195123220459331,0.014575,-0.16293749,-0.02805
1680015134868,1195123222961793,0.0185625,-0.1618375,-0.034925
1680015134870,1195123225463951,0.0165,-0.1618375,-0.0400125
1680015134872,1195123227966182,0.0155375,-0.1538625,-0.0430375
1680015134875,1195123230468567,0.0165,-0.1529,-0.045925
1680015134879,1195123232971032,0.0185625,-0.1508375,-0.050049998
1680015134880,1195123235473263,0.014575,-0.1419,-0.051975
1680015134883,1195123237975648,0.0185625,-0.1398375,-0.0529375
1680015134885,1195123240477878,0.020624999,-0.1318625,-0.0479875
1680015134889,1195123242980263,0.020624999,-0.1199,-0.0479875
1680015134891,1195123245482494,0.0155375,-0.11385,-0.0510125
1680015134893,1195123247984955,0.020624999,-0.1079375,-0.0449625
1680015134895,1195123250487340,0.0215875,-0.1018875,-0.045925
1680015134900,1195123252989485,0.019524999,-0.0939125,-0.0419375
1680015134902,1195123255491946,0.020624999,-0.0908875,-0.0400125
1680015134903,1195123257994177,0.0185625,-0.0848375,-0.03795
1680015134905,1195123260496562,0.020624999,-0.0759,-0.0369875
1680015134908,1195123262998793,0.013612499,-0.067925,-0.0369875
1680015134910,1195123265501186,0.0185625,-0.067925,-0.0369875
1680015134913,1195123268003417,0.020624999,-0.0658625,-0.034925
1680015134915,1195123270505802,0.0165,-0.0539,-0.0320375
1680015134919,1195123273008032,0.0165,-0.04895,-0.0320375
1680015134922,1195123275510412,0.0185625,-0.0419375,-0.033
1680015134924,1195123278012874,0.0165,-0.03795,-0.0290125
1680015134926,1195123280515104,0.01155,-0.0358875,-0.0290125
1680015134929,1195123283017489,0.0125124995,-0.0279125,-0.02805
1680015134934,1195123285519677,0.013612499,-0.02695,-0.025024999
1680015134934,1195123288022061,0.0125124995,-0.023924999,-0.022
1680015134937,1195123290524215,0.009625,-0.0138875,-0.0229625
1680015134941,1195123293026677,0.01155,-0.0138875,-0.0199375
1680015134942,1195123295529138,0.01155,-0.01485,-0.018975
1680015134943,1195123298031350,0.0155375,-0.01595,-0.018975
1680015134945,1195123300533504,0.0165,-0.012925,-0.0149875
1680015134949,1195123303035889,0.020624999,-0.012925,-0.0089375
1680015134951,1195123305538119,0.020624999,-0.023924999,-0.00495
1680015134953,1195123308040513,0.0155375,-0.028875,-0.003025
1680015134960,1195123310542975,0.0125124995,-0.033825,0.0
1680015134962,1195123313045205,0.0155375,-0.0389125,0.00605
1680015134962,1195123315547590,0.0155375,-0.0408375,0.0100375
1680015134963,1195123318049836,0.01155,-0.0408375,0.013062499
1680015134966,1195123320552220,0.01155,-0.04895,0.018975
1680015134969,1195123323054451,0.013612499,-0.047849998,0.0240625
1680015134971,1195123325556913,0.014575,-0.045925,0.02695
1680015134974,1195123328059273,0.0155375,-0.04895,0.02805
1680015134976,1195123330561504,0.0165,-0.050875,0.0320375
1680015134980,1195123333063889,0.0215875,-0.04895,0.036025
1680015134981,1195123335566119,0.02255,-0.044825,0.0320375
1680015134983,1195123338068504,0.02255,-0.0438625,0.029975
1680015134985,1195123340570730,0.025575,-0.044825,0.039049998
1680015134990,1195123343073114,0.0265375,-0.0419375,0.0369875
1680015134991,1195123345575345,0.025575,-0.03795,0.036025
1680015134993,1195123348077730,0.0286,-0.0358875,0.0369875
1680015134996,1195123350579946,0.0275,-0.0328625,0.039049998
1680015134999,1195123353082330,0.0275,-0.0309375,0.040975
1680015135000,1195123355584792,0.0286,-0.0339625,0.03795
1680015135003,1195123358087023,0.0275,-0.0279125,0.0369875
1680015135006,1195123360589422,0.0265375,-0.02695,0.036025
1680015135010,1195123363091653,0.0265375,-0.02585,0.0369875
1680015135013,1195123365594038,0.0235125,-0.02585,0.033
1680015135015,1195123368096268,0.025575,-0.0199375,0.0339625
1680015135016,1195123370598715,0.0235125,-0.01485,0.033
1680015135020,1195123373101100,0.0265375,-0.0099,0.029975
1680015135021,1195123375603330,0.02255,-0.0108624995,0.031075
1680015135024,1195123378105484,0.0246125,-0.0108624995,0.031075
1680015135025,1195123380607869,0.025575,-0.001925,0.029975
1680015135029,1195123383110330,0.0235125,-0.001925,0.031075
1680015135032,1195123385612792,0.0235125,-9.625E-4,0.031075
1680015135033,1195123388114946,0.0246125,0.0031625,0.02805
1680015135036,1195123390617176,0.02255,0.0050875,0.0259875
1680015135040,1195123393119571,0.0204875,0.0121,0.022
1680015135041,1195123395621802,0.0204875,0.014162499,0.020075
1680015135043,1195123398124186,0.0204875,0.013062499,0.018975
1680015135045,1195123400626648,0.0204875,0.0191125,0.014025
1680015135050,1195123403128898,0.0215875,0.0270875,0.011
1680015135053,1195123405631052,0.0215875,0.0270875,0.0070125
1680015135055,1195123408133436,0.0204875,0.0270875,0.0039875
1680015135058,1195123410635898,0.0215875,0.02805,-0.001925
1680015135060,1195123413138124,0.0246125,0.0301125,-0.00495
1680015135061,1195123415640508,0.02255,0.0350625,-0.0089375
1680015135063,1195123418142739,0.0235125,0.037125,-0.01595
1680015135065,1195123420645124,0.0215875,0.0341,-0.018975
1680015135069,1195123423147359,0.0204875,0.031075,-0.0210375
1680015135071,1195123425649821,0.0215875,0.02805,-0.0229625
1680015135074,1195123428152206,0.0204875,0.0231,-0.02695
1680015135076,1195123430654436,0.0215875,0.0191125,-0.0259875
1680015135079,1195123433156792,0.0204875,0.01705,-0.0259875
1680015135081,1195123435659023,0.0215875,0.0100375,-0.02805
1680015135083,1195123438161407,0.0204875,0.0020625,-0.02805
1680015135089,1195123440663869,0.0215875,-0.0028875,-0.0290125
1680015135091,1195123443166100,0.0215875,-0.0108624995,-0.0290125
1680015135093,1195123445668254,0.0215875,-0.01595,-0.02695
1680015135094,1195123448170638,0.0235125,-0.0248875,-0.025024999
1680015135096,1195123450672869,0.0235125,-0.034925,-0.0290125
1680015135100,1195123453175297,0.02255,-0.0438625,-0.0259875
1680015135101,1195123455677758,0.0235125,-0.0518375,-0.023924999
1680015135103,1195123458179989,0.02255,-0.0578875,-0.0259875
1680015135105,1195123460682373,0.0204875,-0.0688875,-0.02805
1680015135109,1195123463184604,0.02255,-0.0768625,-0.025024999
1680015135111,1195123465686994,0.0204875,-0.0848375,-0.0229625
1680015135113,1195123468189225,0.02255,-0.09295,-0.0199375
1680015135115,1195123470691686,0.0235125,-0.095837496,-0.0180125
1680015135119,1195123473194071,0.0265375,-0.100925,-0.01595
1680015135121,1195123475696297,0.0246125,-0.1079375,-0.01705
1680015135125,1195123478198681,0.0235125,-0.1079375,-0.0119624995
1680015135127,1195123480700912,0.0246125,-0.1159125,-0.0119624995
1680015135129,1195123483203066,0.0246125,-0.117837496,-0.0119624995
1680015135132,1195123485705547,0.025575,-0.1238875,-0.0089375
1680015135133,1195123488207932,0.0275,-0.1299375,-0.011
1680015135135,1195123490710394,0.0286,-0.1269125,-0.01705
1680015135138,1195123493212547,0.0286,-0.1318625,-0.01595
1680015135140,1195123495714778,0.030524999,-0.13695,-0.01595
1680015135143,1195123498217187,0.030524999,-0.14093749,-0.0180125
1680015135146,1195123500719648,0.0295625,-0.1439625,-0.018975
1680015135149,1195123503221879,0.0295625,-0.149875,-0.0199375
1680015135151,1195123505724264,0.030524999,-0.1639,-0.0210375
1680015135153,1195123508226504,0.030524999,-0.1709125,-0.023924999
1680015135157,1195123510728888,0.0314875,-0.1769625,-0.02695
1680015135159,1195123513231119,0.0345125,-0.18095,-0.029975
1680015135162,1195123515733580,0.0345125,-0.1868625,-0.0320375
1680015135164,1195123518235970,0.0345125,-0.19195,-0.0339625
1680015135166,1195123520738124,0.0375375,-0.1929125,-0.0339625
1680015135169,1195123523240355,0.0385,-0.2058375,-0.039049998
1680015135175,1195123525742816,0.0405625,-0.210925,-0.040975
1680015135175,1195123528245187,0.0385,-0.2168375,-0.0419375
1680015135176,1195123530747418,0.0424875,-0.22385,-0.0479875
1680015135179,1195123533249802,0.0466125,-0.2278375,-0.0479875
1680015135181,1195123535752033,0.0455125,-0.23595,-0.0479875
1680015135183,1195123538254418,0.0485375,-0.23595,-0.045925
1680015135186,1195123540756662,0.0495,-0.2429625,-0.0449625
1680015135189,1195123543259047,0.0534875,-0.24887499,-0.0419375
1680015135191,1195123545761509,0.058575,-0.2528625,-0.0419375
1680015135193,1195123548263739,0.058575,-0.2519,-0.0339625
1680015135196,1195123550766124,0.0644875,-0.2519,-0.0369875
1680015135200,1195123553268355,0.0616,-0.2619375,-0.039049998
1680015135202,1195123555770739,0.0616,-0.2608375,-0.0400125
1680015135204,1195123558272970,0.0655875,-0.2589125,-0.03795
1680015135206,1195123560775350,0.0705375,-0.25795,-0.03795
1680015135208,1195123563277811,0.0735625,-0.25795,-0.0369875
1680015135212,1195123565780042,0.07755,-0.2539625,-0.039049998
1680015135214,1195123568282196,0.0845625,-0.2479125,-0.03795
1680015135218,1195123570784581,0.08855,-0.2448875,-0.0369875
1680015135219,1195123573286797,0.0955625,-0.2409,-0.040975
1680015135220,1195123575789259,0.1056,-0.2259125,-0.03795
1680015135224,1195123578291644,0.11055,-0.2168375,-0.03795
1680015135226,1195123580793874,0.12155,-0.2079,-0.040975
1680015135228,1195123583296279,0.1255375,-0.1969,-0.0430375
1680015135230,1195123585798510,0.129525,-0.1859,-0.050049998
1680015135233,1195123588300894,0.13255,-0.1819125,-0.051975
1680015135237,1195123590803356,0.135575,-0.1769625,-0.0559625
1680015135240,1195123593305592,0.1395625,-0.1648625,-0.058025
1680015135242,1195123595807976,0.1425875,-0.160875,-0.0589875
1680015135243,1195123598310130,0.1456125,-0.1538625,-0.0620125
1680015135245,1195123600812592,0.1485,-0.1508375,-0.0620125
1680015135248,1195123603314821,0.1505625,-0.14795,-0.0620125
1680015135252,1195123605817283,0.157575,-0.13695,-0.05995
1680015135253,1195123608319437,0.1606,-0.1318625,-0.0589875
1680015135255,1195123610821821,0.1645875,-0.1208625,-0.0589875
1680015135259,1195123613324057,0.168575,-0.117837496,-0.0589875
1680015135260,1195123615826442,0.1725625,-0.116875,-0.05995
1680015135263,1195123618328673,0.1744875,-0.1079375,-0.05995
1680015135266,1195123620831134,0.1786125,-0.106837496,-0.0620125
1680015135269,1195123623333500,0.1835625,-0.1049125,-0.062975
1680015135271,1195123625835731,0.184525,-0.0999625,-0.061049998
1680015135275,1195123628338115,0.1854875,-0.106837496,-0.0650375
1680015135277,1195123630840346,0.1896125,-0.1049125,-0.066
1680015135279,1195123633342741,0.190575,-0.100925,-0.0669625
1680015135281,1195123635845202,0.1896125,-0.100925,-0.069025
1680015135283,1195123638347433,0.18755,-0.100925,-0.0699875
1680015135285,1195123640849818,0.190575,-0.10285,-0.07095
1680015135289,1195123643352048,0.1885125,-0.1049125,-0.0730125
1680015135292,1195123645854168,0.18755,-0.1128875,-0.073975
1680015135294,1195123648356553,0.1865875,-0.1159125,-0.07205
1680015135295,1195123650859014,0.1865875,-0.1159125,-0.07205
1680015135299,1195123653361476,0.1854875,-0.116875,-0.0730125
1680015135300,1195123655863616,0.1835625,-0.1219625,-0.07095
1680015135303,1195123658365846,0.184525,-0.1269125,-0.07095
1680015135305,1195123660868231,0.1835625,-0.1329625,-0.0730125
1680015135309,1195123663370462,0.179575,-0.14093749,-0.07095
1680015135312,1195123665872903,0.1755875,-0.1458875,-0.07095
1680015135314,1195123668375288,0.1775125,-0.1508375,-0.073975
1680015135316,1195123670877519,0.1786125,-0.1508375,-0.0730125
1680015135319,1195123673379903,0.1775125,-0.1549625,-0.07205
1680015135321,1195123675882134,0.1725625,-0.1618375,-0.0699875
1680015135323,1195123678384505,0.1705,-0.1659625,-0.069025
1680015135326,1195123680886966,0.173525,-0.1769625,-0.062975
1680015135329,1195123683389120,0.168575,-0.18287499,-0.0620125
1680015135331,1195123685891351,0.1615625,-0.1959375,-0.062975
1680015135333,1195123688393818,0.162525,-0.199925,-0.058025
1680015135336,1195123690896202,0.1566125,-0.2118875,-0.0559625
1680015135339,1195123693398356,0.1505625,-0.2168375,-0.0559625
1680015135340,1195123695900818,0.151525,-0.2209625,-0.055
1680015135344,1195123698403057,0.146575,-0.22495,-0.0540375
1680015135346,1195123700905442,0.1414875,-0.22687499,-0.056925
1680015135352,1195123703407673,0.140525,-0.2299,-0.0620125
1680015135353,1195123705910057,0.1375,-0.2338875,-0.061049998
1680015135355,1195123708412284,0.1315875,-0.2409,-0.0620125
1680015135356,1195123710914746,0.1304875,-0.237875,-0.0620125
1680015135359,1195123713417130,0.1276,-0.232925,-0.066
1680015135361,1195123715919361,0.124575,-0.232925,-0.0669625
1680015135364,1195123718421746,0.1225125,-0.23485,-0.069025
1680015135366,1195123720923990,0.124575,-0.2308625,-0.0699875
1680015135369,1195123723426144,0.1205875,-0.2308625,-0.0730125
1680015135371,1195123725928837,0.118525,-0.2228875,-0.073975
1680015135373,1195123728431067,0.1194875,-0.2198625,-0.07205
1680015135376,1195123730933226,0.1155,-0.2149125,-0.0760375
1680015135379,1195123733435611,0.118525,-0.2118875,-0.077
1680015135381,1195123735937842,0.1155,-0.2099625,-0.0760375
1680015135383,1195123738440226,0.1145375,-0.2099625,-0.077
1680015135387,1195123740942669,0.1126125,-0.2058375,-0.0779625
1680015135392,1195123743444900,0.1126125,-0.2039125,-0.078925
1680015135395,1195123745947284,0.1115125,-0.2039125,-0.0779625
1680015135395,1195123748449515,0.11055,-0.20185,-0.08305
1680015135397,1195123750951900,0.1065625,-0.2058375,-0.08195
1680015135399,1195123753454130,0.11055,-0.2039125,-0.08305
1680015135401,1195123755956592,0.113575,-0.20693749,-0.08305
1680015135403,1195123758458977,0.1126125,-0.2058375,-0.08305
1680015135406,1195123760961130,0.1115125,-0.2039125,-0.0840125
1680015135409,1195123763463587,0.107525,-0.2058375,-0.087037496
1680015135412,1195123765965818,0.1065625,-0.2058375,-0.0889625
1680015135413,1195123768468202,0.1056,-0.2079,-0.0889625
1680015135416,1195123770970433,0.1035375,-0.2058375,-0.089925
1680015135419,1195123773472818,0.0985875,-0.1969,-0.09405
1680015135420,1195123775975049,0.0935,-0.19195,-0.09295
1680015135425,1195123778477433,0.0935,-0.19085,-0.089925
1680015135426,1195123780979664,0.08855,-0.17985,-0.084975
1680015135429,1195123783482049,0.0864875,-0.1728375,-0.078925
1680015135431,1195123785984510,0.0796125,-0.1659625,-0.0760375
1680015135433,1195123788486741,0.0765875,-0.15785,-0.0760375
1680015135436,1195123790989126,0.074525,-0.1489125,-0.07205
1680015135439,1195123793491356,0.07755,-0.1379125,-0.0699875
1680015135441,1195123795993750,0.069575,-0.1288375,-0.069025
1680015135443,1195123798495904,0.069575,-0.1189375,-0.0699875
1680015135447,1195123800998442,0.0675125,-0.111925,-0.0699875
1680015135450,1195123803500818,0.0625625,-0.1079375,-0.066
1680015135452,1195123806003049,0.0605,-0.10285,-0.0650375
1680015135454,1195123808505202,0.0595375,-0.09295,-0.0589875
1680015135456,1195123811007587,0.058575,-0.0878625,-0.058025
1680015135459,1195123813509818,0.05555,-0.08195,-0.058025
1680015135463,1195123816012308,0.052525,-0.0768625,-0.0540375
1680015135464,1195123818514693,0.0495,-0.06985,-0.0540375
1680015135467,1195123821016924,0.0485375,-0.0669625,-0.0529375
1680015135469,1195123823519308,0.0485375,-0.064899996,-0.050049998
1680015135473,1195123826021539,0.047575,-0.0609125,-0.0479875
1680015135479,1195123828523904,0.0455125,-0.0529375,-0.0449625
1680015135479,1195123831026365,0.0455125,-0.047849998,-0.0430375
1680015135480,1195123833528596,0.04455,-0.0429,-0.040975
1680015135480,1195123836030981,0.0424875,-0.0389125,-0.039049998
1680015135484,1195123838533212,0.041525,-0.036849998,-0.0369875
1680015135486,1195123841035596,0.041525,-0.036849998,-0.034925
1680015135489,1195123843537827,0.041525,-0.0358875,-0.0290125
1680015135492,1195123846040212,0.0405625,-0.03795,-0.02805
1680015135493,1195123848542433,0.042625,-0.034925,-0.025024999
1680015135495,1195123851044818,0.041525,-0.033825,-0.023924999
1680015135500,1195123853547049,0.0396,-0.0358875,-0.0229625
1680015135502,1195123856049433,0.036575,-0.036849998,-0.0199375
1680015135504,1195123858551659,0.0385,-0.0328625,-0.01705
1680015135507,1195123861054121,0.0396,-0.0319,-0.012925
1680015135508,1195123863556505,0.0385,-0.0328625,-0.0089375
1680015135510,1195123866058736,0.0405625,-0.03795,-0.00605
1680015135513,1195123868561121,0.0396,-0.0389125,-0.001925
1680015135516,1195123871063346,0.0356125,-0.0408375,0.0
1680015135521,1195123873565731,0.036575,-0.0408375,9.625E-4
1680015135522,1195123876068193,0.0356125,-0.044825,-0.001925
1680015135524,1195123878570423,0.031625,-0.04895,0.0
1680015135526,1195123881072822,0.0265375,-0.0518375,0.0020625
1680015135530,1195123883574976,0.0235125,-0.0539,-9.625E-4
1680015135531,1195123886077207,0.0215875,-0.056925,9.625E-4
1680015135533,1195123888579591,0.0155375,-0.0578875,9.625E-4
1680015135537,1195123891082063,0.013612499,-0.05995,0.003025
1680015135541,1195123893584294,0.0105875,-0.05995,0.0039875
1680015135542,1195123896086678,0.008525,-0.0628375,0.00495
1680015135544,1195123898588909,0.0055,-0.066825,0.0070125
1680015135546,1195123901091294,0.0026125,-0.0628375,0.009075
1680015135549,1195123903593538,0.0015125,-0.064899996,0.009075
1680015135554,1195123906096000,0.0026125,-0.067925,0.011
1680015135556,1195123908598385,-4.125E-4,-0.0688875,0.014025
1680015135558,1195123911100615,-0.0044,-0.07095,0.0149875
1680015135560,1195123913603029,-0.002475,-0.0749375,0.013062499
1680015135561,1195123916105260,-0.0055,-0.0719125,0.01595
1680015135564,1195123918607644,-0.0064625,-0.06985,0.01705
1680015135566,1195123921110106,-0.0034375,-0.0688875,0.01595
1680015135569,1195123923612255,-0.002475,-0.064899996,0.014025
1680015135575,1195123926114716,-0.0055,-0.066825,0.0119624995
1680015135576,1195123928616947,-0.0055,-0.064899996,0.013062499
1680015135577,1195123931119101,-0.0034375,-0.058849998,0.013062499
1680015135580,1195123933621477,-0.0055,-0.05995,0.0100375
1680015135581,1195123936123707,-0.0044,-0.058849998,0.0100375
1680015135583,1195123938626169,-0.0055,-0.05995,0.009075
1680015135588,1195123941128553,-0.007425,-0.0578875,0.011
1680015135591,1195123943630784,-0.0083875,-0.0539,0.009075
1680015135592,1195123946133196,-0.007425,-0.056925,0.00605
1680015135593,1195123948635427,-0.0064625,-0.0529375,0.007975
1680015135596,1195123951137811,-0.0064625,-0.04895,0.0070125
1680015135599,1195123953640273,-0.0094875,-0.04895,9.625E-4
1680015135601,1195123956142500,-0.013475,-0.0438625,0.0
1680015135604,1195123958644884,-0.0144375,-0.0419375,-0.003025
1680015135606,1195123961147038,-0.0154,-0.0429,-0.003025
1680015135609,1195123963649500,-0.02145,-0.0389125,-0.003025
1680015135613,1195123966151725,-0.0204875,-0.0408375,-0.00495
1680015135614,1195123968654187,-0.0204875,-0.0429,-0.0070125
1680015135616,1195123971156341,-0.024475,-0.0328625,-0.007975
1680015135619,1195123973658725,-0.023375,-0.03795,-0.007975
1680015135621,1195123976160956,-0.024475,-0.036849998,-0.0070125
1680015135624,1195123978663355,-0.0275,-0.033825,-0.0100375
1680015135626,1195123981165586,-0.0284625,-0.0358875,-0.011
1680015135629,1195123983668047,-0.0254375,-0.0429,-0.0149875
1680015135631,1195123986170432,-0.0284625,-0.0438625,-0.0199375
1680015135633,1195123988672663,-0.024475,-0.047849998,-0.0229625
1680015135636,1195123991175033,-0.0264,-0.050875,-0.023924999
1680015135640,1195123993677264,-0.0264,-0.050875,-0.0259875
1680015135641,1195123996179649,-0.0264,-0.056925,-0.0320375
1680015135644,1195123998681893,-0.0254375,-0.0548625,-0.033
1680015135646,1195124001184278,-0.0224125,-0.050875,-0.03795
1680015135650,1195124003686739,-0.024475,-0.0548625,-0.0400125
1680015135653,1195124006188970,-0.024475,-0.05995,-0.0419375
1680015135655,1195124008691138,-0.0254375,-0.064899996,-0.0419375
1680015135657,1195124011193523,-0.0275,-0.0749375,-0.044
1680015135660,1195124013695984,-0.0204875,-0.077825,-0.0449625
1680015135661,1195124016198215,-0.0193875,-0.08195,-0.0479875
1680015135664,1195124018700600,-0.02145,-0.086899996,-0.0510125
1680015135666,1195124021202864,-0.0174625,-0.09295,-0.0529375
1680015135669,1195124023705249,-0.0165,-0.0979,-0.055
1680015135672,1195124026207480,-0.0165,-0.0979,-0.0540375
1680015135674,1195124028709941,-0.0144375,-0.1018875,-0.055
1680015135676,1195124031212264,-0.012375,-0.106837496,-0.058025
1680015135679,1195124033714495,-0.01045,-0.099825,-0.058025
1680015135681,1195124036216879,-0.0114124995,-0.099825,-0.061049998
1680015135683,1195124038719110,-0.0094875,-0.099825,-0.05995
1680015135688,1195124041221499,-0.0114124995,-0.0969375,-0.0650375
1680015135693,1195124043723960,-0.0114124995,-0.1018875,-0.0620125
1680015135696,1195124046226114,-0.01045,-0.1018875,-0.058025
1680015135696,1195124048728345,-0.0094875,-0.1049125,-0.05995
1680015135697,1195124051230730,-0.0083875,-0.1098625,-0.056925
1680015135700,1195124053733173,-0.0083875,-0.10395,-0.056925
1680015135702,1195124056235404,-0.0083875,-0.10395,-0.058025
1680015135703,1195124058737789,-0.0083875,-0.1049125,-0.0589875
1680015135707,1195124061240019,-0.0064625,-0.1079375,-0.0589875
1680015135709,1195124063742409,-0.0083875,-0.108899996,-0.0589875
1680015135711,1195124066244640,-0.0094875,-0.1159125,-0.062975
1680015135713,1195124068747101,-0.0114124995,-0.1128875,-0.062975
1680015135716,1195124071249486,-0.0094875,-0.1159125,-0.0620125
1680015135720,1195124073751688,-0.0114124995,-0.116875,-0.066
1680015135724,1195124076254072,-0.01045,-0.1128875,-0.067925
1680015135726,1195124078756303,-0.01045,-0.1128875,-0.07095
1680015135730,1195124081258457,-0.0114124995,-0.111925,-0.07095
1680015135731,1195124083760903,-0.0094875,-0.1079375,-0.07095
1680015135734,1195124086263288,-0.0055,-0.108899996,-0.0730125
1680015135735,1195124088765519,-0.0064625,-0.1128875,-0.0699875
1680015135737,1195124091267903,-0.0044,-0.117837496,-0.0730125
1680015135740,1195124093770134,-0.0034375,-0.1208625,-0.07205
1680015135742,1195124096272524,-4.125E-4,-0.1208625,-0.0749375
1680015135743,1195124098774985,0.0015125,-0.1238875,-0.0730125
1680015135746,1195124101277216,-4.125E-4,-0.1309,-0.073975
1680015135749,1195124103779601,0.0045375,-0.1398375,-0.0760375
1680015135751,1195124106281832,0.0045375,-0.144925,-0.0749375
1680015135754,1195124108783976,0.0045375,-0.1458875,-0.069025
1680015135757,1195124111286438,0.003575,-0.1489125,-0.0650375
1680015135759,1195124113788900,0.0066,-0.1489125,-0.0669625
1680015135764,1195124116291259,0.0075625,-0.149875,-0.067925
1680015135767,1195124118793413,0.0125124995,-0.149875,-0.0730125
1680015135768,1195124121295644,0.0165,-0.14795,-0.073975
1680015135770,1195124123798028,0.020624999,-0.1568875,-0.07205
1680015135772,1195124126300259,0.02255,-0.1538625,-0.067925
1680015135775,1195124128802721,0.0235125,-0.154825,-0.069025
1680015135777,1195124131305096,0.0235125,-0.1568875,-0.0620125
1680015135779,1195124133807327,0.025575,-0.1568875,-0.062975
1680015135781,1195124136309712,0.0235125,-0.1568875,-0.062975
1680015135784,1195124138811942,0.0246125,-0.1529,-0.0699875
1680015135788,1195124141314308,0.0246125,-0.1519375,-0.0730125
1680015135789,1195124143816770,0.0235125,-0.15785,-0.0730125
1680015135791,1195124146319000,0.02255,-0.15895,-0.0779625
1680015135794,1195124148821154,0.020624999,-0.149875,-0.078925
1680015135798,1195124151323606,0.020624999,-0.149875,-0.077
1680015135803,1195124153825990,0.019524999,-0.1398375,-0.073975
1680015135803,1195124156328144,0.0165,-0.1299375,-0.07095
1680015135804,1195124158830606,0.014575,-0.12595,-0.069025
1680015135806,1195124161332837,0.013612499,-0.1238875,-0.0699875
1680015135809,1195124163835226,0.013612499,-0.117837496,-0.0669625
1680015135811,1195124166337457,0.0055,-0.11495,-0.069025
1680015135814,1195124168839842,0.0045375,-0.1098625,-0.07095
1680015135817,1195124171342072,0.0026125,-0.10395,-0.073975
1680015135819,1195124173844524,0.0026125,-0.1018875,-0.0760375
1680015135821,1195124176346909,-0.001375,-0.10395,-0.08195
1680015135823,1195124178849139,-0.002475,-0.10285,-0.0809875
1680015135826,1195124181351524,-0.002475,-0.10395,-0.0809875
1680015135828,1195124183853741,-4.125E-4,-0.1128875,-0.0809875
1680015135831,1195124186355895,-0.0034375,-0.1159125,-0.08195
1680015135833,1195124188858356,-0.0055,-0.1199,-0.0859375
1680015135838,1195124191360818,-0.0083875,-0.1309,-0.088
1680015135840,1195124193863202,-0.0114124995,-0.14093749,-0.09295
1680015135842,1195124196365356,-0.0144375,-0.1458875,-0.09405
1680015135844,1195124198867587,-0.0204875,-0.15895,-0.0950125
1680015135847,1195124201369972,-0.024475,-0.1739375,-0.099
1680015135848,1195124203872433,-0.032449998,-0.17985,-0.0999625
1680015135852,1195124206374740,-0.035475,-0.1969,-0.100925
1680015135854,1195124208877124,-0.0394625,-0.210925,-0.102025
1680015135858,1195124211379355,-0.046475,-0.2228875,-0.10395
1680015135859,1195124213881731,-0.056375,-0.231825,-0.10395
1680015135862,1195124216383962,-0.067375,-0.242825,-0.106975
1680015135864,1195124218886423,-0.0774125,-0.2498375,-0.109037496
1680015135868,1195124221388808,-0.0853875,-0.259875,-0.1109625
1680015135869,1195124223890962,-0.08745,-0.259875,-0.1079375
1680015135871,1195124226393432,-0.0935,-0.25795,-0.10395
1680015135876,1195124228895663,-0.0944625,-0.2558875,-0.100925
1680015135878,1195124231398048,-0.0944625,-0.25685,-0.098037496
1680015135880,1195124233900250,-0.0924,-0.25685,-0.0919875
1680015135882,1195124236402635,-0.08745,-0.2509375,-0.084975
1680015135885,1195124238904866,-0.08745,-0.2448875,-0.0840125
1680015135886,1195124241407250,-0.089375,-0.2369125,-0.0779625
1680015135891,1195124243909481,-0.0864875,-0.2299,-0.077
1680015135892,1195124246411894,-0.0834625,-0.2179375,-0.077
1680015135894,1195124248914355,-0.0853875,-0.209825,-0.0749375
1680015135897,1195124251416586,-0.090475,-0.198825,-0.073975
1680015135899,1195124253918971,-0.0924,-0.19195,-0.0699875
1680015135901,1195124256421217,-0.100375,-0.1868625,-0.0669625
1680015135904,1195124258923601,-0.101475,-0.18287499,-0.0620125
1680015135908,1195124261425755,-0.1034,-0.176825,-0.0589875
1680015135909,1195124263928217,-0.104499996,-0.1758625,-0.0540375
1680015135913,1195124266430461,-0.1054625,-0.16885,-0.04895
1680015135915,1195124268932923,-0.111375,-0.1648625,-0.0449625
1680015135917,1195124271435077,-0.1164625,-0.1599125,-0.0419375
1680015135920,1195124273937461,-0.1194875,-0.15785,-0.0400125
1680015135922,1195124276439692,-0.1214125,-0.1519375,-0.03795
1680015135924,1195124278942193,-0.1183875,-0.14795,-0.0320375
1680015135927,1195124281444577,-0.123475,-0.14795,-0.02805
1680015135929,1195124283946808,-0.1214125,-0.1428625,-0.02695
1680015135932,1195124286449193,-0.1183875,-0.1348875,-0.0199375
1680015135934,1195124288951423,-0.1214125,-0.1288375,-0.011
1680015135937,1195124291453803,-0.1254,-0.1189375,-0.003025
1680015135940,1195124293956265,-0.1254,-0.111925,0.007975
1680015135941,1195124296458495,-0.128425,-0.10395,0.01595
1680015135944,1195124298960889,-0.1293875,-0.0908875,0.0259875
1680015135947,1195124301463043,-0.1293875,-0.083875,0.039049998
1680015135952,1195124303965274,-0.133375,-0.0719125,0.0479875
1680015135953,1195124306467658,-0.134475,-0.0628375,0.0620125
1680015135954,1195124308970207,-0.1293875,-0.050875,0.0730125
1680015135958,1195124311472361,-0.134475,-0.0389125,0.0809875
1680015135960,1195124313974745,-0.1354375,-0.0309375,0.091025
1680015135961,1195124316476976,-0.134475,-0.017875,0.10395
1680015135964,1195124318979361,-0.133375,-0.0028875,0.124025
1680015135967,1195124321481601,-0.1354375,0.010175,0.135025
1680015135969,1195124323984063,-0.1304875,0.021175,0.14795
1680015135973,1195124326486448,-0.1304875,0.04015,0.1610125
1680015135974,1195124328988678,-0.1293875,0.0570625,0.17407499
1680015135976,1195124331491058,-0.1265,0.070125,0.187
1680015135979,1195124333993289,-0.1293875,0.0900625,0.1970375
1680015135981,1195124336495673,-0.1304875,0.1040875,0.2110625
1680015135983,1195124338997904,-0.124437496,0.119075,0.2239875
1680015135988,1195124341500308,-0.123475,0.1351625,0.2349875
1680015135991,1195124344002539,-0.122375,0.15015,0.2490125
1680015135993,1195124346505000,-0.12045,0.1651375,0.25905
1680015135995,1195124349007154,-0.1164625,0.186175,0.27005
1680015135997,1195124351509539,-0.1164625,0.202125,0.27995
1680015136000,1195124354012005,-0.1194875,0.2171125,0.2880625
1680015136001,1195124356514236,-0.122375,0.23815,0.297
1680015136004,1195124359016620,-0.124437496,0.252175,0.304975
1680015136007,1195124361518851,-0.124437496,0.2660625,0.3119875
1680015136009,1195124364021231,-0.128425,0.28105,0.31501248
1680015136012,1195124366523462,-0.134475,0.296175,0.322025
1680015136014,1195124369025923,-0.1354375,0.31405,0.328075
1680015136017,1195124371528308,-0.1354375,0.32615,0.33495
1680015136020,1195124374030534,-0.133375,0.33605,0.3400375
1680015136021,1195124376532687,-0.1324125,0.34705,0.3419625
1680015136026,1195124379035072,-0.1324125,0.356125,0.344025
1680015136027,1195124381537303,-0.1373625,0.356125,0.34595
1680015136030,1195124384039745,-0.139425,0.351175,0.348975
1680015136032,1195124386542130,-0.144375,0.3540625,0.3529625
1680015136034,1195124389044361,-0.1513875,0.3540625,0.352
1680015136036,1195124391546745,-0.156475,0.3531,0.348975
1680015136039,1195124394048976,-0.166375,0.3540625,0.344025
1680015136042,1195124396551370,-0.1654125,0.35805,0.344025
1680015136044,1195124399053831,-0.1694,0.3551625,0.339075
1680015136047,1195124401556062,-0.172425,0.3540625,0.3320625
1680015136050,1195124404058447,-0.1733875,0.3551625,0.3290375
1680015136052,1195124406560697,-0.1733875,0.34814999,0.32999998
1680015136054,1195124409063081,-0.1733875,0.340175,0.32505
1680015136059,1195124411565312,-0.17545,0.3320625,0.322025
1680015136060,1195124414067697,-0.1744875,0.3271125,0.3180375
1680015136063,1195124416569899,-0.1744875,0.31515,0.31405
1680015136065,1195124419072284,-0.1703625,0.3051125,0.31295
1680015136067,1195124421574515,-0.172425,0.29315,0.3089625
1680015136069,1195124424076899,-0.172425,0.28215,0.308
1680015136071,1195124426579130,-0.1714625,0.27005,0.304975
1680015136074,1195124429081596,-0.172425,0.2541,0.30195
1680015136077,1195124431583980,-0.177375,0.2391125,0.3009875
1680015136080,1195124434086211,-0.17847499,0.22605,0.295075
1680015136082,1195124436588596,-0.177375,0.20405,0.289025
1680015136084,1195124439090817,-0.1794375,0.19415,0.2850375
1680015136087,1195124441593202,-0.183425,0.17613749,0.2789875
1680015136091,1195124444095433,-0.183425,0.1571625,0.27307498
1680015136092,1195124446597894,-0.188375,0.1450625,0.2630375
1680015136094,1195124449100259,-0.1904375,0.13805,0.260975
1680015136099,1195124451602490,-0.1923625,0.120175,0.2550625
1680015136106,1195124454104644,-0.1923625,0.1101375,0.2490125
1680015136106,1195124456607028,-0.1964875,0.1010625,0.2459875
1680015136106,1195124459109524,-0.199375,0.0900625,0.245025
1680015136106,1195124461611755,-0.1964875,0.081125,0.2410375
1680015136109,1195124464114139,-0.2014375,0.070125,0.238975
1680015136111,1195124466616370,-0.2024,0.065175,0.23705
1680015136114,1195124469118765,-0.2044625,0.0551375,0.23595
1680015136116,1195124471620995,-0.2044625,0.0460625,0.2319625
1680015136120,1195124474123457,-0.2014375,0.0411125,0.231
1680015136122,1195124476625842,-0.20047499,0.037125,0.2300375
1680015136124,1195124479128086,-0.199375,0.02805,0.231
1680015136126,1195124481630240,-0.1964875,0.020075,0.2330625
1680015136130,1195124484132625,-0.1964875,0.0160875,0.2319625
1680015136131,1195124486635086,-0.194425,0.0111375,0.2330625
1680015136134,1195124489137548,-0.1953875,0.00715,0.2330625
1680015136138,1195124491639692,-0.194425,0.0050875,0.23595
1680015136140,1195124494141922,-0.1953875,0.0020625,0.2349875
1680015136142,1195124496644307,-0.1923625,0.0031625,0.23705
1680015136144,1195124499146538,-0.194425,0.004125,0.23705
1680015136146,1195124501648943,-0.199375,0.00715,0.2349875
1680015136149,1195124504151404,-0.20047499,0.00715,0.23595
1680015136151,1195124506653635,-0.20047499,0.010175,0.2319625
1680015136154,1195124509156019,-0.2024,0.014162499,0.231
1680015136157,1195124511658254,-0.2074875,0.013062499,0.2300375
1680015136159,1195124514160639,-0.2074875,0.015125,0.229075
1680015136161,1195124516662870,-0.20845,0.015125,0.22605
1680015136164,1195124519165331,-0.211475,0.0121,0.22495
1680015136167,1195124521667485,-0.2154625,0.013062499,0.2220625
1680015136170,1195124524169952,-0.216425,0.015125,0.2160125
1680015136172,1195124526672336,-0.2143625,0.0111375,0.2129875
1680015136175,1195124529174490,-0.2154625,0.010175,0.2129875
1680015136177,1195124531676721,-0.2173875,0.00715,0.2099625
1680015136180,1195124534179177,-0.2143625,0.0020625,0.2099625
1680015136181,1195124536681562,-0.2124375,-0.001925,0.2110625
1680015136184,1195124539183793,-0.210375,-0.006875,0.2080375
1680015136186,1195124541686177,-0.211475,-0.01485,0.20899999
1680015136191,1195124544188413,-0.2063875,-0.0218625,0.20899999
1680015136192,1195124546690798,-0.2014375,-0.02695,0.2080375
1680015136194,1195124549193259,-0.1984125,-0.0328625,0.207075
1680015136197,1195124551695490,-0.1964875,-0.033825,0.20295
1680015136199,1195124554197904,-0.1923625,-0.03795,0.198
1680015136201,1195124556700134,-0.189475,-0.045925,0.198
1680015136204,1195124559202288,-0.1854875,-0.045925,0.1940125
1680015136209,1195124561704673,-0.1824625,-0.0518375,0.1860375
1680015136211,1195124564207182,-0.1813625,-0.0529375,0.18095
1680015136215,1195124566709567,-0.1824625,-0.058849998,0.1769625
1680015136216,1195124569211721,-0.1794375,-0.056925,0.1720125
1680015136217,1195124571713952,-0.17847499,-0.058849998,0.168025
1680015136222,1195124574216307,-0.17847499,-0.061875,0.1640375
1680015136223,1195124576718538,-0.1794375,-0.05995,0.157025
1680015136224,1195124579220923,-0.1813625,-0.067925,0.152075
1680015136227,1195124581723384,-0.1824625,-0.0749375,0.146025
1680015136229,1195124584225615,-0.1843875,-0.077825,0.13805
1680015136233,1195124586728029,-0.1843875,-0.08085,0.135025
1680015136234,1195124589230259,-0.183425,-0.0848375,0.1359875
1680015136237,1195124591732644,-0.1824625,-0.0878625,0.130075
1680015136240,1195124594234875,-0.177375,-0.0908875,0.1280125
1680015136241,1195124596737259,-0.1714625,-0.0908875,0.124025
1680015136244,1195124599239476,-0.1694,-0.09185,0.1230625
1680015136247,1195124601741861,-0.167475,-0.09185,0.1230625
1680015136251,1195124604244322,-0.1694,-0.09185,0.119075
1680015136253,1195124606746476,-0.1684375,-0.095837496,0.11605
1680015136255,1195124609248687,-0.1684375,-0.095837496,0.11605
1680015136257,1195124611751149,-0.1703625,-0.09295,0.1120625
1680015136259,1195124614253533,-0.1733875,-0.086899996,0.1109625
1680015136261,1195124616755764,-0.1714625,-0.083875,0.108075
1680015136264,1195124619258149,-0.1733875,-0.0859375,0.1060125
1680015136267,1195124621760379,-0.1733875,-0.0829125,0.10395
1680015136269,1195124624262764,-0.1703625,-0.077825,0.1060125
1680015136272,1195124626765225,-0.1694,-0.0738375,0.106975
1680015136274,1195124629267456,-0.166375,-0.06985,0.10395
1680015136276,1195124631769821,-0.1604625,-0.064899996,0.1060125
1680015136279,1195124634271975,-0.1593625,-0.0628375,0.109037496
1680015136281,1195124636774206,-0.155375,-0.058849998,0.1120625
1680015136284,1195124639276590,-0.1513875,-0.04895,0.113025
1680015136290,1195124641779023,-0.1464375,-0.0438625,0.11495
1680015136292,1195124644281253,-0.1414875,-0.03795,0.119075
1680015136295,1195124646782446,-0.1384625,-0.0309375,0.120037496
1680015136295,1195124649283639,-0.1364,-0.023924999,0.124025
1680015136297,1195124651788253,-0.1304875,-0.01595,0.1249875
1680015136299,1195124654290446,-0.1293875,-0.0108624995,0.1280125
1680015136302,1195124656792908,-0.1254,-0.001925,0.128975
1680015136304,1195124659295292,-0.12045,0.00605,0.130075
1680015136306,1195124661797523,-0.1153625,0.01705,0.128975
1680015136309,1195124664299701,-0.111375,0.0221375,0.128975
1680015136311,1195124666802163,-0.117425,0.032175,0.12705
1680015136314,1195124669304547,-0.1164625,0.0471625,0.1230625
1680015136317,1195124671807009,-0.1153625,0.053075,0.121
1680015136319,1195124674309144,-0.1104125,0.06215,0.119075
1680015136321,1195124676811374,-0.1084875,0.070125,0.120037496
1680015136327,1195124679313759,-0.106425,0.076175,0.113025
1680015136329,1195124681815990,-0.1073875,0.078099996,0.1139875
1680015136331,1195124684318345,-0.101475,0.0820875,0.120037496
1680015136333,1195124686820807,-0.0963875,0.0881375,0.1230625
1680015136334,1195124689323038,-0.0924,0.087175,0.120037496
1680015136337,1195124691825422,-0.090475,0.08415,0.119075
1680015136341,1195124694327576,-0.08745,0.0820875,0.121
1680015136344,1195124696830038,-0.0834625,0.081125,0.1219625
1680015136346,1195124699332499,-0.079475,0.0801625,0.1249875
1680015136347,1195124701834653,-0.0754875,0.07205,0.1230625
1680015136349,1195124704336884,-0.0754875,0.0600875,0.1230625
1680015136352,1195124706839264,-0.0713625,0.0561,0.121
1680015136355,1195124709341494,-0.067375,0.054175,0.1219625
1680015136358,1195124711843956,-0.067375,0.0460625,0.1230625
1680015136360,1195124714346340,-0.0664125,0.0380875,0.1230625
1680015136364,1195124716848552,-0.0614625,0.0361625,0.124025
1680015136366,1195124719350937,-0.062425,0.0301125,0.124025
1680015136367,1195124721853168,-0.0664125,0.01815,0.124025
1680015136372,1195124724355552,-0.0633875,0.0111375,0.124025
1680015136374,1195124726858014,-0.062425,0.0020625,0.124025
1680015136375,1195124729360250,-0.062425,-0.0059125,0.124025
1680015136377,1195124731862403,-0.062425,-0.011825,0.12595
1680015136380,1195124734364788,-0.0614625,-0.0169125,0.12595
1680015136382,1195124736867019,-0.06545,-0.02585,0.12705
1680015136384,1195124739369422,-0.067375,-0.03795,0.12705
1680015136387,1195124741871884,-0.067375,-0.045925,0.1280125
1680015136390,1195124744374115,-0.0694375,-0.0529375,0.12595
1680015136391,1195124746876499,-0.073425,-0.0578875,0.1280125
1680015136394,1195124749378739,-0.0774125,-0.05995,0.130075
1680015136396,1195124751881124,-0.07645,-0.06985,0.130075
1680015136401,1195124754383355,-0.078375,-0.0738375,0.1310375
1680015136403,1195124756885816,-0.079475,-0.0759,0.13695
1680015136405,1195124759387961,-0.0774125,-0.08085,0.139975
1680015136407,1195124761890423,-0.078375,-0.0848375,0.13805
1680015136411,1195124764392807,-0.07645,-0.089925,0.1359875
1680015136412,1195124766895038,-0.078375,-0.094875,0.1359875
1680015136414,1195124769397192,-0.073425,-0.095837496,0.132
1680015136417,1195124771899658,-0.0754875,-0.095837496,0.12595
1680015136419,1195124774402043,-0.078375,-0.0988625,0.121
1680015136422,1195124776904274,-0.078375,-0.099825,0.1219625
1680015136424,1195124779406658,-0.079475,-0.095837496,0.12705
1680015136427,1195124781908884,-0.0804375,-0.086899996,0.1280125
1680015136430,1195124784411269,-0.0823625,-0.0829125,0.1219625
1680015136432,1195124786913730,-0.0823625,-0.0768625,0.120037496
1680015136434,1195124789415961,-0.0804375,-0.066825,0.1109625
1680015136438,1195124791918360,-0.0823625,-0.06985,0.109037496
1680015136442,1195124794420590,-0.0834625,-0.06985,0.108075
1680015136443,1195124796922744,-0.0853875,-0.067925,0.10395
1680015136445,1195124799425129,-0.0853875,-0.066825,0.102025
1680015136447,1195124801927667,-0.084425,-0.0628375,0.095975
1680015136450,1195124804430042,-0.0884125,-0.058849998,0.09295
1680015136452,1195124806932196,-0.0864875,-0.0539,0.0900625
1680015136454,1195124809434427,-0.0884125,-0.0518375,0.087037496
1680015136457,1195124811936811,-0.095425,-0.0438625,0.0900625
1680015136459,1195124814439042,-0.0944625,-0.0389125,0.09295
1680015136462,1195124816941509,-0.0944625,-0.033825,0.097075
1680015136464,1195124819443893,-0.09845,-0.028875,0.10395
1680015136467,1195124821946124,-0.09845,-0.0209,0.108075
1680015136469,1195124824448509,-0.101475,-0.01595,0.1120625
1680015136472,1195124826950778,-0.1054625,-0.0099,0.1120625
1680015136476,1195124829453163,-0.1034,1.375E-4,0.11605
1680015136479,1195124831955625,-0.100375,0.010175,0.121
1680015136481,1195124834457855,-0.100375,0.0160875,0.1219625
1680015136483,1195124836960220,-0.09845,0.0221375,0.1219625
1680015136484,1195124839462451,-0.095425,0.02915,0.120037496
1680015136487,1195124841964835,-0.095425,0.037125,0.120037496
1680015136491,1195124844467066,-0.091437496,0.048125,0.121
1680015136494,1195124846969451,-0.089375,0.054175,0.1170125
1680015136495,1195124849471681,-0.0884125,0.061049998,0.11605
1680015136497,1195124851974066,-0.095425,0.0661375,0.11495
1680015136500,1195124854476297,-0.0935,0.0710875,0.113025
1680015136502,1195124856978682,-0.090475,0.0801625,0.113025
1680015136504,1195124859480941,-0.0924,0.08415,0.1109625
1680015136508,1195124861983403,-0.091437496,0.087175,0.1109625
1680015136510,1195124864485787,-0.091437496,0.0930875,0.11
1680015136514,1195124866988018,-0.090475,0.1010625,0.109037496
1680015136516,1195124869490369,-0.091437496,0.1040875,0.109037496
1680015136518,1195124871992600,-0.090475,0.1111,0.11
1680015136521,1195124874494753,-0.0864875,0.1181125,0.109037496
1680015136524,1195124876997215,-0.089375,0.120175,0.109037496
1680015136527,1195124879499663,-0.0944625,0.12705,0.11
1680015136528,1195124882002047,-0.09845,0.13213749,0.109037496
1680015136531,1195124884504201,-0.0963875,0.1340625,0.106975
1680015136534,1195124887006432,-0.101475,0.1370875,0.1060125
1680015136537,1195124889508816,-0.0963875,0.1431375,0.1060125
1680015136542,1195124892011278,-0.0944625,0.1441,0.106975
1680015136544,1195124894513509,-0.0944625,0.1431375,0.106975
1680015136545,1195124897015893,-0.0924,0.1431375,0.10395
1680015136546,1195124899518124,-0.084425,0.1441,0.099
1680015136548,1195124902020523,-0.07645,0.1450625,0.099
1680015136552,1195124904522754,-0.073425,0.1450625,0.098037496
1680015136555,1195124907025215,-0.0704,0.1401125,0.097075
1680015136557,1195124909527600,-0.0633875,0.13805,0.097075
1680015136558,1195124912029745,-0.057475,0.1401125,0.09405
1680015136560,1195124914532206,-0.0534875,0.1340625,0.0919875
1680015136562,1195124917034437,-0.0523875,0.130075,0.0900625
1680015136564,1195124919536821,-0.0474375,0.1211375,0.087037496
1680015136567,1195124922039052,-0.0413875,0.1181125,0.080025
1680015136572,1195124924541451,-0.0385,0.1131625,0.0790625
1680015136574,1195124927043682,-0.0374,0.10505,0.0790625
1680015136576,1195124929546066,-0.034375,0.0961125,0.073975
1680015136578,1195124932048292,-0.0303875,0.0961125,0.07095
1680015136580,1195124934550677,-0.024475,0.0881375,0.0730125
1680015136582,1195124937053138,-0.023375,0.078099996,0.07095
1680015136585,1195124939555369,-0.0224125,0.07205,0.0650375
1680015136589,1195124942057759,-0.024475,0.06215,0.0620125
1680015136591,1195124944559989,-0.0275,0.053075,0.062975
1680015136593,1195124947062374,-0.0264,0.048125,0.058025
1680015136595,1195124949564605,-0.02145,0.0471625,0.051975
1680015136597,1195124952066989,-0.0204875,0.0380875,0.051975
1680015136600,1195124954569466,-0.023375,0.0251625,0.050049998
1680015136603,1195124957071697,-0.018424999,0.01705,0.04895
1680015136607,1195124959573851,-0.0174625,0.013062499,0.0479875
1680015136608,1195124962076235,-0.0193875,-8.25E-4,0.044
1680015136610,1195124964578452,-0.0174625,-0.006875,0.0430375
1680015136612,1195124967080914,-0.0174625,-0.0089375,0.042075
1680015136614,1195124969583298,-0.0154,-0.0169125,0.0400125
1680015136617,1195124972085529,-0.0165,-0.02695,0.03795
1680015136620,1195124974587914,-0.012375,-0.0309375,0.0369875
1680015136624,1195124977090139,-0.012375,-0.034925,0.036025
1680015136626,1195124979592524,-0.0114124995,-0.0419375,0.0339625
1680015136629,1195124982094985,-0.0064625,-0.0419375,0.029975
1680015136631,1195124984597216,-0.0064625,-0.045925,0.033
1680015136633,1195124987099601,-0.0034375,-0.045925,0.033
1680015136634,1195124989601755,-0.002475,-0.050875,0.0320375
1680015136638,1195124992103986,-0.002475,-0.0518375,0.029975
1680015136641,1195124994606370,0.0026125,-0.0518375,0.033
1680015136642,1195124997108909,0.0055,-0.0529375,0.033
1680015136644,1195124999611043,0.0066,-0.0548625,0.0339625
1680015136647,1195125002113428,0.0066,-0.0518375,0.036025
1680015136650,1195125004615659,0.0066,-0.056925,0.0369875
1680015136652,1195125007118043,0.008525,-0.0539,0.039049998
1680015136654,1195125009620264,0.009625,-0.0539,0.040975
1680015136658,1195125012122726,0.008525,-0.0468875,0.0400125
1680015136661,1195125014625110,0.0075625,-0.0419375,0.0369875
1680015136663,1195125017127341,0.009625,-0.0438625,0.039049998
1680015136665,1195125019629726,0.008525,-0.036849998,0.0369875
1680015136667,1195125022131957,0.0055,-0.0309375,0.0369875
1680015136670,1195125024634341,0.0055,-0.0279125,0.031075
1680015136672,1195125027136572,-4.125E-4,-0.0218625,0.02805
1680015136674,1195125029638957,-0.002475,-0.01485,0.0240625
1680015136677,1195125032141177,-0.0034375,-0.0138875,0.0229625
1680015136680,1195125034643639,-0.0044,-0.0099,0.020075
1680015136682,1195125037145793,-0.0055,-0.0089375,0.013062499
1680015136685,1195125039648177,-0.007425,-0.0078375,0.011
1680015136688,1195125042150692,-0.0083875,-0.0099,0.009075
1680015136691,1195125044652923,-0.0114124995,-0.0099,0.007975
1680015136692,1195125047155307,-0.0154,-0.012925,0.00495
1680015136695,1195125049657538,-0.0165,-0.0138875,0.007975
1680015136698,1195125052159928,-0.0204875,-0.0209,0.0100375
1680015136702,1195125054662159,-0.0165,-0.0279125,0.0119624995
1680015136703,1195125057164620,-0.0154,-0.0319,0.0149875
1680015136705,1195125059667005,-0.0165,-0.03795,0.0149875
1680015136708,1195125062169249,-0.012375,-0.0419375,0.0119624995
1680015136710,1195125064671634,-0.01045,-0.044825,0.0119624995
1680015136712,1195125067173788,-0.0114124995,-0.0499125,0.011
1680015136716,1195125069676019,-0.0083875,-0.0529375,0.0100375
1680015136717,1195125072178466,-0.0094875,-0.0539,0.0070125
1680015136722,1195125074680851,-0.01045,-0.058849998,0.00495
1680015136727,1195125077183082,-0.012375,-0.0548625,0.0020625
1680015136733,1195125079685466,-0.012375,-0.058849998,-9.625E-4
1680015136733,1195125082187697,-0.0144375,-0.0609125,-0.003025
1680015136733,1195125084690092,-0.0144375,-0.05995,-0.0070125
1680015136733,1195125087192553,-0.0154,-0.061875,-0.0070125
1680015136734,1195125089694784,-0.0165,-0.0639375,-0.0100375
1680015136738,1195125092197154,-0.0144375,-0.061875,-0.0119624995
1680015136741,1195125094699384,-0.0114124995,-0.0658625,-0.011
1680015136743,1195125097201769,-0.0154,-0.0688875,-0.0149875
1680015136745,1195125099704000,-0.0144375,-0.067925,-0.0149875
1680015136747,1195125102206461,-0.01045,-0.064899996,-0.01705
1680015136749,1195125104708601,-0.013475,-0.066825,-0.0149875
1680015136751,1195125107210986,-0.0154,-0.06985,-0.0149875
1680015136755,1195125109713217,-0.0144375,-0.06985,-0.01595
1680015136758,1195125112215678,-0.013475,-0.0688875,-0.01595
1680015136760,1195125114717817,-0.012375,-0.067925,-0.0149875
1680015136762,1195125117220279,-0.0144375,-0.067925,-0.01595
1680015136765,1195125119722663,-0.0154,-0.0628375,-0.01705
1680015136767,1195125122224894,-0.0193875,-0.0628375,-0.0180125
1680015136772,1195125124727245,-0.02145,-0.0578875,-0.0149875
1680015136773,1195125127229475,-0.0204875,-0.0529375,-0.01705
1680015136776,1195125129731860,-0.02145,-0.050875,-0.01705
1680015136779,1195125132234091,-0.0254375,-0.0468875,-0.0180125
1680015136780,1195125134736552,-0.0254375,-0.0429,-0.01705
1680015136784,1195125137238946,-0.0254375,-0.0429,-0.018975
1680015136785,1195125139741177,-0.0254375,-0.0358875,-0.0149875
1680015136787,1195125142243330,-0.0224125,-0.0319,-0.01595
1680015136790,1195125144745715,-0.0224125,-0.0279125,-0.01705
1680015136792,1195125147248182,-0.0224125,-0.02585,-0.01705
1680015136796,1195125149750412,-0.0193875,-0.01485,-0.0180125
1680015136797,1195125152252797,-0.0154,-0.0099,-0.0180125
1680015136800,1195125154755028,-0.0114124995,-0.0089375,-0.0149875
1680015136802,1195125157257407,-0.012375,-0.00495,-0.01595
1680015136804,1195125159759638,-0.0114124995,1.375E-4,-0.012925
1680015136809,1195125162262100,-0.0083875,0.00605,-0.012925
1680015136811,1195125164764484,-0.0044,0.00715,-0.0149875
1680015136814,1195125167266734,-0.0044,0.0081124995,-0.0100375
1680015136816,1195125169769119,-0.0034375,0.01815,-0.0100375
1680015136820,1195125172271273,-4.125E-4,0.0221375,-0.0119624995
1680015136822,1195125174773734,0.0015125,0.0240625,-0.011
1680015136823,1195125177276196,0.003575,0.02915,-0.0070125
1680015136824,1195125179778345,0.0066,0.0350625,-0.011
1680015136827,1195125182280575,0.0075625,0.0380875,-0.0100375
1680015136830,1195125184782960,0.0066,0.037125,-0.0100375
1680015136832,1195125187285191,0.0075625,0.0380875,-0.0100375
1680015136834,1195125189787576,0.01155,0.0441375,-0.0100375
1680015136837,1195125192290038,0.013612499,0.0411125,-0.011
1680015136840,1195125194792269,0.0155375,0.0380875,-0.0119624995
1680015136842,1195125197294653,0.0185625,0.039049998,-0.012925
1680015136844,1195125199796888,0.020624999,0.039049998,-0.01595
1680015136847,1195125202299273,0.025575,0.0380875,-0.01705
1680015136852,1195125204801503,0.0265375,0.0380875,-0.0180125
1680015136854,1195125207303888,0.0286,0.0380875,-0.022
1680015136856,1195125209806100,0.031625,0.0341,-0.02695
1680015136859,1195125212308485,0.0286,0.02805,-0.025024999
1680015136860,1195125214810715,0.0275,0.0251625,-0.02695
1680015136862,1195125217313177,0.0275,0.0341,-0.0290125
1680015136864,1195125219815331,0.0246125,0.031075,-0.0290125
1680015136867,1195125222317720,0.025575,0.0301125,-0.029975
1680015136870,1195125224820182,0.0246125,0.032175,-0.036025
1680015136872,1195125227322413,0.019524999,0.0301125,-0.039049998
1680015136874,1195125229824797,0.019524999,0.0380875,-0.0430375
1680015136877,1195125232327028,0.0185625,0.039049998,-0.050049998
1680015136879,1195125234829398,0.0165,0.04015,-0.055
1680015136882,1195125237331628,0.0155375,0.0451,-0.0620125
1680015136885,1195125239834090,0.0165,0.0471625,-0.0699875
1680015136888,1195125242336466,0.0165,0.0460625,-0.077
1680015136892,1195125244838696,0.0185625,0.0460625,-0.08195
1680015136894,1195125249840850,0.019524999,0.043175,-0.0859375
1680015136896,1195125249965158,0.02255,0.0380875,-0.0919875
1680015136899,1195125252345456,0.0265375,0.0350625,-0.09405
1680015136901,1195125254848148,0.025575,0.0301125,-0.0950125
1680015136903,1195125257350302,0.0235125,0.0251625,-0.095975
1680015136904,1195125259852533,0.0275,0.0231,-0.098037496
1680015136907,1195125262354917,0.0265375,0.0270875,-0.1029875
1680015136910,1195125264857163,0.0265375,0.0301125,-0.1029875
1680015136912,1195125267359548,0.0275,0.031075,-0.1029875
1680015136914,1195125269862009,0.0295625,0.0361625,-0.100925
1680015136920,1195125272364240,0.030524999,0.037125,-0.100925
1680015136922,1195125274866413,0.0325875,0.0361625,-0.100925
1680015136924,1195125277368874,0.0295625,0.0441375,-0.100925
1680015136929,1195125279871259,0.0325875,0.05115,-0.100925
1680015136931,1195125282372394,0.0375375,0.053075,-0.100925
1680015136932,1195125284873509,0.0375375,0.0551375,-0.1029875
1680015136934,1195125287378124,0.041525,0.0570625,-0.0999625
1680015136935,1195125289880509,0.0466125,0.061049998,-0.0999625
1680015136937,1195125292382739,0.052525,0.0671,-0.100925
1680015136941,1195125294885124,0.0545875,0.0671,-0.0999625
1680015136942,1195125297387379,0.058575,0.07315,-0.098037496
1680015136945,1195125299889840,0.0655875,0.0710875,-0.0950125
1680015136950,1195125302392225,0.0705375,0.07205,-0.0950125
1680015136952,1195125304894456,0.075625,0.07315,-0.098037496
1680015136953,1195125307396835,0.0796125,0.0790625,-0.09405
1680015136955,1195125309899066,0.082499996,0.08305,-0.091025
1680015136957,1195125312401451,0.0875875,0.086075,-0.0889625
1680015136960,1195125314903912,0.0906125,0.0911625,-0.088
1680015136964,1195125317406143,0.0925375,0.0930875,-0.0859375
1680015136965,1195125319908528,0.097625,0.0930875,-0.0840125
1680015136967,1195125322410759,0.097625,0.097075,-0.08195
1680015136970,1195125324912912,0.1016125,0.10505,-0.08195
1680015136973,1195125327415297,0.107525,0.1071125,-0.078925
1680015136975,1195125329917769,0.108625,0.108075,-0.077
1680015136977,1195125332419999,0.11055,0.10505,-0.0749375
1680015136980,1195125334922384,0.1126125,0.1071125,-0.073975
1680015136982,1195125337424538,0.1145375,0.1040875,-0.073975
1680015136985,1195125339927061,0.118525,0.1040875,-0.0730125
1680015136987,1195125342429446,0.12155,0.1040875,-0.07095
1680015136991,1195125344931677,0.1236125,0.10615,-0.07205
1680015136992,1195125347433831,0.124575,0.1040875,-0.0730125
1680015136995,1195125349936235,0.124575,0.1071125,-0.07095
1680015136999,1195125352438466,0.1255375,0.10615,-0.067925
1680015137002,1195125354940927,0.1276,0.1040875,-0.0650375
1680015137003,1195125357443312,0.129525,0.1071125,-0.066
1680015137005,1195125359945547,0.130625,0.1131625,-0.066
1680015137008,1195125362447931,0.1315875,0.1150875,-0.062975
1680015137011,1195125364950162,0.1315875,0.1150875,-0.062975
1680015137013,1195125367452547,0.1315875,0.119075,-0.0620125
1680015137014,1195125369955008,0.1346125,0.120175,-0.062975
1680015137018,1195125372457244,0.13859999,0.1211375,-0.0699875
1680015137020,1195125374959629,0.141625,0.12705,-0.0699875
1680015137024,1195125377461860,0.140525,0.1260875,-0.07095
1680015137026,1195125379964244,0.1445125,0.12815,-0.0749375
1680015137028,1195125382466470,0.1475375,0.12705,-0.0809875
1680015137030,1195125384968932,0.1456125,0.13213749,-0.0840125
1680015137032,1195125387471085,0.1475375,0.1340625,-0.087037496
1680015137035,1195125389973470,0.1486375,0.12815,-0.0950125
1680015137041,1195125392475716,0.1486375,0.12815,-0.099
1680015137042,1195125394978100,0.1535875,0.12705,-0.0999625
1680015137044,1195125397480331,0.15853749,0.130075,-0.10505
1680015137045,1195125399982793,0.157575,0.1291125,-0.1109625
1680015137048,1195125402485177,0.15853749,0.1260875,-0.11495
1680015137051,1195125404987393,0.1606,0.12815,-0.120037496
1680015137052,1195125407489778,0.15853749,0.1291125,-0.124025
1680015137055,1195125409992009,0.1596375,0.12815,-0.12705
1680015137058,1195125412494393,0.15853749,0.130075,-0.13695
1680015137060,1195125414996624,0.1606,0.130075,-0.144925
1680015137063,1195125417499095,0.163625,0.122099996,-0.1500125
1680015137065,1195125420001480,0.168575,0.120175,-0.15895
1680015137069,1195125422503711,0.173525,0.114125,-0.1659625
1680015137070,1195125425005865,0.1775125,0.120175,-0.1750375
1680015137072,1195125427508249,0.1835625,0.1150875,-0.179025
1680015137077,1195125430010711,0.1865875,0.10505,-0.1860375
1680015137079,1195125432512942,0.1945625,0.10615,-0.1879625
1680015137081,1195125435015326,0.20253749,0.1071125,-0.187
1680015137083,1195125437517547,0.207625,0.103125,-0.188925
1680015137086,1195125440019932,0.2116125,0.100099996,-0.187
1680015137089,1195125442522162,0.2146375,0.0991375,-0.1879625
1680015137091,1195125445024624,0.2226125,0.098175,-0.190025
1680015137093,1195125447527009,0.2256375,0.097075,-0.1909875
1680015137095,1195125450029239,0.2256375,0.0911625,-0.1940125
1680015137098,1195125452531393,0.23155,0.0911625,-0.1970375
1680015137100,1195125455033778,0.2355375,0.09405,-0.201025
1680015137102,1195125457536009,0.2376,0.0961125,-0.205975
1680015137105,1195125460038682,0.2435125,0.09405,-0.20693749
1680015137108,1195125462540836,0.24653749,0.086075,-0.2099625
1680015137110,1195125465043067,0.251625,0.0820875,-0.216975
1680015137114,1195125467545451,0.2545125,0.0790625,-0.223025
1680015137116,1195125470047697,0.256575,0.0741125,-0.2270125
1680015137119,1195125472550082,0.25753748,0.0691625,-0.231
1680015137121,1195125475052543,0.261525,0.0631125,-0.2349875
1680015137123,1195125477554774,0.267575,0.0600875,-0.242
1680015137125,1195125480057159,0.2706,0.0570625,-0.24805
1680015137129,1195125482559375,0.278575,0.05115,-0.2520375
1680015137131,1195125485061760,0.28655,0.0451,-0.25795
1680015137133,1195125487563991,0.2905375,0.039049998,-0.25905
1680015137135,1195125490066452,0.2935625,0.0331375,-0.2600125
1680015137139,1195125492568606,0.300575,0.0231,-0.27005
1680015137141,1195125495070991,0.3045625,0.01815,-0.275
1680015137143,1195125497573221,0.3106125,0.0121,-0.27995
1680015137145,1195125500075606,0.30855,0.0050875,-0.282975
1680015137148,1195125502577837,0.316525,1.375E-4,-0.287925
1680015137151,1195125505080298,0.3205125,-8.25E-4,-0.29095
1680015137153,1195125507582683,0.3216125,1.375E-4,-0.297
1680015137155,1195125510084914,0.3246375,-0.0089375,-0.297
1680015137159,1195125512587298,0.3246375,-0.011825,-0.298925
1680015137161,1195125515089538,0.3235375,-0.0169125,-0.30195
1680015137162,1195125517591923,0.3246375,-0.0199375,-0.30305
1680015137165,1195125520094154,0.322575,-0.017875,-0.2979625
1680015137168,1195125522596538,0.3205125,-0.01485,-0.297
1680015137171,1195125525098991,0.3185875,-0.01595,-0.297
1680015137172,1195125527601222,0.3136375,-0.0169125,-0.293975
1680015137177,1195125530103375,0.3146,-0.0138875,-0.2899875
1680015137178,1195125532605760,0.3136375,-0.011825,-0.29095
1680015137180,1195125535108236,0.3185875,-0.00495,-0.2899875
1680015137182,1195125537610466,0.322575,-8.25E-4,-0.2869625
1680015137185,1195125540112851,0.327525,1.375E-4,-0.286
1680015137192,1195125542615072,0.3375625,0.010175,-0.2869625
1680015137194,1195125545117456,0.3436125,0.0160875,-0.282975
1680015137195,1195125547619687,0.350625,0.021175,-0.286
1680015137197,1195125550122149,0.3576375,0.032175,-0.2820125
1680015137199,1195125552624533,0.3625875,0.0441375,-0.276925
1680015137200,1195125555126774,0.3645125,0.048125,-0.276925
1680015137202,1195125557628928,0.3686375,0.0600875,-0.276925
1680015137205,1195125560131313,0.37454998,0.070125,-0.275
1680015137208,1195125562633543,0.383625,0.078099996,-0.2729375
1680015137211,1195125565135990,0.38953748,0.08415,-0.27101249
1680015137213,1195125567638375,0.39655,0.097075,-0.271975
1680015137219,1195125570140605,0.4065875,0.1010625,-0.275
1680015137220,1195125572642990,0.416625,0.1071125,-0.275
1680015137221,1195125575145221,0.4305125,0.1211375,-0.27995
1680015137222,1195125577647625,0.438625,0.1291125,-0.2820125
1680015137226,1195125580150087,0.443575,0.13805,-0.28393748
1680015137229,1195125582652318,0.4525125,0.15015,-0.29205
1680015137232,1195125585154702,0.4536125,0.1560625,-0.2899875
1680015137233,1195125587656856,0.4566375,0.16115,-0.2949375
1680015137235,1195125590159318,0.459525,0.1571625,-0.2979625
1680015137238,1195125592661548,0.4585625,0.15015,-0.298925
1680015137240,1195125595163933,0.4576,0.1431375,-0.293975
1680015137242,1195125597666173,0.4585625,0.1331,-0.293975
1680015137246,1195125600168557,0.4566375,0.1150875,-0.2899875
1680015137249,1195125602670788,0.4536125,0.0930875,-0.2850375
1680015137251,1195125605173173,0.4505875,0.0741125,-0.28105
1680015137253,1195125607675419,0.4456375,0.0490875,-0.2740375
1680015137255,1195125610177880,0.4395875,0.01705,-0.265925
1680015137258,1195125612680265,0.4305125,-0.006875,-0.25905
1680015137260,1195125615182496,0.426525,-0.0358875,-0.253
1680015137264,1195125617684870,0.4236375,-0.064899996,-0.24695
1680015137265,1195125620187101,0.4225375,-0.09295,-0.238975
1680015137268,1195125622689486,0.421575,-0.1199,-0.234025
1680015137271,1195125625191716,0.4195125,-0.143825,-0.231
1680015137272,1195125627694101,0.4175875,-0.1739375,-0.223025
1680015137275,1195125630196332,0.4115375,-0.198825,-0.2179375
1680015137279,1195125632698716,0.405625,-0.2189,-0.21505
1680015137280,1195125635200947,0.4005375,-0.2418625,-0.2080375
1680015137282,1195125637703332,0.393525,-0.2589125,-0.20405
1680015137285,1195125640205773,0.3845875,-0.2778875,-0.201025
1680015137289,1195125642708004,0.371525,-0.2919125,-0.1989625
1680015137292,1195125645210389,0.3595625,-0.3078625,-0.1989625
1680015137293,1195125647712619,0.3546125,-0.32395,-0.1970375
1680015137295,1195125650215028,0.34553748,-0.331925,-0.1909875
1680015137299,1195125652717259,0.33055,-0.331925,-0.18493749
1680015137302,1195125655219643,0.31955,-0.3389375,-0.1830125
1680015137304,1195125657722105,0.305525,-0.3359125,-0.1769625
1680015137306,1195125660224331,0.294525,-0.330825,-0.1689875
1680015137309,1195125662726485,0.284625,-0.32793748,-0.1640375
1680015137310,1195125665228869,0.2715625,-0.3188625,-0.154
1680015137314,1195125667731100,0.25959998,-0.3158375,-0.1420375
1680015137315,1195125670233562,0.24653749,-0.3078625,-0.1280125
1680015137319,1195125672735941,0.2366375,-0.30195,-0.11605
1680015137322,1195125675238172,0.2256375,-0.2968625,-0.102025
1680015137324,1195125677740557,0.2195875,-0.286825,-0.087037496
1680015137326,1195125680242787,0.2156,-0.2828375,-0.0779625
1680015137328,1195125682745177,0.2116125,-0.2809125,-0.066
1680015137331,1195125685247639,0.2085875,-0.276925,-0.051975
1680015137333,1195125687749869,0.207625,-0.2729375,-0.0419375
1680015137336,1195125690252254,0.207625,-0.2668875,-0.0339625
1680015137341,1195125692754403,0.2055625,-0.259875,-0.0259875
1680015137342,1195125695256634,0.2036375,-0.2519,-0.018975
1680015137344,1195125697759018,0.2036375,-0.243925,-0.0180125
1680015137345,1195125700261557,0.20253749,-0.2338875,-0.0180125
1680015137351,1195125702763687,0.2006125,-0.2198625,-0.0180125
1680015137355,1195125705266071,0.1915375,-0.1978625,-0.018975
1680015137357,1195125707768302,0.184525,-0.1758625,-0.0199375
1680015137357,1195125710270687,0.1755875,-0.14685,-0.0199375
1680015137359,1195125712772917,0.1676125,-0.11385,-0.022
1680015137361,1195125715275374,0.1555125,-0.0759,-0.0210375
1680015137362,1195125717777758,0.1445125,-0.033825,-0.0229625
1680015137365,1195125720279912,0.13653749,0.004125,-0.0229625
1680015137368,1195125722782143,0.1276,0.0451,-0.023924999
1680015137370,1195125725284600,0.118525,0.086075,-0.022
1680015137372,1195125727786984,0.108625,0.1241625,-0.01705
1680015137376,1195125730289215,0.09955,0.16005,-0.0149875
1680015137379,1195125732791600,0.091575,0.19305,-0.01595
1680015137381,1195125735293850,0.0826375,0.22715,-0.012925
1680015137383,1195125737796235,0.0765875,0.257125,-0.012925
1680015137385,1195125740298466,0.0726,0.2831125,-0.0119624995
1680015137388,1195125742800850,0.0686125,0.3130875,-0.011
1680015137390,1195125745303312,0.064625,0.3421,-0.011
1680015137393,1195125747805542,0.0606375,0.36313748,-0.011
1680015137395,1195125750307926,0.058575,0.3861,-0.0119624995
1680015137398,1195125752810157,0.0606375,0.411125,-0.018975
1680015137400,1195125755312542,0.0625625,0.4291375,-0.01595
1680015137402,1195125757814682,0.0686125,0.44907498,-0.011
1680015137405,1195125760317143,0.0726,0.4651625,-0.01705
1680015137408,1195125762819374,0.075625,0.47905,-0.022
1680015137411,1195125765321759,0.0785125,0.4860625,-0.023924999
1680015137414,1195125767823970,0.0875875,0.4970625,-0.02805
1680015137416,1195125770326355,0.0946,0.505175,-0.02695
1680015137419,1195125772828586,0.09955,0.504075,-0.033
1680015137421,1195125775331047,0.1065625,0.5091625,-0.036025
1680015137423,1195125777833432,0.1126125,0.505175,-0.039049998
1680015137426,1195125780335639,0.1225125,0.4961,-0.0419375
1680015137428,1195125782838023,0.130625,0.49307498,-0.044
1680015137430,1195125785340254,0.1376375,0.4851,-0.045925
1680015137433,1195125787842408,0.1445125,0.471075,-0.045925
1680015137435,1195125790344859,0.151525,0.4591125,-0.0510125
1680015137438,1195125792847244,0.1596375,0.4420625,-0.056925
1680015137440,1195125795349475,0.1645875,0.42515,-0.056925
1680015137442,1195125797851860,0.1695375,0.406175,-0.055
1680015137445,1195125800354076,0.173525,0.3821125,-0.0559625
1680015137449,1195125802856461,0.173525,0.35805,-0.056925
1680015137452,1195125805358922,0.1775125,0.33715,-0.0540375
1680015137454,1195125807861153,0.18053749,0.3130875,-0.0529375
1680015137456,1195125810363553,0.18053749,0.284075,-0.051975
1680015137459,1195125812865784,0.1835625,0.262075,-0.044
1680015137461,1195125815368168,0.185625,0.23705,-0.0400125
1680015137463,1195125817870322,0.185625,0.2140875,-0.03795
1680015137465,1195125820372784,0.1865875,0.1890625,-0.0339625
1680015137468,1195125822875000,0.184525,0.1621125,-0.0259875
1680015137470,1195125825377385,0.1835625,0.141075,-0.025024999
1680015137473,1195125827879616,0.18053749,0.120175,-0.018975
1680015137475,1195125830382000,0.18053749,0.097075,-0.0149875
1680015137478,1195125832884250,0.1775125,0.0710875,-0.0089375
1680015137480,1195125835386712,0.1755875,0.053075,-0.00605
1680015137482,1195125837889096,0.1706375,0.032175,-0.001925
1680015137485,1195125840391327,0.168575,0.0121,0.003025
1680015137491,1195125842893721,0.162525,-0.00495,0.0070125
1680015137492,1195125845395875,0.1596375,-0.0248875,0.0119624995
1680015137494,1195125847898105,0.15853749,-0.0419375,0.01595
1680015137496,1195125850400490,0.1566125,-0.0529375,0.018975
1680015137499,1195125852903028,0.15455,-0.0719125,0.0210375
1680015137500,1195125855405182,0.1505625,-0.0908875,0.0210375
1680015137504,1195125857907567,0.146575,-0.1049125,0.025024999
1680015137505,1195125860409798,0.140525,-0.1159125,0.022
1680015137509,1195125862912182,0.1376375,-0.121825,0.01705
1680015137511,1195125865414428,0.135575,-0.132825,0.01595
1680015137513,1195125867916890,0.1255375,-0.1428625,0.0149875
1680015137515,1195125870419274,0.1205875,-0.14795,0.0100375
1680015137519,1195125872921428,0.115637496,-0.154825,0.0070125
1680015137521,1195125875423914,0.107525,-0.154825,0.0
1680015137524,1195125877926144,0.1016125,-0.1599125,-0.003025
1680015137527,1195125880428529,0.093637496,-0.1618375,-0.0070125
1680015137530,1195125882930760,0.086625,-0.160875,-0.01595
1680015137532,1195125885433163,0.0815375,-0.1639,-0.0199375
1680015137534,1195125887935394,0.074525,-0.1618375,-0.025024999
1680015137536,1195125890437779,0.064625,-0.1599125,-0.033
1680015137538,1195125892940010,0.0576125,-0.1599125,-0.036025
1680015137540,1195125895442394,0.052525,-0.15895,-0.0479875
1680015137543,1195125897944861,0.0515625,-0.1519375,-0.056925
1680015137545,1195125900447092,0.04455,-0.1489125,-0.062975
1680015137548,1195125902949476,0.0386375,-0.1508375,-0.069025
1680015137550,1195125905451707,0.034649998,-0.1489125,-0.073975
1680015137553,1195125907954092,0.030524999,-0.1508375,-0.08195
1680015137556,1195125910456322,0.0295625,-0.1489125,-0.0859375
1680015137559,1195125912958707,0.0265375,-0.1508375,-0.091025
1680015137560,1195125915460938,0.02365,-0.1599125,-0.091025
1680015137566,1195125917963322,0.02255,-0.16293749,-0.091025
1680015137566,1195125920465553,0.02255,-0.1618375,-0.09295
1680015137568,1195125922967938,0.020624999,-0.165825,-0.09295
1680015137573,1195125925470169,0.0185625,-0.16293749,-0.0919875
1680015137574,1195125927972630,0.0166375,-0.1618375,-0.088
1680015137576,1195125930475043,0.013612499,-0.1599125,-0.0840125
1680015137579,1195125932977274,0.01265,-0.1599125,-0.077
1680015137580,1195125935479658,0.01265,-0.1508375,-0.069025
1680015137583,1195125937981889,0.009625,-0.14093749,-0.0650375
1680015137586,1195125940484047,0.0056375,-0.1309,-0.061049998
1680015137588,1195125942986508,0.0075625,-0.1238875,-0.0589875
1680015137590,1195125945488893,0.0045375,-0.1159125,-0.051975
1680015137593,1195125947991124,0.003575,-0.10285,-0.050049998
1680015137596,1195125950493537,0.003575,-0.0908875,-0.045925
1680015137598,1195125952995768,0.0056375,-0.08195,-0.044
1680015137602,1195125955498153,0.008525,-0.0759,-0.039049998
1680015137604,1195125958000614,0.0066,-0.06985,-0.034925
1680015137607,1195125960502860,0.0066,-0.05995,-0.033
1680015137608,1195125963005245,0.008525,-0.0539,-0.033
1680015137611,1195125965507475,0.009625,-0.0518375,-0.029975
1680015137613,1195125968009860,0.013612499,-0.044825,-0.02805
1680015137615,1195125970512014,0.013612499,-0.044825,-0.02695
1680015137619,1195125973014494,0.0185625,-0.0438625,-0.0259875
1680015137621,1195125975516725,0.020624999,-0.0429,-0.0210375
1680015137623,1195125978019110,0.02255,-0.0429,-0.0199375
1680015137625,1195125980521341,0.0265375,-0.0408375,-0.0180125
1680015137628,1195125983023797,0.0286,-0.0419375,-0.0180125
1680015137630,1195125985526182,0.0325875,-0.0438625,-0.0210375
1680015137633,1195125988028336,0.0356125,-0.0408375,-0.01705
1680015137635,1195125990530566,0.0396,-0.0419375,-0.01705
1680015137640,1195125993032961,0.0386375,-0.0408375,-0.0119624995
1680015137641,1195125995535192,0.0375375,-0.036849998,-0.0089375
1680015137643,1195125998037653,0.041525,-0.0328625,-0.0100375
1680015137645,1195126000540038,0.0435875,-0.0309375,-0.0089375
1680015137648,1195126003042269,0.0405625,-0.0218625,-0.00605
1680015137651,1195126005544653,0.0396,-0.023924999,-0.0039875
1680015137652,1195126008046884,0.045649998,-0.0209,-0.00605
1680015137655,1195126010549269,0.0435875,-0.01595,-0.0119624995
1680015137659,1195126013051734,0.0435875,-0.0138875,-0.0089375
1680015137660,1195126015553965,0.042625,-0.0089375,-0.0089375
1680015137663,1195126018056119,0.0435875,-0.00385,-0.012925
1680015137665,1195126020558504,0.04455,-0.00385,-0.0180125
1680015137668,1195126023060965,0.0435875,-0.001925,-0.022
1680015137671,1195126025563177,0.0435875,1.375E-4,-0.0210375
1680015137675,1195126028065562,0.0396,0.0020625,-0.022
1680015137677,1195126030567792,0.0396,0.0111375,-0.025024999
1680015137680,1195126033070172,0.0396,0.0111375,-0.029975
1680015137681,1195126035572403,0.0405625,0.01705,-0.029975
1680015137683,1195126038074787,0.0386375,0.0221375,-0.034925
1680015137686,1195126040577018,0.036575,0.0231,-0.0369875
1680015137689,1195126043079480,0.034649998,0.0270875,-0.0369875
1680015137692,1195126045581605,0.034649998,0.02805,-0.0400125
1680015137694,1195126048084067,0.0356125,0.02805,-0.0430375
1680015137695,1195126050586452,0.0375375,0.02915,-0.0430375
1680015137701,1195126053088682,0.042625,0.0231,-0.051975
1680015137702,1195126055590836,0.0435875,0.01815,-0.055
1680015137703,1195126058093283,0.0485375,0.01815,-0.0589875
1680015137706,1195126060595667,0.0545875,0.0191125,-0.062975
1680015137709,1195126063097898,0.053625,0.0111375,-0.0650375
1680015137711,1195126065600283,0.0485375,0.0020625,-0.067925
1680015137715,1195126068102509,0.0496375,-0.00385,-0.073975
1680015137716,1195126070604893,0.0496375,-0.0078375,-0.0749375
1680015137722,1195126073107355,0.04455,-0.012925,-0.0779625
1680015137724,1195126075609586,0.042625,-0.01595,-0.0809875
1680015137726,1195126078111941,0.041525,-0.023924999,-0.08305
1680015137727,1195126080614172,0.0386375,-0.02585,-0.0840125
1680015137729,1195126083116557,0.0375375,-0.0279125,-0.084975
1680015137732,1195126085618710,0.0356125,-0.028875,-0.088
1680015137733,1195126088121172,0.031625,-0.0328625,-0.089925
1680015137736,1195126090623403,0.0295625,-0.0408375,-0.0919875
1680015137739,1195126093125787,0.030524999,-0.0389125,-0.0950125
1680015137740,1195126095628018,0.034649998,-0.0419375,-0.099
1680015137743,1195126098130403,0.036575,-0.0438625,-0.1029875
1680015137746,1195126100632615,0.0325875,-0.0429,-0.106975
1680015137749,1195126103135076,0.034649998,-0.044825,-0.1109625
1680015137752,1195126105637461,0.0375375,-0.04895,-0.113025
1680015137754,1195126108139691,0.036575,-0.047849998,-0.117975
1680015137756,1195126110642090,0.0375375,-0.047849998,-0.124025
1680015137759,1195126113144244,0.036575,-0.0539,-0.12595
1680015137761,1195126115646475,0.036575,-0.061875,-0.1359875
1680015137763,1195126118148936,0.0325875,-0.0628375,-0.139975
1680015137766,1195126120651379,0.0356125,-0.0658625,-0.1439625
1680015137771,1195126123153533,0.031625,-0.066825,-0.14795
1680015137772,1195126125655917,0.0325875,-0.0719125,-0.14795
1680015137775,1195126128158148,0.030524999,-0.078925,-0.14905
1680015137776,1195126130660524,0.0295625,-0.0848375,-0.1519375
1680015137779,1195126133162985,0.0276375,-0.0939125,-0.1530375
1680015137780,1195126135665216,0.0276375,-0.0988625,-0.1519375
1680015137784,1195126138167601,0.025575,-0.1049125,-0.1519375
1680015137785,1195126140669754,0.0246125,-0.108899996,-0.150975
1680015137790,1195126143171985,0.025575,-0.11495,-0.1530375
1680015137792,1195126145674370,0.02255,-0.1199,-0.1519375
1680015137794,1195126148176908,0.0215875,-0.12485,-0.14795
1680015137796,1195126150679087,0.019524999,-0.127875,-0.144925
1680015137799,1195126153181472,0.0166375,-0.1379125,-0.1420375
1680015137800,1195126155683703,0.0166375,-0.1458875,-0.13805
1680015137803,1195126158186087,0.01265,-0.1529,-0.14093749
1680015137805,1195126160688318,0.013612499,-0.1599125,-0.139975
1680015137808,1195126163190775,0.01265,-0.16995,-0.13805
1680015137811,1195126165693159,0.01265,-0.17985,-0.13695
1680015137813,1195126168195390,0.01265,-0.1868625,-0.132
1680015137815,1195126170697544,0.0155375,-0.1978625,-0.128975
1680015137818,1195126173200014,0.0166375,-0.20295,-0.124025
1680015137820,1195126175702399,0.0215875,-0.21285,-0.1189375
1680015137824,1195126178204861,0.0265375,-0.2198625,-0.11495
1680015137827,1195126180707014,0.0286,-0.2259125,-0.1109625
1680015137829,1195126183209245,0.0325875,-0.2259125,-0.100925
1680015137832,1195126185711630,0.0396,-0.22385,-0.091025
1680015137834,1195126188213861,0.0435875,-0.220825,-0.08305
1680015137836,1195126190716245,0.0466125,-0.2189,-0.0699875
1680015137839,1195126193218707,0.052525,-0.2079,-0.05995
1680015137841,1195126195720957,0.0545875,-0.193875,-0.0529375
1680015137844,1195126198223342,0.0545875,-0.1788875,-0.040975
1680015137846,1195126200725573,0.05555,-0.15785,-0.0290125
1680015137849,1195126203227957,0.0576125,-0.1398375,-0.012925
1680015137852,1195126205730207,0.058575,-0.1159125,-0.001925
1680015137854,1195126208232592,0.056649998,-0.09185,0.007975
1680015137855,1195126210734823,0.056649998,-0.0658625,0.020075
1680015137859,1195126213237207,0.056649998,-0.03795,0.02695
1680015137861,1195126215739669,0.056649998,-0.0169125,0.036025
1680015137866,1195126218241847,0.0545875,0.00605,0.040975
1680015137867,1195126220744077,0.052525,0.0301125,0.0460625
1680015137870,1195126223246539,0.0496375,0.0471625,0.053075
1680015137871,1195126225748924,0.045649998,0.0671,0.0570625
1680015137874,1195126228251154,0.042625,0.0820875,0.055
1680015137875,1195126230753539,0.0356125,0.0911625,0.051975
1680015137879,1195126233255770,0.031625,0.1111,0.055
1680015137880,1195126235758154,0.0265375,0.122099996,0.051975
1680015137883,1195126238260385,0.02255,0.13213749,0.050049998
1680015137886,1195126240762770,0.0185625,0.1450625,0.04895
1680015137889,1195126243265001,0.0185625,0.14905,0.0460625
1680015137892,1195126245767385,0.0166375,0.1571625,0.047025
1680015137893,1195126248269616,0.0166375,0.17613749,0.0430375
1680015137896,1195126250772001,0.019524999,0.180125,0.0460625
1680015137899,1195126253274462,0.020624999,0.1810875,0.040975
1680015137904,1195126255776693,0.0246125,0.1871375,0.0400125
1680015137907,1195126258279078,0.0246125,0.1901625,0.033
1680015137908,1195126260781313,0.025575,0.1951125,0.031075
1680015137910,1195126263283698,0.0276375,0.1951125,0.0290125
1680015137911,1195126265785852,0.0286,0.19813749,0.0240625
1680015137913,1195126268288390,0.0295625,0.19813749,0.018975
1680015137916,1195126270790779,0.0295625,0.19607499,0.014025
1680015137920,1195126273293010,0.0286,0.1991,0.011
1680015137923,1195126275795164,0.025575,0.19305,0.007975
1680015137924,1195126278297548,0.025575,0.1901625,0.00495
1680015137926,1195126280799779,0.0246125,0.1841125,0.0020625
1680015137929,1195126283302235,0.02255,0.17613749,-9.625E-4
1680015137932,1195126285804620,0.0215875,0.1700875,-0.0039875
1680015137933,1195126288306851,0.0215875,0.1621125,-0.011
1680015137936,1195126290809235,0.019524999,0.152075,-0.0119624995
1680015137940,1195126293311486,0.013612499,0.1431375,-0.0149875
1680015137942,1195126295813640,0.01265,0.131175,-0.018975
1680015137944,1195126298316332,0.009625,0.120175,-0.0229625
1680015137946,1195126300818563,0.0045375,0.11715,-0.0259875
1680015137949,1195126303320726,0.0026125,0.108075,-0.0259875
1680015137951,1195126305823111,0.0026125,0.097075,-0.02695
1680015137953,1195126308325341,0.0026125,0.087175,-0.029975
1680015137957,1195126310827726,-4.125E-4,0.076175,-0.0290125
1680015137959,1195126313330188,0.003575,0.0671,-0.029975
1680015137961,1195126315832418,0.0045375,0.0521125,-0.036025
1680015137963,1195126318334803,0.00165,0.043175,-0.034925
1680015137966,1195126320837034,-4.125E-4,0.0301125,-0.0369875
1680015137969,1195126323339398,0.0026125,0.01705,-0.040975
1680015137974,1195126325841629,0.003575,0.00605,-0.0419375
1680015137983,1195126328344091,0.0026125,-0.0089375,-0.040975
1680015137986,1195126330846475,0.00165,-0.0209,-0.0449625
1680015137986,1195126333348629,0.00165,-0.02585,-0.050049998
1680015137986,1195126335850860,-0.001375,-0.034925,-0.050049998
1680015137986,1195126338353245,0.0026125,-0.047849998,-0.0510125
1680015137987,1195126340855475,-0.001375,-0.0609125,-0.056925
1680015137990,1195126343357927,0.003575,-0.0688875,-0.0559625
1680015137991,1195126345860312,0.0026125,-0.08085,-0.058025
1680015137993,1195126348362542,0.00165,-0.0908875,-0.061049998
1680015137996,1195126350864927,0.0045375,-0.094875,-0.0620125
1680015137999,1195126353367158,0.0026125,-0.1049125,-0.062975
1680015138000,1195126355869528,-0.0023375,-0.117837496,-0.0669625
1680015138003,1195126358371990,-0.0034375,-0.1238875,-0.062975
1680015138005,1195126360874144,-0.0023375,-0.1288375,-0.058025
1680015138009,1195126363376374,0.003575,-0.1309,-0.0559625
1680015138011,1195126365878759,0.0026125,-0.13585,-0.0529375
1680015138014,1195126368380990,0.00165,-0.1398375,-0.044
1680015138016,1195126370883374,0.0045375,-0.144925,-0.0369875
1680015138020,1195126373385836,0.0045375,-0.143825,-0.0339625
1680015138021,1195126375888067,0.0066,-0.1368125,-0.0259875
1680015138024,1195126378390436,0.013612499,-0.1309,-0.018975
1680015138026,1195126380892667,0.014575,-0.121825,-0.01705
1680015138029,1195126383395052,0.0185625,-0.1148125,-0.01595
1680015138032,1195126385897246,0.0215875,-0.108899996,-0.0089375
1680015138034,1195126388399707,0.0246125,-0.094875,-0.0039875
1680015138037,1195126390901861,0.0286,-0.0818125,-0.0039875
1680015138039,1195126393404246,0.0325875,-0.06985,-9.625E-4
1680015138041,1195126395906476,0.036575,-0.0578875,0.003025
1680015138043,1195126398408846,0.0396,-0.0468875,0.0039875
1680015138046,1195126400911077,0.0416625,-0.036849998,0.0039875
1680015138049,1195126403413538,0.0405625,-0.0268125,9.625E-4
1680015138053,1195126405915909,0.0375375,-0.011825,0.003025
1680015138055,1195126408418140,0.036575,-0.00385,0.00605
1680015138056,1195126410920524,0.031625,0.004125,0.00495
1680015138059,1195126413422755,0.0265375,0.0171875,0.00495
1680015138061,1195126415925140,0.0246125,0.0240625,0.00605
1680015138063,1195126418427371,0.0166375,0.031075,0.00495
1680015138065,1195126420929774,0.0166375,0.0391875,0.0070125
1680015138068,1195126423432005,0.0155375,0.0441375,0.009075
1680015138070,1195126425934466,0.009625,0.048125,0.011
1680015138073,1195126428436620,0.01155,0.0501875,0.009075
1680015138076,1195126430939000,0.009625,0.05115,0.0100375
1680015138079,1195126433441461,0.0105875,0.053075,0.01705
1680015138081,1195126435943692,0.009625,0.0570625,0.020075
1680015138083,1195126438446077,0.01155,0.0611875,0.018975
1680015138086,1195126440948308,0.01155,0.0581625,0.018975
1680015138091,1195126443450692,0.013612499,0.0581625,0.018975
1680015138093,1195126445952923,0.014575,0.0570625,0.020075
1680015138095,1195126448455313,0.0155375,0.054175,0.01705
1680015138096,1195126450957543,0.020624999,0.05115,0.01705
1680015138099,1195126453460005,0.0246125,0.0490875,0.01595
1680015138102,1195126455962390,0.025575,0.0411125,0.01595
1680015138103,1195126458464543,0.02365,0.037125,0.014025
1680015138107,1195126460966760,0.0215875,0.0350625,0.011
1680015138110,1195126463469222,0.02255,0.032175,0.0070125
1680015138111,1195126465971606,0.02365,0.0270875,0.00605
1680015138114,1195126468473837,0.02255,0.0221375,0.003025
1680015138115,1195126470976222,0.0246125,0.014162499,0.003025
1680015138119,1195126473478453,0.02365,0.00715,9.625E-4
1680015138121,1195126475980606,0.0246125,0.0061875,-0.0039875
1680015138125,1195126478483299,0.02255,-8.25E-4,-0.00605
1680015138127,1195126480985467,0.02365,-0.0048125,-0.0070125
1680015138130,1195126483487928,0.02365,-0.0059125,-0.0100375
1680015138132,1195126485990082,0.02365,-0.0099,-0.0119624995
1680015138134,1195126488492313,0.0185625,-0.0188375,-0.0149875
1680015138136,1195126490994697,0.0166375,-0.0248875,-0.01595
1680015138139,1195126493496933,0.020624999,-0.0268125,-0.01705
1680015138141,1195126495999395,0.02255,-0.034925,-0.0180125
1680015138143,1195126498501779,0.0215875,-0.0389125,-0.0210375
1680015138146,1195126501004010,0.020624999,-0.0438625,-0.025024999
1680015138149,1195126503506390,0.020624999,-0.0468875,-0.0229625
1680015138151,1195126506008544,0.0196625,-0.0529375,-0.0210375
1680015138153,1195126508510774,0.0155375,-0.056925,-0.0210375
1680015138157,1195126511013467,0.014575,-0.056925,-0.025024999
1680015138159,1195126513515697,0.0155375,-0.0609125,-0.0210375
1680015138162,1195126516017851,0.014575,-0.0658625,-0.0210375
1680015138165,1195126518520236,0.01155,-0.06985,-0.023924999
1680015138166,1195126521022467,0.01155,-0.0738375,-0.018975
1680015138169,1195126523524856,0.01155,-0.0759,-0.0180125
1680015138172,1195126526027318,0.01155,-0.0798875,-0.0199375
1680015138174,1195126528529549,0.009625,-0.08085,-0.0149875
1680015138176,1195126531031933,0.0105875,-0.0829125,-0.0149875
1680015138179,1195126533534087,0.009625,-0.0829125,-0.01595
1680015138180,1195126536036549,0.013612499,-0.0848375,-0.01595
1680015138183,1195126538538779,0.013612499,-0.08085,-0.0149875
1680015138186,1195126541041241,0.0196625,-0.078925,-0.0100375
1680015138188,1195126543543395,0.0246125,-0.083875,-0.0089375
1680015138191,1195126546045779,0.02365,-0.0798875,-0.0070125
1680015138193,1195126548548024,0.0265375,-0.0759,-0.00495
1680015138196,1195126551050409,0.0286,-0.0708125,-9.625E-4
1680015138199,1195126553552640,0.0276375,-0.064899996,-9.625E-4
1680015138202,1195126556055135,0.0265375,-0.0598125,9.625E-4
1680015138204,1195126558557520,0.0246125,-0.0499125,0.00495
1680015138207,1195126561059751,0.0215875,-0.045925,0.009075
1680015138209,1195126563562135,0.0196625,-0.0389125,0.0100375
1680015138212,1195126566064366,0.0166375,-0.0309375,0.011
1680015138221,1195126568566544,0.0105875,-0.0209,0.013062499
1680015138221,1195126571069005,0.0075625,-0.01485,0.013062499
1680015138222,1195126573571390,0.0056375,-0.0078375,0.014025
1680015138224,1195126576073621,0.0045375,-0.0059125,0.0149875
1680015138226,1195126578576019,0.0075625,0.0011,0.013062499
1680015138228,1195126581078250,0.0075625,0.0020625,0.01705
1680015138230,1195126583580635,0.0066,0.0061875,0.014025
1680015138233,1195126586083096,0.0075625,0.010175,0.013062499
1680015138234,1195126588585327,0.0075625,0.0111375,0.0149875
1680015138240,1195126591087712,0.0075625,0.0111375,0.0149875
1680015138243,1195126593589942,0.0056375,0.010175,0.020075
1680015138243,1195126596092327,0.0075625,0.0121,0.018975
1680015138244,1195126598594567,0.0066,0.0111375,0.014025
1680015138252,1195126601096952,0.0075625,0.010175,0.01595
1680015138253,1195126603599182,0.009625,0.013062499,0.01595
1680015138253,1195126606101567,0.0075625,0.0111375,0.0149875
1680015138254,1195126608603798,0.009625,0.00715,0.01705
1680015138255,1195126611106264,0.0105875,0.010175,0.0149875
1680015138259,1195126613608649,0.009625,0.0171875,0.0119624995
1680015138261,1195126616110803,0.01155,0.014162499,0.0119624995
1680015138263,1195126618613033,0.01155,0.013062499,0.014025
1680015138266,1195126621115499,0.014575,0.015125,0.011
1680015138269,1195126623617653,0.01265,0.010175,0.00605
1680015138271,1195126626120114,0.014575,0.0050875,0.00495
1680015138274,1195126628622499,0.013612499,0.004125,0.00495
1680015138278,1195126631124745,0.014575,0.0020625,0.0039875
1680015138280,1195126633627129,0.014575,-0.0028875,9.625E-4
1680015138282,1195126636129360,0.0166375,-0.0059125,9.625E-4
1680015138283,1195126638631745,0.0166375,-0.00385,-0.001925
1680015138286,1195126641134206,0.0155375,-0.0059125,-9.625E-4
1680015138289,1195126643636350,0.0166375,-0.0099,0.0
1680015138292,1195126646138812,0.01155,-0.012925,-0.001925
1680015138294,1195126648641043,0.014575,-0.01485,-9.625E-4
1680015138297,1195126651143427,0.01265,-0.0158125,-0.001925
1680015138299,1195126653645581,0.01265,-0.0158125,-0.003025
1680015138301,1195126656148043,0.0155375,-0.012925,-0.001925
1680015138304,1195126658650273,0.01155,-0.017875,-9.625E-4
1680015138307,1195126661152658,0.013612499,-0.0199375,-9.625E-4
1680015138310,1195126663654875,0.01155,-0.0188375,0.0020625
1680015138312,1195126666157259,0.0045375,-0.0218625,0.003025
1680015138315,1195126668659490,0.0045375,-0.023924999,0.003025
1680015138317,1195126671161952,0.0075625,-0.0209,0.00605
1680015138320,1195126673664106,0.0066,-0.0188375,0.009075
1680015138322,1195126676166490,0.0066,-0.023924999,0.011
1680015138324,1195126678668952,0.0045375,-0.017875,0.0119624995
1680015138326,1195126681171106,0.0026125,-0.0158125,0.013062499
1680015138329,1195126683673336,0.0066,-0.017875,0.01595
1680015138332,1195126686175764,0.009625,-0.01485,0.020075
1680015138334,1195126688678148,0.009625,-0.0158125,0.022
1680015138336,1195126691180379,0.009625,-0.0138875,0.0259875
1680015138339,1195126693682764,0.009625,-0.011825,0.031075
1680015138341,1195126696184995,0.01155,-0.0078375,0.033
1680015138345,1195126698687355,0.0155375,-0.0099,0.029975
1680015138347,1195126701189586,0.013612499,-0.0099,0.033
1680015138349,1195126703692048,0.01155,-0.006875,0.03795
1680015138352,1195126706194432,0.009625,-0.0059125,0.040975
1680015138354,1195126708696658,0.01155,-0.0059125,0.0400125
1680015138356,1195126711198812,0.0105875,-0.0028875,0.0400125
1680015138359,1195126713701196,0.009625,1.375E-4,0.042075
1680015138361,1195126716203658,0.0086624995,0.0050875,0.0449625
1680015138364,1195126718705889,0.0066,0.010175,0.0460625
1680015138366,1195126721208239,0.0066,0.0111375,0.0460625
1680015138369,1195126723710470,0.0066,0.0171875,0.042075
1680015138372,1195126726212855,0.0056375,0.01815,0.042075
1680015138373,1195126728715086,0.0075625,0.0171875,0.044
1680015138376,1195126731217465,0.0075625,0.020075,0.042075
1680015138379,1195126733719696,0.0105875,0.0251625,0.040975
1680015138382,1195126736222081,0.013612499,0.0301125,0.0400125
1680015138384,1195126738724311,0.0086624995,0.032175,0.039049998
1680015138387,1195126741226658,0.0105875,0.032175,0.033
1680015138393,1195126743728889,0.0166375,0.031075,0.033
1680015138394,1195126746231350,0.0166375,0.031075,0.031075
1680015138396,1195126748733735,0.0166375,0.0350625,0.0290125
1680015138397,1195126751235956,0.0185625,0.0350625,0.02695
1680015138399,1195126753738340,0.01265,0.0391875,0.02805
1680015138401,1195126756240571,0.013612499,0.0391875,0.02695
1680015138405,1195126758742725,0.014575,0.0391875,0.0259875
1680015138407,1195126761245163,0.013612499,0.04015,0.029975
1680015138409,1195126763747547,0.013612499,0.0411125,0.031075
1680015138413,1195126766249778,0.01265,0.0391875,0.036025
1680015138415,1195126768752163,0.01265,0.0380875,0.03795
1680015138418,1195126771254393,0.01265,0.04015,0.0369875
1680015138420,1195126773756754,0.01155,0.0391875,0.039049998
1680015138421,1195126776259215,0.0075625,0.043175,0.0400125
1680015138425,1195126778761446,0.0075625,0.048125,0.0430375
1680015138428,1195126781263817,0.0086624995,0.05115,0.0449625
1680015138430,1195126783766048,0.0086624995,0.053075,0.0460625
1680015138432,1195126786268201,0.0066,0.0501875,0.047025
1680015138434,1195126788770586,0.0066,0.0521125,0.0449625
1680015138436,1195126791273048,0.0045375,0.0570625,0.0460625
1680015138439,1195126793775504,0.003575,0.0581625,0.053075
1680015138441,1195126796277658,0.003575,0.06215,0.050049998
1680015138444,1195126798779889,-4.125E-4,0.0661375,0.053075
1680015138446,1195126801282273,-4.125E-4,0.0671,0.0570625
1680015138448,1195126803784504,-0.0023375,0.0691625,0.05995
1680015138452,1195126806286966,-0.0023375,0.0680625,0.0589875
1680015138453,1195126808789350,-0.0023375,0.0691625,0.0620125
1680015138456,1195126811291581,-0.001375,0.0771375,0.062975
1680015138459,1195126813793980,-0.0044,0.0801625,0.0650375
1680015138461,1195126816296134,-0.0064625,0.078099996,0.064075
1680015138465,1195126818798364,-0.0053625,0.076175,0.064075
1680015138466,1195126821300826,-0.0044,0.081125,0.062975
1680015138469,1195126823803211,-0.0053625,0.0801625,0.0620125
1680015138471,1195126826305441,-0.0034375,0.0790625,0.061049998
1680015138474,1195126828807826,-0.0034375,0.0790625,0.0589875
1680015138476,1195126831310057,-0.0023375,0.0801625,0.055
1680015138479,1195126833812441,0.0026125,0.0801625,0.0540375
1680015138481,1195126836314923,0.0056375,0.0801625,0.053075
1680015138483,1195126838817154,0.0045375,0.0741125,0.050049998
1680015138486,1195126841319538,0.003575,0.07315,0.051975
1680015138489,1195126843821692,0.0045375,0.078099996,0.050049998
1680015138492,1195126846323923,0.0056375,0.0771375,0.0479875
1680015138493,1195126848826308,0.003575,0.0741125,0.0479875
1680015138496,1195126851328769,0.0026125,0.0790625,0.047025
1680015138499,1195126853831000,0.0026125,0.0820875,0.047025
1680015138502,1195126856333414,0.00165,0.0820875,0.0460625
1680015138504,1195126858835644,-4.125E-4,0.0851125,0.04895
1680015138508,1195126861338029,-4.125E-4,0.087175,0.047025
1680015138509,1195126863840260,-0.001375,0.0900625,0.0460625
1680015138511,1195126866342721,0.00165,0.09405,0.0449625
1680015138514,1195126868845154,-0.0034375,0.09515,0.0479875
1680015138516,1195126871347385,-0.0064625,0.0961125,0.04895
1680015138521,1195126873849538,-0.01045,0.1021625,0.0479875
1680015138523,1195126876351923,-0.012375,0.1021625,0.051975
1680015138524,1195126878854149,-0.0114124995,0.10615,0.0540375
1680015138526,1195126881356610,-0.0114124995,0.1120625,0.0559625
1680015138529,1195126883858995,-0.013475,0.1120625,0.0570625
1680015138533,1195126886361226,-0.0114124995,0.1111,0.062975
1680015138535,1195126888863629,-0.00935,0.119075,0.064075
1680015138536,1195126891365860,-0.01045,0.1230625,0.066
1680015138540,1195126893868245,-0.01045,0.1241625,0.07095
1680015138542,1195126896370706,-0.00935,0.131175,0.0760375
1680015138544,1195126898872947,-0.0083875,0.1351625,0.0790625
1680015138546,1195126901375101,-0.01045,0.13915,0.086075
1680015138549,1195126903877486,-0.0064625,0.1431375,0.0900625
1680015138551,1195126906379716,-0.0044,0.14905,0.0900625
1680015138554,1195126908882101,-0.0034375,0.153175,0.0919875
1680015138557,1195126911384592,0.00165,0.16005,0.09405
1680015138559,1195126913886822,0.0045375,0.169125,0.095975
1680015138561,1195126916389207,0.0026125,0.1731125,0.095975
1680015138564,1195126918891438,0.0066,0.186175,0.09295
1680015138568,1195126921393803,0.0066,0.1920875,0.09405
1680015138569,1195126923896034,0.0066,0.1920875,0.091025
1680015138574,1195126926398496,0.0045375,0.2000625,0.0919875
1680015138575,1195126928900880,0.003575,0.2121625,0.0919875
1680015138578,1195126931403024,0.0045375,0.21505,0.0889625
1680015138580,1195126933905255,0.0066,0.213125,0.087037496
1680015138582,1195126936407640,0.0056375,0.21505,0.08305
1680015138584,1195126938909870,0.00165,0.2171125,0.0809875
1680015138587,1195126941412332,-0.001375,0.219175,0.0779625
1680015138590,1195126943914735,-0.0053625,0.219175,0.075075
1680015138591,1195126946416966,-0.00935,0.2211,0.07205
1680015138594,1195126948919351,-0.0114124995,0.21807499,0.07095
1680015138596,1195126951421505,-0.0174625,0.2171125,0.069025
1680015138600,1195126953923976,-0.02145,0.2121625,0.0650375
1680015138607,1195126956426438,-0.023375,0.2091375,0.064075
1680015138608,1195126958928592,-0.0284625,0.2030875,0.0589875
1680015138608,1195126961430822,-0.034375,0.19813749,0.058025
1680015138609,1195126963933188,-0.0334125,0.19415,0.058025
1680015138612,1195126966435419,-0.0334125,0.185075,0.055
1680015138615,1195126968937803,-0.035475,0.18205,0.055
1680015138617,1195126971440265,-0.040425,0.1731125,0.055
1680015138620,1195126973942500,-0.0364375,0.1670625,0.055
1680015138621,1195126976444884,-0.0334125,0.1590875,0.0540375
1680015138624,1195126978947038,-0.0303875,0.1551,0.0540375
1680015138626,1195126981449269,-0.029424999,0.14905,0.053075
1680015138629,1195126983951731,-0.0303875,0.1441,0.0479875
1680015138631,1195126986454197,-0.023375,0.136125,0.0449625
1680015138633,1195126988956351,-0.0174625,0.130075,0.0460625
1680015138637,1195126991458736,-0.018424999,0.1260875,0.044
1680015138639,1195126993960966,-0.0154,0.11715,0.0430375
1680015138641,1195126996463332,-0.0144375,0.1101375,0.0400125
1680015138646,1195126998965563,-0.0144375,0.100099996,0.03795
1680015138647,1195127001468024,-0.0144375,0.0891,0.03795
1680015138649,1195127003970409,-0.013475,0.0790625,0.0369875
1680015138653,1195127006472553,-0.012375,0.070125,0.0369875
1680015138655,1195127008974784,-0.0174625,0.061049998,0.03795
1680015138657,1195127011477168,-0.0154,0.0521125,0.036025
1680015138659,1195127013979399,-0.018424999,0.0361625,0.0339625
1680015138662,1195127016481860,-0.0174625,0.0270875,0.03795
1680015138663,1195127018984250,-0.0174625,0.0191125,0.0339625
1680015138666,1195127021486481,-0.0174625,0.00715,0.03795
1680015138668,1195127023988866,-0.0163625,-0.0028875,0.040975
1680015138672,1195127026491096,-0.0154,-0.0078375,0.044
1680015138674,1195127028993485,-0.0163625,-0.0089375,0.044
1680015138676,1195127031495946,-0.0163625,-0.017875,0.04895
1680015138679,1195127033998177,-0.0154,-0.02695,0.0540375
1680015138681,1195127036500331,-0.013475,-0.0298375,0.0570625
1680015138684,1195127039002688,-0.018424999,-0.0309375,0.058025
1680015138688,1195127041504918,-0.018424999,-0.0309375,0.0620125
1680015138694,1195127044007308,-0.02035,-0.028875,0.0669625
1680015138694,1195127046509770,-0.024475,-0.02695,0.066
1680015138696,1195127049012000,-0.029424999,-0.023924999,0.0650375
1680015138700,1195127051514385,-0.035475,-0.0188375,0.0620125
1680015138702,1195127054016616,-0.040425,-0.0138875,0.0620125
1680015138702,1195127056519000,-0.046475,-0.0089375,0.0589875
1680015138706,1195127059021211,-0.05335,-0.00385,0.055
1680015138708,1195127061523673,-0.0614625,0.004125,0.053075
1680015138710,1195127064025827,-0.0713625,0.00715,0.051975
1680015138711,1195127066528211,-0.078375,0.0160875,0.0479875
1680015138714,1195127069030442,-0.0853875,0.0231,0.0449625
1680015138718,1195127071532794,-0.0963875,0.0270875,0.0449625
1680015138720,1195127074035024,-0.1043625,0.031075,0.042075
1680015138722,1195127076537486,-0.1073875,0.039049998,0.0400125
1680015138725,1195127079039871,-0.1104125,0.0361625,0.0369875
1680015138728,1195127081542086,-0.111375,0.0341,0.036025
1680015138733,1195127084044471,-0.111375,0.02915,0.03795
1680015138734,1195127086546702,-0.111375,0.0221375,0.03795
1680015138735,1195127089049086,-0.10835,0.014162499,0.0400125
1680015138737,1195127091551548,-0.1054625,0.004125,0.040975
1680015138741,1195127094053745,-0.1034,0.0011,0.0430375
1680015138741,1195127096555976,-0.100375,-0.001925,0.0460625
1680015138743,1195127099058360,-0.095425,-0.0108624995,0.0540375
1680015138748,1195127101560591,-0.095425,-0.0169125,0.0559625
1680015138749,1195127104062991,-0.095425,-0.023924999,0.0559625
1680015138751,1195127106565452,-0.095425,-0.0319,0.0570625
1680015138754,1195127109067683,-0.0963875,-0.03795,0.058025
1680015138759,1195127111570062,-0.095425,-0.045925,0.05995
1680015138762,1195127114072293,-0.095425,-0.0518375,0.058025
1680015138763,1195127116574678,-0.0933625,-0.058849998,0.0589875
1680015138766,1195127119076909,-0.08745,-0.067925,0.05995
1680015138767,1195127121579063,-0.078375,-0.08085,0.055
1680015138770,1195127124081510,-0.0694375,-0.0878625,0.051975
1680015138773,1195127126583895,-0.0554125,-0.095837496,0.047025
1680015138774,1195127129086125,-0.04235,-0.10285,0.040975
1680015138776,1195127131588510,-0.0303875,-0.111925,0.0339625
1680015138780,1195127134090741,-0.02145,-0.1208625,0.0240625
1680015138782,1195127136593129,-0.0144375,-0.1269125,0.022
1680015138784,1195127139095591,-0.0053625,-0.1269125,0.0149875
1680015138786,1195127141597822,0.0056375,-0.132825,0.0100375
1680015138791,1195127144100206,0.009625,-0.133925,0.00495
1680015138792,1195127146602404,0.0155375,-0.133925,9.625E-4
1680015138794,1195127149104789,0.0185625,-0.132825,-0.00495
1680015138796,1195127151606943,0.02255,-0.1318625,-0.007975
1680015138799,1195127154109404,0.0246125,-0.12485,-9.625E-4
1680015138804,1195127156611611,0.0246125,-0.1238875,-0.00495
1680015138805,1195127159113996,0.02365,-0.1208625,-0.00495
1680015138808,1195127161616226,0.0215875,-0.11385,-0.00605
1680015138810,1195127164118611,0.019524999,-0.1159125,-0.00605
1680015138812,1195127166620842,0.019524999,-0.1098625,-0.00605
1680015138814,1195127169123240,0.0155375,-0.1079375,-0.0039875
1680015138816,1195127171625702,0.01265,-0.106837496,-0.001925
1680015138819,1195127174127933,0.009625,-0.0988625,-0.00495
1680015138821,1195127176630317,0.0075625,-0.0969375,-0.00605
1680015138824,1195127179132466,0.0026125,-0.099825,-0.007975
1680015138826,1195127181634697,-4.125E-4,-0.100925,-0.0119624995
1680015138829,1195127184137159,-0.0034375,-0.106837496,-0.01705
1680015138831,1195127186639543,-0.0083875,-0.1018875,-0.022
1680015138834,1195127189141774,-0.013475,-0.10395,-0.025024999
1680015138836,1195127191644174,-0.0144375,-0.1128875,-0.02805
1680015138841,1195127194146404,-0.0114124995,-0.1159125,-0.029975
1680015138842,1195127196648789,-0.01045,-0.1208625,-0.033
1680015138844,1195127199150986,-0.01045,-0.1269125,-0.0339625
1680015138847,1195127201653447,-0.0083875,-0.1309,-0.034925
1680015138850,1195127204155832,-0.0044,-0.1398375,-0.036025
1680015138852,1195127206658063,-0.0064625,-0.1458875,-0.0369875
1680015138854,1195127209160216,-0.007425,-0.1519375,-0.039049998
1680015138856,1195127211662606,-0.0053625,-0.15895,-0.03795
1680015138860,1195127214165068,-0.0053625,-0.1678875,-0.0400125
1680015138861,1195127216667298,-0.0034375,-0.1739375,-0.0419375
1680015138864,1195127219169683,-0.0044,-0.177925,-0.0400125
1680015138866,1195127221671933,-0.0034375,-0.17985,-0.0419375
1680015138869,1195127224174317,-0.007425,-0.1819125,-0.0430375
1680015138871,1195127226676471,-0.0083875,-0.1819125,-0.0400125
1680015138874,1195127229178933,-0.0083875,-0.18493749,-0.039049998
1680015138878,1195127231681169,-0.0114124995,-0.1898875,-0.034925
1680015138881,1195127234183553,-0.012375,-0.1868625,-0.0339625
1680015138883,1195127236685707,-0.012375,-0.1838375,-0.0290125
1680015138884,1195127239188246,-0.0114124995,-0.18095,-0.025024999
1680015138887,1195127241690630,-0.012375,-0.176825,-0.022
1680015138892,1195127244192879,-0.013475,-0.16885,-0.018975
1680015138893,1195127246695033,-0.012375,-0.160875,-0.0149875
1680015138894,1195127249197417,-0.012375,-0.1508375,-0.0089375
1680015138896,1195127251699648,-0.012375,-0.14685,-0.00605
1680015138899,1195127254202105,-0.007425,-0.1348875,-0.0039875
1680015138901,1195127256704489,-0.0044,-0.1288375,0.0
1680015138904,1195127259206720,-0.002475,-0.117837496,0.003025
1680015138907,1195127261709105,0.0045375,-0.106837496,0.00605
1680015138909,1195127264211318,0.0056375,-0.0969375,0.009075
1680015138911,1195127266713702,0.0075625,-0.083875,0.007975
1680015138915,1195127269216164,0.01155,-0.0798875,0.0100375
1680015138918,1195127271718394,0.0105875,-0.07095,0.0119624995
1680015138925,1195127274219494,0.013612499,-0.0658625,0.0119624995
1680015138925,1195127276720571,0.0185625,-0.0609125,0.0119624995
1680015138928,1195127279225187,0.020624999,-0.0539,0.011
1680015138929,1195127281727571,0.02255,-0.0499125,0.011
1680015138931,1195127284229991,0.02255,-0.047849998,0.011
1680015138933,1195127286732222,0.019524999,-0.04895,0.011
1680015138935,1195127289234606,0.0155375,-0.045925,0.0119624995
1680015138937,1195127291736837,0.01265,-0.0438625,0.0100375
1680015138939,1195127294238991,0.0105875,-0.0419375,0.0100375
1680015138941,1195127296741456,0.0066,-0.03795,0.009075
1680015138944,1195127299243918,0.0026125,-0.034925,0.009075
1680015138946,1195127301746303,-4.125E-4,-0.0328625,0.007975
1680015138949,1195127304248456,-0.0053625,-0.034925,0.0070125
1680015138954,1195127306750649,-0.0083875,-0.0319,0.0070125
1680015138955,1195127309253034,-0.01045,-0.0298375,0.0039875
1680015138957,1195127311755265,-0.0154,-0.028875,0.00605
1680015138960,1195127314257726,-0.0193875,-0.0279125,0.0070125
1680015138961,1195127316760111,-0.02035,-0.028875,0.0039875
1680015138964,1195127319262361,-0.0224125,-0.0218625,0.00605
1680015138967,1195127321764514,-0.0273625,-0.0209,0.003025
1680015138970,1195127324266899,-0.0284625,-0.0248875,0.003025
1680015138972,1195127326769361,-0.0303875,-0.0248875,9.625E-4
1680015138974,1195127329271851,-0.034375,-0.023924999,-9.625E-4
1680015138977,1195127331774005,-0.035475,-0.0248875,-0.00495
1680015138979,1195127334276236,-0.0334125,-0.0298375,-0.0070125
1680015138982,1195127336778620,-0.0364375,-0.028875,-0.0070125
1680015138984,1195127339280841,-0.040425,-0.0328625,-0.0089375
1680015138987,1195127341783226,-0.04235,-0.0429,-0.0149875
1680015138991,1195127344285687,-0.043449998,-0.0468875,-0.01705
1680015138993,1195127346787918,-0.04235,-0.0499125,-0.0180125
1680015138995,1195127349290313,-0.043449998,-0.0628375,-0.0180125
1680015138997,1195127351792467,-0.046475,-0.067925,-0.022
1680015139000,1195127354294697,-0.0504625,-0.0798875,-0.018975
1680015139002,1195127356797082,-0.0493625,-0.0848375,-0.0180125
1680015139004,1195127359299620,-0.0504625,-0.09185,-0.01705
1680015139007,1195127361801755,-0.0523875,-0.0969375,-0.01705
1680015139010,1195127364304140,-0.0594,-0.108899996,-0.01705
1680015139012,1195127366806371,-0.067375,-0.116875,-0.0149875
1680015139014,1195127369308755,-0.0704,-0.1208625,-0.012925
1680015139017,1195127371811034,-0.07645,-0.1288375,-0.012925
1680015139020,1195127374313496,-0.0823625,-0.1299375,-0.007975
1680015139022,1195127376815880,-0.0853875,-0.1379125,-0.0089375
1680015139024,1195127379318111,-0.08635,-0.1419,-0.007975
1680015139029,1195127381820289,-0.0924,-0.1458875,-0.003025
1680015139032,1195127384322674,-0.0933625,-0.143825,0.0
1680015139033,1195127386824904,-0.091437496,-0.14093749,0.00495
1680015139035,1195127389327366,-0.091437496,-0.13585,0.009075
1680015139037,1195127391829750,-0.095425,-0.1288375,0.0119624995
1680015139040,1195127394331957,-0.101475,-0.11385,0.01705
1680015139042,1195127396834342,-0.10835,-0.1018875,0.022
1680015139044,1195127399336573,-0.1164625,-0.0908875,0.022
1680015139046,1195127401838957,-0.1214125,-0.0749375,0.018975
1680015139052,1195127404341414,-0.1254,-0.056925,0.020075
1680015139055,1195127406843645,-0.1274625,-0.0389125,0.020075
1680015139057,1195127409345798,-0.1293875,-0.023924999,0.0210375
1680015139058,1195127411848183,-0.1274625,-0.0099,0.0240625
1680015139061,1195127414350414,-0.1263625,0.0031625,0.0290125
1680015139062,1195127416852798,-0.123475,0.01705,0.033
1680015139066,1195127419355260,-0.112475,0.032175,0.0400125
1680015139068,1195127421857491,-0.102437496,0.0451,0.044
1680015139071,1195127424359879,-0.095425,0.0561,0.047025
1680015139072,1195127426862110,-0.0834625,0.061049998,0.04895
1680015139075,1195127429364495,-0.07645,0.07315,0.053075
1680015139077,1195127431866726,-0.062425,0.076175,0.0540375
1680015139079,1195127434369187,-0.0493625,0.0790625,0.0540375
1680015139081,1195127436871346,-0.0383625,0.08305,0.055
1680015139084,1195127439373731,-0.0224125,0.08305,0.0559625
1680015139087,1195127441875961,-0.0083875,0.081125,0.0559625
1680015139093,1195127444378322,0.0045375,0.0820875,0.05995
1680015139094,1195127446880553,0.014575,0.081125,0.0589875
1680015139096,1195127449383014,0.02255,0.0790625,0.0589875
1680015139098,1195127451885399,0.0265375,0.081125,0.064075
1680015139100,1195127454387630,0.0286,0.076175,0.061049998
1680015139105,1195127456890034,0.030524999,0.0771375,0.05995
1680015139107,1195127459392265,0.0295625,0.0741125,0.064075
1680015139109,1195127461894650,0.0276375,0.07205,0.064075
1680015139111,1195127464397111,0.0265375,0.07205,0.064075
1680015139113,1195127466899265,0.0215875,0.0680625,0.0650375
1680015139115,1195127469401491,0.019524999,0.0691625,0.062975
1680015139117,1195127471903876,0.01265,0.0680625,0.05995
1680015139120,1195127474406106,0.0066,0.0691625,0.0620125
1680015139122,1195127476908491,0.0075625,0.0680625,0.061049998
1680015139124,1195127479411019,-4.125E-4,0.076175,0.061049998
1680015139127,1195127481913250,-0.0034375,0.076175,0.061049998
1680015139130,1195127484415635,-0.0083875,0.0790625,0.0620125
1680015139132,1195127486917866,-0.018424999,0.078099996,0.0620125
1680015139134,1195127489420231,-0.02145,0.081125,0.061049998
1680015139137,1195127491922462,-0.023375,0.0851125,0.062975
1680015139141,1195127494424847,-0.0264,0.08305,0.069025
1680015139143,1195127496927077,-0.029424999,0.0891,0.069025
1680015139144,1195127499429438,-0.035475,0.0881375,0.0669625
1680015139147,1195127501931669,-0.0374,0.0881375,0.0669625
1680015139149,1195127504434053,-0.0394625,0.087175,0.069025
1680015139152,1195127506936284,-0.043449998,0.0900625,0.066
1680015139154,1195127509438746,-0.046475,0.0911625,0.066
1680015139158,1195127511941125,-0.046475,0.09515,0.0650375
1680015139159,1195127514443356,-0.0493625,0.09405,0.062975
1680015139162,1195127516945741,-0.054449998,0.0930875,0.0620125
1680015139164,1195127519447972,-0.0603625,0.09405,0.058025
1680015139166,1195127521950341,-0.062425,0.098175,0.0559625
1680015139170,1195127524452572,-0.0664125,0.10505,0.0559625
