system_ts_ms, sensor_ts_ns, gyrX, gyrY, gyrZ
1679915336978,1095325331083691,-0.0847,0.5113625,0.198275
1679915336979,1095325333586230,-0.0977625,0.5324,0.177375
1679915336982,1095325336088614,-0.1188,0.5504125,0.1584
1679915336983,1095325338591062,-0.142725,0.5663625,0.1403875
1679915336985,1095325341093293,-0.164725,0.595375,0.1254
1679915337002,1095325343595754,-0.1887875,0.62535,0.10835
1679915337003,1095325346098216,-0.2107875,0.6323625,0.089375
1679915337003,1095325348600908,-0.2277,0.6194375,0.0732875
1679915337004,1095325351103129,-0.241725,0.59235,0.0573375
1679915337004,1095325353605590,-0.252725,0.54835,0.044275
1679915337005,1095325356108052,-0.2578125,0.49445,0.03135
1679915337005,1095325358610436,-0.2547875,0.442475,0.022275
1679915337005,1095325361112922,-0.2426875,0.3994375,0.0163625
1679915337018,1095325363615307,-0.230725,0.3634125,0.0143
1679915337018,1095325366117768,-0.2107875,0.3364625,0.0133375
1679915337018,1095325368620230,-0.1857625,0.310475,0.0154
1679915337019,1095325371122450,-0.1467125,0.2803625,0.02035
1679915337019,1095325373624912,-0.1106875,0.2464,0.033275
1679915337022,1095325376127604,-0.073699996,0.20845,0.044275
1679915337031,1095325378629835,-0.0268125,0.1733875,0.0573375
1679915337031,1095325381132297,0.0242,0.15235,0.07535
1679915337032,1095325383634758,0.077275,0.1254,0.091299996
1679915337032,1095325386137220,0.1302125,0.100375,0.105325
1679915337033,1095325388639604,0.1821875,0.079475,0.1203125
1679915337035,1095325391142143,0.225225,0.0614625,0.132275
1679915337050,1095325393644527,0.2633125,0.0474375,0.143275
1679915337051,1095325396146989,0.2982375,0.0444125,0.15235
1679915337051,1095325398649451,0.3251875,0.0504625,0.160325
1679915337051,1095325401151681,0.3513125,0.068475,0.165275
1679915337052,1095325403654124,0.3691875,0.08635,0.16335
1679915337052,1095325406156816,0.3773,0.09845,0.1612875
1679915337053,1095325408659047,0.3843125,0.10945,0.1563375
1679915337063,1095325411161508,0.3872,0.1263625,0.14739999
1679915337064,1095325413663970,0.3862375,0.1494625,0.14135
1679915337064,1095325416166432,0.38225,0.167475,0.1343375
1679915337065,1095325418668816,0.3702875,0.1813625,0.1282875
1679915337065,1095325421171355,0.357225,0.2024,0.1203125
1679915337069,1095325423673822,0.3432,0.227425,0.1123375
1679915337070,1095325426176207,0.3333,0.2484625,0.1043625
1679915337084,1095325428678438,0.31625,0.2644125,0.099275
1679915337084,1095325431180899,0.2921875,0.27445,0.091299996
1679915337084,1095325433683361,0.2712875,0.28435,0.0823625
1679915337084,1095325436185817,0.2492875,0.2924625,0.0763125
1679915337085,1095325438688279,0.2242625,0.29741248,0.066275
1679915337085,1095325441190740,0.1962125,0.30745,0.0622875
1679915337111,1095325443693202,0.1722875,0.3114375,0.056375
1679915337111,1095325446195576,0.15125,0.3084125,0.0484
1679915337112,1095325448698038,0.1282875,0.3053875,0.0413875
1679915337112,1095325451200576,0.1032625,0.3114375,0.0323125
1679915337112,1095325453702961,0.0752125,0.3034625,0.0253
1679915337112,1095325456205428,0.0543125,0.2924625,0.0193875
1679915337113,1095325458707889,0.0363,0.2704625,0.0103124995
1679915337113,1095325461210120,0.015262499,0.2503875,0.00935
1679915337113,1095325463712812,0.0012375,0.238425,0.0072875
1679915337114,1095325466215043,-0.010725,0.2234375,0.012375
1679915337114,1095325468717495,-0.0268125,0.2014375,0.0133375
1679915337121,1095325471219956,-0.0407,0.18535,0.022275
1679915337121,1095325473722418,-0.0517,0.1694,0.033275
1679915337121,1095325476224802,-0.0556875,0.14739999,0.04235
1679915337127,1095325478727327,-0.0556875,0.13145,0.0523875
1679915337127,1095325481229788,-0.0528,0.1104125,0.0622875
1679915337127,1095325483732173,-0.0457875,0.0834625,0.0732875
1679915337133,1095325486234634,-0.0378125,0.0594,0.0842875
1679915337133,1095325488737082,-0.0317625,0.0383625,0.091299996
1679915337135,1095325491239313,-0.0187,0.0224125,0.0933625
1679915337145,1095325493742005,-0.0048125,0.013475,0.0952875
1679915337146,1095325496244236,0.005225,0.0114124995,0.1013375
1679915337146,1095325498746697,0.015262499,0.012375,0.1013375
1679915337146,1095325501249159,0.0342375,0.0174625,0.1034
1679915337149,1095325503751544,0.052249998,0.0224125,0.1023
1679915337150,1095325506254005,0.0721875,0.034375,0.0963875
1679915337153,1095325508756558,0.093225,0.040425,0.0983125
1679915337160,1095325511259019,0.1161875,0.040425,0.1034
1679915337160,1095325513761404,0.1412125,0.051425,0.105325
1679915337161,1095325516263865,0.17325,0.0603625,0.1062875
1679915337163,1095325518766110,0.1973125,0.0713625,0.1123375
1679915337165,1095325521268572,0.2233,0.0834625,0.1153625
1679915337169,1095325523771264,0.2453,0.0924,0.122375
1679915337170,1095325526273495,0.2682625,0.1054625,0.1282875
1679915337177,1095325528775995,0.2872375,0.1214125,0.1364
1679915337177,1095325531278380,0.3031875,0.134475,0.138325
1679915337180,1095325533780841,0.3152875,0.1494625,0.1364
1679915337181,1095325536283303,0.3251875,0.161425,0.1353
1679915337183,1095325538785855,0.3282125,0.167475,0.1343375
1679915337187,1095325541288240,0.3293125,0.1714625,0.1243
1679915337195,1095325543790702,0.32725,0.1694,0.1144
1679915337195,1095325546293163,0.3183125,0.161425,0.1062875
1679915337196,1095325548795625,0.3092375,0.1584,0.0933625
1679915337196,1095325551298086,0.2992,0.15235,0.0803
1679915337199,1095325553800548,0.2893,0.1434125,0.0713625
1679915337200,1095325556302779,0.2762375,0.134475,0.0633875
1679915337203,1095325558805250,0.2662,0.1144,0.0543125
1679915337211,1095325561307635,0.2523125,0.100375,0.0484
1679915337212,1095325563810096,0.23925,0.08745,0.045375
1679915337212,1095325566312635,0.2292125,0.07645,0.0383625
1679915337213,1095325568815096,0.2123,0.0664125,0.03135
1679915337216,1095325571317481,0.1973125,0.05335,0.0253
1679915337218,1095325573819942,0.1882375,0.046475,0.0154
1679915337220,1095325576322404,0.1793,0.0444125,0.00935
1679915337227,1095325578824635,0.1662375,0.035475,-0.0026125
1679915337228,1095325581327312,0.1533125,0.023375,-0.013612499
1679915337228,1095325583829774,0.1423125,0.023375,-0.0257125
1679915337231,1095325586332004,0.12925,0.018424999,-0.0407
1679915337235,1095325588834466,0.1232,0.0154,-0.053625
1679915337235,1095325591336928,0.113299996,0.013475,-0.0666875
1679915337243,1095325593839327,0.1051875,0.0154,-0.081675
1679915337244,1095325596341866,0.0983125,0.0163625,-0.0906125
1679915337245,1095325598844250,0.0941875,0.0174625,-0.103675
1679915337245,1095325601346712,0.0922625,0.0273625,-0.1186625
1679915337248,1095325603849163,0.088275,0.0284625,-0.1326875
1679915337250,1095325606351625,0.088275,0.040425,-0.14465
1679915337253,1095325608853856,0.077275,0.0523875,-0.1566125
1679915337259,1095325611356548,0.0803,0.0603625,-0.169675
1679915337260,1095325613859028,0.0812625,0.0614625,-0.1816375
1679915337260,1095325616361259,0.0842875,0.0603625,-0.1936
1679915337263,1095325618863721,0.0803,0.057475,-0.2036375
1679915337266,1095325621366105,0.0782375,0.0614625,-0.2127125
1679915337268,1095325623868567,0.077275,0.06435,-0.2226125
1679915337276,1095325626371105,0.0721875,0.05335,-0.2366375
1679915337277,1095325628873490,0.0672375,0.0444125,-0.2457125
1679915337277,1095325631375952,0.0592625,0.034375,-0.251625
1679915337278,1095325633878413,0.0452375,0.043449998,-0.25959998
1679915337282,1095325636380861,0.0132,0.054449998,-0.2556125
1679915337283,1095325638883091,-0.0407,0.07645,-0.2387
1679915337285,1095325641385784,-0.088825,0.113437496,-0.2366375
1679915337293,1095325643888245,-0.13475,0.16335,-0.2446125
1679915337294,1095325646390476,-0.1766875,0.1923625,-0.2646875
1679915337294,1095325648892943,-0.2167,0.1984125,-0.2926
1679915337296,1095325651395327,-0.2536875,0.1714625,-0.3377
1679915337298,1095325653897866,-0.2866875,0.1354375,-0.400675
1679915337301,1095325656400327,-0.324775,0.1254,-0.4576
1679915337303,1095325658902707,-0.362725,0.145475,-0.5036625
1679915337309,1095325661405168,-0.40974998,0.172425,-0.515625
1679915337310,1095325663907630,-0.4598,0.1934625,-0.5027
1679915337310,1095325666409861,-0.5108125,0.2204125,-0.4736875
1679915337314,1095325668912548,-0.56581247,0.2534125,-0.4437125
1679915337315,1095325671415010,-0.62479997,0.2704625,-0.4136
1679915337320,1095325673917471,-0.68282497,0.254375,-0.3826625
1679915337326,1095325676419702,-0.7387875,0.1623875,-0.35365
1679915337326,1095325678922163,-0.79475,-0.0176,-0.3196875
1679915337326,1095325681424533,-0.8487875,-0.2586375,-0.2706
1679915337328,1095325683927072,-0.8897625,-0.5105375,-0.2167
1679915337330,1095325686429456,-0.9246875,-0.71555,-0.1496
1679915337333,1095325688931918,-0.9557625,-0.883575,-0.075625
1679915337336,1095325691434365,-0.97473747,-1.037575,0.001375
1679915337343,1095325693936596,-1.000725,-1.1606375,0.0803
1679915337344,1095325696439058,-1.0236875,-1.2716,0.154275
1679915337344,1095325698941750,-1.039775,-1.39755,0.2253625
1679915337346,1095325701444206,-1.0597125,-1.5026,0.2893
1679915337348,1095325703946437,-1.0786875,-1.576575,0.33935
1679915337350,1095325706448899,-1.099725,-1.6306125,0.38334998
1679915337353,1095325708951360,-1.1187,-1.6795624,0.419375
1679915337358,1095325711453731,-1.127775,-1.72865,0.4433
1679915337359,1095325713956269,-1.1297,-1.8096375,0.4664
1679915337360,1095325716458654,-1.1177375,-1.89255,0.48427498
1679915337363,1095325718961116,-1.0847375,-1.99265,0.5022875
1679915337365,1095325721463577,-1.039775,-2.054525,0.5132875
1679915337368,1095325723965793,-0.9857375,-2.0355499,0.518375
1679915337370,1095325726468254,-0.9218,-1.99155,0.5214
1679915337374,1095325728970947,-0.8427375,-1.911525,0.5193375
1679915337375,1095325731473408,-0.7517125,-1.7895625,0.5104
1679915337378,1095325733975606,-0.6417125,-1.61865,0.496375
1679915337380,1095325736478068,-0.5066875,-1.3905375,0.4802875
1679915337383,1095325738980529,-0.3667125,-1.1265374,0.4593875
1679915337386,1095325741482914,-0.2288,-0.8756,0.4393125
1679915337391,1095325743985452,-0.0968,-0.63965,0.4233625
1679915337391,1095325746487841,0.0312125,-0.37565,0.4043875
1679915337395,1095325748990302,0.170225,-0.085525,0.3812875
1679915337397,1095325751492764,0.3092375,0.1923625,0.3592875
1679915337398,1095325753994995,0.445225,0.4214375,0.33935
1679915337401,1095325756497707,0.582175,0.6004625,0.320375
1679915337404,1095325759000169,0.7272375,0.75734997,0.298375
1679915337411,1095325761502399,0.86625,0.8584125,0.2833875
1679915337413,1095325764004861,0.99825,0.89045,0.27335
1679915337413,1095325766507322,1.1202124,0.87945,0.26235
1679915337413,1095325769009774,1.2392875,0.84534997,0.259325
1679915337416,1095325771512236,1.3512125,0.82335,0.259325
1679915337418,1095325774014697,1.46025,0.8254125,0.259325
1679915337427,1095325776517082,1.5653,0.84947497,0.253275
1679915337427,1095325779019543,1.6682875,0.882475,0.2473625
1679915337428,1095325781521774,1.7703125,0.92235,0.24035
1679915337428,1095325784024236,1.8602375,0.9543875,0.2244
1679915337432,1095325786526928,1.9432875,0.9653875,0.210375
1679915337433,1095325789029374,2.0233126,0.975425,0.19139999
1679915337436,1095325791531605,2.1003125,1.0044374,0.171325
1679915337441,1095325794034067,2.1742876,1.046375,0.1483625
1679915337442,1095325796536528,2.25225,1.0894125,0.127325
1679915337443,1095325799038908,2.3252625,1.1334125,0.1043625
1679915337446,1095325801541446,2.4013,1.1724625,0.089375
1679915337448,1095325804043908,2.4792626,1.2043625,0.07535
1679915337451,1095325806546293,2.5581875,1.244375,0.0583
1679915337453,1095325809048750,2.6332624,1.2904375,0.0413875
1679915337458,1095325811550981,2.7121875,1.30735,0.023375
1679915337458,1095325814053442,2.788225,1.310375,0.006325
1679915337461,1095325816556135,2.86825,1.2764125,-0.020624999
1679915337463,1095325819058346,2.9462125,1.1823624,-0.053625
1679915337467,1095325821560807,3.0283,1.0264375,-0.092675
1679915337470,1095325824063269,3.1062624,0.827475,-0.141625
1679915337471,1095325826565730,3.190275,0.584375,-0.1947
1679915337476,1095325829068120,3.2692,0.277475,-0.2506625
1679915337476,1095325831570658,3.3452375,-0.0295625,-0.3036
1679915337479,1095325834073120,3.4271874,-0.311575,-0.350625
1679915337481,1095325836575504,3.5072124,-0.5556375,-0.389675
1679915337483,1095325839077952,3.591225,-0.7965375,-0.4217125
1679915337486,1095325841580183,3.6691875,-1.054625,-0.4486625
1679915337492,1095325844082644,3.7433,-1.3116125,-0.46667498
1679915337492,1095325846585337,3.8212626,-1.593625,-0.4706625
1679915337493,1095325849087567,3.8922124,-1.878525,-0.4686
1679915337496,1095325851590029,3.9523,-2.1176374,-0.4596625
1679915337499,1095325854092490,3.993275,-2.2595375,-0.4406875
1679915337501,1095325856594875,3.9593124,-2.241525,-0.4046625
1679915337503,1095325859097414,3.8121874,-2.0996249,-0.361625
1679915337509,1095325861599856,3.6403124,-2.0596125,-0.32065
1679915337509,1095325864102318,3.531275,-2.220625,-0.29067498
1679915337510,1095325866604702,3.4502876,-2.4156,-0.2616625
1679915337513,1095325869107164,3.3572,-2.5466375,-0.23567499
1679915337516,1095325871609395,3.2492626,-2.6016376,-0.21065
1679915337519,1095325874112072,3.1282625,-2.6466,-0.185625
1679915337524,1095325876614303,3.0072625,-2.681525,-0.1626625
1679915337524,1095325879116764,2.8942375,-2.704625,-0.1507
1679915337526,1095325881619226,2.7952375,-2.726625,-0.141625
1679915337529,1095325884121687,2.6932125,-2.7006376,-0.13859999
1679915337531,1095325886624063,2.5733125,-2.70765,-0.136675
1679915337533,1095325889126601,2.39525,-2.83855,-0.13859999
1679915337536,1095325891629063,2.1652124,-2.9885626,-0.169675
1679915337541,1095325894131524,1.8942,-3.1125875,-0.2046
1679915337541,1095325896633933,1.6713125,-3.0646,-0.2387
1679915337545,1095325899136395,1.5272125,-2.9115624,-0.2497
1679915337547,1095325901638625,1.430275,-2.7526126,-0.2497
1679915337548,1095325904141318,1.3591875,-2.649625,-0.2616625
1679915337551,1095325906643548,1.298275,-2.605625,-0.2916375
1679915337553,1095325909146033,1.2412125,-2.593525,-0.3337125
1679915337558,1095325911648495,1.1862125,-2.60865,-0.39765
1679915337558,1095325914150879,1.1462,-2.64165,-0.4736875
1679915337561,1095325916653341,1.1152625,-2.682625,-0.5696625
1679915337564,1095325919155879,1.1033,-2.7126,-0.670725
1679915337566,1095325921658341,1.1022,-2.71865,-0.774675
1679915337568,1095325924160725,1.121175,-2.703525,-0.8756
1679915337571,1095325926663187,1.14125,-2.67355,-0.978725
1679915337576,1095325929165414,1.1702625,-2.6346376,-1.076625
1679915337577,1095325931667875,1.2012,-2.577575,-1.1716375
1679915337579,1095325934170568,1.2332375,-2.506625,-1.263625
1679915337583,1095325936672798,1.265275,-2.4256375,-1.3556125
1679915337583,1095325939175250,1.2962124,-2.3315876,-1.4447125
1679915337587,1095325941677711,1.3102375,-2.2155375,-1.5246
1679915337593,1095325944180096,1.314225,-2.0865624,-1.5996749
1679915337593,1095325946682635,1.303225,-1.95855,-1.6676
1679915337594,1095325949185086,1.2711875,-1.8415375,-1.7326375
1679915337596,1095325951687548,1.232275,-1.7516125,-1.791625
1679915337598,1095325954189932,1.1803,-1.6875374,-1.8436
1679915337601,1095325956692394,1.1232375,-1.65055,-1.8836125
1679915337604,1095325959194625,1.0663126,-1.6236,-1.9116625
1679915337608,1095325961697317,1.0113125,-1.6215374,-1.9306375
1679915337609,1095325964199778,0.95823747,-1.6325375,-1.9256874
1679915337611,1095325966702009,0.907225,-1.6435375,-1.9056125
1679915337614,1095325969204471,0.8622625,-1.6566,-1.879625
1679915337616,1095325971706860,0.824175,-1.6636125,-1.846625
1679915337620,1095325974209322,0.792275,-1.6605875,-1.7996
1679915337624,1095325976711860,0.764225,-1.6526124,-1.7445999
1679915337624,1095325979214322,0.7431875,-1.625525,-1.6867125
1679915337627,1095325981716722,0.7253125,-1.6015999,-1.6176875
1679915337630,1095325984219183,0.7143125,-1.56365,-1.544675
1679915337631,1095325986721645,0.704275,-1.5115374,-1.4707
1679915337634,1095325989223875,0.6923125,-1.45365,-1.3937
1679915337636,1095325991726568,0.6842,-1.4015375,-1.3156
1679915337646,1095325994228798,0.681175,-1.356575,-1.242725
1679915337647,1095325996731260,0.6802125,-1.3116125,-1.1697125
1679915337648,1095325999233722,0.693275,-1.263625,-1.0976624
1679915337648,1095326001736106,0.6972625,-1.229525,-1.0296
1679915337649,1095326004238572,0.7073,-1.208625,-0.9647
1679915337651,1095326006741110,0.7132125,-1.2016125,-0.9046125
1679915337653,1095326009243495,0.7073,-1.2065625,-0.851675
1679915337658,1095326011745956,0.7022125,-1.22265,-0.8086375
1679915337658,1095326014248433,0.687225,-1.2486374,-0.7737125
1679915337663,1095326016750894,0.6642625,-1.2786125,-0.747725
1679915337663,1095326019253125,0.6303,-1.3076249,-0.7326
1679915337667,1095326021755818,0.5973,-1.328525,-0.7187125
1679915337668,1095326024258043,0.5603125,-1.3465375,-0.7117
1679915337674,1095326026760505,0.522225,-1.3605624,-0.7077125
1679915337674,1095326029262889,0.48221248,-1.362625,-0.7046875
1679915337676,1095326031765351,0.4433,-1.3615249,-0.70565
1679915337679,1095326034267842,0.4103,-1.356575,-0.7096375
1679915337681,1095326036770380,0.3762,-1.3486,-0.714725
1679915337683,1095326039272765,0.3432,-1.3305875,-0.7216
1679915337686,1095326041775226,0.3172125,-1.31065,-0.7286125
1679915337693,1095326044277688,0.2921875,-1.2865875,-0.7346625
1679915337694,1095326046779919,0.26125,-1.2676125,-0.736725
1679915337695,1095326049282611,0.2322375,-1.2486374,-0.736725
1679915337697,1095326051784842,0.2022625,-1.2376375,-0.7286125
1679915337698,1095326054287303,0.1662375,-1.2395625,-0.7156875
1679915337701,1095326056789784,0.1271875,-1.2566125,-0.6956125
1679915337703,1095326059292168,0.0941875,-1.2896125,-0.6736125
1679915337708,1095326061794630,0.0592625,-1.34365,-0.6466625
1679915337709,1095326064297168,0.0171875,-1.38655,-0.6056875
1679915337711,1095326066799630,-0.021724999,-1.383525,-0.56265
1679915337715,1095326069302014,-0.0488125,-1.34255,-0.5226375
1679915337716,1095326071804476,-0.0666875,-1.25565,-0.4736875
1679915337721,1095326074306938,-0.0666875,-1.142625,-0.41965
1679915337721,1095326076809168,-0.0567875,-1.015575,-0.3716625
1679915337725,1095326079311851,-0.03575,-0.899525,-0.3276625
1679915337726,1095326081814081,-0.0088,-0.7965375,-0.28765
1679915337729,1095326084316543,0.0292875,-0.7176125,-0.2567125
1679915337733,1095326086818928,0.0702625,-0.6406125,-0.2336125
1679915337733,1095326089321408,0.11825,-0.55165,-0.219725
1679915337736,1095326091823870,0.1662375,-0.4725875,-0.2156
1679915337740,1095326094326408,0.219175,-0.4005375,-0.2156
1679915337741,1095326096828793,0.269225,-0.333575,-0.2156
1679915337743,1095326099331235,0.324225,-0.26455,-0.2156
1679915337747,1095326101833697,0.3762,-0.1945625,-0.2176625
1679915337749,1095326104335928,0.42625,-0.135575,-0.219725
1679915337751,1095326106838389,0.4772625,-0.0925375,-0.2336125
1679915337753,1095326109341082,0.52525,-0.04455,-0.251625
1679915337758,1095326111843312,0.5742,0.035475,-0.28861248
1679915337758,1095326114345774,0.6282375,0.1054625,-0.33165
1679915337761,1095326116848158,0.676225,0.14739999,-0.37565
1679915337763,1095326119350625,0.7321875,0.1764125,-0.42061248
1679915337766,1095326121853087,0.7832,0.19635,-0.46365
1679915337771,1095326124355548,0.8292625,0.21945,-0.504625
1679915337771,1095326126858010,0.8683125,0.2464,-0.5476625
1679915337776,1095326129360471,0.9032375,0.2503875,-0.587675
1679915337776,1095326131862933,0.9362375,0.23539999,-0.6386875
1679915337780,1095326134365163,0.9592,0.199375,-0.6876375
1679915337781,1095326136867625,0.97625,0.1403875,-0.7337
1679915337784,1095326139370111,0.9972875,0.056375,-0.779625
1679915337787,1095326141872572,1.0252,-0.0606375,-0.8166125
1679915337791,1095326144375034,1.0632875,-0.18259999,-0.846725
1679915337791,1095326146877418,1.0982125,-0.2795375,-0.857725
1679915337793,1095326149379898,1.1363,-0.361625,-0.8476875
1679915337796,1095326151882436,1.1782374,-0.4225375,-0.8217
1679915337799,1095326154384821,1.21825,-0.4445375,-0.7836125
1679915337801,1095326156887282,1.2562,-0.4466,-0.7236625
1679915337804,1095326159389778,1.293325,-0.43353748,-0.64762497
1679915337809,1095326161892240,1.3242625,-0.405625,-0.560725
1679915337810,1095326164394470,1.3453,-0.37454998,-0.460625
1679915337811,1095326166897163,1.353275,-0.339625,-0.3416875
1679915337814,1095326169399393,1.348325,-0.25355,-0.2146375
1679915337816,1095326171901835,1.3322375,-0.152625,-0.076725
1679915337819,1095326174404220,1.309275,-0.0625625,0.0573375
1679915337824,1095326176906681,1.281225,0.035475,0.1863125
1679915337824,1095326179409143,1.2463,0.12045,0.30635
1679915337827,1095326181911590,1.2102749,0.1593625,0.419375
1679915337830,1095326184414052,1.166275,0.1703625,0.5223625
1679915337831,1095326186916513,1.1143,0.1854875,0.617375
1679915337833,1095326189418975,1.0553125,0.19139999,0.69629997
1679915337836,1095326191921206,0.9912375,0.188375,0.7693125
1679915337841,1095326194423686,0.913275,0.194425,0.8273375
1679915337841,1095326196926148,0.8162,0.211475,0.8762875
1679915337846,1095326199428609,0.7052375,0.22247499,0.91135
1679915337847,1095326201930994,0.589325,0.221375,0.93334997
1679915337848,1095326204433455,0.473275,0.2393875,0.9422875
1679915337851,1095326206935903,0.3432,0.2784375,0.9483375
1679915337854,1095326209438365,0.2072125,0.320375,0.9373375
1679915337857,1095326211940826,0.072325,0.3554375,0.90639997
1679915337860,1095326214443288,-0.06875,0.3884375,0.864325
1679915337863,1095326216945758,-0.2127125,0.41745,0.8102875
1679915337864,1095326219447989,-0.3617625,0.42941248,0.7442875
1679915337867,1095326221950450,-0.5127375,0.425425,0.66934997
1679915337869,1095326224452912,-0.654775,0.4104375,0.5863
1679915337874,1095326226955374,-0.7907625,0.3964125,0.4943125
1679915337875,1095326229457830,-0.912725,0.3804625,0.391325
1679915337876,1095326231960215,-1.0208,0.370425,0.281325
1679915337880,1095326234462676,-1.1177375,0.3474625,0.1733875
1679915337883,1095326236965138,-1.1977625,0.3194125,0.0683375
1679915337884,1095326239467374,-1.25675,0.2693625,-0.0306625
1679915337886,1095326241970066,-1.2848,0.1843875,-0.1067
1679915337891,1095326244472527,-1.2738,0.0944625,-0.1507
1679915337892,1095326246974989,-1.2337875,0.0064625,-0.17765
1679915337894,1095326249477225,-1.181675,-0.0455125,-0.197725
1679915337896,1095326251979686,-1.12475,-0.058575,-0.2206875
1679915337900,1095326254482148,-1.071675,-0.053625,-0.2366375
1679915337902,1095326256984609,-1.0236875,-0.047575,-0.241725
1679915337904,1095326259487061,-0.978725,-0.041525,-0.23567499
1679915337910,1095326261989446,-0.9227625,-0.053625,-0.19167499
1679915337911,1095326264491907,-0.8787625,-0.0616,-0.1287
1679915337911,1095326266994369,-0.8437,-0.013612499,-0.075625
1679915337914,1095326269496835,-0.8217,0.045375,-0.020624999
1679915337917,1095326271999297,-0.81675,0.09845,0.039325
1679915337924,1095326274501758,-0.8237625,0.156475,0.0963875
1679915337925,1095326277004220,-0.83875,0.2184875,0.154275
1679915337926,1095326279506451,-0.8647375,0.2704625,0.20735
1679915337927,1095326282008912,-0.8977375,0.309375,0.2553375
1679915337929,1095326284511374,-0.9246875,0.3273875,0.29535
1679915337932,1095326287013835,-0.951775,0.3114375,0.3353625
1679915337934,1095326289516220,-0.9796875,0.2564375,0.3663
1679915337936,1095326292018667,-1.006775,0.167475,0.3883
1679915337941,1095326294521129,-1.0346875,0.0664125,0.41635
1679915337942,1095326297023360,-1.061775,-0.0386375,0.4433
1679915337944,1095326299526052,-1.0877625,-0.130625,0.47134998
1679915337947,1095326302028514,-1.105775,-0.229625,0.50435
1679915337950,1095326304530975,-1.116775,-0.3356375,0.5273125
1679915337951,1095326307033206,-1.11375,-0.443575,0.5462875
1679915337954,1095326309535667,-1.1037124,-0.5566,0.561275
1679915337958,1095326312038042,-1.0978,-0.680625,0.5823125
1679915337959,1095326314540581,-1.1017874,-0.800525,0.6204
1679915337961,1095326317043042,-1.1087999,-0.8765625,0.6534
1679915337965,1095326319545427,-1.1116875,-0.91355,0.693275
1679915337966,1095326322047888,-1.1067375,-0.93857497,0.7473125
1679915337969,1095326324550332,-1.0967,-0.9565875,0.8023125
1679915337974,1095326327052563,-1.0877625,-0.9695125,0.8613
1679915337974,1095326329555255,-1.0747,-0.9785875,0.9273
1679915337976,1095326332057716,-1.066725,-0.9956375,0.99137497
1679915337980,1095326334559942,-1.055725,-1.032625,1.057375
1679915337981,1095326337062404,-1.0407375,-1.0956,1.1163625
1679915337984,1095326339564865,-1.0346875,-1.15555,1.1743875
1679915337987,1095326342067327,-1.03675,-1.2035375,1.232275
1679915337991,1095326344569788,-1.04775,-1.2376375,1.2923625
1679915337991,1095326347072210,-1.0648,-1.2566125,1.3583624
1679915337996,1095326349574672,-1.0868,-1.273525,1.430275
1679915337996,1095326352077133,-1.115675,-1.285625,1.513325
1679915338000,1095326354579364,-1.1477125,-1.2865875,1.596375
1679915338002,1095326357082071,-1.1807125,-1.2716,1.6803875
1679915338008,1095326359584533,-1.21275,-1.240525,1.7683874
1679915338009,1095326362086994,-1.24575,-1.191575,1.8662875
1679915338010,1095326364589225,-1.2837,-1.1276375,1.9542875
1679915338012,1095326367091687,-1.314775,-1.05655,2.0422876
1679915338014,1095326369594061,-1.346675,-0.977625,2.124375
1679915338016,1095326372096600,-1.3817375,-0.8845375,2.19835
1679915338020,1095326374599061,-1.4177625,-0.779625,2.261325
1679915338024,1095326377101446,-1.4397625,-0.6785625,2.3144
1679915338024,1095326379603931,-1.468775,-0.592625,2.360325
1679915338027,1095326382106393,-1.490775,-0.509575,2.3914
1679915338030,1095326384608624,-1.5107125,-0.459525,2.41835
1679915338033,1095326387111316,-1.5277625,-0.4525125,2.4433749
1679915338034,1095326389613778,-1.539725,-0.4576,2.4583626
1679915338037,1095326392116008,-1.534775,-0.4536125,2.46235
1679915338041,1095326394618470,-1.5186875,-0.449625,2.4473624
1679915338042,1095326397120931,-1.4997125,-0.4635125,2.4193125
1679915338044,1095326399623311,-1.4667125,-0.498575,2.3733876
1679915338047,1095326402125850,-1.4337125,-0.564575,2.3144
1679915338049,1095326404628234,-1.3937,-0.6656375,2.2543125
1679915338051,1095326407130696,-1.3487375,-0.784575,2.19835
1679915338054,1095326409633153,-1.297725,-0.91162497,2.1423874
1679915338057,1095326412135384,-1.248775,-1.026575,2.09935
1679915338060,1095326414637846,-1.1968,-1.125575,2.0623624
1679915338061,1095326417140538,-1.1418,-1.2095875,2.019325
1679915338064,1095326419643018,-1.0868,-1.2755874,1.975325
1679915338067,1095326422145249,-1.0197,-1.3305875,1.9243125
1679915338070,1095326424647711,-0.9497125,-1.3875124,1.8673875
1679915338071,1095326427150095,-0.8787625,-1.41955,1.8084
1679915338077,1095326429652576,-0.8036875,-1.4345375,1.7423999
1679915338078,1095326432155114,-0.7327375,-1.43055,1.673375
1679915338080,1095326434657499,-0.6587625,-1.4045625,1.6053125
1679915338082,1095326437159961,-0.588775,-1.3556125,1.551275
1679915338084,1095326439662441,-0.521675,-1.28755,1.491325
1679915338086,1095326442164672,-0.4488,-1.207525,1.4383875
1679915338090,1095326444667364,-0.3727625,-1.1136125,1.3963125
1679915338092,1095326447169826,-0.29273748,-1.021625,1.3583624
1679915338094,1095326449672067,-0.2057,-0.927575,1.3303125
1679915338097,1095326452174529,-0.1137125,-0.8386125,1.3134
1679915338100,1095326454676991,-0.021724999,-0.7426375,1.3063875
1679915338101,1095326457179375,0.072325,-0.6615125,1.3113375
1679915338104,1095326459681938,0.16225,-0.581625,1.3223375
1679915338109,1095326462184322,0.2453,-0.4906,1.3443375
1679915338110,1095326464686784,0.325325,-0.3845875,1.370325
1679915338113,1095326467189245,0.4052125,-0.2605625,1.4003
1679915338114,1095326469691476,0.4862,-0.13255,1.4293125
1679915338117,1095326472193914,0.5682875,0.01045,1.4573625
1679915338120,1095326474696606,0.643225,0.145475,1.4812875
1679915338121,1095326477199068,0.7132125,0.2644125,1.50535
1679915338126,1095326479701298,0.7803125,0.364375,1.5224
1679915338127,1095326482203755,0.8372375,0.4664,1.5323
1679915338130,1095326484706216,0.885225,0.5534375,1.5393125
1679915338131,1095326487208601,0.9202875,0.6274125,1.5362875
1679915338134,1095326489711063,0.9422875,0.694375,1.52735
1679915338137,1095326492213509,0.9453125,0.7453875,1.5103
1679915338142,1095326494715971,0.9343125,0.794475,1.485275
1679915338143,1095326497218201,0.9092875,0.8364125,1.4442999
1679915338147,1095326499720663,0.8762875,0.8724375,1.392325
1679915338147,1095326502223120,0.83325,0.8844,1.331275
1679915338149,1095326504725812,0.78429997,0.8834375,1.2533125
1679915338152,1095326507228043,0.7293,0.8624,1.1622875
1679915338157,1095326509730504,0.6802125,0.81743747,1.0632875
1679915338158,1095326512232966,0.633325,0.75941247,0.952325
1679915338160,1095326514735346,0.5952375,0.6774625,0.837375
1679915338162,1095326517237808,0.5732375,0.5894625,0.7222875
1679915338165,1095326519740269,0.5603125,0.4994,0.6083
1679915338167,1095326522242731,0.556325,0.4134625,0.5003625
1679915338169,1095326524745193,0.5622375,0.3444375,0.397375
1679915338176,1095326527247437,0.5732375,0.29947498,0.3023625
1679915338177,1095326529749899,0.5982625,0.2844875,0.21835
1679915338178,1095326532252360,0.62425,0.29741248,0.1403875
1679915338180,1095326534755053,0.655325,0.326425,0.0732875
1679915338184,1095326537257273,0.6923125,0.3674,0.02035
1679915338184,1095326539759735,0.73425,0.425425,-0.0257125
1679915338191,1095326542262120,0.7733,0.480425,-0.0666875
1679915338192,1095326544764581,0.819225,0.5363875,-0.104637496
1679915338192,1095326547267120,0.8592375,0.59345,-0.1406625
1679915338196,1095326549769485,0.9032375,0.6314,-0.1786125
1679915338198,1095326552271947,0.9422875,0.650375,-0.208725
1679915338200,1095326554774178,0.984225,0.6494125,-0.2277
1679915338202,1095326557276639,1.0223125,0.629475,-0.2396625
1679915338207,1095326559779125,1.0553125,0.61036247,-0.2347125
1679915338208,1095326562281817,1.083225,0.584375,-0.219725
1679915338209,1095326564784048,1.1042625,0.562375,-0.1876875
1679915338213,1095326567286509,1.1232375,0.5434,-0.13859999
1679915338214,1095326569788971,1.1363,0.52745,-0.076725
1679915338217,1095326572291355,1.150325,0.502425,2.75E-4
1679915338225,1095326574793817,1.16325,0.4684625,0.0933625
1679915338226,1095326577296279,1.177275,0.4263875,0.198275
1679915338227,1095326579798731,1.1873125,0.38445,0.3073125
1679915338228,1095326582301193,1.1892375,0.337425,0.4173125
1679915338230,1095326584803423,1.1862125,0.293425,0.51535
1679915338232,1095326587305885,1.17425,0.2613875,0.6043125
1679915338234,1095326589808347,1.1622875,0.2204125,0.677325
1679915338236,1095326592311019,1.155275,0.1703625,0.743325
1679915338240,1095326594813250,1.150325,0.1274625,0.798325
1679915338241,1095326597315711,1.1512874,0.084425,0.8443875
1679915338244,1095326599818096,1.1482625,0.0484,0.886325
1679915338247,1095326602320528,1.1422125,0.0174625,0.919325
1679915338249,1095326604822759,1.138225,-0.0105875,0.952325
1679915338252,1095326607325451,1.1352,-0.030524999,0.9843625
1679915338254,1095326609827913,1.1312125,-0.0345125,1.0082875
1679915338258,1095326612330130,1.128325,-0.0215875,1.0302875
1679915338260,1095326614832591,1.1192499,0.0034375,1.0423875
1679915338262,1095326617335053,1.1132,0.032449998,1.0483
1679915338264,1095326619837514,1.10825,0.057475,1.040325
1679915338268,1095326622339976,1.1022,0.0823625,1.024375
1679915338269,1095326624842432,1.0922999,0.1164625,0.9944
1679915338275,1095326627344894,1.084325,0.1544125,0.9543875
1679915338276,1095326629847279,1.0682375,0.189475,0.8993875
1679915338277,1095326632349740,1.0572375,0.2264625,0.8322875
1679915338280,1095326634852188,1.04225,0.2684,0.7583125
1679915338282,1095326637354649,1.028225,0.309375,0.672375
1679915338284,1095326639857111,1.0132375,0.364375,0.5853375
1679915338288,1095326642359342,0.9972875,0.43147498,0.496375
1679915338292,1095326644861803,0.99027497,0.507375,0.4123625
1679915338293,1095326647364279,0.984225,0.606375,0.330275
1679915338297,1095326649866740,0.9752875,0.7264125,0.253275
1679915338298,1095326652369202,0.9642875,0.85745,0.1783375
1679915338300,1095326654871663,0.957275,0.99343747,0.0963875
1679915338302,1095326657374039,0.9422875,1.1144375,0.0143
1679915338304,1095326659876500,0.9202875,1.2134374,-0.0726
1679915338308,1095326662378731,0.8932,1.2904375,-0.1736625
1679915338309,1095326664881424,0.8683125,1.3473625,-0.2827
1679915338312,1095326667383885,0.8322875,1.382425,-0.39765
1679915338314,1095326669886125,0.8012125,1.399475,-0.5086125
1679915338317,1095326672388586,0.7682125,1.3903999,-0.6087125
1679915338320,1095326674891048,0.7473125,1.3693625,-0.6967125
1679915338324,1095326677393509,0.7352125,1.3354,-0.7676625
1679915338325,1095326679895976,0.7272375,1.294425,-0.813725
1679915338327,1095326682398438,0.7302625,1.267475,-0.840675
1679915338330,1095326684900822,0.737275,1.2464375,-0.851675
1679915338333,1095326687403284,0.7442875,1.2293875,-0.8507125
1679915338334,1095326689905486,0.754325,1.2134374,-0.8336625
1679915338337,1095326692407947,0.7712375,1.200375,-0.807675
1679915338342,1095326694910639,0.786225,1.1823624,-0.774675
1679915338343,1095326697413101,0.8023125,1.1754875,-0.7337
1679915338344,1095326699915318,0.8102875,1.1633875,-0.6876375
1679915338347,1095326702417779,0.819225,1.157475,-0.63965
1679915338349,1095326704920241,0.8272,1.14345,-0.5916625
1679915338352,1095326707422625,0.8292625,1.1163625,-0.5396875
1679915338358,1095326709925164,0.8322875,1.0784125,-0.4906
1679915338358,1095326712427625,0.8342125,1.0393625,-0.438625
1679915338360,1095326714930010,0.830225,1.0063624,-0.3777125
1679915338362,1095326717432472,0.819225,0.9774875,-0.3157
1679915338364,1095326719934697,0.809325,0.95645,-0.2476375
1679915338367,1095326722437159,0.7913125,0.9504,-0.1766875
1679915338371,1095326724939851,0.76725,0.9524625,-0.1076625
1679915338375,1095326727442082,0.7382375,0.9604375,-0.032725
1679915338376,1095326729944505,0.70125,0.9884875,0.0363
1679915338377,1095326732446966,0.6512,1.0533875,0.091299996
1679915338381,1095326734949428,0.5922125,1.1174625,0.1364
1679915338382,1095326737451889,0.539275,1.1823624,0.1722875
1679915338385,1095326739954380,0.490325,1.2544125,0.2033625
1679915338388,1095326742456764,0.456225,1.3094125,0.237325
1679915338392,1095326744959226,0.43725,1.3234375,0.2723875
1679915338393,1095326747461457,0.434225,1.3074875,0.3073125
1679915338394,1095326749963899,0.4332625,1.2993749,0.3353625
1679915338397,1095326752466592,0.4192375,1.3244,0.3482875
1679915338400,1095326754969053,0.4002625,1.3814625,0.342375
1679915338402,1095326757471284,0.3722125,1.4383875,0.31735
1679915338408,1095326759973745,0.346225,1.4724874,0.2783
1679915338409,1095326762476207,0.325325,1.4753749,0.2382875
1679915338410,1095326764978592,0.313225,1.4554375,0.19635
1679915338412,1095326767481130,0.3073125,1.4383875,0.1533125
1679915338415,1095326769983515,0.303325,1.4243625,0.1073875
1679915338418,1095326772485985,0.3073125,1.4114375,0.061325
1679915338420,1095326774988447,0.3042875,1.4214749,0.00935
1679915338425,1095326777490677,0.2222,1.57245,-0.086625
1679915338426,1095326779993139,0.06325,1.7644,-0.2167
1679915338427,1095326782495822,-0.0287375,1.7164125,-0.33467498
1679915338430,1095326784998053,-0.02475,1.4753749,-0.417725
1679915338432,1095326787500515,0.0143,1.2934625,-0.4736875
1679915338434,1095326790002976,0.0583,1.2574375,-0.5247
1679915338437,1095326792505438,0.083325,1.321375,-0.5726875
1679915338440,1095326795007806,0.0972125,1.409375,-0.6136625
1679915338442,1095326797510268,0.0952875,1.437425,-0.637725
1679915338447,1095326800012729,0.0873125,1.4124,-0.64968747
1679915338447,1095326802515191,0.069299996,1.343375,-0.64762497
1679915338449,1095326805017437,0.027224999,1.239425,-0.637725
1679915338452,1095326807519898,-0.03575,1.1233749,-0.62067497
1679915338457,1095326810022360,-0.1117875,1.0214875,-0.5726875
1679915338458,1095326812524821,-0.197725,0.948475,-0.50765
1679915338460,1095326815027278,-0.29273748,0.8954,-0.433675
1679915338462,1095326817529740,-0.395725,0.85745,-0.3546125
1679915338465,1095326820032124,-0.505725,0.8303625,-0.2706
1679915338467,1095326822534586,-0.62273747,0.8294,-0.18259999
1679915338469,1095326825037047,-0.758725,0.942425,-0.073699996
1679915338473,1095326827539504,-0.90475,1.1823624,0.0594
1679915338474,1095326830041965,-1.0247875,1.4124,0.2003375
1679915338477,1095326832544196,-1.1308,1.6434,0.3383875
1679915338480,1095326835046658,-1.2207249,1.9204625,0.4673625
1679915338483,1095326837549109,-1.28975,2.2053626,0.5863
1679915338484,1095326840051801,-1.3277,2.4734874,0.69836247
1679915338487,1095326842554032,-1.3407625,2.7374876,0.793375
1679915338490,1095326845056494,-1.3398,3.005475,0.86735
1679915338492,1095326847558955,-1.313675,3.26645,0.925375
1679915338494,1095326850061340,-1.2766875,3.5253625,0.9593375
1679915338497,1095326852563802,-1.22375,3.8003626,0.980375
1679915338500,1095326855066263,-1.1587125,4.0734377,0.9862875
1679915338502,1095326857568725,-1.0868,4.3434873,0.9944
1679915338508,1095326860071196,-1.0217625,4.6363626,0.9972875
1679915338509,1095326862573427,-0.9857375,5.006375,0.996325
1679915338510,1095326865075888,-0.9796875,5.4214873,1.02135
1679915338512,1095326867578350,-0.97377497,5.711475,1.0863875
1679915338515,1095326870081042,-0.97075,5.8694625,1.1603625
1679915338517,1095326872583273,-0.983675,5.9233623,1.2313125
1679915338525,1095326875085735,-1.016675,5.832475,1.287275
1679915338526,1095326877588119,-1.055725,5.5724626,1.3303125
1679915338527,1095326880090595,-1.0877625,5.1654625,1.354375
1679915338528,1095326882593056,-1.1046749,4.710475,1.36235
1679915338530,1095326885095518,-1.1017874,4.2924747,1.3492875
1679915338533,1095326887597979,-1.0737375,3.9164126,1.3303125
1679915338534,1095326890100225,-1.0327625,3.6064875,1.298275
1679915338537,1095326892602687,-0.97679996,3.3704,1.2573
1679915338540,1095326895105148,-0.906675,3.2124126,1.2093124
1679915338542,1095326897607610,-0.8338,3.1143749,1.150325
1679915338544,1095326900110085,-0.7557,3.0553875,1.079375
1679915338548,1095326902612547,-0.681725,3.0193624,0.9972875
1679915338549,1095326905115008,-0.6117375,2.993375,0.9092875
1679915338552,1095326907617393,-0.5487625,2.971375,0.820325
1679915338557,1095326910119850,-0.4928,2.9484124,0.72833747
1679915338559,1095326912622080,-0.44275,2.928475,0.6433625
1679915338560,1095326915124773,-0.3938,2.9154124,0.556325
1679915338563,1095326917627234,-0.3498,2.9123874,0.4763
1679915338565,1095326920129499,-0.3117125,2.9114249,0.397375
1679915338567,1095326922631961,-0.279675,2.9123874,0.3262875
1679915338569,1095326925134422,-0.2457125,2.9084,0.2613875
1679915338574,1095326927636807,-0.2206875,2.8934126,0.2033625
1679915338575,1095326930139359,-0.2096875,2.8744376,0.1593625
1679915338577,1095326932641821,-0.1997875,2.850375,0.1353
1679915338581,1095326935144205,-0.1958,2.8103626,0.127325
1679915338582,1095326937646667,-0.1907125,2.7473874,0.1293875
1679915338584,1095326940149147,-0.17875,2.6673625,0.1392875
1679915338591,1095326942651609,-0.175725,2.576475,0.16335
1679915338592,1095326945154071,-0.1837,2.4844875,0.2083125
1679915338592,1095326947656301,-0.1947,2.3894749,0.2574
1679915338596,1095326950158778,-0.2096875,2.3034,0.3053875
1679915338597,1095326952661239,-0.2327875,2.2174625,0.3482875
1679915338600,1095326955163701,-0.2607,2.125475,0.39435
1679915338602,1095326957666163,-0.2827,2.0414624,0.4283125
1679915338607,1095326960168624,-0.301675,1.9724375,0.451275
1679915338608,1095326962671071,-0.318725,1.9204625,0.4582875
1679915338610,1095326965173455,-0.33275,1.8783875,0.4543
1679915338612,1095326967675917,-0.3498,1.8524,0.44233748
1679915338614,1095326970178148,-0.36574998,1.8294375,0.418275
1679915338617,1095326972680826,-0.373725,1.8004249,0.3922875
1679915338620,1095326975183057,-0.3837625,1.7554625,0.363275
1679915338624,1095326977685518,-0.3856875,1.7103624,0.3383875
1679915338625,1095326980187980,-0.38279998,1.6564626,0.31033748
1679915338628,1095326982690422,-0.3757875,1.602425,0.2833875
1679915338630,1095326985192807,-0.3707,1.5574625,0.2583625
1679915338634,1095326987695345,-0.35475,1.519375,0.2393875
1679915338634,1095326990197807,-0.340725,1.481425,0.2272875
1679915338637,1095326992700192,-0.3168,1.4524125,0.220275
1679915338642,1095326995202667,-0.2957625,1.4133625,0.215325
1679915338643,1095326997704898,-0.274725,1.3684,0.2193125
1679915338644,1095327000207359,-0.2567125,1.3204125,0.2253625
1679915338647,1095327002710052,-0.247775,1.2794375,0.23539999
1679915338649,1095327005212301,-0.23773749,1.239425,0.254375
1679915338652,1095327007714763,-0.2327875,1.1963875,0.2723875
1679915338659,1095327010217225,-0.2277,1.1603625,0.3003
1679915338660,1095327012719686,-0.2277,1.1284626,0.3353625
1679915338661,1095327015222076,-0.230725,1.0973876,0.3702875
1679915338663,1095327017724614,-0.24475,1.0654875,0.4032875
1679915338665,1095327020226999,-0.25575,1.0454125,0.4373875
1679915338668,1095327022729460,-0.268675,1.0344125,0.4673625
1679915338676,1095327025231705,-0.280775,1.0234125,0.495275
1679915338678,1095327027734167,-0.3058,1.0234125,0.5163125
1679915338679,1095327030236859,-0.3227125,1.0383999,0.5333625
1679915338680,1095327032739090,-0.33467498,1.0624624,0.54835
1679915338682,1095327035241551,-0.3487,1.09945,0.556325
1679915338683,1095327037743994,-0.3597,1.14345,0.562375
1679915338685,1095327040246455,-0.36574998,1.1933625,0.5682875
1679915338688,1095327042748840,-0.3727625,1.2403874,0.5743375
1679915338693,1095327045251379,-0.3837625,1.28645,0.57928747
1679915338693,1095327047753826,-0.3927,1.3314124,0.583275
1679915338695,1095327050256211,-0.401775,1.3723875,0.5874
1679915338698,1095327052758441,-0.4037,1.4014,0.5913875
1679915338700,1095327055260903,-0.4057625,1.426425,0.5902875
1679915338702,1095327057763350,-0.40974998,1.4484249,0.5883625
1679915338707,1095327060266042,-0.417725,1.476475,0.57928747
1679915338710,1095327062768273,-0.42473748,1.4894,0.5713125
1679915338710,1095327065270734,-0.4357375,1.4914625,0.5603125
1679915338713,1095327067773192,-0.439725,1.486375,0.5493125
1679915338715,1095327070275576,-0.4417875,1.470425,0.539275
1679915338717,1095327072778038,-0.43175,1.4454,0.5273125
1679915338722,1095327075280499,-0.3157,1.42945,0.5022875
1679915338723,1095327077782961,-0.10175,1.387375,0.4503125
1679915338727,1095327080285398,0.0342375,1.3063875,0.38334998
1679915338728,1095327082787628,0.0782375,1.19845,0.314325
1679915338730,1095327085290090,0.1142625,1.0643874,0.2453
1679915338732,1095327087792551,0.1772375,0.9274375,0.1722875
1679915338734,1095327090295009,0.25025,0.8223875,0.0924
1679915338736,1095327092797470,0.3073125,0.7574875,0.012375
1679915338740,1095327095299932,0.3513125,0.71445,-0.0446875
1679915338742,1095327097802317,0.3702875,0.69245,-0.0697125
1679915338746,1095327100304782,0.3762,0.6754,-0.0697125
1679915338747,1095327102807244,0.3592875,0.6584875,-0.059675
1679915338749,1095327105309782,0.3282125,0.6414375,-0.048675
1679915338751,1095327107812167,0.2902625,0.6323625,-0.0356125
1679915338755,1095327110314398,0.2413125,0.6304375,-0.0246125
1679915338757,1095327112816845,0.18727499,0.640475,-0.0226875
1679915338759,1095327115319307,0.1342,0.6494125,-0.0257125
1679915338761,1095327117821768,0.0862125,0.65945,-0.0356125
1679915338764,1095327120324230,0.050325,0.662475,-0.048675
1679915338766,1095327122826710,0.033275,0.662475,-0.0636625
1679915338769,1095327125329172,0.0312125,0.661375,-0.0836
1679915338772,1095327127831556,0.0433125,0.6584875,-0.104637496
1679915338774,1095327130334018,0.0682,0.6323625,-0.12265
1679915338778,1095327132836529,0.104225,0.5894625,-0.142725
1679915338781,1095327135338990,0.1342,0.530475,-0.1626625
1679915338784,1095327137841221,0.1573,0.4554,-0.185625
1679915338785,1095327140343682,0.1753125,0.376475,-0.2066625
1679915338792,1095327142846144,0.18425,0.28545,-0.2277
1679915338793,1095327145348606,0.1793,0.19139999,-0.2426875
1679915338794,1095327147851067,0.1672,0.0994125,-0.25465
1679915338795,1095327150353529,0.1533125,0.0114124995,-0.262625