system_ts_ms, sensor_ts_ns, gyrX, gyrY, gyrZ
1679916273078,1096261431823224,-0.00165,0.0011,-0.0037125
1679916273078,1096261434325301,-6.875E-4,0.0020625,-6.875E-4
1679916273080,1096261436827454,-6.875E-4,1.375E-4,2.75E-4
1679916273083,1096261439329618,-0.00165,0.0011,0.0033
1679916273085,1096261441831772,-0.00275,-9.625E-4,0.0012375
1679916273088,1096261444334003,-6.875E-4,1.375E-4,0.0012375
1679916273090,1096261446836157,2.75E-4,-0.001925,-0.00275
1679916273098,1096261449338311,-6.875E-4,-0.001925,-0.0037125
1679916273098,1096261451840450,2.75E-4,1.375E-4,2.75E-4
1679916273098,1096261454342604,2.75E-4,-9.625E-4,0.0042625
1679916273101,1096261456844758,0.001375,0.0011,0.0012375
1679916273103,1096261459346912,2.75E-4,0.0050875,0.0012375
1679916273105,1096261461849075,0.0023375,0.0031625,-0.00275
1679916273110,1096261464351229,-0.00275,1.375E-4,0.0012375
1679916273110,1096261466853383,-0.00165,-9.625E-4,0.0022
1679916273114,1096261469355536,-6.875E-4,0.0011,0.0012375
1679916273115,1096261471857695,-6.875E-4,1.375E-4,2.75E-4
1679916273118,1096261474359849,-0.00165,-9.625E-4,0.0022
1679916273120,1096261476862234,-6.875E-4,-9.625E-4,-6.875E-4
1679916273123,1096261479364388,-6.875E-4,-0.001925,2.75E-4
1679916273126,1096261481866531,2.75E-4,-0.001925,0.0012375
1679916273128,1096261484368685,0.0023375,0.0011,-6.875E-4
1679916273131,1096261486870839,2.75E-4,0.0031625,-0.00275
1679916273133,1096261489372762,2.75E-4,-0.001925,2.75E-4
1679916273135,1096261491875152,-6.875E-4,-0.001925,-6.875E-4
1679916273138,1096261494377306,0.001375,-9.625E-4,-6.875E-4
1679916273143,1096261496879460,0.0023375,-9.625E-4,-0.0017875
1679916273143,1096261499381613,0.001375,-0.001925,0.0012375
1679916273145,1096261501883767,0.001375,-9.625E-4,2.75E-4
1679916273148,1096261504385931,2.75E-4,-0.001925,2.75E-4
1679916273152,1096261506888162,-0.00275,0.0011,-6.875E-4
1679916273153,1096261509390239,2.75E-4,0.0011,-6.875E-4
1679916273155,1096261511892393,2.75E-4,0.0020625,2.75E-4
1679916273159,1096261514394550,-0.004675,0.0020625,2.75E-4
1679916273161,1096261516896781,-6.875E-4,-0.0028875,2.75E-4
1679916273163,1096261519398858,2.75E-4,0.0011,-0.00275
1679916273165,1096261521901089,-0.00165,1.375E-4,-6.875E-4
1679916273168,1096261524403243,2.75E-4,0.0020625,0.0022
1679916273170,1096261526905397,-6.875E-4,0.0020625,0.0012375
1679916273173,1096261529407551,2.75E-4,-9.625E-4,-6.875E-4
1679916273176,1096261531909704,-0.00165,0.0011,0.0012375
1679916273178,1096261534411853,-6.875E-4,1.375E-4,0.0012375
1679916273189,1096261536914007,2.75E-4,-0.0028875,0.0022
1679916273189,1096261539416161,0.001375,-0.00495,0.0012375
1679916273189,1096261541918315,0.0023375,-0.00385,-6.875E-4
1679916273190,1096261544420690,0.0023375,-0.00495,2.75E-4
1679916273191,1096261546922613,-0.0037125,-9.625E-4,2.75E-4
1679916273194,1096261549424767,-0.00275,-0.00385,0.0012375
1679916273196,1096261551926921,-6.875E-4,-9.625E-4,-6.875E-4
1679916273198,1096261554429075,2.75E-4,0.0050875,-0.00275
1679916273201,1096261556931229,2.75E-4,-9.625E-4,2.75E-4
1679916273203,1096261559433383,-6.875E-4,-0.001925,0.0022
1679916273206,1096261561935767,-6.875E-4,-9.625E-4,2.75E-4
1679916273210,1096261564437921,0.0023375,-0.001925,-6.875E-4
1679916273211,1096261566940075,0.001375,0.0020625,-6.875E-4
1679916273213,1096261569442229,0.001375,0.0011,0.0022
1679916273216,1096261571944383,-6.875E-4,0.0011,0.0012375
1679916273218,1096261574446537,-6.875E-4,-0.001925,2.75E-4
1679916273221,1096261576948675,-0.00165,-9.625E-4,0.0012375
1679916273223,1096261579450829,-0.00165,-9.625E-4,0.0033
1679916273227,1096261581952983,0.001375,-0.0028875,0.0012375
1679916273228,1096261584455137,0.001375,-9.625E-4,0.0022
1679916273231,1096261586957291,0.001375,0.0020625,-6.875E-4
1679916273233,1096261589459445,-6.875E-4,-9.625E-4,2.75E-4
1679916273235,1096261591961675,-6.875E-4,-0.001925,0.0012375
1679916273238,1096261594463829,-6.875E-4,-0.001925,0.0022
1679916273241,1096261596965983,-6.875E-4,-0.0028875,-6.875E-4
1679916273243,1096261599468137,2.75E-4,0.0011,2.75E-4
1679916273246,1096261601970291,0.001375,-9.625E-4,-6.875E-4
1679916273248,1096261604472445,0.0023375,0.0011,2.75E-4
1679916273250,1096261606974599,-6.875E-4,-9.625E-4,0.0012375
1679916273253,1096261609476752,-0.00165,1.375E-4,-6.875E-4
1679916273256,1096261611978897,-0.00165,0.0011,0.0012375
1679916273259,1096261614481051,0.001375,-0.0028875,-0.0017875
1679916273262,1096261616983205,-0.00165,0.0011,-0.0017875
1679916273264,1096261619485359,-6.875E-4,0.0020625,2.75E-4
1679916273266,1096261621987743,0.001375,0.0031625,0.0012375
1679916273268,1096261624489667,-6.875E-4,-9.625E-4,2.75E-4
1679916273271,1096261626991820,-0.00165,1.375E-4,0.0012375
1679916273273,1096261629494205,-0.00275,-9.625E-4,2.75E-4
1679916273276,1096261631996359,0.001375,-9.625E-4,-6.875E-4
1679916273278,1096261634498262,0.0042625,1.375E-4,0.0022
1679916273281,1096261637000647,-0.00165,0.0011,0.0012375
1679916273283,1096261639502800,2.75E-4,1.375E-4,-6.875E-4
1679916273285,1096261642004954,-6.875E-4,1.375E-4,-6.875E-4
1679916273288,1096261644507099,-0.00275,0.0011,0.0012375
1679916273291,1096261647009253,-0.00275,0.0011,-6.875E-4
1679916273293,1096261649511407,-0.00165,1.375E-4,-6.875E-4
1679916273296,1096261652013638,0.001375,0.0011,-0.0017875
1679916273298,1096261654515724,-6.875E-4,0.0011,2.75E-4
1679916273303,1096261657017877,-6.875E-4,-0.0028875,0.0012375
1679916273304,1096261659520031,2.75E-4,-0.001925,-6.875E-4
1679916273305,1096261662022185,2.75E-4,1.375E-4,-6.875E-4
1679916273309,1096261664524339,-6.875E-4,-9.625E-4,-6.875E-4
1679916273311,1096261667026570,2.75E-4,0.0011,-6.875E-4
1679916273313,1096261669528724,-6.875E-4,-9.625E-4,2.75E-4
1679916273316,1096261672030877,0.001375,-9.625E-4,-6.875E-4
1679916273318,1096261674533046,-0.00165,-0.0028875,-0.0017875
1679916273321,1096261677035200,-0.00165,-9.625E-4,-0.00275
1679916273323,1096261679537354,-6.875E-4,-9.625E-4,-0.0017875
1679916273326,1096261682039508,-6.875E-4,-9.625E-4,-6.875E-4
1679916273328,1096261684541681,2.75E-4,0.0011,-6.875E-4
1679916273331,1096261687043835,2.75E-4,-0.001925,2.75E-4
1679916273333,1096261689545988,2.75E-4,1.375E-4,-6.875E-4
1679916273336,1096261692048142,0.001375,0.0011,-6.875E-4
1679916273339,1096261694550306,0.001375,1.375E-4,2.75E-4
1679916273342,1096261697052691,2.75E-4,-9.625E-4,-6.875E-4
1679916273343,1096261699554845,0.001375,1.375E-4,0.0012375
1679916273345,1096261702056768,0.0023375,1.375E-4,0.0012375
1679916273348,1096261704559152,2.75E-4,0.0011,2.75E-4
1679916273350,1096261707061098,-0.00165,-9.625E-4,-6.875E-4
1679916273353,1096261709563252,0.001375,-9.625E-4,-6.875E-4
1679916273356,1096261712065637,0.001375,0.0011,-6.875E-4
1679916273360,1096261714567791,-6.875E-4,-9.625E-4,2.75E-4
1679916273362,1096261717069926,-0.00165,-9.625E-4,-0.0017875
1679916273363,1096261719572079,-0.00165,0.0031625,-6.875E-4
1679916273366,1096261722074233,0.001375,0.0011,2.75E-4
1679916273368,1096261724576387,0.001375,1.375E-4,-6.875E-4
1679916273371,1096261727078618,-0.00165,0.0011,-6.875E-4
1679916273374,1096261729580681,-0.00165,1.375E-4,2.75E-4
1679916273377,1096261732082835,-0.0037125,-0.0028875,0.0012375
1679916273378,1096261734584989,-0.00165,-0.001925,0.0012375
1679916273383,1096261737087142,-6.875E-4,1.375E-4,2.75E-4
1679916273383,1096261739589325,-0.00275,-9.625E-4,0.0012375
1679916273386,1096261742091556,-0.00165,0.0011,0.0012375
1679916273388,1096261744593710,-0.00165,0.0011,0.0012375
1679916273391,1096261747095864,-0.00165,0.0050875,2.75E-4
1679916273394,1096261749598018,2.75E-4,0.0011,-0.0017875
1679916273396,1096261752100166,0.001375,-0.001925,2.75E-4
1679916273398,1096261754602320,-6.875E-4,-0.0028875,0.0012375
1679916273402,1096261757104705,-0.00165,0.0011,2.75E-4
1679916273403,1096261759606628,-6.875E-4,0.0020625,2.75E-4
1679916273406,1096261762108758,-0.00275,-0.001925,0.0012375
1679916273410,1096261764610912,-0.0037125,-0.0028875,0.0022
1679916273411,1096261767113066,-0.00165,-0.001925,-0.0017875
1679916273415,1096261769615219,-0.00165,1.375E-4,-6.875E-4
1679916273416,1096261772117608,-0.00165,-0.001925,-6.875E-4
1679916273418,1096261774619762,-0.00275,1.375E-4,-6.875E-4
1679916273423,1096261777121685,-0.00165,-9.625E-4,0.0012375
1679916273423,1096261779624070,-0.00275,-0.001925,-6.875E-4
1679916273427,1096261782126204,-6.875E-4,1.375E-4,-6.875E-4
1679916273428,1096261784628358,-6.875E-4,0.0011,2.75E-4
1679916273431,1096261787130512,0.001375,-9.625E-4,2.75E-4
1679916273434,1096261789632666,0.0023375,1.375E-4,0.0022
1679916273436,1096261792134830,-0.00275,-0.001925,2.75E-4
1679916273439,1096261794636984,-6.875E-4,1.375E-4,0.0012375
1679916273444,1096261797139138,0.0033,-0.001925,2.75E-4
1679916273444,1096261799641368,0.001375,-9.625E-4,-0.00275
1679916273446,1096261802143445,2.75E-4,0.0031625,2.75E-4
1679916273448,1096261804645599,2.75E-4,1.375E-4,2.75E-4
1679916273453,1096261807147830,0.001375,1.375E-4,-6.875E-4
1679916273454,1096261809649907,2.75E-4,-0.00385,-0.0017875
1679916273456,1096261812152138,0.001375,-0.00495,0.0012375
1679916273460,1096261814654281,2.75E-4,1.375E-4,2.75E-4
1679916273463,1096261817156435,2.75E-4,-9.625E-4,2.75E-4
1679916273464,1096261819658589,2.75E-4,-9.625E-4,2.75E-4
1679916273467,1096261822160743,-6.875E-4,0.0011,2.75E-4
1679916273468,1096261824662883,-0.00165,1.375E-4,0.0012375
1679916273471,1096261827165267,0.001375,-0.0028875,0.0012375
1679916273473,1096261829667191,-6.875E-4,-0.00385,2.75E-4
1679916273476,1096261832169344,-0.00275,0.0020625,-0.00275
1679916273479,1096261834671498,2.75E-4,0.0011,0.0012375
1679916273482,1096261837173652,0.001375,-0.001925,0.0022
1679916273484,1096261839675806,2.75E-4,-9.625E-4,-0.0017875
1679916273486,1096261842178191,0.001375,-0.001925,2.75E-4
1679916273490,1096261844680339,2.75E-4,-0.001925,-6.875E-4
1679916273491,1096261847182493,-6.875E-4,-9.625E-4,2.75E-4
1679916273494,1096261849684647,-0.00165,1.375E-4,-0.00275
1679916273497,1096261852186801,-6.875E-4,-0.001925,-6.875E-4
1679916273500,1096261854688955,-6.875E-4,0.0011,-0.0017875
1679916273503,1096261857191157,-6.875E-4,-0.001925,2.75E-4
1679916273504,1096261859693234,-0.0037125,-9.625E-4,0.0033
1679916273508,1096261862195387,-0.00275,0.0020625,0.0022
1679916273508,1096261864697541,-0.00165,-9.625E-4,-0.0017875
1679916273512,1096261867199695,2.75E-4,0.0020625,-6.875E-4
1679916273513,1096261869701839,-0.00165,1.375E-4,2.75E-4
1679916273517,1096261872204070,-0.00275,0.0011,2.75E-4
1679916273518,1096261874706224,-0.00275,0.0020625,0.0012375
1679916273523,1096261877208300,-0.0037125,1.375E-4,2.75E-4
1679916273524,1096261879710430,0.001375,-0.001925,-0.0017875
1679916273528,1096261882212661,0.0023375,-9.625E-4,2.75E-4
1679916273529,1096261884714738,-0.00275,-9.625E-4,-6.875E-4
1679916273532,1096261887216969,-0.0037125,-0.0028875,-0.0017875
1679916273534,1096261889719143,-6.875E-4,-0.0028875,-6.875E-4
1679916273536,1096261892221297,-0.00165,-0.001925,2.75E-4
1679916273539,1096261894723450,-0.00165,-0.00385,2.75E-4
1679916273543,1096261897225604,0.001375,-9.625E-4,0.0022
1679916273543,1096261899727758,-6.875E-4,-9.625E-4,2.75E-4
1679916273546,1096261902230143,2.75E-4,0.0020625,-0.0017875
1679916273549,1096261904732297,-6.875E-4,-0.001925,-6.875E-4
1679916273551,1096261907234220,0.001375,1.375E-4,-0.0017875
1679916273554,1096261909736373,0.001375,-0.001925,-0.0017875
1679916273556,1096261912238507,2.75E-4,-0.001925,-0.00275
1679916273559,1096261914740661,-6.875E-4,-9.625E-4,0.0012375
1679916273563,1096261917243046,-6.875E-4,-0.001925,2.75E-4
1679916273567,1096261919745200,0.001375,-9.625E-4,-0.00275
1679916273567,1096261922247354,0.001375,-0.0028875,2.75E-4
1679916273569,1096261924749507,0.001375,-0.001925,0.0012375
1679916273572,1096261927251661,0.001375,0.0011,2.75E-4
1679916273573,1096261929753815,0.001375,-9.625E-4,-6.875E-4
1679916273577,1096261932256070,-0.00165,-0.001925,2.75E-4
1679916273578,1096261934758147,0.001375,0.0031625,2.75E-4
1679916273584,1096261937260301,0.001375,1.375E-4,-0.0017875
1679916273584,1096261939762454,2.75E-4,1.375E-4,2.75E-4
1679916273586,1096261942264608,2.75E-4,0.0031625,2.75E-4
1679916273589,1096261944766737,0.001375,0.0031625,-0.0017875
1679916273592,1096261947268968,0.0023375,0.0011,0.0033
1679916273594,1096261949771122,2.75E-4,-0.00385,0.0033
1679916273596,1096261952273276,2.75E-4,1.375E-4,0.0012375
1679916273600,1096261954775358,2.75E-4,1.375E-4,0.0012375
1679916273604,1096261957277588,0.0023375,1.375E-4,0.0012375
1679916273604,1096261959779742,0.0023375,1.375E-4,2.75E-4
1679916273606,1096261962282127,-0.00165,-9.625E-4,0.0012375
1679916273609,1096261964784036,2.75E-4,-0.001925,0.0012375
1679916273611,1096261967286190,0.0023375,-0.00385,0.0012375
1679916273614,1096261969788344,0.001375,-0.001925,2.75E-4
1679916273616,1096261972290497,0.001375,0.0031625,2.75E-4
1679916273619,1096261974792665,2.75E-4,1.375E-4,2.75E-4
1679916273623,1096261977295050,0.0023375,-9.625E-4,0.0022
1679916273624,1096261979797204,0.001375,0.0011,2.75E-4
1679916273626,1096261982299127,2.75E-4,1.375E-4,-6.875E-4
1679916273629,1096261984801281,0.001375,0.0011,0.0012375
1679916273632,1096261987303454,-6.875E-4,0.0020625,0.0012375
1679916273634,1096261989805607,-6.875E-4,-9.625E-4,2.75E-4
1679916273636,1096261992307992,0.001375,-0.0028875,-0.0017875
1679916273640,1096261994810146,-6.875E-4,0.0011,2.75E-4
1679916273642,1096261997312319,2.75E-4,0.0011,0.0012375
1679916273644,1096261999814473,-6.875E-4,0.0011,0.0012375
1679916273646,1096262002316626,2.75E-4,0.0011,0.0012375
1679916273649,1096262004818780,0.0023375,1.375E-4,0.0022
1679916273652,1096262007321011,2.75E-4,0.0020625,-6.875E-4
1679916273654,1096262009823166,0.0033,-9.625E-4,-6.875E-4
1679916273657,1096262012325243,0.001375,-0.001925,2.75E-4
1679916273659,1096262014827397,0.001375,0.0031625,-6.875E-4
1679916273663,1096262017329551,0.001375,0.0011,-6.875E-4
1679916273664,1096262019831689,2.75E-4,0.0020625,0.0012375
1679916273666,1096262022333920,-0.00165,-0.001925,0.0012375
1679916273669,1096262024836074,-0.00275,-9.625E-4,-6.875E-4
1679916273672,1096262027338228,-6.875E-4,-0.0028875,2.75E-4
1679916273674,1096262029840387,2.75E-4,-0.001925,2.75E-4
1679916273679,1096262032342541,0.001375,-0.0028875,0.0022
1679916273680,1096262034844694,2.75E-4,-0.00495,-6.875E-4
1679916273682,1096262037347079,-0.00165,-0.001925,0.0012375
1679916273684,1096262039849002,-0.0037125,0.0011,-6.875E-4
1679916273687,1096262042351156,-6.875E-4,-9.625E-4,2.75E-4
1679916273689,1096262044853310,-0.00165,1.375E-4,0.0012375
1679916273691,1096262047355464,0.001375,-0.0028875,0.0033
1679916273694,1096262049857627,-6.875E-4,-0.001925,-6.875E-4
1679916273696,1096262052360011,-0.00275,-9.625E-4,-6.875E-4
1679916273699,1096262054862165,2.75E-4,-0.00385,-6.875E-4
1679916273703,1096262057364319,2.75E-4,1.375E-4,2.75E-4
1679916273704,1096262059866242,-0.00165,-9.625E-4,0.0022
1679916273707,1096262062368613,-6.875E-4,-0.00385,0.0012375
1679916273709,1096262064870766,0.001375,0.0011,2.75E-4
1679916273711,1096262067372997,-6.875E-4,0.0020625,-6.875E-4
1679916273716,1096262069875083,-0.004675,-0.001925,-0.0017875
1679916273717,1096262072377237,-0.00165,-0.0028875,2.75E-4
1679916273720,1096262074879391,-6.875E-4,-0.006875,2.75E-4
1679916273722,1096262077381622,-0.00275,-9.625E-4,-6.875E-4
1679916273724,1096262079883699,-6.875E-4,0.0011,-6.875E-4
1679916273726,1096262082385852,2.75E-4,-9.625E-4,0.0012375
1679916273729,1096262084888006,-0.00165,-0.001925,2.75E-4
1679916273731,1096262087390160,-6.875E-4,-9.625E-4,0.0022
1679916273734,1096262089892314,-6.875E-4,-0.001925,0.0022
1679916273737,1096262092394545,0.001375,1.375E-4,2.75E-4
1679916273739,1096262094896699,0.0023375,0.0011,0.0012375
1679916273743,1096262097398852,0.001375,1.375E-4,2.75E-4
1679916273744,1096262099901006,2.75E-4,-9.625E-4,2.75E-4
1679916273746,1096262102403160,2.75E-4,1.375E-4,2.75E-4
1679916273749,1096262104905314,-0.00165,0.0031625,0.0012375
1679916273753,1096262107407464,2.75E-4,1.375E-4,2.75E-4
1679916273754,1096262109909618,0.0033,1.375E-4,-6.875E-4
1679916273756,1096262112411772,-6.875E-4,0.0020625,2.75E-4
1679916273759,1096262114913925,-6.875E-4,1.375E-4,2.75E-4
1679916273762,1096262117416079,-6.875E-4,1.375E-4,-0.0017875
1679916273764,1096262119918233,0.0023375,-9.625E-4,-6.875E-4
1679916273768,1096262122420618,0.001375,0.0011,0.0012375
1679916273769,1096262124922772,-0.00165,0.004125,2.75E-4
1679916273772,1096262127424695,0.0023375,-0.001925,2.75E-4
1679916273774,1096262129926844,0.0023375,-0.0028875,2.75E-4
1679916273777,1096262132428997,2.75E-4,0.0020625,0.0012375
1679916273779,1096262134931151,-6.875E-4,-9.625E-4,2.75E-4
1679916273784,1096262137433536,0.001375,0.0020625,0.0012375
1679916273784,1096262139935699,-0.00165,1.375E-4,0.0022
1679916273786,1096262142437853,-0.00165,-0.00495,0.0012375
1679916273792,1096262144940006,0.0033,1.375E-4,-6.875E-4
1679916273792,1096262147442160,0.0033,0.0031625,2.75E-4
1679916273794,1096262149944300,2.75E-4,0.0050875,2.75E-4
1679916273797,1096262152446531,-0.00165,1.375E-4,0.0012375
1679916273800,1096262154948608,0.001375,0.0050875,2.75E-4
1679916273802,1096262157450762,2.75E-4,1.375E-4,-6.875E-4
1679916273805,1096262159952901,-0.00165,0.0011,-6.875E-4
1679916273806,1096262162455054,-6.875E-4,1.375E-4,-6.875E-4
1679916273809,1096262164957208,-6.875E-4,0.0011,2.75E-4
1679916273812,1096262167459439,0.001375,-9.625E-4,2.75E-4
1679916273814,1096262169961593,0.001375,-0.001925,2.75E-4
1679916273817,1096262172463742,0.0033,-0.001925,2.75E-4
1679916273819,1096262174965896,-6.875E-4,-0.0028875,2.75E-4
1679916273823,1096262177468049,-0.00165,1.375E-4,2.75E-4
1679916273824,1096262179970203,2.75E-4,-0.0028875,-0.0017875
1679916273829,1096262182472555,-6.875E-4,-0.00385,2.75E-4
1679916273830,1096262184974478,0.001375,0.0020625,2.75E-4
1679916273831,1096262187476632,2.75E-4,1.375E-4,-6.875E-4
1679916273836,1096262189978786,2.75E-4,-0.00385,2.75E-4
1679916273837,1096262192480940,-6.875E-4,-0.00495,2.75E-4
1679916273839,1096262194983083,0.001375,-0.001925,2.75E-4
1679916273842,1096262197485468,0.0023375,1.375E-4,-6.875E-4
1679916273844,1096262199987622,0.0023375,-9.625E-4,2.75E-4
1679916273847,1096262202489776,0.001375,-0.00495,-6.875E-4
1679916273849,1096262204991940,2.75E-4,-0.001925,-0.0017875
1679916273852,1096262207493863,-6.875E-4,1.375E-4,-0.0017875
1679916273854,1096262209996247,2.75E-4,-9.625E-4,-0.0017875
1679916273856,1096262212498401,-0.00275,-9.625E-4,0.0012375
1679916273859,1096262215000540,-0.0037125,0.0020625,-6.875E-4
1679916273863,1096262217502694,2.75E-4,0.004125,-6.875E-4
1679916273866,1096262220004848,-0.00165,0.0011,-0.0017875
1679916273866,1096262222507002,-6.875E-4,0.0011,2.75E-4
1679916273869,1096262225009155,2.75E-4,0.0011,0.0022
1679916273872,1096262227511386,-0.00275,1.375E-4,-6.875E-4
1679916273874,1096262230013540,-0.00165,0.0020625,-0.0017875
1679916273877,1096262232515617,-6.875E-4,0.004125,-0.0017875
1679916273879,1096262235017800,2.75E-4,0.004125,2.75E-4
1679916273883,1096262237519954,-0.00165,1.375E-4,2.75E-4
1679916273884,1096262240022184,-6.875E-4,0.0050875,2.75E-4
1679916273887,1096262242524338,0.0023375,0.0011,0.0022
1679916273889,1096262245026511,-6.875E-4,-0.001925,0.0012375
1679916273892,1096262247528665,2.75E-4,1.375E-4,2.75E-4
1679916273894,1096262250030819,-0.00165,1.375E-4,-0.0017875
1679916273897,1096262252532973,-0.00275,0.004125,-6.875E-4
1679916273899,1096262255035113,-0.00275,0.0031625,-0.0017875
1679916273904,1096262257537497,2.75E-4,0.0011,0.0022
1679916273905,1096262260039420,-6.875E-4,1.375E-4,2.75E-4
1679916273907,1096262262541574,-6.875E-4,0.0020625,-6.875E-4
1679916273909,1096262265043732,2.75E-4,0.0031625,2.75E-4
1679916273912,1096262267545886,-6.875E-4,-9.625E-4,-6.875E-4
1679916273914,1096262270048040,-6.875E-4,0.0031625,-6.875E-4
1679916273918,1096262272550424,2.75E-4,0.0050875,0.0022
1679916273919,1096262275052578,2.75E-4,1.375E-4,0.0022
1679916273922,1096262277554732,-0.0037125,1.375E-4,2.75E-4
1679916273924,1096262280056886,-0.00165,-0.0028875,2.75E-4
1679916273928,1096262282559040,-6.875E-4,-0.001925,-0.0017875
1679916273929,1096262285061204,-0.0037125,-0.0028875,-6.875E-4
1679916273933,1096262287563434,-0.0037125,-9.625E-4,0.0012375
1679916273935,1096262290065511,0.001375,0.0020625,-6.875E-4
1679916273936,1096262292567665,-0.00275,0.0011,2.75E-4
1679916273941,1096262295069833,-0.0037125,1.375E-4,2.75E-4
1679916273943,1096262297571987,-6.875E-4,0.0020625,2.75E-4
1679916273944,1096262300074141,2.75E-4,1.375E-4,2.75E-4
1679916273947,1096262302576294,-6.875E-4,0.0020625,-0.0017875
1679916273949,1096262305078525,0.001375,1.375E-4,-0.00275
1679916273952,1096262307580679,2.75E-4,-0.001925,-0.0037125
1679916273954,1096262310082756,-0.00165,-9.625E-4,0.0012375
1679916273956,1096262312584987,-6.875E-4,0.0020625,-0.0017875
1679916273959,1096262315087141,-6.875E-4,-0.001925,-0.0037125
1679916273962,1096262317589233,2.75E-4,-9.625E-4,-0.0017875
1679916273964,1096262320091463,-0.00165,0.0031625,-0.0017875
1679916273967,1096262322593617,-6.875E-4,-9.625E-4,-0.0017875
1679916273969,1096262325095771,-0.00275,0.0011,-6.875E-4
1679916273972,1096262327597925,-0.00165,0.0011,-6.875E-4
1679916273974,1096262330100055,2.75E-4,1.375E-4,2.75E-4
1679916273978,1096262332602209,0.001375,-0.001925,0.0022
1679916273979,1096262335104593,0.0033,-0.00385,2.75E-4
1679916273985,1096262337606501,-0.00275,-0.00385,-0.00275
1679916273985,1096262340108655,2.75E-4,-9.625E-4,2.75E-4
1679916273987,1096262342610809,2.75E-4,1.375E-4,0.0042625
1679916273990,1096262345112963,-0.00165,-9.625E-4,-6.875E-4
1679916273992,1096262347615117,-0.00275,0.0020625,2.75E-4
1679916273995,1096262350117525,-0.00165,-9.625E-4,2.75E-4
1679916273997,1096262352619679,-0.00275,0.0011,0.0012375
1679916274000,1096262355121833,-0.00165,-0.001925,0.0022
1679916274002,1096262357624064,-6.875E-4,1.375E-4,2.75E-4
1679916274004,1096262360126141,2.75E-4,0.004125,-6.875E-4
1679916274007,1096262362628291,-0.00275,0.0020625,-6.875E-4
1679916274009,1096262365130444,2.75E-4,0.0011,0.0022
1679916274012,1096262367632598,-0.004675,-9.625E-4,2.75E-4
1679916274016,1096262370134752,-6.875E-4,0.0031625,2.75E-4
1679916274017,1096262372636973,-6.875E-4,0.0031625,-0.0017875
1679916274019,1096262375139127,-0.00165,-0.0028875,-6.875E-4
1679916274024,1096262377641281,-0.00275,-0.0028875,2.75E-4
1679916274024,1096262380143358,-0.00275,-0.001925,0.0012375
1679916274027,1096262382645588,-6.875E-4,-0.001925,-0.0017875
1679916274029,1096262385147742,-0.00165,-0.001925,-6.875E-4
1679916274032,1096262387649896,-0.00275,-9.625E-4,2.75E-4
1679916274034,1096262390152050,-6.875E-4,-9.625E-4,2.75E-4
1679916274037,1096262392654204,2.75E-4,-9.625E-4,0.0012375
1679916274039,1096262395156339,-0.00275,1.375E-4,0.0012375
1679916274042,1096262397658492,-0.00165,-9.625E-4,-6.875E-4
1679916274044,1096262400160646,2.75E-4,0.0011,-0.00275
1679916274047,1096262402662800,2.75E-4,0.0020625,0.0022
1679916274049,1096262405165171,-0.00165,1.375E-4,2.75E-4
1679916274053,1096262407667094,2.75E-4,-0.001925,-0.0017875
1679916274054,1096262410169248,-6.875E-4,0.0011,0.0022
1679916274057,1096262412671632,0.0023375,-9.625E-4,0.0042625
1679916274059,1096262415173753,2.75E-4,-0.001925,0.0042625
1679916274063,1096262417675676,-0.00275,-0.0028875,2.75E-4
1679916274064,1096262420178061,2.75E-4,0.0011,-6.875E-4
1679916274068,1096262422680215,2.75E-4,1.375E-4,0.0022
1679916274069,1096262425182373,-0.00165,-9.625E-4,2.75E-4
1679916274072,1096262427684526,-0.00275,0.0011,-6.875E-4
1679916274074,1096262430186680,-0.00275,1.375E-4,0.0022
1679916274077,1096262432688834,2.75E-4,-0.001925,2.75E-4
1679916274079,1096262435191056,2.75E-4,-0.001925,-0.0017875
1679916274083,1096262437693133,2.75E-4,-0.00385,-0.00275
1679916274085,1096262440195287,-0.00165,1.375E-4,-0.00275
1679916274087,1096262442697518,2.75E-4,0.0011,-6.875E-4
1679916274091,1096262445199594,2.75E-4,1.375E-4,0.0012375
1679916274092,1096262447701748,-0.00165,1.375E-4,2.75E-4
1679916274094,1096262450203979,-6.875E-4,0.0011,0.0012375
1679916274097,1096262452706133,-0.00165,0.0020625,0.0012375
1679916274100,1096262455208287,-0.0037125,0.0011,0.0012375
1679916274103,1096262457710416,-0.0037125,0.0020625,-6.875E-4
1679916274106,1096262460212569,-6.875E-4,-9.625E-4,-6.875E-4
1679916274108,1096262462714723,2.75E-4,0.0011,-6.875E-4
1679916274109,1096262465217108,-6.875E-4,-9.625E-4,2.75E-4
1679916274112,1096262467719016,-0.00165,0.0020625,0.0012375
1679916274114,1096262470221170,-0.00275,1.375E-4,-0.0017875
1679916274118,1096262472723324,-0.0037125,0.0011,-6.875E-4
1679916274119,1096262475225478,-6.875E-4,0.004125,-6.875E-4
1679916274122,1096262477727627,2.75E-4,-9.625E-4,2.75E-4
1679916274124,1096262480230012,-0.00275,1.375E-4,0.0033
1679916274129,1096262482732166,-0.00165,1.375E-4,0.0012375
1679916274129,1096262485234089,-6.875E-4,-0.0028875,2.75E-4
1679916274134,1096262487736459,2.75E-4,-0.001925,2.75E-4
1679916274134,1096262490238612,-6.875E-4,1.375E-4,0.0012375
1679916274137,1096262492740766,0.001375,1.375E-4,0.0012375
1679916274140,1096262495242920,-0.00275,0.0011,2.75E-4
1679916274144,1096262497745074,-6.875E-4,-0.0028875,-0.0017875
1679916274144,1096262500247228,-6.875E-4,-9.625E-4,2.75E-4
1679916274147,1096262502749382,0.0023375,1.375E-4,2.75E-4
1679916274150,1096262505251536,2.75E-4,0.00605,2.75E-4
1679916274152,1096262507753689,0.001375,1.375E-4,0.0012375
1679916274154,1096262510255949,2.75E-4,1.375E-4,0.0022
1679916274158,1096262512758103,-0.00165,0.0031625,2.75E-4
1679916274160,1096262515260180,-6.875E-4,0.0011,-6.875E-4
1679916274162,1096262517762411,-6.875E-4,-0.0028875,2.75E-4
1679916274169,1096262520264570,-0.00275,-0.00385,-6.875E-4
1679916274170,1096262522766647,-0.00165,1.375E-4,2.75E-4
1679916274170,1096262525268877,-0.00165,-0.00385,0.0012375
1679916274172,1096262527771031,-0.00275,-0.0028875,2.75E-4
1679916274175,1096262530273185,0.001375,-9.625E-4,-0.0017875
1679916274177,1096262532775343,-0.00165,0.0031625,-6.875E-4
1679916274180,1096262535277497,-0.004675,0.0020625,2.75E-4
1679916274185,1096262537779651,-0.00275,1.375E-4,0.0012375
1679916274186,1096262540282035,-6.875E-4,-9.625E-4,0.0033
1679916274187,1096262542783968,-0.00165,-0.0028875,0.0012375
1679916274189,1096262545286122,-0.00165,-9.625E-4,-6.875E-4
1679916274192,1096262547788276,0.001375,-9.625E-4,-0.0017875
1679916274195,1096262550290430,-6.875E-4,-0.0028875,2.75E-4
1679916274197,1096262552792584,-0.00275,-9.625E-4,-6.875E-4
1679916274199,1096262555294978,-0.00165,0.0011,-6.875E-4
1679916274205,1096262557797132,0.001375,-0.001925,0.0012375
1679916274205,1096262560299286,0.001375,-9.625E-4,-6.875E-4
1679916274207,1096262562801440,-6.875E-4,0.0031625,-0.0017875
1679916274210,1096262565303594,-6.875E-4,0.0011,2.75E-4
1679916274212,1096262567805748,2.75E-4,-0.0028875,2.75E-4
1679916274215,1096262570307901,2.75E-4,1.375E-4,0.0012375
1679916274218,1096262572810055,-0.00165,-0.001925,2.75E-4
1679916274219,1096262575312204,-0.00275,-0.001925,-6.875E-4
1679916274223,1096262577814358,2.75E-4,-0.001925,-0.0017875
1679916274224,1096262580316512,2.75E-4,-9.625E-4,2.75E-4
1679916274227,1096262582818666,-0.00165,0.0011,0.0022
1679916274229,1096262585320915,-0.0037125,-0.001925,2.75E-4
1679916274232,1096262587823069,-6.875E-4,-0.0028875,-6.875E-4
1679916274235,1096262590325146,2.75E-4,-9.625E-4,2.75E-4
1679916274237,1096262592827377,-6.875E-4,0.0020625,2.75E-4
1679916274241,1096262595329545,-6.875E-4,-0.001925,-0.0017875
1679916274243,1096262597831699,2.75E-4,1.375E-4,2.75E-4
1679916274245,1096262600333853,-6.875E-4,-0.00495,2.75E-4
1679916274247,1096262602836006,-0.00165,-0.0028875,-6.875E-4
1679916274250,1096262605338160,2.75E-4,1.375E-4,-6.875E-4
1679916274252,1096262607840333,0.001375,-0.0028875,-6.875E-4
1679916274255,1096262610342487,-6.875E-4,-0.001925,-0.0017875
1679916274257,1096262612844641,0.001375,0.0011,2.75E-4
1679916274259,1096262615347025,0.001375,-9.625E-4,2.75E-4
1679916274263,1096262617849165,0.0042625,-0.001925,-6.875E-4
1679916274264,1096262620351088,0.001375,-0.001925,0.0012375
1679916274267,1096262622853473,-0.00165,-0.001925,0.0033
1679916274269,1096262625355396,2.75E-4,-0.00495,2.75E-4
1679916274272,1096262627857781,-0.00165,-0.001925,2.75E-4
1679916274274,1096262630359954,2.75E-4,-9.625E-4,-6.875E-4
1679916274278,1096262632862107,0.0023375,-0.001925,2.75E-4
1679916274280,1096262635364261,-6.875E-4,-0.00495,0.0012375
1679916274282,1096262637866184,0.001375,-0.00385,2.75E-4
1679916274284,1096262640368569,2.75E-4,-9.625E-4,0.0022
1679916274287,1096262642870723,-0.00165,-0.0028875,0.0012375
1679916274289,1096262645372877,2.75E-4,-0.001925,0.0012375
1679916274292,1096262647875031,0.0023375,0.0011,0.0012375
1679916274294,1096262650377199,2.75E-4,-0.0028875,-6.875E-4
1679916274297,1096262652879353,-0.00165,-0.001925,-6.875E-4
1679916274300,1096262655381584,-6.875E-4,-0.001925,-6.875E-4
1679916274303,1096262657883661,-0.00275,1.375E-4,0.0012375
1679916274304,1096262660385906,-0.00165,1.375E-4,0.0012375
1679916274307,1096262662888060,-0.00165,1.375E-4,2.75E-4
1679916274309,1096262665390213,-6.875E-4,-0.001925,-0.00275
1679916274312,1096262667892290,-6.875E-4,1.375E-4,2.75E-4
1679916274316,1096262670394531,-0.00165,-9.625E-4,0.0012375
1679916274317,1096262672896685,-0.00165,0.0020625,0.0012375
1679916274319,1096262675398839,-0.00275,1.375E-4,2.75E-4
1679916274322,1096262677900993,-6.875E-4,0.0020625,-0.00275
1679916274324,1096262680403147,2.75E-4,0.0011,-0.0017875
1679916274327,1096262682905285,-0.00275,-0.0028875,-6.875E-4
1679916274329,1096262685407670,-6.875E-4,-0.0028875,2.75E-4
1679916274332,1096262687909593,0.001375,-0.001925,-6.875E-4
1679916274334,1096262690411747,0.001375,0.0020625,0.0012375
1679916274337,1096262692913901,-6.875E-4,0.0011,0.0012375
1679916274340,1096262695416055,-0.00165,-9.625E-4,-0.0017875
1679916274343,1096262697918209,0.0023375,-0.001925,-6.875E-4
1679916274345,1096262700420593,0.0023375,-0.0028875,0.0012375
1679916274348,1096262702922752,-6.875E-4,-0.0028875,0.0022
1679916274350,1096262705424906,-0.00275,-9.625E-4,0.0012375
1679916274354,1096262707927060,-6.875E-4,-9.625E-4,2.75E-4
1679916274355,1096262710429214,-0.00275,-0.00495,0.0022
1679916274358,1096262712931357,-0.0037125,-0.00495,0.0022
1679916274359,1096262715433511,-0.00165,0.0020625,2.75E-4
1679916274362,1096262717935665,-0.00165,1.375E-4,2.75E-4
1679916274365,1096262720437819,0.001375,0.0011,-0.0017875
1679916274368,1096262722939992,-6.875E-4,-0.0028875,0.0012375
1679916274370,1096262725442146,-0.004675,-0.00385,-6.875E-4
1679916274372,1096262727944300,2.75E-4,0.0011,0.0042625
1679916274375,1096262730446530,2.75E-4,0.0011,2.75E-4
1679916274377,1096262732948684,2.75E-4,-9.625E-4,2.75E-4
1679916274379,1096262735450853,-0.00165,1.375E-4,2.75E-4
1679916274385,1096262737953007,0.0023375,1.375E-4,2.75E-4
1679916274385,1096262740455161,-6.875E-4,-9.625E-4,2.75E-4
1679916274387,1096262742957238,-0.00275,-9.625E-4,2.75E-4
1679916274392,1096262745459477,-6.875E-4,0.0020625,0.0012375
1679916274393,1096262747961631,2.75E-4,-0.001925,0.0012375
1679916274395,1096262750463785,-0.00165,-9.625E-4,0.0022
1679916274397,1096262752965939,-0.00165,1.375E-4,0.0022
1679916274402,1096262755468074,-6.875E-4,0.0020625,-6.875E-4
1679916274403,1096262757970228,0.001375,0.004125,-6.875E-4
1679916274404,1096262760472612,2.75E-4,0.0011,-0.0017875
1679916274407,1096262762974535,2.75E-4,1.375E-4,0.0012375
1679916274410,1096262765476689,2.75E-4,-0.001925,0.0012375
1679916274412,1096262767979069,-0.00165,0.004125,-6.875E-4
1679916274415,1096262770480992,-6.875E-4,0.009075,2.75E-4
1679916274418,1096262772983146,0.001375,0.0050875,2.75E-4
1679916274420,1096262775485530,2.75E-4,0.0011,0.0022
1679916274423,1096262777987680,0.0023375,0.0020625,2.75E-4
1679916274424,1096262780489834,-0.00165,0.0020625,2.75E-4
1679916274429,1096262782991988,-0.00275,0.0020625,0.0012375
1679916274429,1096262785494142,-6.875E-4,0.0020625,0.0022
1679916274433,1096262787996296,2.75E-4,0.0031625,0.0012375
1679916274435,1096262790498469,-0.00275,0.0031625,-6.875E-4
1679916274437,1096262793000622,-0.00165,1.375E-4,-6.875E-4
1679916274440,1096262795502776,-6.875E-4,1.375E-4,0.0033
1679916274442,1096262798004930,-0.00275,0.0020625,2.75E-4
1679916274445,1096262800507104,-0.00275,0.0011,-6.875E-4
1679916274448,1096262803009258,-6.875E-4,-0.001925,-0.0017875
1679916274450,1096262805511489,-0.004675,-0.006875,2.75E-4
1679916274452,1096262808013642,-0.00165,-0.0078375,0.0012375
1679916274455,1096262810515820,-6.875E-4,1.375E-4,2.75E-4
1679916274457,1096262813017974,2.75E-4,0.0011,-6.875E-4
1679916274459,1096262815520128,2.75E-4,-0.001925,-6.875E-4
1679916274463,1096262818022282,-0.004675,-9.625E-4,0.0012375
1679916274466,1096262820524417,-0.00165,-9.625E-4,-6.875E-4
1679916274467,1096262823026571,-0.00165,-0.001925,-6.875E-4
1679916274470,1096262825528724,0.001375,1.375E-4,2.75E-4
1679916274472,1096262828030878,-0.00165,0.0011,2.75E-4
1679916274475,1096262830533032,-6.875E-4,-0.0028875,-0.0017875
1679916274477,1096262833035166,-0.00165,-0.0028875,-6.875E-4
1679916274480,1096262835537551,-0.00275,-0.0028875,-0.0017875
1679916274482,1096262838039704,2.75E-4,-0.0028875,-6.875E-4
1679916274485,1096262840541858,-0.00165,-9.625E-4,2.75E-4
1679916274487,1096262843044012,-0.004675,-9.625E-4,-6.875E-4
1679916274490,1096262845546166,-0.00275,0.0011,0.0022
1679916274492,1096262848048320,-0.00165,0.0020625,0.0022
1679916274496,1096262850550474,-6.875E-4,0.0011,0.0012375
1679916274497,1096262853052624,-0.00275,0.0011,-6.875E-4
1679916274501,1096262855554777,2.75E-4,0.0020625,2.75E-4
1679916274506,1096262858056931,-6.875E-4,0.0011,-6.875E-4
1679916274506,1096262860559085,-0.0037125,0.0020625,2.75E-4
1679916274508,1096262863061248,0.001375,0.0081124995,2.75E-4
1679916274510,1096262865563479,-6.875E-4,0.0011,2.75E-4
1679916274512,1096262868065556,-6.875E-4,0.0031625,2.75E-4
1679916274515,1096262870567786,-6.875E-4,0.004125,2.75E-4
1679916274518,1096262873069873,0.001375,0.0031625,2.75E-4
1679916274521,1096262875572104,2.75E-4,0.0050875,-6.875E-4
1679916274522,1096262878074181,-0.00165,0.004125,2.75E-4
1679916274525,1096262880576412,-6.875E-4,1.375E-4,-6.875E-4
1679916274527,1096262883078566,-0.00165,0.0011,-6.875E-4
1679916274530,1096262885580729,-0.00165,0.0020625,2.75E-4
1679916274534,1096262888082882,-6.875E-4,0.004125,0.0012375
1679916274535,1096262890585036,-6.875E-4,0.0031625,2.75E-4
1679916274538,1096262893087190,2.75E-4,0.0011,2.75E-4
1679916274542,1096262895589561,-6.875E-4,-0.001925,-6.875E-4
1679916274544,1096262898091484,2.75E-4,1.375E-4,0.0012375
1679916274545,1096262900593638,-0.00275,1.375E-4,-6.875E-4
1679916274549,1096262903095791,-0.004675,-0.001925,2.75E-4
1679916274550,1096262905598176,-6.875E-4,-0.001925,2.75E-4
1679916274552,1096262908100316,2.75E-4,1.375E-4,-0.00275
1679916274556,1096262910602470,-6.875E-4,-0.001925,-6.875E-4
1679916274557,1096262913104624,-6.875E-4,-0.001925,2.75E-4
1679916274560,1096262915606777,-0.00275,-9.625E-4,2.75E-4
1679916274562,1096262918108921,-0.00275,0.0011,0.0012375
1679916274565,1096262920611075,-0.0037125,0.0011,2.75E-4
1679916274568,1096262923113229,-0.00275,-9.625E-4,-6.875E-4
1679916274570,1096262925615383,-6.875E-4,-9.625E-4,-6.875E-4
1679916274572,1096262928117537,-0.00275,1.375E-4,0.0012375
1679916274575,1096262930619696,-0.00165,0.0020625,2.75E-4
1679916274579,1096262933121849,-6.875E-4,-9.625E-4,-6.875E-4
1679916274579,1096262935624080,2.75E-4,-0.0028875,0.0012375
1679916274583,1096262938126234,-6.875E-4,0.0011,2.75E-4
1679916274585,1096262940628311,2.75E-4,0.0011,2.75E-4
1679916274587,1096262943130465,0.001375,0.0031625,-6.875E-4
1679916274590,1096262945632696,-0.00275,0.0031625,-6.875E-4
1679916274592,1096262948134849,-6.875E-4,0.0011,-6.875E-4
1679916274595,1096262950637003,-6.875E-4,0.0011,2.75E-4
1679916274598,1096262953139147,-0.00165,-9.625E-4,2.75E-4
1679916274600,1096262955641301,-0.00165,1.375E-4,-6.875E-4
1679916274602,1096262958143455,2.75E-4,-9.625E-4,0.0012375
1679916274605,1096262960645609,0.001375,1.375E-4,-0.0017875
1679916274607,1096262963147758,0.001375,-9.625E-4,-6.875E-4
1679916274610,1096262965650142,2.75E-4,0.0020625,2.75E-4
1679916274612,1096262968152065,-6.875E-4,-0.001925,2.75E-4
1679916274616,1096262970654219,2.75E-4,-9.625E-4,0.0022
1679916274617,1096262973156363,-6.875E-4,-0.001925,2.75E-4
1679916274621,1096262975658517,-6.875E-4,0.0011,-6.875E-4
1679916274623,1096262978160671,-0.00165,1.375E-4,0.0012375
1679916274626,1096262980663055,0.0023375,-0.001925,0.0012375
1679916274628,1096262983165205,0.001375,-0.0028875,-6.875E-4
1679916274630,1096262985667359,-0.00165,-0.00385,2.75E-4
1679916274632,1096262988169513,-6.875E-4,-0.0028875,-6.875E-4
1679916274635,1096262990671667,-0.00165,-0.00385,-6.875E-4
1679916274638,1096262993173821,-6.875E-4,-0.00385,2.75E-4
1679916274641,1096262995676070,-6.875E-4,-0.001925,0.0012375
1679916274642,1096262998178147,0.0042625,1.375E-4,0.0033
1679916274645,1096263000680301,0.001375,1.375E-4,0.0022
1679916274649,1096263003182455,-0.00165,0.0020625,-6.875E-4
1679916274650,1096263005684609,-0.00275,0.0031625,-0.0017875
1679916274654,1096263008186772,-0.00165,-9.625E-4,0.0012375
1679916274655,1096263010689002,0.001375,-0.001925,2.75E-4
1679916274657,1096263013191156,-6.875E-4,-0.001925,0.0022
1679916274660,1096263015693310,-0.004675,0.0020625,2.75E-4
1679916274663,1096263018195464,-0.00275,0.004125,2.75E-4
1679916274665,1096263020697628,-0.00165,0.004125,-6.875E-4
1679916274669,1096263023199782,-0.0067375,0.0050875,2.75E-4
1679916274670,1096263025701936,-0.0037125,0.0050875,0.0012375
1679916274674,1096263028204089,-0.0037125,0.00715,0.0012375
1679916274675,1096263030706247,-0.0037125,0.00605,0.0012375
1679916274679,1096263033208401,2.75E-4,0.00715,-0.0017875
1679916274680,1096263035710555,-0.00165,0.0121,-0.0017875
1679916274683,1096263038212709,-0.00165,0.00605,0.0012375
1679916274685,1096263040715075,-0.00165,0.00715,2.75E-4
1679916274687,1096263043217229,-0.0037125,0.0100375,-6.875E-4
1679916274691,1096263045719383,-0.0037125,0.0121,2.75E-4
1679916274693,1096263048221537,-0.0067375,0.014162499,0.0012375
1679916274695,1096263050723691,-0.0037125,0.015125,-6.875E-4
1679916274698,1096263053225835,-0.00275,0.013062499,0.0012375
1679916274700,1096263055727989,-0.0067375,0.0121,0.0022
1679916274703,1096263058230142,-0.00275,0.0121,2.75E-4
1679916274705,1096263060732296,-0.0056375,0.015125,2.75E-4
1679916274708,1096263063234450,-0.004675,0.0160875,0.0012375
1679916274710,1096263065736604,-0.0056375,0.01705,2.75E-4
1679916274713,1096263068238758,-0.0067375,0.0191125,2.75E-4
1679916274715,1096263070740989,-0.0056375,0.0191125,2.75E-4
1679916274718,1096263073243051,-0.0067375,0.0160875,-0.0017875
1679916274720,1096263075745204,-0.004675,0.0160875,2.75E-4
1679916274722,1096263078247358,-0.00275,0.013062499,2.75E-4
1679916274725,1096263080749512,-0.004675,0.009075,-6.875E-4
1679916274729,1096263083251666,-0.0037125,0.0160875,0.0012375
1679916274730,1096263085753897,-0.0037125,0.0160875,-0.0017875
1679916274732,1096263088256051,-0.004675,0.0100375,-6.875E-4
1679916274735,1096263090758204,-0.00275,0.014162499,-6.875E-4
1679916274738,1096263093260358,-0.00165,0.015125,-6.875E-4
1679916274740,1096263095762527,-0.0037125,0.0121,-0.0017875
1679916274743,1096263098264681,-0.00275,0.013062499,-6.875E-4
1679916274745,1096263100767066,-0.00275,0.0121,0.0012375
1679916274748,1096263103268989,-0.00165,0.0081124995,-6.875E-4
1679916274751,1096263105771138,-0.00165,0.0121,-0.0017875
1679916274752,1096263108273291,-0.00165,0.0121,0.0022
1679916274755,1096263110775445,-6.875E-4,0.0121,0.0022
1679916274757,1096263113277599,-0.00165,0.009075,-0.0017875
1679916274760,1096263115779955,-0.00275,0.0100375,-6.875E-4
1679916274762,1096263118282109,-0.00165,0.00715,-6.875E-4
1679916274766,1096263120784032,-0.00275,0.0081124995,-6.875E-4
1679916274768,1096263123286416,-0.0037125,0.009075,0.0012375
1679916274770,1096263125788575,-6.875E-4,0.00715,0.0022
1679916274772,1096263128290729,-6.875E-4,0.0100375,0.0012375
1679916274775,1096263130792652,0.001375,0.009075,0.0022
1679916274777,1096263133295037,-6.875E-4,0.00605,0.0012375
1679916274780,1096263135797195,-6.875E-4,0.009075,0.0012375
1679916274784,1096263138299348,2.75E-4,0.0050875,0.0012375
1679916274785,1096263140801502,-0.00165,0.0081124995,0.0012375
1679916274788,1096263143303656,-6.875E-4,0.00605,-6.875E-4
1679916274790,1096263145805820,0.001375,0.009075,-6.875E-4
1679916274793,1096263148308051,-6.875E-4,0.0081124995,0.0012375
1679916274795,1096263150810128,-0.00165,0.00715,0.0022
1679916274798,1096263153312282,-0.00165,0.009075,0.0012375
1679916274800,1096263155814512,2.75E-4,0.0081124995,0.0022
1679916274804,1096263158316671,-0.00165,0.0050875,-6.875E-4
1679916274805,1096263160818748,-0.004675,0.0081124995,-6.875E-4
1679916274808,1096263163320979,-0.004675,0.0081124995,2.75E-4
1679916274810,1096263165823133,-0.0037125,0.009075,2.75E-4
1679916274812,1096263168325272,-0.004675,0.00605,-6.875E-4
1679916274816,1096263170827425,-0.004675,0.00605,2.75E-4
1679916274817,1096263173329579,-0.00165,0.00605,2.75E-4
1679916274820,1096263175831733,-6.875E-4,0.00715,0.0033
1679916274824,1096263178333897,-0.00275,0.0081124995,-6.875E-4
1679916274825,1096263180836051,-0.00275,0.0050875,2.75E-4
1679916274828,1096263183338205,-0.00275,0.00605,-0.0017875
1679916274830,1096263185840589,-0.00275,0.0121,-0.0017875
1679916274833,1096263188342512,-0.00165,0.0081124995,0.0012375
1679916274835,1096263190844666,-0.00275,0.004125,0.0022
1679916274838,1096263193347051,-0.004675,0.00715,2.75E-4
1679916274841,1096263195849205,-0.0037125,0.00715,0.0012375
1679916274843,1096263198351128,-0.0037125,0.0100375,2.75E-4
1679916274845,1096263200853507,-0.00165,0.0081124995,2.75E-4
1679916274848,1096263203355661,-0.00275,0.0050875,0.0012375
1679916274851,1096263205857815,0.001375,0.0100375,0.0012375
1679916274852,1096263208359969,-6.875E-4,0.0081124995,0.0012375
1679916274855,1096263210862147,-6.875E-4,0.0050875,0.0022
1679916274858,1096263213364301,2.75E-4,0.00605,-6.875E-4
1679916274860,1096263215866531,-0.00165,0.0081124995,2.75E-4
1679916274864,1096263218368608,-6.875E-4,0.009075,2.75E-4
1679916274866,1096263220870772,-6.875E-4,0.009075,0.0012375
1679916274868,1096263223372926,2.75E-4,0.0050875,0.0012375
1679916274871,1096263225875157,-0.00165,0.00605,0.0012375
1679916274873,1096263228377234,-0.004675,0.00605,-0.0017875
1679916274876,1096263230879354,2.75E-4,0.009075,-0.0017875
1679916274879,1096263233381584,-0.00165,0.0031625,-0.0017875
1679916274880,1096263235883738,-0.00165,0.004125,-6.875E-4
1679916274886,1096263238385892,2.75E-4,0.00605,2.75E-4
1679916274886,1096263240888046,0.0023375,0.0020625,2.75E-4
1679916274887,1096263243390205,-0.00165,1.375E-4,0.0022
1679916274891,1096263245892282,-0.0037125,1.375E-4,0.0022
1679916274894,1096263248394513,-0.00165,0.0011,0.0012375
1679916274895,1096263250896666,0.001375,1.375E-4,0.0022
1679916274898,1096263253398825,2.75E-4,-9.625E-4,0.0022
1679916274901,1096263255900979,-0.004675,0.0011,-6.875E-4
1679916274904,1096263258403133,-0.0037125,-0.0028875,-6.875E-4
1679916274905,1096263260905287,-0.00275,0.0011,2.75E-4
1679916274908,1096263263407671,-0.0037125,-9.625E-4,-0.0017875
1679916274910,1096263265909806,-0.00275,-0.0028875,0.0022
1679916274913,1096263268411960,-6.875E-4,0.0031625,2.75E-4
1679916274917,1096263270914114,-0.00165,1.375E-4,2.75E-4
1679916274921,1096263273416268,-6.875E-4,0.0020625,-6.875E-4
1679916274921,1096263275918195,-0.00165,-0.001925,-0.0037125
1679916274923,1096263278420580,-0.004675,1.375E-4,-0.0017875
1679916274925,1096263280922733,-0.004675,0.0011,0.0012375
1679916274928,1096263283424887,-0.004675,-0.0028875,-6.875E-4
1679916274930,1096263285927085,-0.00165,0.0011,0.0012375
1679916274934,1096263288429239,-0.0037125,0.0020625,0.0022
1679916274935,1096263290931393,-0.00275,0.0050875,2.75E-4
1679916274938,1096263293433547,-0.004675,0.00605,-6.875E-4
1679916274940,1096263295935709,-0.00275,0.0011,2.75E-4
1679916274943,1096263298437940,-0.00275,1.375E-4,-6.875E-4
1679916274945,1096263300940094,-0.00275,0.0031625,0.0022
1679916274948,1096263303442171,-0.00165,1.375E-4,-6.875E-4
1679916274951,1096263305944320,-0.00275,0.004125,2.75E-4
1679916274954,1096263308446551,-0.0037125,0.0011,0.0022
1679916274955,1096263310948705,-0.00275,0.0011,0.0022
1679916274958,1096263313450858,-6.875E-4,1.375E-4,-6.875E-4
1679916274960,1096263315953012,-0.00275,-0.0028875,-6.875E-4
1679916274963,1096263318455162,-0.0037125,1.375E-4,2.75E-4
1679916274965,1096263320957316,-0.004675,-9.625E-4,2.75E-4
1679916274968,1096263323459470,-0.00165,1.375E-4,-6.875E-4
1679916274971,1096263325961624,-0.00165,-0.00385,2.75E-4
1679916274973,1096263328463743,0.0023375,-0.001925,0.0012375
1679916274975,1096263330965897,-0.00165,-0.0028875,2.75E-4
1679916274978,1096263333468051,0.001375,0.0011,0.0012375
1679916274980,1096263335970205,2.75E-4,0.0011,0.0012375
1679916274984,1096263338472600,2.75E-4,-0.00385,0.0012375
1679916274985,1096263340974754,-0.00165,-0.00385,0.0022
1679916274988,1096263343476907,-0.004675,0.0020625,0.0012375
1679916274993,1096263345979061,0.0023375,1.375E-4,0.0012375
1679916274993,1096263348481215,2.75E-4,-0.0028875,-6.875E-4
1679916274996,1096263350983118,-0.00275,-0.00495,-0.0017875
1679916274998,1096263353485503,-0.0037125,-0.001925,0.0012375
1679916275002,1096263355987657,-0.00165,0.0011,-6.875E-4
1679916275003,1096263358489810,2.75E-4,1.375E-4,0.0022
1679916275006,1096263360991950,-0.00275,-9.625E-4,0.0022
1679916275008,1096263363494104,-0.004675,1.375E-4,2.75E-4
1679916275011,1096263365996258,-0.00165,1.375E-4,2.75E-4
1679916275013,1096263368498489,-0.0037125,0.0020625,2.75E-4
1679916275017,1096263371000551,-0.00165,0.0031625,0.0022
1679916275018,1096263373502782,-0.00275,-0.001925,2.75E-4
1679916275021,1096263376004935,-6.875E-4,0.0011,-0.0017875
1679916275024,1096263378507089,-0.00165,0.0020625,2.75E-4
1679916275026,1096263381009166,-0.00275,-9.625E-4,0.0022
1679916275029,1096263383511373,-0.0037125,-0.00385,2.75E-4
1679916275030,1096263386013527,-0.0067375,0.0020625,-6.875E-4
1679916275034,1096263388515681,-0.0067375,1.375E-4,0.0012375
1679916275035,1096263391017834,-0.00275,-0.0028875,2.75E-4
1679916275038,1096263393519988,-0.00275,-0.001925,-6.875E-4
1679916275041,1096263396022147,-0.00275,-0.00495,0.0012375
1679916275043,1096263398524301,-0.004675,-9.625E-4,0.0022
1679916275045,1096263401026455,-0.00275,-0.00385,0.0012375
1679916275049,1096263403528609,-0.0056375,1.375E-4,2.75E-4
1679916275052,1096263406031027,-6.875E-4,-0.001925,-6.875E-4
1679916275053,1096263408532950,-6.875E-4,-0.00385,0.0022
1679916275056,1096263411035104,-0.00165,-0.001925,0.0012375
1679916275058,1096263413537489,-0.00165,-9.625E-4,0.0012375
1679916275060,1096263416039633,-0.00275,-0.001925,0.0012375
1679916275063,1096263418541787,-6.875E-4,-0.001925,0.0012375
1679916275070,1096263421043940,-0.0037125,-0.0028875,-6.875E-4
1679916275070,1096263423546094,-0.00275,-0.001925,2.75E-4
1679916275070,1096263426048248,-0.00275,-0.00495,2.75E-4
1679916275073,1096263428550417,-0.0037125,-0.00385,0.0022
1679916275076,1096263431052571,-0.00275,-9.625E-4,0.0012375
1679916275078,1096263433554725,-6.875E-4,-9.625E-4,-6.875E-4
1679916275082,1096263436056879,-0.00275,-9.625E-4,0.0022
1679916275084,1096263438559051,-0.0037125,-0.0028875,0.0012375
1679916275085,1096263441061205,-0.00275,-0.0028875,0.0012375
1679916275089,1096263443563436,0.0023375,-9.625E-4,0.0012375
1679916275090,1096263446065590,-6.875E-4,-0.001925,-6.875E-4
1679916275093,1096263448567744,0.001375,-0.001925,-0.0017875
1679916275095,1096263451069898,0.001375,-9.625E-4,2.75E-4
1679916275098,1096263453572051,-0.00275,1.375E-4,0.0012375
1679916275101,1096263456074205,-0.00165,1.375E-4,2.75E-4
1679916275105,1096263458576359,-0.00165,-0.001925,-0.0017875
1679916275106,1096263461078484,-0.00165,1.375E-4,-0.0017875
1679916275108,1096263463580638,-6.875E-4,0.0011,2.75E-4
1679916275111,1096263466082792,-6.875E-4,0.0011,2.75E-4
1679916275113,1096263468585176,-0.0056375,1.375E-4,-0.0017875
1679916275115,1096263471087099,-0.00275,-9.625E-4,-0.0017875
1679916275119,1096263473589248,-0.00165,1.375E-4,-6.875E-4
1679916275121,1096263476091402,-0.00275,-0.001925,2.75E-4
1679916275123,1096263478593787,-0.00165,-9.625E-4,-6.875E-4
1679916275125,1096263481095710,-0.004675,-0.001925,-0.00275
1679916275128,1096263483598094,-0.004675,-0.00495,0.0012375
1679916275130,1096263486100233,-0.00165,-0.00495,0.0022
1679916275134,1096263488602387,-0.0037125,-0.00385,-6.875E-4
1679916275135,1096263491104541,-0.00165,1.375E-4,0.0012375
1679916275138,1096263493606695,0.001375,1.375E-4,0.0012375
1679916275142,1096263496108834,-6.875E-4,-0.001925,2.75E-4
1679916275144,1096263498610988,-0.00165,-0.0028875,-6.875E-4
1679916275145,1096263501113141,-6.875E-4,-0.00495,-6.875E-4
1679916275149,1096263503615295,-0.00165,-9.625E-4,0.0012375
1679916275151,1096263506117449,-0.00275,-0.00385,0.0022
1679916275153,1096263508619622,-0.00275,-0.00495,2.75E-4
1679916275157,1096263511121776,-0.00165,-0.001925,0.0022
1679916275157,1096263513624007,-0.0067375,-9.625E-4,0.0022
1679916275161,1096263516126160,-0.00275,-9.625E-4,2.75E-4
1679916275163,1096263518628319,0.0023375,-0.00385,0.0022
1679916275165,1096263521130473,2.75E-4,-9.625E-4,-6.875E-4
1679916275168,1096263523632627,-0.00275,-9.625E-4,2.75E-4
1679916275171,1096263526134781,-0.00165,-0.001925,0.0033
1679916275173,1096263528636935,-6.875E-4,-0.0028875,-6.875E-4
1679916275177,1096263531139089,-0.00165,-9.625E-4,2.75E-4
1679916275179,1096263533641242,-6.875E-4,-9.625E-4,-0.0017875
1679916275181,1096263536143396,-0.00165,-9.625E-4,-6.875E-4
1679916275186,1096263538645550,2.75E-4,-9.625E-4,0.0042625
1679916275186,1096263541147704,-0.00165,0.0031625,2.75E-4
1679916275188,1096263543650098,-0.00165,0.0011,2.75E-4
1679916275191,1096263546152251,-0.0037125,0.0020625,-6.875E-4
1679916275193,1096263548654175,-6.875E-4,0.0020625,-0.00275
1679916275196,1096263551156328,0.001375,-9.625E-4,0.0012375
1679916275198,1096263553658694,0.0033,0.0020625,0.0012375
1679916275201,1096263556160617,2.75E-4,0.004125,2.75E-4
1679916275203,1096263558663002,-6.875E-4,-9.625E-4,0.0012375
1679916275205,1096263561165156,-0.00165,-0.00495,0.0012375
1679916275208,1096263563667324,-0.00165,0.0020625,-6.875E-4
1679916275211,1096263566169478,-6.875E-4,0.00605,2.75E-4
1679916275213,1096263568671632,2.75E-4,0.0020625,-6.875E-4
1679916275219,1096263571173766,-0.00275,-9.625E-4,-0.00275
1679916275220,1096263573675997,-0.0037125,0.0011,-6.875E-4
1679916275221,1096263576178074,-6.875E-4,1.375E-4,0.005225
1679916275225,1096263578680228,-0.00165,-9.625E-4,0.0022
1679916275226,1096263581182381,-0.00275,1.375E-4,-6.875E-4
1679916275228,1096263583684516,-0.0037125,-0.0028875,0.0033
1679916275231,1096263586186670,-0.00275,-9.625E-4,0.0022
1679916275236,1096263588688901,-0.00165,1.375E-4,-0.0017875
1679916275236,1096263591191055,-6.875E-4,0.0011,0.0012375
1679916275238,1096263593693209,-0.00275,1.375E-4,2.75E-4
1679916275240,1096263596195362,-0.00165,0.0011,2.75E-4
1679916275243,1096263598697516,-0.004675,-0.001925,0.0012375
1679916275247,1096263601199670,-0.00165,-0.0028875,0.0012375
1679916275248,1096263603702055,0.0023375,-0.001925,-6.875E-4
1679916275251,1096263606203964,2.75E-4,-0.001925,-6.875E-4
1679916275254,1096263608706118,-0.004675,-0.0028875,-0.0037125
1679916275256,1096263611208272,-6.875E-4,1.375E-4,-0.0017875
1679916275259,1096263613710425,-6.875E-4,-0.001925,0.0022
1679916275260,1096263616212583,-0.0037125,-9.625E-4,0.0012375
1679916275264,1096263618714968,-0.00275,0.0011,0.0033
1679916275265,1096263621217122,-6.875E-4,0.004125,0.0022
1679916275268,1096263623719276,-0.00165,0.0011,-0.0017875
1679916275270,1096263626221429,-6.875E-4,0.0020625,-6.875E-4
1679916275273,1096263628723593,-0.00275,1.375E-4,0.0012375
1679916275276,1096263631225747,-6.875E-4,-9.625E-4,-0.00275
1679916275278,1096263633727901,0.0033,0.0020625,-0.0017875
1679916275281,1096263636230055,0.001375,1.375E-4,2.75E-4
1679916275284,1096263638732228,-0.0037125,-9.625E-4,-0.0017875
1679916275285,1096263641234382,-0.00275,-0.001925,0.0022
1679916275289,1096263643736535,2.75E-4,1.375E-4,0.0022
1679916275292,1096263646238689,-6.875E-4,1.375E-4,-0.00275
1679916275293,1096263648740920,-0.00165,-0.0028875,2.75E-4
1679916275296,1096263651243069,0.001375,-0.00495,2.75E-4
1679916275298,1096263653745146,2.75E-4,-9.625E-4,-6.875E-4
1679916275301,1096263656247300,-6.875E-4,-0.00385,-0.0017875
1679916275304,1096263658749530,0.001375,-0.001925,0.0012375
1679916275306,1096263661251622,-0.0056375,-0.001925,0.0012375
1679916275308,1096263663753853,-0.0077,-9.625E-4,0.0012375
1679916275311,1096263666256007,2.75E-4,1.375E-4,0.0022
1679916275313,1096263668758161,-0.00275,-0.0028875,0.0012375
1679916275316,1096263671260335,-0.0077,-0.00495,-0.0017875
1679916275318,1096263673762489,-0.0037125,-0.001925,-6.875E-4
1679916275321,1096263676264642,0.0023375,-0.00385,-6.875E-4
1679916275324,1096263678767027,2.75E-4,-0.0028875,2.75E-4
1679916275325,1096263681268950,-0.004675,-0.0028875,0.0012375
1679916275329,1096263683771104,-6.875E-4,0.0011,-6.875E-4
1679916275331,1096263686273258,-0.00275,-9.625E-4,-0.0017875
1679916275333,1096263688775412,-0.00275,-9.625E-4,0.0012375
1679916275336,1096263691277566,0.001375,-0.00385,0.0012375
1679916275338,1096263693779950,-0.0037125,-9.625E-4,-6.875E-4
1679916275341,1096263696282104,-0.00275,1.375E-4,-0.0017875
1679916275343,1096263698784258,-0.00275,-0.00385,2.75E-4
1679916275346,1096263701286431,-0.00165,-0.001925,2.75E-4
1679916275348,1096263703788585,-6.875E-4,-9.625E-4,-6.875E-4
1679916275352,1096263706290738,-6.875E-4,0.0011,-6.875E-4
1679916275353,1096263708792969,-6.875E-4,0.0020625,-6.875E-4
1679916275357,1096263711295051,-0.00165,-0.001925,2.75E-4
1679916275358,1096263713797205,-0.0037125,-0.001925,2.75E-4
1679916275362,1096263716299359,2.75E-4,0.0020625,2.75E-4
1679916275363,1096263718801513,0.001375,0.0020625,2.75E-4
1679916275368,1096263721303700,0.001375,1.375E-4,0.0012375
1679916275369,1096263723805931,-0.0037125,1.375E-4,-6.875E-4
1679916275371,1096263726308085,-0.00165,-9.625E-4,2.75E-4
1679916275373,1096263728810162,-0.00165,0.0011,0.0022
1679916275376,1096263731312316,-0.00275,-9.625E-4,2.75E-4
1679916275379,1096263733814547,0.001375,1.375E-4,2.75E-4
1679916275381,1096263736316701,-0.00165,-0.00495,0.0012375
1679916275385,1096263738818854,-6.875E-4,-0.00385,0.0012375
1679916275386,1096263741321008,2.75E-4,-9.625E-4,0.0022
1679916275389,1096263743823161,2.75E-4,-0.001925,2.75E-4
1679916275390,1096263746325315,2.75E-4,-0.00385,-6.875E-4
1679916275394,1096263748827469,-0.00165,1.375E-4,-0.00275
1679916275395,1096263751329623,-0.00165,-0.0028875,-6.875E-4
1679916275398,1096263753831776,-0.004675,-0.001925,-6.875E-4
1679916275401,1096263756333945,-6.875E-4,-0.00385,-6.875E-4
1679916275405,1096263758836099,-6.875E-4,-0.0059125,0.0012375
1679916275406,1096263761338253,-0.00275,1.375E-4,2.75E-4
1679916275408,1096263763840638,-6.875E-4,1.375E-4,2.75E-4
1679916275411,1096263766342797,-0.0037125,0.0031625,2.75E-4
1679916275413,1096263768844720,-0.0037125,-0.0028875,-6.875E-4
1679916275416,1096263771347104,-0.00275,-9.625E-4,2.75E-4
1679916275418,1096263773849258,-0.0037125,0.0020625,2.75E-4
1679916275421,1096263776351402,-0.00165,0.0050875,-6.875E-4
1679916275423,1096263778853556,-0.0037125,1.375E-4,-6.875E-4
1679916275426,1096263781355710,-0.004675,1.375E-4,0.0012375
1679916275428,1096263783857863,-0.00275,1.375E-4,2.75E-4
1679916275431,1096263786360017,2.75E-4,-9.625E-4,-0.00275
1679916275433,1096263788862171,0.001375,1.375E-4,-0.00275
1679916275436,1096263791364325,-0.00165,1.375E-4,-6.875E-4
1679916275438,1096263793866556,-0.00165,1.375E-4,0.0012375
1679916275443,1096263796368633,-0.00275,-9.625E-4,-6.875E-4
1679916275444,1096263798870763,-6.875E-4,0.0020625,-0.0017875
1679916275446,1096263801372916,-6.875E-4,0.004125,-6.875E-4
1679916275448,1096263803875070,-0.00165,-0.001925,0.0012375
1679916275451,1096263806377224,-0.00165,-0.001925,-6.875E-4
1679916275453,1096263808879441,-0.00165,0.0011,-6.875E-4
1679916275456,1096263811381595,0.001375,1.375E-4,2.75E-4
1679916275458,1096263813883749,-6.875E-4,-9.625E-4,-6.875E-4
1679916275462,1096263816385902,2.75E-4,0.0011,0.0012375
1679916275463,1096263818888041,0.001375,1.375E-4,0.0012375
1679916275465,1096263821390195,0.001375,1.375E-4,2.75E-4
1679916275468,1096263823892580,2.75E-4,1.375E-4,2.75E-4
1679916275471,1096263826394503,-6.875E-4,-9.625E-4,2.75E-4
1679916275473,1096263828896657,0.001375,-0.001925,-6.875E-4
1679916275475,1096263831398801,-0.00275,0.0020625,2.75E-4
1679916275480,1096263833900954,-6.875E-4,1.375E-4,2.75E-4
1679916275481,1096263836403108,2.75E-4,-9.625E-4,2.75E-4
1679916275484,1096263838905493,-6.875E-4,0.0020625,0.0012375
1679916275485,1096263841407638,-0.00165,-0.001925,0.0012375
1679916275488,1096263843909561,-6.875E-4,-9.625E-4,-6.875E-4
1679916275490,1096263846411945,-0.00275,0.0031625,-0.0037125
1679916275493,1096263848914099,-6.875E-4,-9.625E-4,2.75E-4
1679916275497,1096263851416277,2.75E-4,-0.001925,2.75E-4
1679916275498,1096263853918431,-0.00275,-0.001925,-0.0017875
1679916275503,1096263856420585,-0.00275,0.0011,0.0012375
1679916275504,1096263858922739,2.75E-4,0.0020625,2.75E-4
1679916275506,1096263861424893,-6.875E-4,0.0020625,-6.875E-4
1679916275509,1096263863927041,-0.0037125,-9.625E-4,-6.875E-4
1679916275511,1096263866429195,-0.0037125,0.0011,-0.0017875
1679916275513,1096263868931426,-0.00275,-0.0028875,-6.875E-4
1679916275519,1096263871433580,-0.00165,-9.625E-4,0.0012375
1679916275519,1096263873935657,-0.00275,0.004125,-0.0017875
1679916275521,1096263876437796,-0.0037125,1.375E-4,-0.0017875
1679916275523,1096263878939950,-6.875E-4,1.375E-4,-0.0017875
1679916275525,1096263881442103,0.001375,1.375E-4,2.75E-4
1679916275529,1096263883944334,0.001375,0.0020625,-0.00275
1679916275531,1096263886446488,-0.00165,1.375E-4,2.75E-4
1679916275535,1096263888948647,-0.00275,0.0011,0.0012375
1679916275536,1096263891450801,-0.00165,-9.625E-4,-6.875E-4
1679916275538,1096263893952955,0.001375,-9.625E-4,-6.875E-4
1679916275541,1096263896455108,2.75E-4,1.375E-4,2.75E-4
1679916275544,1096263898957512,2.75E-4,0.0011,2.75E-4
1679916275546,1096263901459435,-6.875E-4,-0.001925,0.0012375
1679916275548,1096263903961589,-0.00165,0.0011,0.0012375
1679916275551,1096263906463743,0.001375,0.0031625,0.0042625
1679916275555,1096263908965897,0.0023375,1.375E-4,-0.00275
1679916275556,1096263911468051,2.75E-4,-0.0028875,-0.0017875
1679916275558,1096263913970435,-0.0037125,-0.0028875,2.75E-4
1679916275561,1096263916472589,-0.00275,-9.625E-4,0.0012375
1679916275564,1096263918974753,-0.00165,-9.625E-4,2.75E-4
1679916275565,1096263921476676,-0.00275,-0.001925,0.0012375
1679916275569,1096263923979061,0.0023375,-9.625E-4,-0.0017875
1679916275571,1096263926481214,0.001375,-0.0028875,-6.875E-4
1679916275573,1096263928983445,2.75E-4,-9.625E-4,-6.875E-4
1679916275577,1096263931485517,-0.00165,-9.625E-4,0.0012375
1679916275578,1096263933987671,-0.0037125,-0.00495,0.0012375
1679916275585,1096263936489825,-0.00165,-0.00495,-6.875E-4
1679916275586,1096263938991979,-0.00275,1.375E-4,0.0012375
1679916275586,1096263941494133,-6.875E-4,1.375E-4,0.0022
1679916275590,1096263943996392,-0.00165,0.0020625,2.75E-4
1679916275593,1096263946498546,-0.0056375,0.0011,0.0022
1679916275593,1096263949000623,-0.0037125,0.0011,0.0022
1679916275597,1096263951502854,-0.00165,1.375E-4,-6.875E-4
1679916275598,1096263954005008,-0.00275,-0.001925,2.75E-4
1679916275602,1096263956507167,-0.00165,-9.625E-4,2.75E-4
1679916275604,1096263959009320,-6.875E-4,1.375E-4,-0.0017875
1679916275605,1096263961511474,-0.00165,0.0020625,0.0012375
1679916275609,1096263964013628,2.75E-4,1.375E-4,-6.875E-4
1679916275611,1096263966515782,-0.00275,-0.001925,2.75E-4
1679916275614,1096263969017926,-0.0037125,-0.001925,0.0012375
1679916275616,1096263971520080,-0.00275,1.375E-4,2.75E-4
1679916275618,1096263974022234,0.0023375,-0.001925,-0.0017875
1679916275622,1096263976524618,-6.875E-4,-9.625E-4,2.75E-4
1679916275623,1096263979026551,0.001375,0.0011,0.0012375
1679916275626,1096263981528705,0.001375,0.0031625,-6.875E-4
1679916275630,1096263984030859,-6.875E-4,0.004125,-6.875E-4
1679916275631,1096263986533013,-0.00275,-9.625E-4,2.75E-4
1679916275634,1096263989035167,-6.875E-4,0.0031625,-6.875E-4
1679916275636,1096263991537579,-0.00165,1.375E-4,2.75E-4
1679916275639,1096263994039733,0.001375,-0.0028875,0.0022
1679916275641,1096263996541887,0.0023375,1.375E-4,-6.875E-4
1679916275643,1096263999044041,2.75E-4,0.004125,-6.875E-4
1679916275646,1096264001546204,0.0023375,-9.625E-4,-6.875E-4
1679916275648,1096264004048358,2.75E-4,0.0011,-6.875E-4
1679916275651,1096264006550511,-6.875E-4,-0.001925,0.0012375
1679916275653,1096264009052665,0.001375,-9.625E-4,-0.00275
1679916275656,1096264011554829,0.001375,-0.001925,-0.0037125
1679916275658,1096264014057060,2.75E-4,-0.001925,2.75E-4
1679916275662,1096264016559214,2.75E-4,-0.0028875,-0.0017875
1679916275663,1096264019061368,2.75E-4,-0.001925,2.75E-4
1679916275669,1096264021563435,-0.00165,1.375E-4,2.75E-4
1679916275670,1096264024065588,0.001375,0.0011,2.75E-4
1679916275671,1096264026567742,-6.875E-4,-9.625E-4,2.75E-4
1679916275675,1096264029070204,-0.00275,-0.0028875,-0.0017875
1679916275676,1096264031572127,-0.00165,-9.625E-4,-0.0017875
1679916275679,1096264034074262,-0.00275,1.375E-4,-6.875E-4
1679916275682,1096264036576416,-0.00275,-0.001925,-6.875E-4
1679916275685,1096264039078569,-0.00165,-0.0028875,2.75E-4
1679916275686,1096264041580723,-6.875E-4,1.375E-4,2.75E-4
1679916275690,1096264044083113,-0.004675,0.0020625,-6.875E-4
1679916275691,1096264046585267,-0.0037125,-9.625E-4,0.0012375
1679916275694,1096264049087190,-0.0037125,-9.625E-4,-0.0017875
1679916275696,1096264051589344,-0.00165,1.375E-4,-6.875E-4
1679916275699,1096264054091498,2.75E-4,-9.625E-4,0.0012375
1679916275702,1096264056593675,-6.875E-4,0.0020625,0.0022
1679916275705,1096264059095829,-0.00165,1.375E-4,2.75E-4
1679916275706,1096264061598214,-0.00165,-9.625E-4,0.0012375
1679916275708,1096264064100368,-0.00275,1.375E-4,0.0022
1679916275711,1096264066602522,2.75E-4,1.375E-4,0.0022
1679916275713,1096264069104675,2.75E-4,0.0020625,-6.875E-4
1679916275716,1096264071606829,-0.004675,0.0020625,-0.0017875
1679916275719,1096264074108983,-6.875E-4,0.004125,0.0012375
1679916275721,1096264076611214,0.0023375,-9.625E-4,0.0042625
1679916275723,1096264079113257,0.001375,-9.625E-4,2.75E-4
1679916275726,1096264081615411,2.75E-4,0.0011,2.75E-4
1679916275728,1096264084117565,0.0023375,-9.625E-4,2.75E-4
1679916275731,1096264086619718,0.0023375,-0.001925,-0.0017875
1679916275735,1096264089121853,2.75E-4,1.375E-4,-0.0017875
1679916275736,1096264091624084,2.75E-4,1.375E-4,-0.0037125
1679916275739,1096264094126238,2.75E-4,0.0011,-6.875E-4
1679916275743,1096264096628392,0.0023375,0.0011,-0.0048125
1679916275745,1096264099130464,0.001375,0.0020625,0.0022
1679916275746,1096264101632617,-6.875E-4,0.0031625,-6.875E-4
1679916275748,1096264104134848,-0.00275,-0.001925,2.75E-4
1679916275752,1096264106637002,-0.00275,-0.001925,2.75E-4
1679916275754,1096264109139156,-0.00165,-0.0028875,-6.875E-4
1679916275757,1096264111641291,2.75E-4,-0.0028875,0.0012375
1679916275758,1096264114143445,2.75E-4,-0.001925,-6.875E-4
1679916275762,1096264116645599,-0.0037125,-0.0028875,-0.00275
1679916275765,1096264119147752,-6.875E-4,-0.0028875,0.0012375
1679916275766,1096264121650137,-0.00275,-9.625E-4,0.0012375
1679916275769,1096264124152252,-0.00275,-0.001925,2.75E-4
1679916275771,1096264126654175,-0.0037125,0.0031625,2.75E-4
1679916275773,1096264129156329,-0.00275,-9.625E-4,-0.0017875
1679916275776,1096264131658483,-0.00275,-0.001925,-0.0017875
1679916275780,1096264134160655,-0.004675,0.0011,-6.875E-4
1679916275782,1096264136663040,-6.875E-4,1.375E-4,-6.875E-4
1679916275784,1096264139165194,-0.00165,-0.0028875,2.75E-4
1679916275786,1096264141667348,-0.00275,-0.0028875,-0.0017875
1679916275789,1096264144169502,0.0023375,-0.00385,0.0012375
1679916275791,1096264146671671,0.001375,-0.001925,2.75E-4
1679916275793,1096264149173824,-0.00165,-0.0028875,-0.0017875
1679916275796,1096264151676055,0.001375,1.375E-4,2.75E-4
1679916275799,1096264154178132,0.0023375,0.0011,-0.0017875
1679916275801,1096264156680315,-0.00165,0.0011,-6.875E-4
1679916275804,1096264159182469,-0.00165,-0.0028875,-6.875E-4
1679916275806,1096264161684623,2.75E-4,-9.625E-4,2.75E-4
1679916275809,1096264164186776,-0.00165,0.0011,0.0012375
1679916275811,1096264166689007,-6.875E-4,-9.625E-4,2.75E-4
1679916275814,1096264169191146,-6.875E-4,0.0031625,-0.00275
1679916275819,1096264171693300,2.75E-4,-0.00495,-0.0037125
1679916275819,1096264174195454,0.001375,-0.0059125,-6.875E-4
1679916275822,1096264176697608,2.75E-4,-9.625E-4,0.0012375
1679916275823,1096264179199757,2.75E-4,0.0011,-6.875E-4
1679916275826,1096264181702141,-6.875E-4,-0.00385,-6.875E-4
1679916275829,1096264184204064,-6.875E-4,-0.001925,2.75E-4
1679916275832,1096264186706218,0.0023375,0.0011,2.75E-4
1679916275834,1096264189208372,0.0023375,0.0011,0.0012375
1679916275836,1096264191710507,2.75E-4,0.0020625,-6.875E-4
1679916275839,1096264194212661,-0.00165,-9.625E-4,0.0012375
1679916275842,1096264196715045,2.75E-4,-0.001925,-6.875E-4
1679916275845,1096264199217199,2.75E-4,0.0020625,-6.875E-4
1679916275846,1096264201719142,-0.0037125,0.0020625,-6.875E-4
1679916275850,1096264204221296,-0.00275,0.0011,-6.875E-4
1679916275851,1096264206723450,-0.0037125,0.0031625,2.75E-4
1679916275856,1096264209225619,-6.875E-4,0.0031625,-0.00275
1679916275856,1096264211728003,0.001375,1.375E-4,-0.00275
1679916275858,1096264214230157,2.75E-4,1.375E-4,0.0012375
1679916275862,1096264216732311,0.001375,0.0031625,0.0022
1679916275864,1096264219234465,-6.875E-4,1.375E-4,0.0022
1679916275867,1096264221736623,2.75E-4,-0.001925,2.75E-4
1679916275869,1096264224238777,-6.875E-4,-0.0028875,-6.875E-4
1679916275871,1096264226741007,-0.00165,1.375E-4,2.75E-4
1679916275874,1096264229243161,2.75E-4,-9.625E-4,0.0012375
1679916275876,1096264231745234,-0.0037125,-0.00385,0.0012375
1679916275879,1096264234247388,-0.00275,-0.001925,-6.875E-4
1679916275881,1096264236749542,-0.00165,-0.001925,2.75E-4
1679916275884,1096264239251696,-0.00275,-0.0028875,0.0022
1679916275886,1096264241753926,2.75E-4,-9.625E-4,-6.875E-4
1679916275889,1096264244256079,2.75E-4,0.004125,2.75E-4
1679916275894,1096264246758233,2.75E-4,0.0020625,0.0012375
1679916275895,1096264249260387,0.001375,1.375E-4,0.0012375
1679916275896,1096264251762561,-6.875E-4,-9.625E-4,2.75E-4
1679916275900,1096264254264715,2.75E-4,0.0031625,0.0012375
1679916275902,1096264256767099,0.0033,0.004125,2.75E-4
1679916275904,1096264259269022,-6.875E-4,1.375E-4,-6.875E-4
1679916275906,1096264261771190,-6.875E-4,0.0020625,2.75E-4
1679916275909,1096264264273344,0.001375,1.375E-4,0.0022
1679916275912,1096264266775498,0.0023375,0.0031625,0.0012375
1679916275913,1096264269277652,0.0023375,-9.625E-4,-6.875E-4
1679916275919,1096264271780047,-6.875E-4,-0.001925,-6.875E-4
1679916275919,1096264274282200,-0.00165,0.0031625,2.75E-4
1679916275922,1096264276784354,-0.00275,0.0011,2.75E-4
1679916275924,1096264279286277,2.75E-4,-9.625E-4,-6.875E-4
1679916275927,1096264281788431,2.75E-4,-0.001925,2.75E-4
1679916275931,1096264284290844,-0.00275,-9.625E-4,2.75E-4
1679916275932,1096264286792998,-0.00165,0.0020625,2.75E-4
1679916275934,1096264289295151,-6.875E-4,0.0031625,2.75E-4
1679916275937,1096264291797305,2.75E-4,0.0031625,0.0012375
1679916275939,1096264294299459,-6.875E-4,-0.0028875,0.0012375
1679916275942,1096264296801714,0.001375,-0.00385,-6.875E-4
1679916275944,1096264299303791,0.001375,-9.625E-4,-6.875E-4
1679916275946,1096264301805945,0.001375,1.375E-4,2.75E-4
1679916275949,1096264304308099,-0.00165,-0.00385,-0.0017875
1679916275951,1096264306810252,-0.00275,-0.0028875,-0.0017875
1679916275954,1096264309312382,0.001375,-0.0028875,2.75E-4
1679916275956,1096264311814613,-0.00275,-0.001925,-6.875E-4
1679916275959,1096264314316767,-0.00165,-9.625E-4,2.75E-4
1679916275961,1096264316818921,2.75E-4,-0.001925,2.75E-4
1679916275964,1096264319321085,-0.00165,-9.625E-4,2.75E-4
1679916275968,1096264321823238,-0.00165,0.0020625,2.75E-4
1679916275969,1096264324325315,-0.00165,-0.001925,0.0012375
1679916275971,1096264326827546,-0.00165,-0.001925,2.75E-4
1679916275975,1096264329329681,2.75E-4,-0.0028875,-0.0017875
1679916275976,1096264331831835,2.75E-4,-0.00495,-6.875E-4
1679916275979,1096264334333989,-0.00275,-9.625E-4,2.75E-4
1679916275982,1096264336836143,-0.00275,-0.0028875,2.75E-4
1679916275985,1096264339338310,2.75E-4,0.0011,0.0022
1679916275986,1096264341840695,2.75E-4,-9.625E-4,0.0012375
1679916275989,1096264344342849,2.75E-4,-9.625E-4,2.75E-4
1679916275992,1096264346844772,0.001375,-0.001925,-6.875E-4
1679916275994,1096264349346926,2.75E-4,1.375E-4,0.0012375
1679916275997,1096264351849104,-0.0037125,-9.625E-4,2.75E-4
1679916276000,1096264354351488,-0.00165,-9.625E-4,2.75E-4
1679916276001,1096264356853642,-0.004675,-9.625E-4,0.0012375
1679916276007,1096264359355796,-0.00165,0.0011,2.75E-4
1679916276007,1096264361857950,2.75E-4,-9.625E-4,2.75E-4
1679916276009,1096264364360123,-6.875E-4,0.0011,2.75E-4
1679916276012,1096264366862277,-0.00165,1.375E-4,-6.875E-4
1679916276013,1096264369364430,-6.875E-4,0.0020625,2.75E-4
1679916276018,1096264371866661,-6.875E-4,-9.625E-4,2.75E-4
1679916276018,1096264374368728,2.75E-4,-0.00385,2.75E-4
1679916276023,1096264376870882,-0.00275,-9.625E-4,0.0012375
1679916276024,1096264379373036,-0.00275,0.0020625,0.0033
1679916276027,1096264381875190,2.75E-4,0.0020625,0.0012375
1679916276029,1096264384377339,2.75E-4,0.0011,-0.00275
1679916276032,1096264386879569,2.75E-4,-0.001925,-0.0017875
1679916276034,1096264389381723,-0.00275,-0.001925,0.0022
1679916276037,1096264391883877,-0.00165,0.0020625,2.75E-4
1679916276039,1096264394385963,2.75E-4,1.375E-4,-0.0017875
1679916276043,1096264396888117,2.75E-4,1.375E-4,-6.875E-4
1679916276045,1096264399390348,-6.875E-4,1.375E-4,-6.875E-4
1679916276046,1096264401892732,-0.00165,-9.625E-4,-0.0017875
1679916276050,1096264404394651,0.001375,1.375E-4,2.75E-4
1679916276051,1096264406896805,-0.0037125,0.0011,0.0012375
1679916276054,1096264409398959,-0.00165,0.0011,2.75E-4
1679916276056,1096264411901113,-6.875E-4,-0.0028875,2.75E-4
1679916276060,1096264414403247,-6.875E-4,-0.001925,2.75E-4
1679916276062,1096264416905631,-6.875E-4,1.375E-4,-6.875E-4
1679916276065,1096264419407785,-0.00275,-9.625E-4,-0.00275
1679916276067,1096264421909708,-0.00275,-9.625E-4,2.75E-4
1679916276069,1096264424411862,2.75E-4,-0.001925,-6.875E-4
1679916276072,1096264426913987,-6.875E-4,0.0011,-6.875E-4
1679916276073,1096264429416141,-0.00165,0.0011,2.75E-4
1679916276077,1096264431918525,-6.875E-4,0.0011,-0.0017875
1679916276080,1096264434420679,2.75E-4,1.375E-4,-0.00275
1679916276082,1096264436922833,0.001375,0.0011,-0.00275
1679916276085,1096264439424978,0.001375,1.375E-4,2.75E-4
1679916276087,1096264441927132,2.75E-4,-9.625E-4,0.0022
1679916276089,1096264444429286,2.75E-4,1.375E-4,2.75E-4
1679916276092,1096264446931530,-0.00165,1.375E-4,0.0022
1679916276094,1096264449433684,0.0023375,1.375E-4,2.75E-4
1679916276096,1096264451935761,0.001375,-9.625E-4,-6.875E-4
1679916276099,1096264454437915,-6.875E-4,0.0011,0.0012375
1679916276102,1096264456940069,0.001375,0.0011,2.75E-4
1679916276104,1096264459442209,0.0023375,1.375E-4,0.0012375
1679916276107,1096264461944440,2.75E-4,0.0020625,0.005225
1679916276109,1096264464446593,2.75E-4,0.0020625,0.0012375
1679916276111,1096264466948747,0.001375,0.0031625,0.0022
1679916276114,1096264469450906,2.75E-4,0.0011,-6.875E-4
1679916276118,1096264471952983,-6.875E-4,0.0011,0.0012375
1679916276119,1096264474455137,0.001375,1.375E-4,-6.875E-4
1679916276122,1096264476957368,2.75E-4,0.0020625,-6.875E-4
1679916276124,1096264479459785,-0.00275,0.0011,0.0012375
1679916276127,1096264481961708,0.001375,1.375E-4,0.0012375
1679916276129,1096264484463862,-0.00165,-0.00385,0.0012375
1679916276132,1096264486966016,0.001375,1.375E-4,0.0022
1679916276135,1096264489468151,0.001375,0.0031625,0.0012375
1679916276136,1096264491970536,2.75E-4,-0.0028875,0.0022
1679916276139,1096264494472689,0.001375,-9.625E-4,0.0022
1679916276142,1096264496974843,2.75E-4,0.0020625,0.0022
1679916276144,1096264499476766,2.75E-4,0.0020625,0.0022
1679916276146,1096264501978925,-6.875E-4,0.0011,2.75E-4
1679916276151,1096264504481079,0.0023375,1.375E-4,-6.875E-4
1679916276152,1096264506983464,0.0023375,0.0011,0.0022
1679916276156,1096264509485603,2.75E-4,0.0011,0.0012375
1679916276157,1096264511987756,0.001375,-9.625E-4,2.75E-4
1679916276159,1096264514489910,0.0023375,0.004125,0.0012375
1679916276163,1096264516992064,-6.875E-4,0.0020625,2.75E-4
1679916276164,1096264519494218,2.75E-4,0.0011,2.75E-4
1679916276168,1096264521996435,0.001375,1.375E-4,-6.875E-4
1679916276169,1096264524498589,-6.875E-4,-9.625E-4,0.0022
1679916276172,1096264527000742,-6.875E-4,-0.001925,0.0033
1679916276174,1096264529502819,2.75E-4,-0.001925,-6.875E-4
1679916276178,1096264532004973,-0.00275,-9.625E-4,-0.0017875
1679916276179,1096264534507127,-0.00165,-0.001925,-0.0017875
1679916276184,1096264537009358,-0.00165,0.0011,-6.875E-4
1679916276185,1096264539511512,-0.00275,0.0011,-6.875E-4
1679916276188,1096264542013656,-0.00165,-0.0028875,0.0012375
1679916276189,1096264544515809,-0.00165,-9.625E-4,2.75E-4
1679916276193,1096264547017886,2.75E-4,-9.625E-4,-6.875E-4
1679916276194,1096264549520117,-6.875E-4,-0.0028875,0.0012375
1679916276196,1096264552022502,-0.00165,-0.00385,-6.875E-4
1679916276200,1096264554524656,-0.00165,-0.001925,2.75E-4
1679916276202,1096264557026579,-0.00165,-0.0028875,2.75E-4
1679916276204,1096264559528732,2.75E-4,-0.00495,-6.875E-4
1679916276206,1096264562031117,-6.875E-4,1.375E-4,0.0012375
1679916276209,1096264564533257,-0.00275,0.0011,0.0012375
1679916276212,1096264567035411,-0.00165,-9.625E-4,2.75E-4
1679916276214,1096264569537565,-0.00275,-0.001925,0.0022
1679916276217,1096264572039488,0.001375,0.0011,2.75E-4
1679916276219,1096264574541627,0.0023375,1.375E-4,2.75E-4
1679916276224,1096264577044011,-6.875E-4,1.375E-4,2.75E-4
1679916276225,1096264579546165,-0.00165,-9.625E-4,0.0012375
1679916276227,1096264582048319,-0.00165,0.0011,0.0022
1679916276231,1096264584550478,-6.875E-4,0.0020625,2.75E-4
1679916276232,1096264587052632,-6.875E-4,1.375E-4,2.75E-4
1679916276235,1096264589554785,-0.00275,0.0011,-6.875E-4
1679916276237,1096264592057016,0.001375,0.0020625,0.0012375
1679916276240,1096264594559170,0.001375,1.375E-4,-6.875E-4
1679916276243,1096264597061358,-6.875E-4,1.375E-4,2.75E-4
1679916276245,1096264599563435,0.001375,-9.625E-4,0.0012375
1679916276249,1096264602065589,-6.875E-4,0.004125,2.75E-4
1679916276249,1096264604567743,0.001375,0.0031625,-0.0017875
1679916276252,1096264607069973,2.75E-4,0.0020625,-6.875E-4
1679916276255,1096264609572117,-6.875E-4,0.0050875,2.75E-4
1679916276257,1096264612074271,2.75E-4,0.0050875,-6.875E-4
1679916276260,1096264614576425,-6.875E-4,0.0020625,-0.0017875
1679916276263,1096264617078579,0.001375,0.0011,-6.875E-4
1679916276264,1096264619580623,2.75E-4,-9.625E-4,2.75E-4
1679916276268,1096264622082853,0.001375,-0.0028875,2.75E-4
1679916276269,1096264624585007,0.001375,-0.0028875,2.75E-4
1679916276272,1096264627087161,0.001375,1.375E-4,-6.875E-4
1679916276274,1096264629589315,2.75E-4,-0.0028875,2.75E-4
1679916276277,1096264632091497,-6.875E-4,0.0031625,0.0012375
1679916276279,1096264634593651,-0.00165,0.0020625,2.75E-4
1679916276284,1096264637096035,-6.875E-4,-9.625E-4,2.75E-4
1679916276284,1096264639598189,0.0023375,0.0020625,2.75E-4
1679916276287,1096264642100314,0.001375,0.0020625,2.75E-4
1679916276289,1096264644602468,0.0033,0.0011,-0.00275
1679916276292,1096264647104391,0.0033,1.375E-4,2.75E-4
1679916276295,1096264649606545,2.75E-4,-9.625E-4,2.75E-4
1679916276297,1096264652108934,-6.875E-4,-0.001925,0.0033
1679916276300,1096264654611088,2.75E-4,-0.0028875,2.75E-4
1679916276303,1096264657113242,2.75E-4,-0.00385,2.75E-4
1679916276306,1096264659615396,-0.00275,-9.625E-4,2.75E-4
1679916276307,1096264662117521,-0.00165,-9.625E-4,-6.875E-4
1679916276309,1096264664619675,-0.0037125,-0.001925,2.75E-4
1679916276312,1096264667121906,-0.00165,-0.001925,0.0022
1679916276314,1096264669624059,2.75E-4,1.375E-4,0.0012375
1679916276318,1096264672126228,2.75E-4,1.375E-4,2.75E-4
1679916276319,1096264674628382,-0.00165,0.0020625,2.75E-4
1679916276323,1096264677130459,-0.00165,-9.625E-4,2.75E-4
1679916276325,1096264679632613,2.75E-4,1.375E-4,-6.875E-4
1679916276327,1096264682134839,0.001375,0.0031625,0.0022
1679916276329,1096264684636992,2.75E-4,1.375E-4,0.0012375
1679916276334,1096264687139146,-0.004675,-0.0028875,0.0012375
1679916276334,1096264689641300,-0.0056375,1.375E-4,2.75E-4
1679916276337,1096264692143454,-6.875E-4,-0.001925,-6.875E-4
1679916276339,1096264694645512,0.001375,-0.00385,2.75E-4
1679916276346,1096264697147743,0.001375,0.0011,0.0012375
1679916276347,1096264699650127,0.001375,1.375E-4,2.75E-4
1679916276347,1096264702152050,0.001375,-9.625E-4,0.0012375
1679916276350,1096264704654204,-6.875E-4,0.0011,0.0022
1679916276351,1096264707156358,0.001375,1.375E-4,-6.875E-4
1679916276355,1096264709658512,2.75E-4,-0.0028875,-0.00275
1679916276357,1096264712160897,-0.00275,-9.625E-4,2.75E-4
1679916276359,1096264714663065,-0.00275,-9.625E-4,2.75E-4
1679916276362,1096264717165219,2.75E-4,0.0031625,0.0012375
1679916276365,1096264719667373,-0.00165,-9.625E-4,0.0022
1679916276367,1096264722169527,2.75E-4,0.0011,0.0012375
1679916276370,1096264724671455,-6.875E-4,1.375E-4,2.75E-4
1679916276372,1096264727173840,0.0023375,0.0011,-6.875E-4
1679916276375,1096264729675994,0.001375,0.0011,-6.875E-4
1679916276377,1096264732178147,-0.00275,0.0011,0.0012375
1679916276386,1096264734680305,0.001375,0.0011,0.0012375
1679916276386,1096264737182459,-6.875E-4,0.0011,-6.875E-4
1679916276387,1096264739684613,-0.004675,-0.0028875,-6.875E-4
1679916276388,1096264742186767,-0.00275,0.0011,2.75E-4
1679916276390,1096264744688998,-0.00275,0.0020625,2.75E-4
1679916276391,1096264747191151,-6.875E-4,0.0020625,-6.875E-4
1679916276395,1096264749693305,-6.875E-4,-9.625E-4,2.75E-4
1679916276397,1096264752195382,-0.00165,0.004125,-6.875E-4
1679916276399,1096264754697536,-6.875E-4,0.0020625,-0.00275
1679916276403,1096264757199763,-6.875E-4,1.375E-4,-0.0017875
1679916276404,1096264759701917,2.75E-4,1.375E-4,2.75E-4
1679916276407,1096264762204071,-0.00165,0.0020625,2.75E-4
1679916276412,1096264764706224,-0.00165,0.0020625,0.0012375
1679916276413,1096264767208378,0.0023375,0.0031625,2.75E-4
1679916276414,1096264769710531,0.0033,0.0020625,2.75E-4
1679916276418,1096264772212685,0.001375,-9.625E-4,0.0012375
1679916276419,1096264774714839,-0.00275,0.0020625,0.0012375
1679916276425,1096264777217013,-0.00165,0.0050875,-0.0017875
1679916276425,1096264779719167,0.0023375,0.0011,-0.0017875
1679916276427,1096264782221320,0.001375,-9.625E-4,0.0022
1679916276429,1096264784723474,-0.00275,-9.625E-4,2.75E-4
1679916276432,1096264787225859,-6.875E-4,0.0011,-6.875E-4
1679916276435,1096264789728037,2.75E-4,1.375E-4,-6.875E-4
1679916276437,1096264792230191,-0.00275,-0.001925,-6.875E-4
1679916276439,1096264794732344,-0.00275,-0.001925,-0.00275
1679916276443,1096264797234498,0.0023375,1.375E-4,-0.0017875
1679916276445,1096264799736652,2.75E-4,0.0011,0.0012375
1679916276447,1096264802238575,-6.875E-4,1.375E-4,0.0012375
1679916276449,1096264804740960,-6.875E-4,1.375E-4,0.0012375
1679916276452,1096264807243114,2.75E-4,-0.0028875,2.75E-4
1679916276456,1096264809745268,-0.00165,0.0031625,2.75E-4
1679916276457,1096264812247421,0.001375,0.004125,2.75E-4
1679916276459,1096264814749575,0.0033,0.0011,-0.00275
1679916276463,1096264817251729,-0.004675,1.375E-4,-6.875E-4
1679916276464,1096264819753883,-0.0037125,0.0050875,0.0012375
1679916276467,1096264822256109,0.0042625,0.004125,2.75E-4
1679916276469,1096264824758263,0.0023375,-0.00385,-0.0017875
1679916276472,1096264827260416,-0.004675,-0.006875,2.75E-4
1679916276474,1096264829762493,-0.0037125,0.0020625,2.75E-4
1679916276477,1096264832264681,0.0042625,0.0050875,-6.875E-4
1679916276479,1096264834766912,0.0033,0.0011,2.75E-4
1679916276483,1096264837269066,-0.0067375,-0.0078375,2.75E-4
1679916276484,1096264839771143,-0.0056375,0.0011,-6.875E-4
1679916276487,1096264842273354,2.75E-4,0.0081124995,-0.0017875
1679916276490,1096264844775507,2.75E-4,-0.0028875,0.0022
1679916276495,1096264847277661,-0.0056375,-0.0108624995,2.75E-4
1679916276495,1096264849779815,-0.0067375,-0.00495,-6.875E-4
1679916276497,1096264852281969,-0.00275,0.00715,-0.00275
1679916276502,1096264854784123,0.0042625,0.0031625,2.75E-4
1679916276503,1096264857286507,-0.0037125,-0.0138875,0.0033
1679916276505,1096264859788661,-0.01265,-0.0089375,0.0012375
1679916276507,1096264862290844,-0.0077,0.00605,-0.00275
1679916276509,1096264864792998,0.0023375,0.0031625,-6.875E-4
1679916276512,1096264867294921,2.75E-4,-0.012925,2.75E-4
1679916276514,1096264869797075,-0.0067375,-0.0078375,0.0033
1679916276518,1096264872299465,-0.00165,0.0081124995,-6.875E-4
1679916276520,1096264874801618,0.011275,0.009075,-6.875E-4
1679916276522,1096264877303772,-6.875E-4,-0.0099,-6.875E-4
1679916276525,1096264879805926,-0.0086624995,-0.0108624995,-0.00275
1679916276527,1096264882308080,2.75E-4,0.009075,-0.0017875
1679916276531,1096264884810248,0.0053625,0.0050875,-0.0017875
1679916276532,1096264887312402,0.001375,-0.0108624995,2.75E-4
1679916276534,1096264889814556,-0.004675,-0.0059125,2.75E-4
1679916276537,1096264892316786,2.75E-4,0.009075,-0.0037125
1679916276539,1096264894818940,0.00825,0.00715,-6.875E-4
1679916276543,1096264897320993,0.0053625,-9.625E-4,-6.875E-4
1679916276544,1096264899823147,0.001375,-0.00495,-0.0037125
1679916276547,1096264902325301,-0.00165,0.0031625,2.75E-4
1679916276549,1096264904827532,0.001375,0.0081124995,0.0022
1679916276552,1096264907329685,-0.00165,1.375E-4,0.0042625
1679916276555,1096264909831801,-0.004675,-0.001925,0.0022
1679916276557,1096264912333955,-6.875E-4,-9.625E-4,2.75E-4
1679916276560,1096264914836032,0.0023375,0.00605,0.0042625
1679916276562,1096264917338186,2.75E-4,0.0020625,0.0033
1679916276564,1096264919840445,-0.00275,-0.00495,2.75E-4
1679916276568,1096264922342599,-0.00165,-0.001925,2.75E-4
1679916276569,1096264924844752,-6.875E-4,-9.625E-4,0.0012375
1679916276572,1096264927346906,-0.00165,1.375E-4,2.75E-4
1679916276575,1096264929849065,0.001375,0.0031625,-6.875E-4
1679916276577,1096264932351219,0.0053625,0.004125,-6.875E-4
1679916276580,1096264934853604,-0.0067375,-0.00495,-0.0017875
1679916276583,1096264937355527,-0.0116875,1.375E-4,-6.875E-4
1679916276584,1096264939857911,0.0033,0.004125,-0.0017875
1679916276587,1096264942360056,0.001375,-0.0028875,2.75E-4
1679916276590,1096264944861979,-0.0086624995,-0.0169125,-0.00275
1679916276592,1096264947364133,-0.010725,-0.0089375,-0.00275
1679916276595,1096264949866518,-0.00275,0.0081124995,-6.875E-4
1679916276597,1096264952368662,0.0072875,-0.0028875,-0.0037125
1679916276600,1096264954870815,2.75E-4,-0.012925,2.75E-4
1679916276603,1096264957372969,-0.0067375,-0.00385,0.0012375
1679916276606,1096264959875123,-6.875E-4,0.0050875,-6.875E-4
1679916276607,1096264962377041,0.0033,0.0020625,-6.875E-4
1679916276610,1096264964879426,-0.00275,-0.00495,-6.875E-4
1679916276612,1096264967381580,-0.0037125,-0.0059125,-6.875E-4
1679916276614,1096264969883733,-0.00165,0.004125,0.0012375
1679916276617,1096264972385873,0.001375,0.00605,0.0022
1679916276620,1096264974888027,0.001375,-0.006875,-0.0017875
1679916276623,1096264977390181,-0.0037125,-0.006875,2.75E-4
1679916276625,1096264979892412,-0.00165,0.0011,0.0033
1679916276627,1096264982394604,0.0033,0.0031625,-0.0017875
1679916276629,1096264984896758,-0.00165,-9.625E-4,-6.875E-4
1679916276633,1096264987398911,-0.004675,-0.001925,0.0012375
1679916276636,1096264989901065,-0.00275,0.004125,-0.0017875
1679916276637,1096264992403113,0.001375,0.004125,2.75E-4
1679916276640,1096264994905344,0.0053625,0.0020625,-6.875E-4
1679916276644,1096264997407498,-6.875E-4,1.375E-4,-6.875E-4
1679916276645,1096264999909652,2.75E-4,-0.001925,0.0012375
1679916276648,1096265002411805,2.75E-4,0.0020625,-0.0017875
1679916276649,1096265004913959,-6.875E-4,1.375E-4,0.0022
1679916276652,1096265007416113,-0.0067375,0.0011,-6.875E-4
1679916276655,1096265009918498,-6.875E-4,0.0020625,2.75E-4
1679916276658,1096265012420431,2.75E-4,-0.001925,2.75E-4
1679916276659,1096265014922585,-0.00165,-0.0059125,-6.875E-4
1679916276663,1096265017424969,-0.00165,1.375E-4,0.0022
1679916276664,1096265019927123,0.0033,0.0011,2.75E-4
1679916276669,1096265022429027,0.0053625,-0.00385,-6.875E-4
1679916276670,1096265024931412,-0.004675,-0.006875,2.75E-4
1679916276673,1096265027433566,-0.0086624995,-0.00385,-0.00275
1679916276674,1096265029935720,0.001375,1.375E-4,-0.0037125
1679916276678,1096265032437863,0.0053625,-0.00385,-6.875E-4
1679916276681,1096265034940017,-0.00165,-0.00495,2.75E-4
1679916276684,1096265037442171,-0.00275,-9.625E-4,-6.875E-4
1679916276685,1096265039944325,-0.0037125,0.0020625,2.75E-4
1679916276687,1096265042446479,-0.0067375,-9.625E-4,-6.875E-4
1679916276690,1096265044948619,-0.00165,-0.0028875,-0.0017875
1679916276692,1096265047450773,-0.00165,-0.00385,0.0012375
1679916276695,1096265049952926,2.75E-4,-0.0028875,-0.0017875
1679916276698,1096265052455080,2.75E-4,0.0011,0.0012375
1679916276700,1096265054957306,0.0023375,0.004125,-6.875E-4
1679916276703,1096265057459460,0.0023375,-0.0028875,2.75E-4
1679916276705,1096265059961614,-0.009625,-0.0078375,0.0022
1679916276707,1096265062463768,-0.0056375,0.0031625,-6.875E-4
1679916276710,1096265064965930,0.0042625,0.009075,0.0012375
1679916276712,1096265067468084,0.0023375,-9.625E-4,0.0012375
1679916276715,1096265069970238,-0.0056375,-0.006875,-6.875E-4
1679916276719,1096265072472392,-0.0037125,0.004125,-6.875E-4
1679916276720,1096265074974580,0.0053625,0.014162499,0.0012375
1679916276723,1096265077476734,0.0072875,0.0031625,-6.875E-4
1679916276725,1096265079978888,-0.0067375,-0.00495,-6.875E-4
1679916276727,1096265082481041,-0.010725,0.0020625,0.0012375
1679916276729,1096265084983426,0.001375,0.013062499,-0.0017875
1679916276732,1096265087485315,0.0053625,1.375E-4,-6.875E-4
1679916276734,1096265089987469,2.75E-4,-0.0119624995,-6.875E-4
1679916276737,1096265092489623,-0.00275,-0.00385,-6.875E-4
1679916276740,1096265094992007,0.001375,0.00715,2.75E-4
1679916276745,1096265097493960,0.011275,0.004125,0.0012375
1679916276746,1096265099996344,-6.875E-4,-0.0119624995,0.0012375
1679916276747,1096265102498498,-0.0077,-0.00495,2.75E-4
1679916276750,1096265105000652,-0.0037125,0.0050875,2.75E-4
1679916276752,1096265107502821,0.0033,0.0011,-6.875E-4
1679916276756,1096265110005051,-0.00165,-0.0099,-6.875E-4
1679916276757,1096265112507128,-0.0056375,-0.0059125,0.0012375
1679916276759,1096265115009282,0.001375,0.0081124995,-6.875E-4
1679916276763,1096265117511450,0.00825,0.009075,-0.0017875
1679916276764,1096265120013604,0.001375,-0.001925,0.0012375
1679916276767,1096265122515758,-0.0067375,-0.006875,0.0022
1679916276769,1096265125017989,-0.0077,1.375E-4,2.75E-4
1679916276773,1096265127520142,0.0033,0.0050875,0.0012375
1679916276775,1096265130022219,0.0042625,-0.001925,2.75E-4
1679916276777,1096265132524450,-6.875E-4,-0.006875,-6.875E-4
1679916276780,1096265135026604,-0.00275,0.0020625,0.0012375
1679916276784,1096265137528772,0.0023375,0.0081124995,-6.875E-4
1679916276785,1096265140030926,0.0103124995,0.0081124995,-6.875E-4
1679916276787,1096265142533080,0.0023375,-0.001925,-6.875E-4
1679916276790,1096265145035233,-0.00275,-9.625E-4,2.75E-4
1679916276794,1096265147537373,-0.0056375,0.0011,2.75E-4
1679916276795,1096265150039527,-0.0056375,0.0020625,-0.0017875
1679916276797,1096265152541681,0.001375,1.375E-4,2.75E-4
1679916276801,1096265155044066,0.0033,-0.0059125,-6.875E-4
1679916276803,1096265157546219,-0.00165,-0.0059125,-0.0017875
1679916276805,1096265160048172,-0.0037125,1.375E-4,2.75E-4
1679916276808,1096265162550325,0.001375,0.009075,0.0012375
1679916276809,1096265165052479,0.0103124995,0.0031625,0.0022
1679916276812,1096265167554633,2.75E-4,-0.0119624995,0.0012375
1679916276815,1096265170057022,-0.0077,-0.006875,-6.875E-4
1679916276818,1096265172559176,-6.875E-4,0.0081124995,-0.0017875
1679916276820,1096265175061329,0.0042625,0.004125,2.75E-4
1679916276824,1096265177563483,0.0023375,-0.0099,0.0022
1679916276825,1096265180065637,-0.004675,-0.00385,2.75E-4
1679916276828,1096265182567791,2.75E-4,0.0081124995,-0.0017875
1679916276832,1096265185070022,0.011275,0.0050875,-6.875E-4
1679916276832,1096265187572099,-0.00275,-0.0089375,2.75E-4
1679916276835,1096265190074282,-0.0056375,-0.0078375,2.75E-4
1679916276838,1096265192576435,0.0033,0.013062499,-6.875E-4
1679916276840,1096265195078589,0.0042625,0.013062499,-6.875E-4
1679916276844,1096265197580743,0.001375,-0.00495,2.75E-4
1679916276845,1096265200082974,-0.0056375,-0.0099,2.75E-4
1679916276847,1096265202585143,-0.0056375,1.375E-4,0.0012375
1679916276850,1096265205087297,0.0033,0.00605,-6.875E-4
1679916276852,1096265207589450,0.0042625,1.375E-4,2.75E-4
1679916276855,1096265210091604,0.0033,-0.0059125,2.75E-4
1679916276857,1096265212593705,-6.875E-4,-0.00385,-6.875E-4
1679916276860,1096265215096167,-0.00165,0.004125,-0.0017875
1679916276864,1096265217598090,0.0023375,0.0031625,-6.875E-4
1679916276865,1096265220100244,2.75E-4,1.375E-4,0.0012375
1679916276869,1096265222602402,-0.00165,-0.001925,0.0022
1679916276870,1096265225104555,-6.875E-4,0.00715,-6.875E-4
1679916276873,1096265227606709,-0.0037125,0.0081124995,2.75E-4
1679916276875,1096265230109094,-0.00165,0.0011,0.0012375
1679916276878,1096265232611248,0.001375,-0.0028875,0.0012375
1679916276879,1096265235113181,0.0023375,-0.0059125,-6.875E-4
1679916276884,1096265237615335,2.75E-4,1.375E-4,-0.0017875
1679916276884,1096265240117489,0.001375,-9.625E-4,0.0012375
1679916276890,1096265242619656,0.0053625,1.375E-4,-6.875E-4
1679916276890,1096265245122041,0.0042625,0.0011,-0.0037125
1679916276892,1096265247624195,0.0033,0.0020625,-6.875E-4
1679916276895,1096265250126349,0.0023375,0.0050875,2.75E-4
1679916276897,1096265252628503,-0.00165,0.0031625,2.75E-4
1679916276901,1096265255130680,-0.00275,-0.00385,-6.875E-4
1679916276904,1096265257632834,-6.875E-4,0.0020625,2.75E-4
1679916276906,1096265260135065,0.001375,0.009075,0.0012375
1679916276907,1096265262637219,0.001375,0.009075,-0.0017875
1679916276910,1096265265139296,-6.875E-4,0.009075,-6.875E-4
1679916276912,1096265267641436,-6.875E-4,0.0081124995,2.75E-4
1679916276915,1096265270143589,0.0042625,0.00605,-6.875E-4
1679916276917,1096265272645743,0.0033,0.004125,0.0012375
1679916276920,1096265275147974,0.0033,0.0031625,0.0022
1679916276923,1096265277650133,0.0072875,-0.001925,0.0012375
1679916276925,1096265280152287,0.00825,0.00605,2.75E-4
1679916276928,1096265282654364,0.0103124995,0.013062499,-6.875E-4
1679916276930,1096265285156518,0.00935,0.0081124995,0.0012375
1679916276932,1096265287658671,0.0053625,1.375E-4,-6.875E-4
1679916276935,1096265290161113,-0.00165,1.375E-4,2.75E-4
1679916276937,1096265292663036,0.0023375,0.009075,0.0022
1679916276940,1096265295165190,0.0042625,0.00605,0.0012375
1679916276945,1096265297667344,0.0023375,1.375E-4,2.75E-4
1679916276946,1096265300169498,-0.00275,-9.625E-4,2.75E-4
1679916276947,1096265302671651,-0.00275,0.0081124995,0.0012375
1679916276950,1096265305174036,0.0053625,0.0100375,2.75E-4
1679916276953,1096265307676190,0.0053625,0.0011,2.75E-4
1679916276955,1096265310178344,-6.875E-4,-0.00385,0.0022
1679916276957,1096265312680258,0.0023375,-0.001925,0.0022
1679916276960,1096265315182412,0.0072875,0.004125,0.0022
1679916276962,1096265317684566,0.0072875,0.004125,-0.0037125
1679916276964,1096265320186950,0.0042625,-0.001925,0.0012375
1679916276967,1096265322689089,0.0023375,-0.00495,0.0033
1679916276970,1096265325191243,2.75E-4,1.375E-4,-6.875E-4
1679916276972,1096265327693397,-6.875E-4,0.004125,-0.0017875
1679916276975,1096265330195551,-6.875E-4,-0.001925,-6.875E-4
1679916276977,1096265332697470,-0.00165,-0.0028875,0.0012375
1679916276981,1096265335199854,-0.00165,0.004125,0.0012375
1679916276985,1096265337702085,0.0023375,0.0050875,2.75E-4
1679916276986,1096265340204239,0.001375,0.00605,0.0012375
1679916276989,1096265342706292,0.001375,0.0011,0.0033
1679916276990,1096265345208446,0.0023375,0.0011,0.0022
1679916276993,1096265347710600,0.0023375,0.0020625,-0.00275
1679916276995,1096265350212830,0.0053625,0.0011,-0.00275
1679916276999,1096265352714974,0.00825,1.375E-4,0.0012375
1679916277001,1096265355217128,0.0023375,0.0020625,0.0022
1679916277003,1096265357719282,0.0023375,0.0031625,0.0012375
1679916277005,1096265360221359,0.0053625,-9.625E-4,-0.0017875
1679916277008,1096265362723513,0.0023375,1.375E-4,-0.0037125
1679916277010,1096265365225738,-6.875E-4,0.0011,2.75E-4
1679916277012,1096265367727892,-6.875E-4,0.0011,2.75E-4
1679916277015,1096265370230046,2.75E-4,0.0031625,2.75E-4
1679916277019,1096265372732200,-0.00275,0.0050875,2.75E-4
1679916277020,1096265375234354,2.75E-4,0.0050875,-6.875E-4
1679916277023,1096265377736508,0.0053625,0.0020625,0.0012375
1679916277025,1096265380238892,0.0023375,0.0011,0.0012375
1679916277028,1096265382741046,0.001375,-9.625E-4,0.0022
1679916277030,1096265385242955,-6.875E-4,-0.00495,-0.0017875
1679916277034,1096265387745109,0.0033,-9.625E-4,-0.0017875
1679916277035,1096265390247494,2.75E-4,-0.0028875,-0.00275
1679916277038,1096265392749648,2.75E-4,-0.001925,-6.875E-4
1679916277041,1096265395251801,0.001375,-0.001925,0.0012375
1679916277042,1096265397753955,2.75E-4,1.375E-4,0.0022
1679916277046,1096265400255878,0.001375,-9.625E-4,0.0012375
1679916277047,1096265402758032,0.001375,-0.00385,-6.875E-4
1679916277052,1096265405260412,-0.004675,-0.00495,-6.875E-4
1679916277053,1096265407762566,-0.0037125,-0.0028875,-0.0017875
1679916277057,1096265410264720,-6.875E-4,0.0011,0.0012375
1679916277058,1096265412766873,-6.875E-4,0.0020625,0.0012375
1679916277061,1096265415269027,-6.875E-4,1.375E-4,2.75E-4
1679916277065,1096265417771181,2.75E-4,0.0011,2.75E-4
1679916277065,1096265420273412,0.001375,1.375E-4,-6.875E-4
1679916277068,1096265422775566,2.75E-4,0.0031625,0.0012375
1679916277070,1096265425277720,-0.0037125,1.375E-4,-6.875E-4
1679916277072,1096265427779797,-0.00165,1.375E-4,-6.875E-4
1679916277075,1096265430281950,-0.0037125,1.375E-4,2.75E-4
1679916277077,1096265432784104,-0.00165,0.004125,0.0012375
1679916277080,1096265435286335,-0.00165,-0.001925,2.75E-4
1679916277084,1096265437788489,-0.00275,-9.625E-4,0.0042625
1679916277085,1096265440290643,-6.875E-4,1.375E-4,0.0022
1679916277087,1096265442792797,-0.00165,1.375E-4,0.0033
1679916277091,1096265445294950,-6.875E-4,0.0011,0.0022
1679916277094,1096265447797012,-6.875E-4,0.0031625,0.0022
1679916277095,1096265450299243,-6.875E-4,0.0020625,2.75E-4
1679916277097,1096265452801397,-0.00165,0.0020625,-0.0017875
1679916277100,1096265455303782,-6.875E-4,0.0020625,-6.875E-4
1679916277104,1096265457805724,2.75E-4,-0.001925,2.75E-4
1679916277105,1096265460307878,2.75E-4,-0.001925,0.0012375
1679916277107,1096265462810031,2.75E-4,-9.625E-4,-0.00275
1679916277110,1096265465312416,2.75E-4,0.0011,2.75E-4
1679916277112,1096265467814570,2.75E-4,0.0011,0.0012375
1679916277115,1096265470316734,0.0023375,-0.001925,0.0012375
1679916277118,1096265472818888,0.0023375,0.0011,-0.0017875
1679916277120,1096265475320811,-0.00165,-9.625E-4,2.75E-4
1679916277123,1096265477822965,0.0023375,-0.001925,0.0012375
1679916277125,1096265480325311,0.0033,-0.001925,0.0033
1679916277129,1096265482827465,-6.875E-4,-9.625E-4,0.0022
1679916277131,1096265485329619,-6.875E-4,-0.001925,-6.875E-4
1679916277133,1096265487831773,0.0023375,-0.001925,0.0012375
1679916277135,1096265490333927,2.75E-4,-0.00385,0.0012375
1679916277137,1096265492836080,-6.875E-4,-0.001925,2.75E-4
1679916277140,1096265495338311,-6.875E-4,1.375E-4,-0.0017875
1679916277143,1096265497840388,-0.0037125,0.0020625,2.75E-4
1679916277145,1096265500342532,-0.00165,-0.00385,0.0033
1679916277148,1096265502844763,0.001375,-0.0059125,0.0022
1679916277150,1096265505346840,-0.00275,1.375E-4,2.75E-4
1679916277153,1096265507848994,2.75E-4,-0.0028875,-0.0017875
1679916277155,1096265510351229,-0.00165,-0.001925,-0.0017875
1679916277158,1096265512853383,-0.0037125,-0.001925,-6.875E-4
1679916277161,1096265515355537,-6.875E-4,1.375E-4,0.0022
1679916277163,1096265517857691,-6.875E-4,0.0020625,2.75E-4
1679916277165,1096265520359854,-0.00165,0.0020625,-6.875E-4
1679916277169,1096265522861931,0.0033,0.0011,-6.875E-4
1679916277170,1096265525364161,2.75E-4,-9.625E-4,2.75E-4
1679916277173,1096265527866315,-0.00275,0.0011,2.75E-4
1679916277176,1096265530368469,2.75E-4,0.0011,0.0012375
1679916277177,1096265532870623,-6.875E-4,0.0011,2.75E-4
1679916277180,1096265535372777,-0.00165,0.0031625,-0.0017875
1679916277184,1096265537874931,-0.00165,-0.001925,-6.875E-4
1679916277186,1096265540377315,-0.00165,-9.625E-4,2.75E-4
1679916277187,1096265542879469,2.75E-4,-9.625E-4,2.75E-4
1679916277190,1096265545381623,0.001375,-0.00495,2.75E-4
1679916277194,1096265547883777,2.75E-4,1.375E-4,-6.875E-4
1679916277195,1096265550385931,0.0033,0.0011,2.75E-4
1679916277199,1096265552887869,0.0033,0.0011,-6.875E-4
1679916277200,1096265555390253,0.001375,-9.625E-4,2.75E-4
1679916277203,1096265557892407,0.001375,-9.625E-4,-0.0017875
1679916277207,1096265560394561,-6.875E-4,0.0020625,-0.00275
1679916277208,1096265562896715,0.0023375,1.375E-4,-6.875E-4
1679916277212,1096265565398854,2.75E-4,-0.001925,-6.875E-4
1679916277213,1096265567901008,-0.00165,-0.001925,-0.0017875
1679916277217,1096265570403162,0.0023375,0.0011,-0.0017875
1679916277218,1096265572905315,2.75E-4,-0.0028875,0.0022
1679916277220,1096265575407469,2.75E-4,-0.001925,0.0012375
1679916277224,1096265577909686,-6.875E-4,-0.0028875,2.75E-4
1679916277225,1096265580411763,2.75E-4,-0.00385,-6.875E-4
1679916277228,1096265582913917,2.75E-4,-9.625E-4,-6.875E-4
1679916277230,1096265585416148,-0.00165,-9.625E-4,2.75E-4
1679916277234,1096265587918301,-0.00165,-9.625E-4,2.75E-4
1679916277235,1096265590420455,2.75E-4,-0.00385,2.75E-4
1679916277238,1096265592922609,-6.875E-4,-9.625E-4,2.75E-4
1679916277240,1096265595424763,-0.0037125,0.0020625,-6.875E-4
1679916277244,1096265597926912,2.75E-4,0.0011,-6.875E-4
1679916277245,1096265600429066,-6.875E-4,0.0020625,2.75E-4
1679916277248,1096265602931220,-0.00165,-0.001925,2.75E-4
1679916277250,1096265605433373,2.75E-4,-0.001925,-6.875E-4
1679916277253,1096265607935527,-0.00165,1.375E-4,-6.875E-4
1679916277255,1096265610437681,-0.00275,1.375E-4,-6.875E-4
1679916277258,1096265612939835,2.75E-4,-9.625E-4,2.75E-4
1679916277260,1096265615442220,-6.875E-4,-9.625E-4,2.75E-4
1679916277263,1096265617944143,-6.875E-4,-0.0028875,2.75E-4
1679916277265,1096265620446305,0.001375,1.375E-4,0.0022
1679916277268,1096265622948690,0.0033,0.0011,2.75E-4
1679916277270,1096265625450844,0.001375,0.0020625,-6.875E-4
1679916277273,1096265627952767,2.75E-4,1.375E-4,2.75E-4
1679916277276,1096265630455152,-6.875E-4,-9.625E-4,0.0022
1679916277278,1096265632957311,-6.875E-4,1.375E-4,-6.875E-4
1679916277281,1096265635459464,2.75E-4,1.375E-4,0.0022
1679916277284,1096265637961618,-0.00165,-0.0028875,0.0012375
1679916277285,1096265640463772,-0.00165,-9.625E-4,-6.875E-4
1679916277288,1096265642965922,2.75E-4,-0.0028875,-6.875E-4
1679916277290,1096265645468076,2.75E-4,-0.001925,0.0012375
1679916277294,1096265647970230,-6.875E-4,1.375E-4,0.0022
1679916277296,1096265650472383,-6.875E-4,-9.625E-4,0.0012375
1679916277299,1096265652974574,0.0023375,-0.001925,2.75E-4
1679916277301,1096265655476728,0.001375,-0.0028875,0.0012375
1679916277304,1096265657978882,0.001375,1.375E-4,-0.0017875
1679916277305,1096265660481113,2.75E-4,-9.625E-4,2.75E-4
1679916277309,1096265662983277,-6.875E-4,-9.625E-4,-6.875E-4
1679916277311,1096265665485354,-6.875E-4,-0.001925,-6.875E-4
1679916277313,1096265667987584,2.75E-4,-0.001925,0.0012375
1679916277315,1096265670489738,-0.00165,-9.625E-4,0.0012375
1679916277320,1096265672991863,-0.0037125,-0.0028875,2.75E-4
1679916277321,1096265675494017,-0.00165,-0.00495,0.0012375
1679916277323,1096265677996171,-0.00165,-9.625E-4,0.0012375
1679916277325,1096265680498325,2.75E-4,0.0020625,2.75E-4
1679916277328,1096265683000478,-0.00165,0.0011,0.0012375
1679916277330,1096265685502887,-0.00275,-0.001925,-0.00275
1679916277333,1096265688005041,-0.00165,-0.001925,0.0022
1679916277335,1096265690506964,2.75E-4,1.375E-4,0.0033
1679916277338,1096265693009118,2.75E-4,0.0031625,2.75E-4
1679916277340,1096265695511281,0.0023375,1.375E-4,-0.0017875
1679916277344,1096265698013435,0.0023375,0.0011,-6.875E-4
1679916277345,1096265700515819,0.001375,-0.001925,-6.875E-4
1679916277348,1096265703017973,-6.875E-4,-0.0028875,2.75E-4
1679916277351,1096265705520113,-6.875E-4,-0.001925,0.0012375
1679916277352,1096265708022267,2.75E-4,-0.001925,0.0012375
1679916277357,1096265710524421,-6.875E-4,-0.00385,2.75E-4
1679916277358,1096265713026574,-0.00275,-0.0059125,2.75E-4
1679916277360,1096265715528772,-0.00165,-0.001925,-6.875E-4
1679916277363,1096265718030926,-6.875E-4,-0.00385,-6.875E-4
1679916277365,1096265720533003,0.0033,-0.0028875,0.0012375
1679916277369,1096265723035157,0.0033,1.375E-4,0.0022
1679916277370,1096265725537311,0.0023375,-0.0028875,0.0022
1679916277373,1096265728039427,2.75E-4,-0.001925,0.0022
1679916277375,1096265730541580,-6.875E-4,-0.0028875,0.0022
1679916277378,1096265733043811,-6.875E-4,-0.0028875,-0.0017875
1679916277380,1096265735545965,-6.875E-4,-9.625E-4,2.75E-4
1679916277384,1096265738048042,-6.875E-4,-0.0028875,0.0012375
1679916277386,1096265740550196,-6.875E-4,-0.0028875,-6.875E-4
1679916277388,1096265743052350,-0.00165,1.375E-4,2.75E-4
1679916277391,1096265745554580,-0.00165,1.375E-4,2.75E-4
1679916277394,1096265748056733,0.001375,0.0031625,-0.00275
1679916277395,1096265750558887,0.0023375,-0.001925,2.75E-4
1679916277398,1096265753061041,0.001375,-0.001925,-0.0017875
1679916277401,1096265755563195,-6.875E-4,0.0011,-0.00275
1679916277403,1096265758065349,2.75E-4,-9.625E-4,-0.0017875
1679916277405,1096265760567499,0.001375,0.0020625,0.0022
1679916277408,1096265763069883,0.001375,0.0011,0.0022
1679916277410,1096265765572037,-6.875E-4,0.0011,0.0012375
1679916277413,1096265768073960,-6.875E-4,0.004125,-6.875E-4
1679916277415,1096265770576118,2.75E-4,0.0011,-6.875E-4
1679916277418,1096265773078272,0.0033,1.375E-4,0.0022
1679916277420,1096265775580426,2.75E-4,0.00605,2.75E-4
1679916277424,1096265778082810,2.75E-4,0.0020625,2.75E-4
1679916277426,1096265780584964,2.75E-4,0.0031625,0.0012375
1679916277428,1096265783087118,-6.875E-4,-9.625E-4,-6.875E-4
1679916277432,1096265785589041,2.75E-4,-0.0028875,2.75E-4
1679916277434,1096265788091426,0.0023375,0.0020625,0.0022
1679916277435,1096265790593340,2.75E-4,1.375E-4,2.75E-4
1679916277439,1096265793095801,2.75E-4,-0.001925,2.75E-4
1679916277441,1096265795597878,0.0023375,0.0011,2.75E-4
1679916277443,1096265798100032,0.0023375,-9.625E-4,-0.0037125
1679916277445,1096265800602166,0.0023375,0.0020625,-0.0017875
1679916277449,1096265803104320,2.75E-4,0.0011,0.0012375
1679916277450,1096265805606474,0.0042625,-9.625E-4,2.75E-4
1679916277453,1096265808108704,0.0023375,1.375E-4,-0.0017875
1679916277455,1096265810610854,2.75E-4,0.0011,2.75E-4
1679916277457,1096265813113008,0.001375,-0.001925,2.75E-4
1679916277461,1096265815615085,-6.875E-4,0.0011,-6.875E-4
1679916277464,1096265818117239,-6.875E-4,1.375E-4,0.0022
1679916277465,1096265820619383,0.001375,-9.625E-4,0.0012375
1679916277469,1096265823121614,2.75E-4,0.0011,0.0012375
1679916277470,1096265825623767,-6.875E-4,0.0020625,-6.875E-4
1679916277473,1096265828125921,2.75E-4,0.0011,-0.0017875
1679916277475,1096265830628075,2.75E-4,1.375E-4,-6.875E-4
1679916277478,1096265833130157,-0.00165,0.0011,-6.875E-4
1679916277480,1096265835632388,-0.00165,0.0020625,-6.875E-4
1679916277484,1096265838134772,-0.0037125,1.375E-4,-6.875E-4
1679916277486,1096265840636926,-0.00275,0.0020625,0.0012375
1679916277488,1096265843138839,-6.875E-4,0.0020625,-6.875E-4
1679916277490,1096265845640993,-6.875E-4,0.0011,0.0012375
1679916277493,1096265848143147,2.75E-4,0.0031625,-0.0017875
1679916277495,1096265850645301,-0.00165,0.0011,-6.875E-4
1679916277498,1096265853147681,2.75E-4,0.0020625,-6.875E-4
1679916277500,1096265855649834,-6.875E-4,-9.625E-4,0.0012375
1679916277504,1096265858151988,-6.875E-4,0.0011,2.75E-4
1679916277506,1096265860654142,2.75E-4,-9.625E-4,2.75E-4
1679916277508,1096265863156056,-0.00165,0.0020625,-0.0017875
1679916277510,1096265865658210,2.75E-4,0.0020625,0.0022
1679916277512,1096265868160595,-0.00275,0.0020625,0.0012375
1679916277515,1096265870662749,-0.00165,1.375E-4,0.0022
1679916277518,1096265873164930,0.001375,1.375E-4,2.75E-4
1679916277520,1096265875667084,-0.00165,0.0011,-0.0017875
1679916277522,1096265878169238,-6.875E-4,-0.00495,0.0012375
1679916277525,1096265880671392,-0.010725,-0.0099,0.0012375
1679916277528,1096265883173623,-0.0056375,0.0081124995,2.75E-4
1679916277530,1096265885675787,0.0103124995,0.0081124995,0.0012375
1679916277532,1096265888177940,0.017324999,-0.006875,2.75E-4
1679916277535,1096265890680017,-0.0077,-0.0169125,2.75E-4
1679916277537,1096265893182171,-0.0226875,0.004125,-6.875E-4
1679916277541,1096265895684344,0.0042625,0.02915,0.0012375
1679916277544,1096265898186575,0.02035,1.375E-4,0.0022
1679916277545,1096265900688729,2.75E-4,-0.023924999,0.005225
1679916277547,1096265903190883,-0.021724999,-0.00495,2.75E-4
1679916277550,1096265905693026,-0.0037125,0.0221375,0.0012375
1679916277553,1096265908195180,0.017324999,0.00605,0.0012375
1679916277555,1096265910697257,0.00935,-0.0298375,0.0022
1679916277557,1096265913199488,-0.009625,-0.0218625,0.0022
1679916277560,1096265915701863,-0.0056375,0.01705,0.0022
1679916277562,1096265918203786,0.00935,0.01815,0.0012375
1679916277565,1096265920705940,0.0072875,-0.01485,0.0022
1679916277567,1096265923208093,-0.0037125,-0.0169125,0.0022
1679916277570,1096265925710252,-0.0056375,0.0081124995,-6.875E-4
1679916277573,1096265928212637,0.0023375,0.0160875,-6.875E-4
1679916277575,1096265930714791,0.001375,-0.006875,2.75E-4
1679916277577,1096265933216945,-0.00275,-0.01595,0.0012375
1679916277581,1096265935718844,-6.875E-4,-9.625E-4,0.0012375
1679916277584,1096265938221228,2.75E-4,0.0121,2.75E-4
1679916277585,1096265940723382,0.0023375,1.375E-4,-6.875E-4
1679916277587,1096265943225536,2.75E-4,-0.0138875,-6.875E-4
1679916277590,1096265945727690,-0.00275,-0.0059125,0.0012375
1679916277592,1096265948229844,-0.00165,0.00715,-6.875E-4
1679916277595,1096265950731767,2.75E-4,0.0011,2.75E-4
1679916277597,1096265953234151,0.001375,-0.006875,0.0012375
1679916277600,1096265955736305,-6.875E-4,-0.0059125,-6.875E-4
1679916277602,1096265958238463,-6.875E-4,0.0020625,-0.0017875
1679916277605,1096265960740617,0.001375,0.0020625,-6.875E-4
1679916277607,1096265963242771,-0.00165,-0.0059125,-0.0017875
1679916277610,1096265965744925,-0.0037125,-0.006875,-0.0017875
1679916277612,1096265968247170,-0.00275,1.375E-4,-6.875E-4
1679916277615,1096265970749324,-0.0056375,0.0020625,2.75E-4
1679916277619,1096265973251478,-0.004675,1.375E-4,0.0022
1679916277620,1096265975753632,-0.0077,0.0011,2.75E-4
1679916277623,1096265978255723,-0.004675,0.0011,2.75E-4
1679916277625,1096265980757877,-0.0037125,0.0020625,2.75E-4
1679916277628,1096265983260108,-0.00275,0.0020625,0.0012375
1679916277631,1096265985762261,-0.004675,-0.0028875,0.0012375
1679916277633,1096265988264415,-0.00165,-9.625E-4,2.75E-4
1679916277635,1096265990766579,-6.875E-4,0.0011,-0.0017875
1679916277637,1096265993268733,2.75E-4,-0.001925,-6.875E-4
1679916277640,1096265995770887,-0.00165,-0.0028875,0.0012375
1679916277642,1096265998273041,-0.00165,-9.625E-4,0.0012375
1679916277645,1096266000775189,2.75E-4,1.375E-4,2.75E-4
1679916277647,1096266003277343,-6.875E-4,1.375E-4,-6.875E-4
1679916277650,1096266005779497,2.75E-4,-9.625E-4,-6.875E-4
1679916277652,1096266008281651,-0.00275,-9.625E-4,-0.0017875
1679916277656,1096266010783848,-0.00275,-9.625E-4,-6.875E-4
1679916277658,1096266013286232,0.001375,-0.00385,-0.0017875
1679916277660,1096266015788386,0.0033,-0.001925,2.75E-4
1679916277663,1096266018290540,2.75E-4,0.0011,2.75E-4
1679916277665,1096266020792694,2.75E-4,-0.00495,0.0012375
1679916277668,1096266023294839,-0.00165,-0.00385,0.0022
1679916277670,1096266025796762,0.0023375,1.375E-4,0.0012375
1679916277673,1096266028299147,0.0042625,1.375E-4,0.0012375
1679916277675,1096266030801300,2.75E-4,0.0011,0.0012375
1679916277678,1096266033303449,-6.875E-4,-9.625E-4,2.75E-4
1679916277680,1096266035805603,2.75E-4,0.0011,2.75E-4
1679916277683,1096266038307757,0.0033,0.0011,0.0012375
1679916277685,1096266040809911,0.0023375,1.375E-4,2.75E-4
1679916277688,1096266043312094,2.75E-4,1.375E-4,2.75E-4
1679916277690,1096266045814248,0.0033,0.0020625,-6.875E-4
1679916277694,1096266048316401,0.0053625,0.0031625,2.75E-4
1679916277695,1096266050818555,0.0042625,0.0011,-6.875E-4
1679916277698,1096266053320646,0.0042625,0.0011,-6.875E-4
1679916277701,1096266055822800,0.001375,0.0011,-0.00275
1679916277704,1096266058325031,0.0023375,0.0031625,-0.00275
1679916277706,1096266060827185,0.001375,-9.625E-4,-0.0017875
1679916277708,1096266063329343,-0.00275,-0.00385,-0.0017875
1679916277711,1096266065831497,-6.875E-4,1.375E-4,2.75E-4
1679916277713,1096266068333651,-0.00275,0.0011,2.75E-4
1679916277715,1096266070835805,-0.00165,-0.001925,-6.875E-4
1679916277719,1096266073337959,-0.00275,1.375E-4,0.0012375
1679916277721,1096266075840113,-0.00275,-9.625E-4,0.0022
1679916277723,1096266078342267,-0.00165,-0.00495,0.0012375
1679916277726,1096266080844420,-0.00275,1.375E-4,-6.875E-4
1679916277728,1096266083346574,-0.00165,-0.001925,2.75E-4
1679916277732,1096266085848757,2.75E-4,-0.006875,2.75E-4
1679916277734,1096266088351142,-0.00165,-0.0028875,0.0012375
1679916277736,1096266090853296,2.75E-4,-0.00385,0.0012375
1679916277738,1096266093355219,-6.875E-4,-0.006875,2.75E-4
1679916277740,1096266095857373,-0.00165,-0.0059125,2.75E-4
1679916277743,1096266098359733,-0.0037125,-0.0028875,0.0012375
1679916277745,1096266100861887,-0.0037125,-9.625E-4,-6.875E-4
1679916277748,1096266103364041,-6.875E-4,-9.625E-4,-0.0017875
1679916277752,1096266105866195,0.0042625,0.004125,-0.0017875
1679916277753,1096266108368358,0.0023375,0.0031625,-0.0017875
1679916277756,1096266110870511,-0.010725,-0.006875,-0.0037125
1679916277758,1096266113372665,0.0033,1.375E-4,-0.0017875
1679916277761,1096266115874819,0.0072875,1.375E-4,2.75E-4
1679916277763,1096266118377016,-0.0037125,-0.0059125,0.0012375
1679916277766,1096266120879093,-0.0056375,-0.0028875,2.75E-4
1679916277769,1096266123381247,-0.0056375,0.004125,2.75E-4
1679916277771,1096266125883401,0.0033,0.00605,2.75E-4
1679916277773,1096266128385554,-0.00165,-0.0059125,0.0012375
1679916277776,1096266130887704,-0.0067375,-0.0089375,0.0012375
1679916277778,1096266133389935,-0.0056375,1.375E-4,0.0022
1679916277780,1096266135892089,-0.004675,0.00605,0.0022
1679916277784,1096266138394243,-0.0037125,-0.001925,0.0022
1679916277785,1096266140896411,-0.0056375,-0.0059125,0.0012375
1679916277788,1096266143398564,-0.0067375,0.0020625,2.75E-4
1679916277790,1096266145900718,0.001375,0.0100375,0.0012375
1679916277793,1096266148403103,2.75E-4,0.0011,0.0022
1679916277795,1096266150905026,-0.00165,-0.0059125,0.0012375
1679916277798,1096266153407151,-0.0037125,1.375E-4,2.75E-4
1679916277801,1096266155909305,2.75E-4,0.004125,0.0012375
1679916277803,1096266158411459,0.0023375,0.0020625,-0.0017875
1679916277807,1096266160913612,0.001375,1.375E-4,-0.0017875
1679916277808,1096266163415959,-0.00165,0.0031625,-6.875E-4
1679916277810,1096266165918113,0.0023375,0.0020625,-0.0017875
1679916277813,1096266168420036,0.0042625,0.0031625,-0.0037125
1679916277815,1096266170922190,0.0023375,0.0020625,-0.0017875
1679916277818,1096266173424348,0.0023375,-0.001925,0.0022
1679916277820,1096266175926502,0.001375,-0.00495,2.75E-4
1679916277824,1096266178428886,0.0033,-0.0028875,2.75E-4
1679916277825,1096266180931040,0.0072875,-0.00495,0.0033
1679916277828,1096266183433194,0.001375,-0.0028875,0.0012375
1679916277830,1096266185935343,-6.875E-4,-0.001925,-6.875E-4
1679916277833,1096266188437497,-6.875E-4,-0.006875,2.75E-4
1679916277835,1096266190939650,0.0023375,-0.00495,0.0022
1679916277838,1096266193441881,2.75E-4,-0.0028875,2.75E-4
1679916277840,1096266195944050,2.75E-4,-0.00385,0.0022
1679916277844,1096266198446127,2.75E-4,1.375E-4,0.0033
1679916277846,1096266200948281,2.75E-4,-0.001925,-6.875E-4
1679916277848,1096266203450435,2.75E-4,-0.0028875,-0.0017875
1679916277851,1096266205952578,2.75E-4,-0.00385,-0.00275
1679916277853,1096266208454809,0.001375,-0.0028875,-0.00275
1679916277855,1096266210956886,0.001375,-0.0028875,-6.875E-4
1679916277858,1096266213459040,0.0023375,-9.625E-4,-0.0017875
1679916277860,1096266215961233,0.0023375,0.0020625,-0.0017875
1679916277864,1096266218463464,-0.00165,0.0020625,-0.00275
1679916277866,1096266220965618,-6.875E-4,0.0031625,-0.0017875
1679916277868,1096266223467771,2.75E-4,0.0011,2.75E-4
1679916277871,1096266225969901,-6.875E-4,1.375E-4,0.0022
1679916277873,1096266228472055,0.001375,0.0011,-6.875E-4
1679916277875,1096266230974209,0.001375,0.004125,-6.875E-4
1679916277878,1096266233476594,0.0023375,0.00715,0.0012375
1679916277882,1096266235978727,0.001375,0.0050875,-0.0017875
1679916277883,1096266238480881,-0.00165,1.375E-4,0.0033
1679916277886,1096266240982804,0.0023375,0.0020625,0.0022
1679916277888,1096266243484958,0.0023375,0.004125,-0.0017875
1679916277890,1096266245987112,0.0023375,0.0020625,2.75E-4
1679916277893,1096266248489508,2.75E-4,0.004125,0.0012375
1679916277895,1096266250991662,2.75E-4,0.0020625,-6.875E-4
1679916277898,1096266253493815,2.75E-4,-0.001925,2.75E-4
1679916277900,1096266255995969,-6.875E-4,-9.625E-4,-6.875E-4
1679916277904,1096266258498113,2.75E-4,-0.0028875,2.75E-4
1679916277905,1096266261000036,-0.00165,-0.00385,-6.875E-4
1679916277908,1096266263502421,2.75E-4,-9.625E-4,-0.00275
1679916277911,1096266266004575,-6.875E-4,0.0020625,-6.875E-4
1679916277913,1096266268506805,-6.875E-4,-0.001925,-6.875E-4
1679916277915,1096266271008892,-6.875E-4,-9.625E-4,-6.875E-4
1679916277919,1096266273511046,2.75E-4,-0.00385,-0.0017875
1679916277922,1096266276013200,0.001375,-0.00385,-6.875E-4
1679916277923,1096266278515354,0.001375,-0.00495,0.0022
1679916277926,1096266281017595,2.75E-4,1.375E-4,0.0012375
1679916277928,1096266283519749,2.75E-4,0.0020625,0.0022
1679916277931,1096266286021902,2.75E-4,1.375E-4,0.0033
1679916277933,1096266288523979,2.75E-4,0.0020625,2.75E-4
1679916277935,1096266291026147,-0.00165,0.0011,0.0012375
1679916277938,1096266293528378,2.75E-4,-0.00385,0.0012375
1679916277940,1096266296030532,0.001375,-0.00385,0.0012375
1679916277944,1096266298532686,-0.0037125,-0.0059125,-6.875E-4
1679916277945,1096266301034820,-0.0037125,-9.625E-4,-6.875E-4
1679916277948,1096266303536974,-6.875E-4,0.0011,-6.875E-4
1679916277950,1096266306039128,-0.00165,0.0020625,-0.00275
1679916277953,1096266308541282,-6.875E-4,0.0011,-0.0048125
1679916277957,1096266311043421,-6.875E-4,0.0031625,-0.00275
1679916277958,1096266313545806,0.001375,0.004125,0.0012375
1679916277960,1096266316047959,2.75E-4,0.0011,2.75E-4
1679916277963,1096266318549882,-6.875E-4,0.0011,0.0012375
1679916277965,1096266321052036,-6.875E-4,0.0031625,-0.0017875
1679916277968,1096266323554450,-0.00165,0.004125,0.0012375
1679916277970,1096266326056604,-0.00165,0.004125,0.0012375
1679916277973,1096266328558758,-6.875E-4,0.0011,0.0033
1679916277975,1096266331060911,-0.00165,-9.625E-4,0.0012375
1679916277978,1096266333563089,0.001375,1.375E-4,2.75E-4
1679916277980,1096266336065012,0.001375,0.0011,-0.0017875
1679916277984,1096266338567397,-6.875E-4,-0.0028875,2.75E-4
1679916277986,1096266341069551,-0.00165,-0.0028875,-6.875E-4
1679916277988,1096266343571705,0.001375,-0.001925,0.0012375
1679916277990,1096266346073859,2.75E-4,1.375E-4,2.75E-4
1679916277994,1096266348576012,-6.875E-4,-0.001925,-0.00275
1679916277995,1096266351078166,-0.00275,-0.00385,-6.875E-4
1679916277998,1096266353580407,-0.0037125,-0.0028875,-6.875E-4
1679916278000,1096266356082484,0.001375,-0.0059125,2.75E-4
1679916278003,1096266358584638,2.75E-4,-0.0059125,2.75E-4
1679916278005,1096266361086792,-6.875E-4,-0.00495,0.0022
1679916278008,1096266363589012,-0.00275,-0.001925,0.0012375
1679916278010,1096266366091089,-0.00275,-0.0028875,0.0012375
1679916278013,1096266368593320,-0.00165,-0.0028875,-0.0017875
1679916278015,1096266371095474,-6.875E-4,-9.625E-4,2.75E-4
1679916278018,1096266373597628,-6.875E-4,-0.0028875,0.0022
1679916278020,1096266376099782,-0.00275,-0.0059125,0.0012375
1679916278024,1096266378601936,-6.875E-4,-0.0028875,2.75E-4
1679916278025,1096266381104089,0.001375,0.0031625,2.75E-4
1679916278028,1096266383606243,0.001375,0.0011,0.0012375
1679916278032,1096266386108397,2.75E-4,1.375E-4,-6.875E-4
1679916278033,1096266388610551,-6.875E-4,0.0031625,-6.875E-4
1679916278035,1096266391112705,-0.0037125,0.0020625,0.0012375
1679916278038,1096266393614859,-0.00275,0.004125,-6.875E-4
1679916278040,1096266396117013,-0.00275,0.0011,-6.875E-4
1679916278043,1096266398619397,-0.00165,-9.625E-4,-0.0017875
1679916278045,1096266401121551,-0.00275,0.0031625,2.75E-4
1679916278048,1096266403623474,-6.875E-4,0.0011,2.75E-4
1679916278050,1096266406125628,0.001375,-9.625E-4,0.0012375
1679916278053,1096266408627782,2.75E-4,1.375E-4,2.75E-4
1679916278056,1096266411129936,2.75E-4,0.0031625,-6.875E-4
1679916278058,1096266413632315,0.001375,0.0011,-6.875E-4
1679916278061,1096266416134469,-0.00165,-9.625E-4,2.75E-4
1679916278064,1096266418636623,0.0023375,1.375E-4,0.0022
1679916278065,1096266421138777,2.75E-4,0.0011,2.75E-4
1679916278069,1096266423640949,-6.875E-4,-9.625E-4,2.75E-4
1679916278071,1096266426143103,-0.00165,0.0020625,2.75E-4
1679916278073,1096266428645333,0.0023375,-0.0028875,-6.875E-4
1679916278075,1096266431147410,2.75E-4,-0.0028875,0.0012375
1679916278078,1096266433649564,2.75E-4,-0.0028875,0.0033
1679916278080,1096266436151705,-6.875E-4,1.375E-4,0.0022
1679916278084,1096266438653859,2.75E-4,0.0011,2.75E-4
1679916278085,1096266441156013,2.75E-4,1.375E-4,-0.0017875
1679916278088,1096266443658243,-6.875E-4,-9.625E-4,-6.875E-4
1679916278090,1096266446160410,-6.875E-4,-0.0028875,0.0012375
1679916278093,1096266448662564,0.001375,-9.625E-4,0.0022
1679916278095,1096266451164641,2.75E-4,0.0011,2.75E-4
1679916278098,1096266453666872,-6.875E-4,-0.0028875,0.0022
1679916278101,1096266456169036,2.75E-4,-0.00385,-6.875E-4
1679916278104,1096266458671420,0.001375,-0.0028875,2.75E-4
1679916278107,1096266461173343,-6.875E-4,-9.625E-4,0.0012375
1679916278108,1096266463675497,2.75E-4,0.0020625,-6.875E-4
1679916278111,1096266466177670,-6.875E-4,0.0011,0.0012375
1679916278113,1096266468679824,-6.875E-4,0.0011,2.75E-4
1679916278116,1096266471181978,-0.00165,0.0020625,0.0012375
1679916278119,1096266473684132,-0.00165,0.0020625,-6.875E-4
1679916278121,1096266476186511,-0.00275,0.0020625,-0.0017875
1679916278123,1096266478688665,-0.00165,0.004125,0.0012375
1679916278126,1096266481190588,2.75E-4,1.375E-4,0.0012375
1679916278128,1096266483692742,2.75E-4,1.375E-4,2.75E-4
1679916278131,1096266486195099,-6.875E-4,-9.625E-4,-6.875E-4
1679916278134,1096266488697253,-0.00275,0.0011,-6.875E-4
1679916278135,1096266491199176,0.001375,0.0031625,-6.875E-4
1679916278138,1096266493701329,0.0023375,0.0011,-0.0017875
1679916278140,1096266496203492,-0.00165,-9.625E-4,2.75E-4
1679916278145,1096266498705877,-0.00275,-0.0028875,2.75E-4
1679916278147,1096266501208031,-0.00165,-0.001925,0.0012375
1679916278149,1096266503710185,-0.00165,0.004125,2.75E-4
1679916278151,1096266506212354,-0.00275,0.004125,-6.875E-4
1679916278153,1096266508714507,-0.00165,-0.001925,2.75E-4
1679916278155,1096266511216661,-6.875E-4,-0.001925,0.0022
1679916278158,1096266513718892,0.001375,-9.625E-4,0.0012375
1679916278160,1096266516221041,0.001375,1.375E-4,2.75E-4
1679916278163,1096266518723118,2.75E-4,-0.00385,2.75E-4
1679916278165,1096266521225272,0.001375,-0.0059125,2.75E-4
1679916278168,1096266523727425,0.0023375,-0.00495,2.75E-4
1679916278170,1096266526229569,-6.875E-4,-0.001925,0.0022
1679916278173,1096266528731800,-0.00165,-0.001925,0.0012375
1679916278176,1096266531233954,2.75E-4,-0.0028875,2.75E-4
