system_ts_ms, sensor_ts_ns, accX, accY, accZ
1679916273078,1096261431823224,0.89505005,0.23205002,9.949051
1679916273078,1096261434325301,0.9889501,0.20805001,9.958051
1679916273080,1096261436827454,0.94905007,0.22200002,9.97305
1679916273083,1096261439329618,1.044,0.246,9.975
1679916273085,1096261441831772,0.915,0.15795001,9.89295
1679916273088,1096261444334003,0.975,0.30600002,9.87195
1679916273090,1096261446836157,0.97005004,0.22695,9.925051
1679916273098,1096261449338311,0.93900007,0.22005,9.843
1679916273098,1096261451840450,0.89895004,0.19305001,9.70905
1679916273098,1096261454342604,0.88500005,0.21000001,9.87405
1679916273101,1096261456844758,1.0129501,0.105000004,9.88605
1679916273103,1096261459346912,0.96105003,0.273,9.847951
1679916273105,1096261461849075,1.0489501,0.201,9.77595
1679916273110,1096261464351229,0.92205006,0.16005,9.879001
1679916273110,1096261466853383,0.92505,0.13605,9.934051
1679916273114,1096261469355536,0.90195006,0.282,9.879001
1679916273115,1096261471857695,0.91695005,0.17895001,9.847951
1679916273118,1096261474359849,1.023,0.162,9.89295
1679916273120,1096261476862234,0.87495005,0.16695,9.87705
1679916273123,1096261479364388,0.90195006,0.102000006,9.846001
1679916273126,1096261481866531,1.11105,0.16695,9.946051
1679916273128,1096261484368685,0.91005003,0.273,9.970051
1679916273130,1096261486870839,0.94905007,0.22005,9.766951
1679916273133,1096261489372762,0.95295006,0.29205,9.901051
1679916273135,1096261491875147,0.9889501,0.11400001,9.835951
1679916273138,1096261494377306,0.99405,0.162,9.891001
1679916273143,1096261496879460,0.92505,0.18195,9.90495
1679916273143,1096261499381613,0.96495,0.23700002,9.951
1679916273145,1096261501883767,0.94395006,0.23700002,9.970051
1679916273148,1096261504385931,0.915,0.25005,9.89295
1679916273152,1096261506888162,0.897,0.22905001,9.798
1679916273153,1096261509390239,0.9289501,0.22200002,9.903001
1679916273155,1096261511892393,0.95295006,0.27,9.94095
1679916273159,1096261514394550,0.95595,0.28695002,9.91005
1679916273160,1096261516896781,1.0009501,0.29205,9.91005
1679916273163,1096261519398858,0.95295006,0.26295,9.949051
1679916273165,1096261521901089,0.92700005,0.22695,9.89805
1679916273168,1096261524403243,0.9889501,0.23205002,9.903001
1679916273170,1096261526905397,1.04205,0.19095,9.913051
1679916273173,1096261529407551,0.99705005,0.12900001,9.901051
1679916273176,1096261531909704,1.02795,0.22905001,9.958051
1679916273178,1096261534411853,0.91695005,0.14595,10.066051
1679916273189,1096261536914007,1.047,0.25605002,9.826051
1679916273189,1096261539416161,0.92505,0.25605002,9.891001
1679916273189,1096261541918315,0.93705004,0.186,9.967951
1679916273190,1096261544420690,0.975,0.252,9.9529505
1679916273191,1096261546922613,0.99705005,0.31305,9.903001
1679916273194,1096261549424767,0.98205006,0.162,9.927
1679916273196,1096261551926921,1.0489501,0.30795002,9.89805
1679916273198,1096261554429075,0.95595,0.246,9.925051
1679916273201,1096261556931229,0.94605005,0.28695002,9.798
1679916273203,1096261559433383,0.95595,0.31095,9.89595
1679916273206,1096261561935767,0.93195003,0.22695,9.996
1679916273210,1096261564437921,1.02495,0.24900001,9.867001
1679916273210,1096261566940075,0.98505,0.15,9.82905
1679916273213,1096261569442229,0.94905007,0.09,9.91695
1679916273216,1096261571944383,0.9889501,0.23400001,9.96105
1679916273218,1096261574446537,0.96105003,0.25005,9.769051
1679916273221,1096261576948675,0.92205006,0.165,9.901051
1679916273223,1096261579450829,1.04205,0.24105,9.964951
1679916273227,1096261581952983,0.96105003,0.22500001,9.88395
1679916273228,1096261584455137,1.0489501,0.201,9.843
1679916273230,1096261586957291,0.96795005,0.16695,9.949051
1679916273233,1096261589459445,0.975,0.15300001,9.8890505
1679916273235,1096261591961675,1.047,0.14295001,9.87405
1679916273238,1096261594463829,0.90195006,0.22695,9.90495
1679916273240,1096261596965983,0.915,0.30795002,9.97305
1679916273243,1096261599468137,0.99195004,0.22005,9.925051
1679916273245,1096261601970291,0.98700005,0.22200002,9.903001
1679916273248,1096261604472445,0.89205,0.20505,9.903001
1679916273250,1096261606974599,0.96495,0.282,9.91005
1679916273253,1096261609476752,0.95100003,0.22200002,9.915001
1679916273255,1096261611978897,0.897,0.16695,9.835951
1679916273259,1096261614481051,0.975,0.097950004,9.996
1679916273261,1096261616983205,0.96495,0.22005,9.943951
1679916273264,1096261619485359,0.93900007,0.22695,9.925051
1679916273266,1096261621987743,0.96795005,0.16695,9.934051
1679916273268,1096261624489667,0.94395006,0.177,9.949051
1679916273270,1096261626991820,1.00605,0.28395,9.87705
1679916273273,1096261629494205,0.93705004,0.21300001,9.89295
1679916273276,1096261631996359,0.95295006,0.31095,9.996
1679916273278,1096261634498262,0.93405,0.21495001,9.90795
1679916273281,1096261637000647,1.0180501,0.19305001,9.811951
1679916273283,1096261639502800,0.91005003,0.27495003,9.87195
1679916273285,1096261642004954,0.93900007,0.31605002,9.9199505
1679916273288,1096261644507099,0.93405,0.17400001,9.94095
1679916273291,1096261647009253,0.9580501,0.23895001,9.903001
1679916273293,1096261649511407,0.9580501,0.18405001,9.85305
1679916273296,1096261652013638,0.94095004,0.18405001,9.931951
1679916273298,1096261654515724,0.98700005,0.31800002,9.901051
1679916273303,1096261657017877,0.906,0.22905001,10.000951
1679916273304,1096261659520031,0.99405,0.21000001,9.88605
1679916273305,1096261662022185,0.9799501,0.201,9.834001
1679916273309,1096261664524339,0.906,0.25800002,10.00605
1679916273311,1096261667026570,0.95100003,0.186,9.87405
1679916273313,1096261669528724,0.96300006,0.19305001,9.77595
1679916273316,1096261672030877,0.94905007,0.22695,9.826051
1679916273318,1096261674533046,0.975,0.22905001,9.819
1679916273321,1096261677035200,0.89205,0.16995001,9.951
1679916273323,1096261679537354,0.99705005,0.24405001,9.999001
1679916273326,1096261682039508,0.897,0.186,9.964951
1679916273328,1096261684541662,0.9799501,0.22500001,9.89295
1679916273331,1096261687043835,0.96105003,0.18405001,9.949051
1679916273333,1096261689545988,1.03695,0.27495003,9.847951
1679916273335,1096261692048142,0.97695005,0.23205002,9.87705
1679916273339,1096261694550306,0.99195004,0.22905001,9.87405
1679916273342,1096261697052691,0.915,0.20805001,9.847951
1679916273343,1096261699554845,0.94395006,0.30405003,9.9199505
1679916273345,1096261702056768,0.91695005,0.30405003,9.901051
1679916273348,1096261704559152,0.92700005,0.28905,9.925051
1679916273350,1096261707061098,0.97695005,0.27705002,9.87705
1679916273353,1096261709563252,1.02495,0.28005,9.903001
1679916273356,1096261712065637,0.92700005,0.20505,9.88395
1679916273360,1096261714567791,0.95100003,0.22200002,9.88605
1679916273362,1096261717069926,1.0159501,0.21300001,9.937051
1679916273363,1096261719572079,0.99705005,0.26505002,9.958051
1679916273366,1096261722074233,0.9799501,0.28905,9.903001
1679916273368,1096261724576387,0.95295006,0.34695002,9.89295
1679916273371,1096261727078618,0.9990001,0.117000006,9.915001
1679916273374,1096261729580681,0.96105003,0.27705002,9.982051
1679916273377,1096261732082835,0.92205006,0.29895002,9.976951
1679916273378,1096261734584989,0.97005004,0.22200002,9.931951
1679916273382,1096261737087142,0.95295006,0.22695,9.94095
1679916273383,1096261739589325,0.94095004,0.19305001,9.89595
1679916273386,1096261742091556,0.94095004,0.30795002,9.979951
1679916273388,1096261744593710,1.011,0.24105,9.901051
1679916273391,1096261747095864,0.96300006,0.17205001,9.87405
1679916273394,1096261749598018,0.92505,0.27705002,9.984
1679916273396,1096261752100166,0.93195003,0.23205002,9.90495
1679916273398,1096261754602320,0.9289501,0.23400001,9.8220005
1679916273402,1096261757104705,0.94395006,0.19800001,9.92205
1679916273403,1096261759606628,1.0200001,0.16005,9.834001
1679916273406,1096261762108758,0.90195006,0.19305001,9.99195
1679916273410,1096261764610912,1.0009501,0.28005,9.915001
1679916273411,1096261767113066,0.88995004,0.19305001,9.783
1679916273414,1096261769615219,0.96495,0.13395001,9.927
1679916273416,1096261772117608,1.0320001,0.16005,9.82905
1679916273418,1096261774619762,0.9289501,0.22005,9.85305
1679916273422,1096261777121685,1.0129501,0.162,9.870001
1679916273423,1096261779624070,0.94095004,0.117000006,9.87405
1679916273427,1096261782126204,0.94605005,0.177,9.87195
1679916273428,1096261784628358,0.94605005,0.18900001,9.9199505
1679916273431,1096261787130512,0.95595,0.15495001,9.925051
1679916273434,1096261789632666,0.93705004,0.19605,9.85305
1679916273436,1096261792134820,0.99705005,0.22695,10.000951
1679916273439,1096261794636984,0.96795005,0.13395001,9.931951
1679916273443,1096261797139138,0.92205006,0.26295,9.814051
1679916273444,1096261799641368,1.00605,0.20295002,9.834001
1679916273446,1096261802143445,0.88995004,0.16695,9.931951
1679916273448,1096261804645599,0.91305006,0.18195,9.847951
1679916273453,1096261807147830,0.96795005,0.12195001,9.86205
1679916273454,1096261809649907,0.95295006,0.16695,9.91005
1679916273456,1096261812152138,0.97305006,0.15300001,9.984
1679916273460,1096261814654281,0.99405,0.22500001,9.87405
1679916273462,1096261817156435,0.92505,0.22200002,9.964951
1679916273464,1096261819658589,0.9289501,0.19605,10.03995
1679916273467,1096261822160743,0.975,0.21000001,9.89295
1679916273468,1096261824662883,0.89205,0.17895001,9.89595
1679916273471,1096261827165267,1.0159501,0.17205001,9.92895
1679916273473,1096261829667191,0.93195003,0.19305001,9.927
1679916273476,1096261832169344,0.95295006,0.17205001,9.988951
1679916273479,1096261834671498,0.96300006,0.273,9.798
1679916273481,1096261837173652,0.91995007,0.186,9.814051
1679916273484,1096261839675806,0.94395006,0.28005,10.032001
1679916273486,1096261842178191,0.98205006,0.21000001,9.817051
1679916273490,1096261844680339,0.98505,0.201,9.8220005
1679916273491,1096261847182493,0.97005004,0.31095,9.996
1679916273493,1096261849684647,0.99195004,0.22200002,9.880951
1679916273497,1096261852186801,0.85905004,0.23400001,9.903001
1679916273500,1096261854688955,0.99405,0.28395,9.984
1679916273503,1096261857191157,0.99705005,0.28695002,9.925051
1679916273504,1096261859693234,0.9889501,0.19095,9.955951
1679916273508,1096261862195387,0.93195003,0.18195,9.9529505
1679916273508,1096261864697541,0.96105003,0.24105,9.838051
1679916273512,1096261867199695,0.99405,0.21000001,9.879001
1679916273513,1096261869701839,0.96795005,0.16995001,9.8890505
1679916273517,1096261872204070,0.93705004,0.19605,9.94095
1679916273518,1096261874706224,0.98205006,0.21300001,9.88395
1679916273522,1096261877208300,0.94905007,0.32805002,9.9199505
1679916273523,1096261879710430,0.96795005,0.26295,9.814051
1679916273528,1096261882212661,0.94095004,0.22905001,9.87705
1679916273529,1096261884714738,1.023,0.23895001,9.931951
1679916273531,1096261887216969,0.99705005,0.19605,9.826051
1679916273534,1096261889719123,0.88995004,0.25005,9.879001
1679916273536,1096261892221297,1.02795,0.21300001,9.9529505
1679916273539,1096261894723450,1.03995,0.273,9.811951
1679916273542,1096261897225604,0.94095004,0.19605,9.951
1679916273543,1096261899727758,0.93705004,0.246,9.937051
1679916273546,1096261902230143,0.91695005,0.19305001,9.8550005
1679916273549,1096261904732297,0.95595,0.16995001,9.819
1679916273551,1096261907234220,0.99195004,0.10695001,9.834001
1679916273554,1096261909736373,0.87495005,0.117000006,9.807
1679916273556,1096261912238507,0.94905007,0.21705002,9.91695
1679916273559,1096261914740661,0.94605005,0.21300001,9.84105
1679916273562,1096261917243046,0.96795005,0.25005,9.85305
1679916273567,1096261919745200,0.92205006,0.16695,9.823951
1679916273567,1096261922247354,0.9580501,0.16005,9.931951
1679916273569,1096261924749507,0.99705005,0.19800001,9.87705
1679916273572,1096261927251661,0.86100006,0.282,9.814051
1679916273573,1096261929753815,0.84900004,0.25605002,9.946051
1679916273577,1096261932256070,0.97695005,0.25605002,9.88395
1679916273578,1096261934758147,0.93900007,0.15300001,9.817051
1679916273584,1096261937260301,0.9580501,0.23205002,9.937051
1679916273584,1096261939762454,0.90405005,0.17205001,9.94095
1679916273586,1096261942264608,0.97695005,0.273,9.7570505
1679916273589,1096261944766737,1.0200001,0.273,9.9199505
1679916273592,1096261947268968,0.98700005,0.23700002,9.9199505
1679916273594,1096261949771122,0.99705005,0.22005,9.967951
1679916273596,1096261952273276,0.93195003,0.13395001,9.91005
1679916273600,1096261954775358,0.92700005,0.20295002,9.976951
1679916273603,1096261957277588,1.0159501,0.22200002,9.85995
1679916273604,1096261959779742,0.97305006,0.201,9.87705
1679916273606,1096261962282127,0.97695005,0.27,9.88395
1679916273609,1096261964784036,0.92505,0.273,9.867001
1679916273611,1096261967286190,0.9289501,0.246,9.92895
1679916273613,1096261969788344,0.9990001,0.16005,9.967951
1679916273616,1096261972290497,0.99705005,0.24105,9.964951
1679916273619,1096261974792651,0.92205006,0.15,9.846001
1679916273623,1096261977295050,0.92505,0.19305001,9.7570505
1679916273623,1096261979797204,1.047,0.24405001,9.91005
1679916273626,1096261982299127,1.0159501,0.19095,9.996
1679916273629,1096261984801281,0.9990001,0.15,9.901051
1679916273632,1096261987303454,0.91695005,0.22005,9.850051
1679916273634,1096261989805607,0.95295006,0.201,9.927
1679916273636,1096261992307992,0.96105003,0.15795001,9.937051
1679916273640,1096261994810146,0.97005004,0.17895001,9.870001
1679916273642,1096261997312319,0.96300006,0.33,9.87195
1679916273644,1096261999814473,0.915,0.141,9.823951
1679916273646,1096262002316626,1.023,0.177,9.949051
1679916273648,1096262004818780,0.96795005,0.26295,9.996
1679916273651,1096262007321011,0.96495,0.19800001,9.90495
1679916273654,1096262009823166,1.02795,0.30105,9.91005
1679916273657,1096262012325243,0.97695005,0.24900001,10.00395
1679916273659,1096262014827397,1.0030501,0.30795002,9.964951
1679916273663,1096262017329551,0.9889501,0.21300001,9.913051
1679916273664,1096262019831689,0.99195004,0.246,9.949051
1679916273666,1096262022333920,0.90195006,0.17895001,9.850051
1679916273669,1096262024836074,0.93405,0.23400001,9.834001
1679916273672,1096262027338228,0.9799501,0.22500001,9.795
1679916273673,1096262029840387,1.03695,0.18900001,9.92895
1679916273678,1096262032342541,0.9990001,0.23895001,9.996
1679916273679,1096262034844694,0.9799501,0.252,9.90495
1679916273682,1096262037347079,0.86805004,0.282,9.84105
1679916273684,1096262039849002,0.95595,0.261,9.927
1679916273686,1096262042351156,0.90195006,0.27705002,9.85995
1679916273689,1096262044853310,0.98505,0.22905001,9.846001
1679916273691,1096262047355464,0.95595,0.24105,9.798
1679916273694,1096262049857618,0.96300006,0.24900001,9.86205
1679916273696,1096262052360011,0.90795004,0.19800001,9.847951
1679916273698,1096262054862165,0.88695,0.19800001,9.84105
1679916273703,1096262057364319,0.91305006,0.20295002,9.823951
1679916273704,1096262059866242,0.94905007,0.22200002,9.949051
1679916273706,1096262062368613,0.93195003,0.141,9.880951
1679916273709,1096262064870766,0.98205006,0.21495001,9.931951
1679916273711,1096262067372997,0.92205006,0.19605,9.955951
1679916273716,1096262069875074,0.94395006,0.25605002,9.934051
1679916273717,1096262072377237,0.96495,0.12900001,9.937051
1679916273719,1096262074879391,0.94095004,0.13800001,9.8220005
1679916273722,1096262077381622,0.93900007,0.23400001,9.880951
1679916273724,1096262079883699,0.99705005,0.13800001,9.94095
1679916273726,1096262082385852,0.91995007,0.23700002,9.838051
1679916273729,1096262084888006,0.99705005,0.18195,9.901051
1679916273731,1096262087390160,0.89895004,0.22695,9.843
1679916273734,1096262089892314,0.92205006,0.21000001,9.91005
1679916273737,1096262092394545,0.9580501,0.18900001,9.90795
1679916273739,1096262094896699,0.96105003,0.25005,9.88605
1679916273743,1096262097398852,0.93900007,0.282,9.77595
1679916273744,1096262099901006,0.94605005,0.165,9.99195
1679916273746,1096262102403160,0.99195004,0.25800002,9.913051
1679916273749,1096262104905314,1.00605,0.13395001,9.964951
1679916273753,1096262107407464,0.95100003,0.10695001,9.8220005
1679916273754,1096262109909618,0.92700005,0.21000001,9.89295
1679916273756,1096262112411772,0.96795005,0.282,9.88395
1679916273759,1096262114913925,0.95295006,0.30405003,9.850051
1679916273762,1096262117416079,0.9889501,0.186,9.913051
1679916273764,1096262119918233,0.98505,0.25605002,9.87405
1679916273768,1096262122420618,0.99405,0.22905001,9.92895
1679916273769,1096262124922772,0.92205006,0.26295,9.90795
1679916273771,1096262127424695,0.91995007,0.201,9.931951
1679916273774,1096262129926844,0.88695,0.30795002,9.86505
1679916273777,1096262132428997,0.91005003,0.31095,10.008
1679916273779,1096262134931151,0.96105003,0.19095,9.8550005
1679916273784,1096262137433536,0.93900007,0.112050004,9.949051
1679916273784,1096262139935699,0.90195006,0.22905001,9.915001
1679916273786,1096262142437853,0.906,0.14295001,9.92205
1679916273792,1096262144940006,0.99195004,0.162,9.84105
1679916273792,1096262147442160,0.88500005,0.12195001,9.89805
1679916273794,1096262149944300,0.88305,0.273,9.85995
1679916273797,1096262152446531,0.90795004,0.105000004,9.931951
1679916273800,1096262154948608,0.897,0.19605,9.817051
1679916273802,1096262157450762,0.9289501,0.22695,9.88395
1679916273805,1096262159952901,0.9289501,0.22500001,9.778951
1679916273806,1096262162455054,0.9289501,0.20505,9.838051
1679916273809,1096262164957208,0.91305006,0.17205001,9.867001
1679916273812,1096262167459439,0.94605005,0.22200002,9.817051
1679916273814,1096262169961593,0.91695005,0.15,9.846001
1679916273817,1096262172463742,0.96795005,0.22695,9.91005
1679916273819,1096262174965896,0.98505,0.19605,9.937051
1679916273823,1096262177468049,0.93405,0.15,9.979951
1679916273824,1096262179970203,1.04205,0.22200002,9.87405
1679916273829,1096262182472555,0.88995004,0.08805001,9.96105
1679916273829,1096262184974478,0.95295006,0.201,9.931951
1679916273831,1096262187476632,0.92505,0.12900001,9.967951
1679916273836,1096262189978786,0.9580501,0.23895001,9.879001
1679916273836,1096262192480940,1.0180501,0.13395001,9.86205
1679916273839,1096262194983083,0.93705004,0.28905,9.89595
1679916273842,1096262197485468,0.99195004,0.23700002,9.964951
1679916273844,1096262199987622,0.915,0.29895002,9.762
1679916273847,1096262202489776,0.94905007,0.28005,9.996
1679916273849,1096262204991940,0.9889501,0.31095,9.915001
1679916273852,1096262207493863,0.92700005,0.261,9.999001
1679916273854,1096262209996247,0.915,0.177,9.979951
1679916273856,1096262212498401,0.94395006,0.28905,9.88395
1679916273859,1096262215000540,0.98205006,0.24900001,9.891001
1679916273863,1096262217502694,0.95595,0.21300001,9.934051
1679916273865,1096262220004848,0.915,0.201,9.903001
1679916273866,1096262222507002,0.99405,0.27495003,9.970051
1679916273869,1096262225009155,0.915,0.23700002,9.834001
1679916273872,1096262227511386,1.0159501,0.23400001,9.843
1679916273874,1096262230013540,0.95595,0.28005,9.96105
1679916273877,1096262232515617,0.906,0.162,9.7879505
1679916273879,1096262235017800,0.94395006,0.16995001,9.89295
1679916273882,1096262237519954,0.92700005,0.13395001,9.97305
1679916273884,1096262240022184,1.0129501,0.26295,9.988951
1679916273886,1096262242524338,0.9289501,0.29205,9.934051
1679916273889,1096262245026511,0.93195003,0.19605,9.84105
1679916273892,1096262247528665,0.9289501,0.24105,9.870001
1679916273894,1096262250030819,0.99195004,0.23700002,9.976951
1679916273897,1096262252532973,0.93195003,0.32805002,9.81
1679916273899,1096262255035113,0.96795005,0.23400001,9.89295
1679916273904,1096262257537497,0.94395006,0.23895001,9.735001
1679916273904,1096262260039420,0.96105003,0.21495001,9.901051
1679916273906,1096262262541574,0.85395,0.23895001,9.843
1679916273909,1096262265043732,1.023,0.13395001,9.778951
1679916273912,1096262267545886,0.975,0.30600002,9.891001
1679916273914,1096262270048040,0.93900007,0.141,9.89805
1679916273918,1096262272550424,0.93705004,0.23400001,9.850051
1679916273919,1096262275052578,0.95295006,0.22005,9.89805
1679916273922,1096262277554732,0.97695005,0.15795001,9.870001
1679916273924,1096262280056886,0.89895004,0.22695,9.89805
1679916273927,1096262282559040,0.90405005,0.22905001,9.73305
1679916273929,1096262285061204,0.94605005,0.13395001,9.7879505
1679916273933,1096262287563434,0.93405,0.18195,9.834001
1679916273935,1096262290065511,0.81795,0.186,9.92205
1679916273936,1096262292567665,0.91305006,0.201,9.82905
1679916273940,1096262295069833,0.92505,0.20295002,9.92895
1679916273943,1096262297571987,0.96795005,0.177,9.805051
1679916273944,1096262300074141,0.9889501,0.25605002,9.85995
1679916273947,1096262302576294,0.96495,0.186,9.82905
1679916273949,1096262305078525,1.0009501,0.22695,9.901051
1679916273951,1096262307580679,0.95295006,0.16005,9.975
1679916273954,1096262310082756,0.96105003,0.19305001,10.00605
1679916273956,1096262312584987,0.95595,0.17205001,9.967951
1679916273959,1096262315087141,0.89505005,0.20295002,9.951
1679916273962,1096262317589233,0.95100003,0.24900001,9.949051
1679916273964,1096262320091463,0.96495,0.18405001,10.04895
1679916273967,1096262322593617,0.88695,0.29205,9.927
1679916273968,1096262325095771,0.93900007,0.17895001,9.814051
1679916273971,1096262327597925,0.98505,0.24405001,9.8550005
1679916273974,1096262330100055,0.98505,0.16695,9.91005
1679916273978,1096262332602209,1.008,0.28395,9.955951
1679916273979,1096262335104593,1.044,0.26295,9.91005
1679916273985,1096262337606501,0.86595005,0.26505002,10.02795
1679916273985,1096262340108655,0.975,0.23700002,9.834001
1679916273987,1096262342610809,0.94605005,0.22200002,9.835951
1679916273989,1096262345112963,0.99705005,0.18900001,9.999001
1679916273992,1096262347615117,0.90195006,0.22695,9.807
1679916273995,1096262350117525,0.89205,0.16695,9.838051
1679916273997,1096262352619679,0.93405,0.24105,9.870001
1679916274000,1096262355121833,0.95295006,0.23400001,9.90495
1679916274002,1096262357624064,0.94605005,0.15495001,9.999001
1679916274004,1096262360126141,0.975,0.177,9.943951
1679916274007,1096262362628291,0.95595,0.21000001,9.850051
1679916274009,1096262365130444,0.92205006,0.24105,9.901051
1679916274012,1096262367632598,0.97005004,0.22500001,9.999001
1679916274016,1096262370134752,0.9889501,0.16995001,9.802051
1679916274017,1096262372636973,0.89895004,0.26295,9.87195
1679916274019,1096262375139127,0.99405,0.28005,9.8550005
1679916274023,1096262377641281,1.0350001,0.15300001,9.89805
1679916274024,1096262380143358,0.915,0.21300001,9.92895
1679916274027,1096262382645588,1.03005,0.15300001,9.819
1679916274029,1096262385147742,0.97005004,0.15795001,9.814051
1679916274032,1096262387649896,0.9580501,0.21300001,9.964951
1679916274034,1096262390152050,0.96795005,0.23895001,9.831
1679916274036,1096262392654204,0.93195003,0.20295002,9.858001
1679916274039,1096262395156339,1.0159501,0.28395,9.799951
1679916274042,1096262397658492,0.89895004,0.29205,9.880951
1679916274044,1096262400160646,1.02495,0.15,9.96105
1679916274047,1096262402662800,0.95295006,0.27705002,9.879001
1679916274049,1096262405165171,0.98505,0.18195,9.85305
1679916274053,1096262407667094,0.94605005,0.21495001,9.955951
1679916274054,1096262410169248,0.99705005,0.10695001,10.00605
1679916274056,1096262412671632,0.91995007,0.19095,9.87405
1679916274059,1096262415173753,0.98505,0.23205002,9.903001
1679916274063,1096262417675676,0.92700005,0.162,9.925051
1679916274064,1096262420178061,0.98205006,0.29895002,9.934051
1679916274067,1096262422680215,1.0540501,0.21000001,9.88395
1679916274069,1096262425182373,0.97005004,0.24105,9.963
1679916274072,1096262427684526,0.93195003,0.28005,9.967951
1679916274074,1096262430186680,0.92505,0.25005,9.931951
1679916274077,1096262432688834,1.04205,0.26505002,9.946051
1679916274079,1096262435191056,0.93195003,0.201,9.846001
1679916274082,1096262437693133,1.0159501,0.18405001,9.783
1679916274085,1096262440195287,0.93705004,0.12195001,9.8550005
1679916274087,1096262442697518,0.88995004,0.22905001,9.943951
1679916274091,1096262445199594,0.91995007,0.26505002,9.85305
1679916274091,1096262447701748,0.88005006,0.08805001,9.91695
1679916274094,1096262450203979,0.90795004,0.201,9.915001
1679916274097,1096262452706133,0.98205006,0.18195,10.000951
1679916274099,1096262455208287,0.95100003,0.22905001,9.86505
1679916274103,1096262457710416,0.98205006,0.19800001,9.9199505
1679916274105,1096262460212569,0.95100003,0.27,9.925051
1679916274107,1096262462714723,1.02495,0.19305001,9.94095
1679916274109,1096262465217108,0.99195004,0.23895001,9.879001
1679916274112,1096262467719016,1.0540501,0.22695,9.807
1679916274114,1096262470221170,0.97005004,0.24900001,9.87705
1679916274118,1096262472723324,0.94605005,0.26805001,9.99405
1679916274119,1096262475225478,0.93195003,0.19800001,9.92895
1679916274122,1096262477727627,0.89505005,0.27495003,10.011001
1679916274124,1096262480230012,1.07295,0.22695,9.880951
1679916274129,1096262482732166,0.93195003,0.22695,9.931951
1679916274129,1096262485234089,0.96105003,0.22200002,9.8550005
1679916274133,1096262487736459,1.04205,0.23400001,9.826051
1679916274134,1096262490238612,1.03005,0.246,9.870001
1679916274137,1096262492740766,0.91305006,0.12195001,9.91695
1679916274140,1096262495242920,0.92205006,0.22200002,9.858001
1679916274144,1096262497745074,0.97695005,0.22695,9.89595
1679916274144,1096262500247228,0.92205006,0.20295002,9.88395
1679916274147,1096262502749382,1.03995,0.186,9.96105
1679916274150,1096262505251536,0.915,0.186,9.843
1679916274152,1096262507753689,0.9990001,0.177,9.802051
1679916274154,1096262510255949,0.99195004,0.23205002,9.7879505
1679916274157,1096262512758103,0.897,0.26295,9.8550005
1679916274159,1096262515260180,0.91005003,0.22200002,9.9199505
1679916274162,1096262517762411,0.915,0.24105,9.999001
1679916274169,1096262520264570,1.0129501,0.26295,9.92895
1679916274169,1096262522766647,0.89505005,0.22905001,9.87705
1679916274170,1096262525268877,0.90795004,0.21000001,10.03005
1679916274171,1096262527771031,0.94605005,0.30795002,9.931951
1679916274174,1096262530273185,0.88695,0.23400001,9.86205
1679916274177,1096262532775343,0.91305006,0.20505,9.89295
1679916274179,1096262535277497,0.9889501,0.162,9.86505
1679916274185,1096262537779651,0.91695005,0.246,9.94095
1679916274185,1096262540282035,0.96795005,0.17895001,9.880951
1679916274187,1096262542783968,0.98505,0.25605002,9.949051
1679916274189,1096262545286122,0.95100003,0.22695,9.92895
1679916274192,1096262547788276,1.03005,0.141,9.92205
1679916274194,1096262550290430,1.0030501,0.20295002,9.901051
1679916274197,1096262552792584,0.89205,0.26805001,9.9529505
1679916274199,1096262555294978,0.94605005,0.29205,9.958051
1679916274204,1096262557797132,0.96105003,0.261,9.89595
1679916274204,1096262560299286,0.9889501,0.13605,9.87405
1679916274207,1096262562801440,0.93705004,0.294,9.90795
1679916274209,1096262565303594,1.011,0.19305001,9.843
1679916274212,1096262567805748,0.94395006,0.21000001,9.9199505
1679916274214,1096262570307901,0.95100003,0.16695,9.858001
1679916274217,1096262572810055,0.96495,0.03795,9.937051
1679916274219,1096262575312204,0.91695005,0.22905001,9.87405
1679916274223,1096262577814358,0.90795004,0.18405001,9.8550005
1679916274224,1096262580316512,0.92505,0.23895001,9.9529505
1679916274227,1096262582818666,0.93195003,0.105000004,9.87405
1679916274229,1096262585320915,0.93195003,0.24900001,9.92895
1679916274232,1096262587823069,0.94095004,0.20505,9.92895
1679916274234,1096262590325146,0.9990001,0.19800001,9.92895
1679916274237,1096262592827377,0.906,0.19605,9.90495
1679916274241,1096262595329545,0.97695005,0.20295002,9.8890505
1679916274242,1096262597831699,0.96795005,0.22905001,9.91695
1679916274245,1096262600333853,1.023,0.141,9.91005
1679916274247,1096262602836006,1.02495,0.30795002,9.964951
1679916274250,1096262605338160,0.94605005,0.15,9.814051
1679916274252,1096262607840333,0.97695005,0.20295002,9.843
1679916274255,1096262610342487,0.92505,0.24405001,9.90495
1679916274257,1096262612844641,0.94605005,0.20505,9.858001
1679916274259,1096262615347025,0.88305,0.273,9.86205
1679916274263,1096262617849165,0.9799501,0.14805001,9.870001
1679916274264,1096262620351088,0.9889501,0.19305001,9.958051
1679916274267,1096262622853473,0.91005003,0.26295,9.90795
1679916274269,1096262625355396,0.98505,0.19800001,9.8550005
1679916274272,1096262627857781,1.03005,0.18405001,9.858001
1679916274274,1096262630359954,0.9990001,0.282,9.913051
1679916274278,1096262632862107,0.93900007,0.28395,9.927
1679916274280,1096262635364261,0.92700005,0.11895001,9.931951
1679916274282,1096262637866184,1.04205,0.165,9.988951
1679916274284,1096262640368569,0.97005004,0.21300001,9.91695
1679916274287,1096262642870723,0.96495,0.21300001,9.931951
1679916274289,1096262645372877,0.93195003,0.19095,9.955951
1679916274292,1096262647875031,1.008,0.28905,9.963
1679916274294,1096262650377184,1.02495,0.23895001,9.996
1679916274296,1096262652879353,1.00605,0.26505002,9.89595
1679916274299,1096262655381584,0.9889501,0.141,9.943951
1679916274303,1096262657883661,0.98205006,0.165,9.964951
1679916274304,1096262660385892,0.94605005,0.186,9.939
1679916274306,1096262662888060,0.91695005,0.112050004,9.913051
1679916274309,1096262665390213,0.9580501,0.141,9.850051
1679916274311,1096262667892290,1.0009501,0.22905001,9.89805
1679916274315,1096262670394531,1.011,0.20295002,9.943951
1679916274317,1096262672896685,1.0350001,0.19605,9.8220005
1679916274319,1096262675398839,1.03005,0.26295,9.951
1679916274322,1096262677900993,0.96105003,0.26505002,9.946051
1679916274324,1096262680403147,0.975,0.20295002,9.879001
1679916274327,1096262682905285,0.90405005,0.162,9.870001
1679916274329,1096262685407670,0.94605005,0.261,9.94095
1679916274332,1096262687909593,1.0159501,0.22005,9.87405
1679916274334,1096262690411747,1.0320001,0.19305001,9.817051
1679916274337,1096262692913901,0.9889501,0.23400001,9.89295
1679916274340,1096262695416055,0.94095004,0.25605002,9.931951
1679916274343,1096262697918209,0.94395006,0.261,9.85305
1679916274345,1096262700420593,1.0009501,0.20295002,9.76395
1679916274348,1096262702922752,0.92505,0.15495001,9.9529505
1679916274350,1096262705424906,0.88995004,0.30795002,9.891001
1679916274353,1096262707927060,0.975,0.20505,9.891001
1679916274354,1096262710429214,0.93900007,0.33,9.88395
1679916274358,1096262712931357,0.99705005,0.23400001,9.87405
1679916274359,1096262715433511,0.92505,0.21705002,9.8550005
1679916274362,1096262717935665,0.91695005,0.20805001,9.901051
1679916274364,1096262720437819,0.95595,0.22500001,9.879001
1679916274367,1096262722939973,0.9580501,0.22200002,9.931951
1679916274369,1096262725442146,0.9889501,0.20805001,9.951
1679916274372,1096262727944300,0.90795004,0.25800002,9.92895
1679916274375,1096262730446530,1.0200001,0.30105,9.99195
1679916274377,1096262732948684,1.0540501,0.24105,9.867001
1679916274379,1096262735450853,1.0030501,0.20805001,9.976951
1679916274384,1096262737953007,0.93900007,0.26505002,9.847951
1679916274385,1096262740455161,0.9889501,0.246,9.835951
1679916274387,1096262742957238,0.99705005,0.093,9.88605
1679916274391,1096262745459477,1.0159501,0.19305001,9.88395
1679916274392,1096262747961631,0.94605005,0.24900001,9.96105
1679916274395,1096262750463785,0.93900007,0.27705002,9.88605
1679916274397,1096262752965939,1.0519501,0.20505,9.988951
1679916274402,1096262755468074,1.07295,0.21000001,9.976951
1679916274402,1096262757970228,1.0129501,0.23700002,9.858001
1679916274404,1096262760472612,0.96300006,0.10695001,9.982051
1679916274407,1096262762974535,0.91005003,0.25800002,9.92895
1679916274409,1096262765476689,0.92205006,0.23700002,9.915001
1679916274412,1096262767979069,0.90795004,0.23700002,9.867001
1679916274415,1096262770480992,0.95100003,0.27,9.915001
1679916274417,1096262772983146,0.94605005,0.26505002,9.92205
1679916274420,1096262775485530,1.0350001,0.18405001,9.8550005
1679916274423,1096262777987680,0.9990001,0.17895001,9.88395
1679916274424,1096262780489834,1.00605,0.15795001,9.927
1679916274428,1096262782991988,1.011,0.18900001,9.85995
1679916274429,1096262785494142,0.90195006,0.34905002,9.86505
1679916274433,1096262787996296,0.90795004,0.31800002,9.9529505
1679916274435,1096262790498469,0.93195003,0.15795001,9.846001
1679916274437,1096262793000622,0.91695005,0.23400001,9.939
1679916274440,1096262795502776,0.86595005,0.19800001,9.85305
1679916274442,1096262798004930,0.96795005,0.26805001,9.946051
1679916274444,1096262800507104,0.87495005,0.23700002,9.931951
1679916274447,1096262803009258,0.95100003,0.252,9.979951
1679916274450,1096262805511489,0.897,0.25605002,9.89805
1679916274452,1096262808013642,0.91005003,0.26505002,9.802051
1679916274454,1096262810515820,0.92505,0.22500001,9.987
1679916274457,1096262813017974,0.89205,0.23700002,9.89295
1679916274459,1096262815520128,0.9289501,0.22500001,9.891001
1679916274463,1096262818022282,0.96795005,0.19305001,9.92895
1679916274466,1096262820524417,0.906,0.25605002,9.89295
1679916274467,1096262823026571,0.93705004,0.22200002,9.86505
1679916274470,1096262825528724,0.9889501,0.08295,9.96105
1679916274472,1096262828030878,1.02495,0.28395,9.94095
1679916274474,1096262830533032,0.99705005,0.246,9.834001
1679916274477,1096262833035166,1.047,0.22905001,10.063951
1679916274479,1096262835537551,0.93405,0.22005,9.91695
1679916274482,1096262838039704,1.02795,0.14805001,9.9529505
1679916274485,1096262840541858,0.98505,0.19095,9.901051
1679916274487,1096262843044012,1.1329501,0.18195,9.8550005
1679916274489,1096262845546166,1.0030501,0.23895001,9.867001
1679916274492,1096262848048320,0.99195004,0.21495001,9.982051
1679916274496,1096262850550474,1.0159501,0.201,9.88605
1679916274497,1096262853052624,0.95100003,0.24405001,9.99405
1679916274500,1096262855554777,0.9889501,0.21000001,9.89595
1679916274506,1096262858056931,0.96105003,0.23205002,9.86205
1679916274506,1096262860559085,0.93705004,0.22500001,9.943951
1679916274507,1096262863061248,0.94605005,0.30600002,9.8550005
1679916274510,1096262865563479,0.97005004,0.14805001,9.85305
1679916274512,1096262868065556,0.96795005,0.18405001,9.738001
1679916274514,1096262870567786,1.008,0.20505,9.913051
1679916274518,1096262873069873,0.94395006,0.29895002,9.86505
1679916274520,1096262875572104,0.92205006,0.20295002,9.967951
1679916274522,1096262878074181,0.95295006,0.24105,9.87195
1679916274525,1096262880576412,0.96795005,0.34905002,9.94095
1679916274527,1096262883078566,0.93705004,0.26295,9.999001
1679916274530,1096262885580729,0.91005003,0.20295002,9.951
1679916274534,1096262888082882,0.88995004,0.26505002,9.834001
1679916274535,1096262890585036,0.90795004,0.20505,9.747001
1679916274537,1096262893087190,1.03005,0.26505002,9.915001
1679916274542,1096262895589561,0.94905007,0.282,9.90795
1679916274544,1096262898091484,1.0009501,0.30600002,9.89295
1679916274544,1096262900593638,0.93900007,0.27,9.817051
1679916274548,1096262903095791,0.94095004,0.28005,9.795
1679916274550,1096262905598176,0.96795005,0.27495003,10.083
1679916274552,1096262908100316,0.96300006,0.27705002,9.925051
1679916274556,1096262910602470,0.94095004,0.201,9.94095
1679916274557,1096262913104624,1.0030501,0.21000001,9.984
1679916274560,1096262915606777,0.97005004,0.27495003,9.951
1679916274562,1096262918108921,0.99195004,0.117000006,9.90795
1679916274564,1096262920611075,0.906,0.26295,9.759001
1679916274568,1096262923113229,1.04205,0.23895001,9.931951
1679916274570,1096262925615383,1.0350001,0.25605002,9.87195
1679916274572,1096262928117537,1.044,0.246,9.979951
1679916274575,1096262930619696,0.9990001,0.17400001,9.931951
1679916274579,1096262933121849,1.03695,0.25605002,9.99195
1679916274579,1096262935624080,1.0159501,0.141,9.982051
1679916274583,1096262938126234,1.0180501,0.19800001,9.870001
1679916274585,1096262940628311,1.00605,0.07095,9.943951
1679916274587,1096262943130465,1.00605,0.18195,9.823951
1679916274590,1096262945632696,0.93405,0.07395,9.846001
1679916274592,1096262948134849,1.00605,0.201,9.858001
1679916274595,1096262950637003,0.94905007,0.06705,9.7879505
1679916274597,1096262953139147,0.87495005,0.08595,9.963
1679916274600,1096262955641301,0.93705004,0.12195001,9.879001
1679916274602,1096262958143455,0.89205,0.165,9.880951
1679916274605,1096262960645609,0.87795,0.22005,9.850051
1679916274607,1096262963147758,0.93705004,0.28395,10.00605
1679916274610,1096262965650142,0.91995007,0.20805001,9.913051
1679916274612,1096262968152065,0.84900004,0.29895002,9.88395
1679916274616,1096262970654219,0.906,0.342,9.769051
1679916274617,1096262973156373,0.94395006,0.246,9.826051
1679916274620,1096262975658517,0.97005004,0.23400001,9.8550005
1679916274623,1096262978160671,0.94905007,0.21705002,9.798
1679916274625,1096262980663055,0.93405,0.18900001,9.77595
1679916274628,1096262983165205,0.91695005,0.165,9.9529505
1679916274630,1096262985667359,1.00605,0.342,9.903001
1679916274632,1096262988169513,0.99405,0.31095,9.88395
1679916274635,1096262990671667,0.98700005,0.29205,9.946051
1679916274637,1096262993173821,1.0129501,0.24900001,9.86505
1679916274640,1096262995676070,1.00605,0.273,9.87405
1679916274642,1096262998178147,0.98700005,0.261,9.8890505
1679916274645,1096263000680301,1.059,0.14595,9.846001
1679916274648,1096263003182455,1.03695,0.19095,9.955951
1679916274650,1096263005684609,0.9889501,0.15495001,9.96105
1679916274654,1096263008186772,1.1209501,0.177,9.937051
1679916274655,1096263010689002,1.14705,0.20505,10.05405
1679916274657,1096263013191156,1.0180501,0.27495003,10.03005
1679916274660,1096263015693310,1.0350001,0.19800001,10.04895
1679916274663,1096263018195464,0.97695005,0.186,9.979951
1679916274664,1096263020697628,1.107,0.22500001,10.03005
1679916274668,1096263023199782,0.99195004,0.186,9.86205
1679916274670,1096263025701936,0.93705004,0.21705002,9.94095
1679916274673,1096263028204089,0.97005004,0.21300001,9.955951
1679916274675,1096263030706247,0.92505,0.25800002,9.946051
1679916274678,1096263033208401,1.0030501,0.15,9.987
1679916274680,1096263035710555,0.99195004,0.22695,9.988951
1679916274682,1096263038212709,1.03995,0.19800001,9.958051
1679916274685,1096263040715075,1.0200001,0.21705002,9.96105
1679916274687,1096263043217229,1.0830001,0.27,9.913051
1679916274691,1096263045719383,0.98700005,0.26505002,9.91005
1679916274692,1096263048221537,0.93900007,0.25605002,9.915001
1679916274695,1096263050723691,0.98505,0.11895001,9.943951
1679916274697,1096263053225835,1.0129501,0.23895001,9.87405
1679916274700,1096263055727989,0.975,0.19800001,9.91005
1679916274703,1096263058230142,0.9580501,0.22695,9.967951
1679916274705,1096263060732296,0.9889501,0.14805001,9.996
1679916274707,1096263063234450,1.0030501,0.20295002,9.90795
1679916274710,1096263065736604,0.9799501,0.10695001,9.86205
1679916274712,1096263068238758,0.9580501,0.21300001,9.84105
1679916274715,1096263070740989,1.0159501,0.28695002,9.838051
1679916274717,1096263073243051,0.9889501,0.17205001,9.7900505
1679916274720,1096263075745204,1.0180501,0.20295002,9.82905
1679916274722,1096263078247358,0.84405005,0.16995001,9.86505
1679916274724,1096263080749512,0.93900007,0.24900001,9.89295
1679916274729,1096263083251666,0.9289501,0.201,9.87705
1679916274729,1096263085753897,0.94905007,0.22005,9.835951
1679916274732,1096263088256051,0.92505,0.22905001,9.838051
1679916274735,1096263090758204,0.99705005,0.15300001,9.817051
1679916274737,1096263093260358,0.91305006,0.20505,9.72795
1679916274740,1096263095762527,0.81495005,0.13605,9.69705
1679916274743,1096263098264681,0.873,0.15795001,9.85995
1679916274745,1096263100767066,0.88305,0.15495001,9.807
1679916274747,1096263103268989,0.87795,0.22200002,9.86205
1679916274751,1096263105771138,0.88005006,0.27705002,9.927
1679916274752,1096263108273291,0.9799501,0.14595,9.835951
1679916274755,1096263110775445,0.89895004,0.11400001,9.747001
1679916274757,1096263113277599,0.95595,0.22905001,9.786
1679916274760,1096263115779955,1.0200001,0.105000004,9.87405
1679916274762,1096263118282109,0.89895004,0.19095,9.786
1679916274766,1096263120784032,0.93195003,0.14595,9.850051
1679916274767,1096263123286416,0.897,0.16995001,9.901051
1679916274770,1096263125788570,0.97695005,0.15495001,9.937051
1679916274772,1096263128290729,0.90795004,0.18900001,9.7879505
1679916274775,1096263130792652,0.92700005,0.24405001,9.835951
1679916274777,1096263133295037,0.95595,0.21300001,9.89295
1679916274780,1096263135797195,1.0200001,0.22200002,9.87405
1679916274783,1096263138299348,0.98205006,0.24900001,9.901051
1679916274785,1096263140801502,0.98505,0.126,10.01805
1679916274787,1096263143303656,1.0350001,0.25800002,9.99195
1679916274790,1096263145805810,0.906,0.20295002,9.771001
1679916274792,1096263148308051,0.98205006,0.23700002,9.8890505
1679916274794,1096263150810128,0.94905007,0.20805001,10.02495
1679916274797,1096263153312282,0.96795005,0.30795002,9.86505
1679916274800,1096263155814512,0.975,0.26805001,9.73095
1679916274804,1096263158316671,0.94605005,0.21300001,9.846001
1679916274805,1096263160818748,0.97695005,0.342,10.044001
1679916274808,1096263163320979,0.91695005,0.30795002,9.867001
1679916274809,1096263165823133,0.897,0.23400001,9.786
1679916274812,1096263168325272,0.85605,0.177,9.934051
1679916274815,1096263170827425,0.88305,0.24405001,9.958051
1679916274817,1096263173329579,0.96105003,0.21495001,9.963
1679916274820,1096263175831733,0.83895004,0.22905001,9.799951
1679916274823,1096263178333897,0.90795004,0.12900001,9.931951
1679916274824,1096263180836051,0.9799501,0.24105,9.826051
1679916274827,1096263183338205,0.96495,0.22695,9.946051
1679916274830,1096263185840589,0.95595,0.22695,9.92895
1679916274832,1096263188342512,0.93705004,0.22695,9.795
1679916274834,1096263190844666,0.98205006,0.201,9.927
1679916274837,1096263193347051,1.0849501,0.19605,9.97305
1679916274841,1096263195849205,0.98700005,0.19605,9.85995
1679916274843,1096263198351128,1.0489501,0.15,9.88395
1679916274845,1096263200853507,0.94395006,0.19800001,9.964951
1679916274848,1096263203355661,0.96105003,0.25800002,9.901051
1679916274851,1096263205857815,0.9889501,0.17205001,9.9529505
1679916274852,1096263208359969,0.93195003,0.16695,9.834001
1679916274855,1096263210862147,0.97005004,0.165,9.86205
1679916274857,1096263213364301,0.94605005,0.19095,9.86505
1679916274860,1096263215866531,0.90195006,0.15495001,9.823951
1679916274863,1096263218368608,0.94605005,0.21300001,9.90495
1679916274866,1096263220870772,0.96300006,0.16695,9.850051
1679916274868,1096263223372926,0.99405,0.16995001,9.86505
1679916274871,1096263225875157,0.915,0.29895002,9.901051
1679916274872,1096263228377234,0.88695,0.20805001,9.880951
1679916274876,1096263230879354,0.86595005,0.19605,9.766951
1679916274879,1096263233381584,0.87495005,0.26505002,9.94095
1679916274880,1096263235883738,0.90195006,0.20295002,9.87195
1679916274885,1096263238385892,0.84705,0.15300001,9.937051
1679916274886,1096263240888046,0.86805004,0.13095,9.8550005
1679916274887,1096263243390205,0.897,0.16695,9.762
1679916274890,1096263245892282,0.85095006,0.23400001,9.7879505
1679916274894,1096263248394513,0.92700005,0.24105,9.85995
1679916274894,1096263250896666,0.84705,0.33,9.87705
1679916274897,1096263253398820,0.91695005,0.25800002,9.901051
1679916274901,1096263255900979,0.95100003,0.17400001,9.927
1679916274904,1096263258403133,0.96795005,0.24105,9.89295
1679916274905,1096263260905287,0.95100003,0.26295,9.901051
1679916274907,1096263263407671,0.9889501,0.282,9.976951
1679916274910,1096263265909806,0.97005004,0.354,9.89805
1679916274913,1096263268411960,0.93405,0.31095,9.934051
1679916274917,1096263270914114,0.93900007,0.33705002,9.88395
1679916274920,1096263273416268,1.008,0.25605002,9.88605
1679916274920,1096263275918195,0.975,0.28695002,9.958051
1679916274922,1096263278420580,0.9799501,0.23205002,9.939
1679916274925,1096263280922733,0.91005003,0.17400001,10.00395
1679916274928,1096263283424887,0.99705005,0.126,9.85305
1679916274930,1096263285927085,1.03695,0.27,9.967951
1679916274933,1096263288429239,0.97695005,0.21705002,9.976951
1679916274935,1096263290931393,0.88695,0.15,9.826051
1679916274937,1096263293433547,1.0030501,0.14805001,9.939
1679916274940,1096263295935709,0.897,0.13605,9.8890505
1679916274943,1096263298437940,0.873,0.19605,9.946051
1679916274945,1096263300940094,0.95595,0.186,9.9199505
1679916274947,1096263303442171,0.88500005,0.22500001,9.870001
1679916274951,1096263305944320,0.99195004,0.11400001,9.89295
1679916274954,1096263308446551,0.87495005,0.17895001,9.90795
1679916274955,1096263310948705,0.91005003,0.21300001,9.817051
1679916274958,1096263313450858,0.86100006,0.17895001,9.814051
1679916274960,1096263315953012,0.94095004,0.27,9.867001
1679916274963,1096263318455162,0.96105003,0.22005,9.867001
1679916274965,1096263320957316,0.88500005,0.15795001,9.9199505
1679916274968,1096263323459470,0.98700005,0.16995001,9.831
1679916274970,1096263325961624,0.82995003,0.025950002,9.814051
1679916274972,1096263328463743,0.897,0.18405001,9.673051
1679916274975,1096263330965897,0.82500005,0.30600002,10.126051
1679916274978,1096263333468051,0.89205,0.22005,9.92205
1679916274980,1096263335970205,0.90795004,0.15495001,9.934051
1679916274983,1096263338472600,0.94905007,0.24105,9.87195
1679916274985,1096263340974754,0.915,0.15300001,9.931951
1679916274988,1096263343476907,0.88305,0.19305001,10.035001
1679916274993,1096263345979061,0.98505,0.32805002,9.793051
1679916274993,1096263348481215,0.915,0.22695,9.77595
1679916274995,1096263350983118,0.9799501,0.18405001,9.975
1679916274998,1096263353485503,1.047,0.28005,9.964951
1679916275001,1096263355987657,0.92505,0.26505002,9.94095
1679916275002,1096263358489810,0.93900007,0.30600002,9.85305
1679916275005,1096263360991964,0.91695005,0.29595003,9.901051
1679916275007,1096263363494104,0.99405,0.26295,9.958051
1679916275010,1096263365996258,0.99195004,0.186,9.88605
1679916275013,1096263368498489,0.92205006,0.25005,9.847951
1679916275017,1096263371000566,1.0030501,0.201,10.02795
1679916275018,1096263373502782,0.96795005,0.24900001,9.963
1679916275021,1096263376004935,0.95295006,0.20805001,9.879001
1679916275024,1096263378507089,0.83505005,0.20295002,9.89295
1679916275025,1096263381009166,1.00605,0.19305001,9.88395
1679916275028,1096263383511373,0.915,0.28395,9.94095
1679916275030,1096263386013527,0.94605005,0.186,9.90795
1679916275034,1096263388515681,0.94605005,0.28905,9.87405
1679916275035,1096263391017834,0.91305006,0.186,9.88395
1679916275038,1096263393519988,0.86805004,0.22200002,9.927
1679916275041,1096263396022147,0.88305,0.23205002,9.8220005
1679916275043,1096263398524301,0.93705004,0.21705002,9.86205
1679916275045,1096263401026455,0.87495005,0.186,9.89595
1679916275048,1096263403528609,0.94905007,0.17205001,9.88605
1679916275052,1096263406031027,0.90195006,0.25605002,9.786
1679916275052,1096263408532950,0.94905007,0.20805001,9.85305
1679916275055,1096263411035104,0.92505,0.19800001,9.91005
1679916275057,1096263413537489,0.93195003,0.165,9.85995
1679916275060,1096263416039633,1.0009501,0.23205002,9.913051
1679916275063,1096263418541787,0.94605005,0.11400001,9.927
1679916275069,1096263421043940,0.91695005,0.22905001,9.979951
1679916275069,1096263423546094,0.94095004,0.126,9.92895
1679916275070,1096263426048248,0.9799501,0.16995001,9.92205
1679916275073,1096263428550417,0.9580501,0.10695001,9.85305
1679916275076,1096263431052571,0.975,0.15,9.8550005
1679916275078,1096263433554725,0.91695005,0.15795001,9.87405
1679916275081,1096263436056879,0.92205006,0.20295002,9.891001
1679916275083,1096263438559051,1.02495,0.22695,9.843
1679916275085,1096263441061205,0.93900007,0.19095,9.934051
1679916275089,1096263443563436,0.91695005,0.29895002,9.963
1679916275090,1096263446065590,1.047,0.23895001,9.964951
1679916275093,1096263448567744,0.98505,0.29595003,9.927
1679916275095,1096263451069898,0.95295006,0.201,9.880951
1679916275098,1096263453572051,1.00605,0.25605002,9.92895
1679916275101,1096263456074205,0.99705005,0.22200002,9.964951
1679916275104,1096263458576359,0.88500005,0.22005,10.035001
1679916275106,1096263461078484,0.915,0.28395,9.963
1679916275108,1096263463580638,0.84705,0.282,9.826051
1679916275110,1096263466082792,0.897,0.29205,9.946051
1679916275112,1096263468585176,0.83205,0.27705002,10.02795
1679916275115,1096263471087099,0.915,0.273,9.90795
1679916275118,1096263473589248,0.98700005,0.17205001,9.90495
1679916275120,1096263476091402,0.91695005,0.27495003,9.823951
1679916275123,1096263478593787,0.86295,0.22005,9.87705
1679916275125,1096263481095710,0.873,0.20805001,9.879001
1679916275128,1096263483598094,0.9799501,0.21300001,9.807
1679916275130,1096263486100233,0.873,0.16995001,9.85305
1679916275134,1096263488602387,0.95295006,0.246,9.87195
1679916275135,1096263491104541,0.915,0.16005,9.9529505
1679916275138,1096263493606695,0.93900007,0.18405001,9.87195
1679916275142,1096263496108834,0.89205,0.15300001,9.949051
1679916275144,1096263498610988,0.98505,0.20295002,9.951
1679916275145,1096263501113141,0.813,0.186,9.927
1679916275149,1096263503615295,0.94095004,0.19095,9.96105
1679916275150,1096263506117449,0.99195004,0.23700002,9.939
1679916275153,1096263508619622,0.90795004,0.162,9.91005
1679916275156,1096263511121776,0.95100003,0.21300001,9.85305
1679916275157,1096263513624007,1.0159501,0.162,9.939
1679916275161,1096263516126160,1.0489501,0.10005,9.901051
1679916275162,1096263518628319,0.99195004,0.19305001,9.835951
1679916275165,1096263521130473,1.0200001,0.15795001,9.951
1679916275168,1096263523632627,0.98505,0.12195001,10.047001
1679916275170,1096263526134781,0.975,0.26295,9.89595
1679916275172,1096263528636935,1.07595,0.201,9.958051
1679916275176,1096263531139089,0.94395006,0.22695,9.94095
1679916275179,1096263533641242,1.0129501,0.23205002,9.92895
1679916275180,1096263536143396,1.0180501,0.16005,9.999001
1679916275185,1096263538645550,0.9289501,0.252,9.903001
1679916275185,1096263541147704,0.88695,0.20295002,9.934051
1679916275188,1096263543650098,0.96795005,0.24405001,9.958051
1679916275191,1096263546152251,0.87795,0.24900001,9.8550005
1679916275193,1096263548654175,0.95100003,0.252,9.880951
1679916275195,1096263551156328,0.96795005,0.261,9.8890505
1679916275198,1096263553658694,0.91005003,0.14295001,9.931951
1679916275200,1096263556160617,0.95295006,0.22200002,9.87405
1679916275203,1096263558663002,0.85905004,0.17205001,9.846001
1679916275205,1096263561165156,0.90405005,0.273,9.82905
1679916275208,1096263563667324,0.87495005,0.22695,9.94095
1679916275211,1096263566169478,0.94095004,0.24405001,9.850051
1679916275213,1096263568671632,0.84705,0.177,9.846001
1679916275219,1096263571173766,0.96795005,0.26295,9.747001
1679916275219,1096263573675997,0.91005003,0.27,9.987
1679916275220,1096263576178074,0.94095004,0.25605002,9.85305
1679916275224,1096263578680228,0.94095004,0.21300001,9.931951
1679916275225,1096263581182381,0.93405,0.28005,9.934051
1679916275228,1096263583684516,0.94605005,0.064050004,9.84105
1679916275231,1096263586186670,0.91695005,0.14805001,9.967951
1679916275235,1096263588688901,0.89505005,0.20295002,9.91695
1679916275236,1096263591191055,0.93705004,0.30405003,9.92895
1679916275238,1096263593693209,0.98700005,0.21705002,9.82905
1679916275240,1096263596195362,0.88695,0.19305001,9.826051
1679916275243,1096263598697516,0.9799501,0.14805001,9.970051
1679916275246,1096263601199670,1.0180501,0.252,9.77595
1679916275247,1096263603702055,1.07295,0.177,9.880951
1679916275251,1096263606203964,1.04205,0.19095,9.946051
1679916275254,1096263608706118,1.02795,0.21705002,9.92205
1679916275255,1096263611208272,0.98505,0.15795001,9.976951
1679916275259,1096263613710425,0.94095004,0.20805001,9.826051
1679916275260,1096263616212579,0.9990001,0.16005,9.996
1679916275264,1096263618714968,0.93705004,0.13095,10.02795
1679916275265,1096263621217122,1.0030501,0.165,9.850051
1679916275267,1096263623719276,1.02795,0.28695002,9.73095
1679916275270,1096263626221429,0.9289501,0.18195,9.89595
1679916275272,1096263628723593,0.93900007,0.22005,9.867001
1679916275275,1096263631225747,0.94605005,0.17205001,9.843
1679916275278,1096263633727901,0.92505,0.16695,9.793051
1679916275280,1096263636230055,0.915,0.18405001,9.802051
1679916275284,1096263638732228,0.96795005,0.201,9.7900505
1679916275285,1096263641234382,0.87795,0.14295001,9.943951
1679916275288,1096263643736535,0.88305,0.17400001,9.754951
1679916275292,1096263646238689,0.82995003,0.15495001,9.88605
1679916275293,1096263648740920,0.85905004,0.23895001,9.96105
1679916275296,1096263651243069,0.92505,0.32505003,9.963
1679916275298,1096263653745146,0.82305,0.16695,10.047001
1679916275301,1096263656247300,0.88305,0.246,9.967951
1679916275303,1096263658749530,0.83505005,0.21000001,9.8220005
1679916275305,1096263661251622,0.99705005,0.15795001,10.320001
1679916275308,1096263663753853,0.91995007,0.30105,9.96105
1679916275311,1096263666256007,0.92205006,0.27705002,9.60795
1679916275313,1096263668758161,0.96495,0.282,9.819
1679916275316,1096263671260335,0.97005004,0.17205001,9.817051
1679916275318,1096263673762489,1.0009501,0.26805001,9.943951
1679916275320,1096263676264642,0.95100003,0.19605,9.802051
1679916275323,1096263678767027,0.97305006,0.29205,9.795
1679916275325,1096263681268950,1.008,0.23205002,10.07505
1679916275329,1096263683771104,0.99705005,0.23700002,10.01595
1679916275330,1096263686273258,1.0639501,0.20505,10.044001
1679916275333,1096263688775412,1.0129501,0.141,9.99195
1679916275335,1096263691277566,0.93900007,0.14805001,9.939
1679916275338,1096263693779950,1.0129501,0.15,10.03695
1679916275341,1096263696282104,0.98505,0.12900001,9.913051
1679916275343,1096263698784258,0.93705004,0.15495001,9.939
1679916275346,1096263701286431,1.0129501,0.10005,9.86205
1679916275348,1096263703788585,0.98505,0.15,9.92205
1679916275352,1096263706290738,0.91005003,0.18900001,9.817051
1679916275353,1096263708792969,0.9289501,0.21495001,9.846001
1679916275357,1096263711295051,0.92700005,0.186,9.71895
1679916275358,1096263713797205,0.96105003,0.24405001,9.762
1679916275361,1096263716299359,0.95100003,0.22200002,9.835951
1679916275363,1096263718801513,0.95295006,0.19305001,9.7900505
1679916275368,1096263721303700,0.906,0.201,9.89295
1679916275368,1096263723805931,0.88695,0.23895001,9.86505
1679916275370,1096263726308085,0.91695005,0.18405001,9.88395
1679916275373,1096263728810162,0.897,0.22905001,9.99405
1679916275375,1096263731312316,0.91995007,0.186,9.92895
1679916275378,1096263733814547,0.89205,0.16005,9.970051
1679916275381,1096263736316701,0.79605,0.22905001,9.925051
1679916275385,1096263738818854,0.94905007,0.21300001,9.96105
1679916275386,1096263741321008,0.89895004,0.28395,9.807
1679916275388,1096263743823161,0.98700005,0.246,9.86505
1679916275390,1096263746325315,0.94905007,0.273,9.795
1679916275394,1096263748827469,0.873,0.21705002,9.970051
1679916275395,1096263751329623,0.93705004,0.30405003,9.975
1679916275398,1096263753831776,0.94905007,0.30105,9.975
1679916275401,1096263756333945,0.96300006,0.33195,9.847951
1679916275405,1096263758836099,0.95595,0.29895002,10.04205
1679916275405,1096263761338253,0.99705005,0.31800002,9.903001
1679916275408,1096263763840638,1.03005,0.22200002,9.943951
1679916275411,1096263766342797,0.96795005,0.165,9.903001
1679916275413,1096263768844720,0.94905007,0.17400001,9.94095
1679916275415,1096263771347104,0.96495,0.14295001,9.996
1679916275418,1096263773849258,0.9289501,0.15,9.87195
1679916275421,1096263776351402,0.9889501,0.14295001,9.91695
1679916275423,1096263778853556,1.02495,0.08805001,9.88605
1679916275425,1096263781355710,1.0200001,0.23205002,9.85305
1679916275428,1096263783857863,0.94395006,0.109950006,9.903001
1679916275430,1096263786360017,1.0030501,0.22905001,9.847951
1679916275433,1096263788862171,0.97005004,0.126,9.91695
1679916275435,1096263791364325,0.98505,0.094950005,9.96105
1679916275438,1096263793866556,0.98205006,0.124050006,9.7900505
1679916275442,1096263796368633,0.95100003,0.124050006,9.979951
1679916275443,1096263798870763,0.99405,0.17400001,9.807
1679916275445,1096263801372916,0.99195004,0.07095,9.89295
1679916275448,1096263803875070,0.906,0.186,9.88605
1679916275451,1096263806377224,0.95595,0.11400001,9.90495
1679916275453,1096263808879441,0.98205006,0.10695001,9.838051
1679916275455,1096263811381595,0.99195004,0.20805001,9.8890505
1679916275458,1096263813883749,0.88005006,0.23700002,9.92205
1679916275461,1096263816385902,0.86595005,0.22005,9.927
1679916275463,1096263818888041,0.975,0.26505002,9.89295
1679916275465,1096263821390195,0.88005006,0.23895001,9.979951
1679916275468,1096263823892580,0.9799501,0.19800001,9.879001
1679916275470,1096263826394503,0.90795004,0.21495001,9.8890505
1679916275473,1096263828896657,0.97005004,0.28395,9.955951
1679916275475,1096263831398801,0.90405005,0.36405003,9.90795
1679916275479,1096263833900954,0.91005003,0.25800002,9.925051
1679916275481,1096263836403108,0.95100003,0.25605002,9.937051
1679916275483,1096263838905493,0.95595,0.21300001,10.05405
1679916275485,1096263841407638,0.99195004,0.25605002,9.87405
1679916275488,1096263843909561,0.93900007,0.16695,9.96105
1679916275490,1096263846411945,0.9889501,0.16995001,9.8890505
1679916275493,1096263848914099,0.9799501,0.30600002,10.032001
1679916275497,1096263851416277,0.95100003,0.282,9.9529505
1679916275498,1096263853918431,0.94395006,0.22905001,9.99405
1679916275503,1096263856420585,0.98205006,0.28395,9.88605
1679916275504,1096263858922739,1.008,0.17895001,9.87195
1679916275505,1096263861424893,0.98205006,0.22695,9.835951
1679916275508,1096263863927041,0.95295006,0.15495001,9.91005
1679916275511,1096263866429195,0.94905007,0.126,9.802051
1679916275513,1096263868931426,0.9289501,0.33195,9.91005
1679916275518,1096263871433580,0.98505,0.117000006,9.964951
1679916275518,1096263873935657,1.0030501,0.10005,9.807
1679916275520,1096263876437796,0.95100003,0.24900001,9.85995
1679916275523,1096263878939950,0.88995004,0.186,9.976951
1679916275525,1096263881442103,1.0129501,0.15795001,9.901051
1679916275529,1096263883944334,0.95295006,0.081,9.931951
1679916275530,1096263886446488,0.975,0.165,9.81
1679916275534,1096263888948647,0.88005006,0.08595,9.903001
1679916275535,1096263891450801,0.93705004,0.117000006,9.996
1679916275538,1096263893952955,0.9580501,0.19095,9.92205
1679916275541,1096263896455108,0.88500005,0.177,9.798
1679916275543,1096263898957512,0.96105003,0.15300001,9.88395
1679916275546,1096263901459435,0.94395006,0.23400001,9.903001
1679916275548,1096263903961589,0.83205,0.23895001,9.925051
1679916275551,1096263906463743,0.91995007,0.21705002,9.87705
1679916275555,1096263908965897,0.98700005,0.23700002,9.846001
1679916275555,1096263911468051,0.897,0.22200002,9.838051
1679916275558,1096263913970435,0.9889501,0.27495003,9.814051
1679916275561,1096263916472589,0.91005003,0.273,9.858001
1679916275564,1096263918974743,0.91995007,0.28005,9.91005
1679916275565,1096263921476676,0.91695005,0.32505003,9.85995
1679916275568,1096263923979061,0.93405,0.33195,9.90495
1679916275570,1096263926481214,0.91995007,0.23700002,9.89805
1679916275573,1096263928983445,0.91005003,0.20805001,9.823951
1679916275576,1096263931485517,0.91695005,0.22695,9.831
1679916275578,1096263933987671,0.93705004,0.33,9.949051
1679916275585,1096263936489825,1.03995,0.21495001,9.89595
1679916275585,1096263938991979,0.89205,0.30795002,10.012951
1679916275586,1096263941494133,0.91695005,0.26295,9.91695
1679916275589,1096263943996392,0.93705004,0.201,9.891001
1679916275592,1096263946498546,0.95295006,0.26505002,9.90495
1679916275593,1096263949000623,0.93405,0.19800001,9.937051
1679916275597,1096263951502854,0.92205006,0.20805001,9.90795
1679916275598,1096263954005008,1.0180501,0.16695,9.934051
1679916275601,1096263956507167,1.0159501,0.19305001,9.891001
1679916275603,1096263959009320,0.96795005,0.15,9.819
1679916275605,1096263961511474,0.97005004,0.15495001,9.84105
1679916275608,1096263964013628,1.04205,0.079050004,9.913051
1679916275610,1096263966515782,1.0200001,0.10005,9.87195
1679916275613,1096263969017926,1.0009501,0.009000001,9.96105
1679916275615,1096263971520080,0.96795005,0.052050002,9.86205
1679916275618,1096263974022234,1.011,0.10695001,9.982051
1679916275621,1096263976524618,0.97005004,0.23895001,9.819
1679916275623,1096263979026551,0.96495,0.21000001,9.87195
1679916275625,1096263981528705,0.96300006,0.23895001,9.94095
1679916275630,1096263984030859,0.96495,0.15795001,9.89805
1679916275631,1096263986533013,0.89205,0.201,9.805051
1679916275633,1096263989035167,1.0159501,0.12195001,9.86505
1679916275635,1096263991537579,0.96795005,0.22695,9.8550005
1679916275638,1096263994039733,0.97005004,0.19605,9.807
1679916275640,1096263996541887,0.906,0.24405001,9.91005
1679916275643,1096263999044041,1.0030501,0.22005,9.937051
1679916275645,1096264001546204,0.83505005,0.24105,9.967951
1679916275648,1096264004048358,0.89505005,0.26505002,9.970051
1679916275651,1096264006550511,0.92700005,0.28905,9.90495
1679916275653,1096264009052665,0.95295006,0.282,9.87195
1679916275656,1096264011554829,0.87105006,0.26295,9.880951
1679916275658,1096264014057060,0.91995007,0.26295,9.903001
1679916275661,1096264016559214,0.81105006,0.23400001,9.87405
1679916275663,1096264019061368,0.93900007,0.27495003,9.891001
1679916275668,1096264021563435,0.95100003,0.20295002,9.835951
1679916275669,1096264024065588,0.96105003,0.16005,9.91005
1679916275670,1096264026567742,0.88500005,0.13395001,9.937051
1679916275674,1096264029070204,0.98205006,0.14595,9.939
1679916275676,1096264031572127,0.93900007,0.18405001,10.00395
1679916275679,1096264034074262,0.92505,0.20505,9.87195
1679916275681,1096264036576416,1.0320001,0.22905001,9.967951
1679916275684,1096264039078569,0.92205006,0.22695,9.94095
1679916275685,1096264041580723,1.03995,0.20295002,9.94095
1679916275689,1096264044083108,0.9889501,0.19095,9.85995
1679916275690,1096264046585267,1.10895,0.081,9.88605
1679916275693,1096264049087190,0.9889501,0.18900001,9.84105
1679916275696,1096264051589344,1.03005,0.13800001,9.964951
1679916275698,1096264054091498,0.98505,0.10005,9.90495
1679916275702,1096264056593675,0.9580501,0.177,9.831
1679916275705,1096264059095829,0.98700005,0.06705,9.963
1679916275705,1096264061598214,0.97305006,0.19305001,9.8890505
1679916275708,1096264064100368,1.0030501,0.18405001,9.87705
1679916275711,1096264066602522,0.95595,0.10695001,9.90795
1679916275713,1096264069104675,0.88695,0.22695,9.811951
1679916275716,1096264071606829,0.93405,0.064050004,9.843
1679916275718,1096264074108983,0.86100006,0.17400001,9.927
1679916275721,1096264076611214,0.86100006,0.177,9.92895
1679916275723,1096264079113257,0.84405005,0.23205002,10.000951
1679916275726,1096264081615411,0.86100006,0.14805001,9.955951
1679916275728,1096264084117565,0.87795,0.20505,9.88395
1679916275731,1096264086619718,0.91695005,0.27,9.88395
1679916275733,1096264089121853,0.91305006,0.17400001,9.90795
1679916275736,1096264091624084,0.92700005,0.24900001,9.8890505
1679916275738,1096264094126238,0.9289501,0.31305,9.96105
1679916275743,1096264096628392,0.92505,0.252,9.934051
1679916275744,1096264099130464,0.906,0.186,9.915001
1679916275746,1096264101632617,0.92505,0.31305,9.96105
1679916275748,1096264104134848,0.92205006,0.22695,9.87405
1679916275751,1096264106637002,0.906,0.22200002,9.87405
1679916275753,1096264109139156,1.0030501,0.246,9.771001
1679916275757,1096264111641291,0.9580501,0.19305001,9.835951
1679916275758,1096264114143445,0.94905007,0.282,9.901051
1679916275761,1096264116645599,0.89895004,0.23700002,9.867001
1679916275765,1096264119147752,0.96105003,0.18900001,9.913051
1679916275766,1096264121650137,0.97005004,0.246,9.934051
1679916275768,1096264124152252,0.91995007,0.25005,9.86505
1679916275770,1096264126654175,0.88305,0.25605002,9.891001
1679916275773,1096264129156329,1.06605,0.18195,9.807
1679916275776,1096264131658483,0.92205006,0.27705002,9.89295
1679916275780,1096264134160655,0.92205006,0.26805001,9.913051
1679916275782,1096264136663040,0.897,0.22905001,9.913051
1679916275784,1096264139165194,0.96495,0.15,9.77595
1679916275786,1096264141667348,0.95100003,0.19605,9.949051
1679916275789,1096264144169502,0.94605005,0.15795001,9.976951
1679916275791,1096264146671671,0.91305006,0.15,9.880951
1679916275793,1096264149173824,0.96300006,0.13800001,9.94095
1679916275796,1096264151676055,0.90405005,0.112050004,10.035001
1679916275799,1096264154178132,0.94395006,0.23700002,9.92205
1679916275801,1096264156680315,0.9580501,0.19095,9.964951
1679916275803,1096264159182469,0.91005003,0.17895001,9.814051
1679916275805,1096264161684623,0.90195006,0.165,9.891001
1679916275809,1096264164186776,0.97695005,0.23895001,9.963
1679916275811,1096264166689007,0.90795004,0.246,10.07295
1679916275814,1096264169191146,0.975,0.27,9.939
1679916275818,1096264171693300,0.94605005,0.19605,9.915001
1679916275819,1096264174195454,1.0009501,0.20295002,9.9199505
1679916275822,1096264176697608,0.90195006,0.21495001,9.903001
1679916275823,1096264179199757,0.96300006,0.23700002,10.08705
1679916275826,1096264181702141,0.96795005,0.27495003,9.89595
1679916275828,1096264184204064,0.93705004,0.22695,9.86505
1679916275832,1096264186706218,1.0200001,0.20805001,9.9199505
1679916275833,1096264189208372,0.95100003,0.28395,9.8550005
1679916275836,1096264191710507,0.94095004,0.22200002,9.85995
1679916275838,1096264194212661,1.03005,0.18195,9.96105
1679916275841,1096264196715045,0.873,0.19305001,9.89805
1679916275844,1096264199217199,0.94605005,0.16005,9.805051
1679916275845,1096264201719142,0.95295006,0.15795001,9.86205
1679916275850,1096264204221296,0.94905007,0.21495001,9.834001
1679916275851,1096264206723450,0.94905007,0.26505002,9.826051
1679916275855,1096264209225604,0.915,0.21000001,9.834001
1679916275856,1096264211728003,0.88500005,0.28005,9.846001
1679916275858,1096264214230157,0.90405005,0.17205001,9.979951
1679916275862,1096264216732311,0.91995007,0.282,9.891001
1679916275863,1096264219234465,0.83895004,0.165,9.807
1679916275866,1096264221736623,0.83505005,0.32295,9.975
1679916275869,1096264224238777,0.906,0.24900001,9.850051
1679916275871,1096264226741007,0.915,0.17895001,9.925051
1679916275874,1096264229243161,0.93195003,0.25800002,10.02795
1679916275876,1096264231745234,0.92700005,0.21000001,9.913051
1679916275879,1096264234247388,0.98700005,0.28005,9.879001
1679916275881,1096264236749542,0.92505,0.26295,9.955951
1679916275884,1096264239251696,0.96795005,0.20295002,9.88605
1679916275886,1096264241753926,0.93195003,0.15795001,9.84105
1679916275889,1096264244256079,0.93705004,0.261,9.913051
1679916275893,1096264246758233,0.91695005,0.22905001,9.86205
1679916275894,1096264249260387,0.98205006,0.15,9.90495
1679916275896,1096264251762561,1.044,0.17205001,10.056001
1679916275900,1096264254264715,0.98505,0.18195,9.85305
1679916275901,1096264256767099,1.011,0.17400001,9.802051
1679916275904,1096264259269022,0.89505005,0.13605,9.843
1679916275906,1096264261771176,1.008,0.12900001,9.913051
1679916275909,1096264264273344,0.93900007,0.17895001,9.975
1679916275912,1096264266775498,0.93405,0.23205002,9.85305
1679916275913,1096264269277652,1.056,0.22695,9.931951
1679916275918,1096264271780047,1.0180501,0.141,9.96105
1679916275919,1096264274282200,0.9889501,0.186,9.988951
1679916275921,1096264276784354,0.96795005,0.21000001,9.979951
1679916275924,1096264279286277,0.93705004,0.22500001,9.87405
1679916275926,1096264281788431,0.88695,0.246,9.946051
1679916275931,1096264284290844,1.04205,0.28005,9.834001
1679916275931,1096264286792998,0.90405005,0.20805001,9.85305
1679916275933,1096264289295151,0.96495,0.186,9.802051
1679916275936,1096264291797305,0.90195006,0.20295002,9.85305
1679916275938,1096264294299459,0.98505,0.29895002,9.8890505
1679916275942,1096264296801714,0.91005003,0.18195,9.88605
1679916275944,1096264299303791,0.83505005,0.22500001,9.879001
1679916275946,1096264301805945,0.87795,0.14595,9.958051
1679916275948,1096264304308099,0.85905004,0.24900001,9.86205
1679916275951,1096264306810252,0.86805004,0.16695,9.949051
1679916275953,1096264309312382,0.94095004,0.28695002,9.913051
1679916275956,1096264311814613,0.93405,0.21000001,9.987
1679916275959,1096264314316767,0.96495,0.22905001,9.92895
1679916275961,1096264316818921,0.9289501,0.31305,9.88395
1679916275963,1096264319321085,0.95595,0.23700002,9.82905
1679916275967,1096264321823238,0.9580501,0.23400001,9.89805
1679916275968,1096264324325315,1.06605,0.11400001,9.7900505
1679916275971,1096264326827546,0.97695005,0.22200002,9.7900505
1679916275974,1096264329329681,1.011,0.23895001,9.927
1679916275976,1096264331831835,1.03005,0.124050006,9.847951
1679916275979,1096264334333989,1.0180501,0.17205001,9.798
1679916275982,1096264336836143,1.059,0.15300001,9.964951
1679916275984,1096264339338310,1.08,0.141,9.880951
1679916275986,1096264341840695,0.9580501,0.14295001,9.987
1679916275988,1096264344342849,1.04205,0.13605,9.958051
1679916275992,1096264346844772,1.023,0.19605,9.958051
1679916275993,1096264349346926,0.9799501,0.165,9.96105
1679916275997,1096264351849104,0.90795004,0.17205001,9.9199505
1679916276000,1096264354351488,0.91695005,0.17895001,9.838051
1679916276001,1096264356853642,0.915,0.22200002,9.915001
1679916276006,1096264359355796,0.95295006,0.20295002,9.89595
1679916276007,1096264361857950,0.96105003,0.15300001,9.771001
1679916276008,1096264364360123,0.91005003,0.201,9.838051
1679916276012,1096264366862277,0.93900007,0.28005,9.86205
1679916276013,1096264369364430,0.897,0.14295001,9.88605
1679916276017,1096264371866661,0.86595005,0.16695,9.87195
1679916276018,1096264374368728,0.83895004,0.18195,9.94095
1679916276023,1096264376870882,0.86595005,0.16995001,9.937051
1679916276024,1096264379373036,0.85905004,0.21495001,9.879001
1679916276026,1096264381875190,0.89505005,0.19800001,9.967951
1679916276028,1096264384377339,0.906,0.15795001,9.949051
1679916276031,1096264386879569,0.87795,0.19800001,9.85305
1679916276033,1096264389381723,0.9289501,0.24105,9.934051
1679916276036,1096264391883877,1.0200001,0.23205002,9.850051
1679916276039,1096264394385963,0.96300006,0.201,9.903001
1679916276043,1096264396888117,0.897,0.097950004,9.939
1679916276044,1096264399390348,0.93900007,0.22695,9.91005
1679916276046,1096264401892732,1.0320001,0.23205002,9.91005
1679916276050,1096264404394651,0.93405,0.20295002,9.86505
1679916276051,1096264406896805,0.93900007,0.21300001,9.967951
1679916276054,1096264409398959,0.97695005,0.10005,9.964951
1679916276056,1096264411901113,0.93705004,0.17400001,10.011001
1679916276059,1096264414403267,1.023,0.186,9.984
1679916276061,1096264416905631,0.92205006,0.162,9.976951
1679916276065,1096264419407785,0.93705004,0.15300001,9.92205
1679916276067,1096264421909708,0.94905007,0.21495001,9.891001
1679916276068,1096264424411862,0.99705005,0.19800001,9.89595
1679916276072,1096264426913987,0.97305006,0.13095,9.850051
1679916276073,1096264429416141,0.915,0.18405001,9.8550005
1679916276076,1096264431918525,0.97305006,0.17400001,9.90795
1679916276080,1096264434420679,1.0159501,0.22905001,9.817051
1679916276081,1096264436922833,1.00605,0.22500001,9.999001
1679916276084,1096264439424978,0.9289501,0.19095,9.879001
1679916276086,1096264441927132,0.95595,0.23895001,9.9529505
1679916276089,1096264444429286,0.93900007,0.165,9.92895
1679916276091,1096264446931516,0.9799501,0.24105,9.8550005
1679916276094,1096264449433684,0.97305006,0.21300001,10.02495
1679916276096,1096264451935761,0.93195003,0.22905001,9.823951
1679916276099,1096264454437915,0.92205006,0.23205002,9.838051
1679916276102,1096264456940069,0.88500005,0.24900001,9.92205
1679916276104,1096264459442209,0.897,0.17205001,9.823951
1679916276106,1096264461944440,0.92505,0.14295001,9.870001
1679916276108,1096264464446593,0.95595,0.22005,9.963
1679916276111,1096264466948747,0.91695005,0.17400001,9.835951
1679916276114,1096264469450906,0.93405,0.14295001,9.847951
1679916276118,1096264471952983,0.87795,0.32805002,9.94095
1679916276118,1096264474455137,0.906,0.11400001,9.846001
1679916276121,1096264476957368,0.90195006,0.26295,9.8220005
1679916276123,1096264479459785,1.011,0.177,9.967951
1679916276126,1096264481961708,0.95595,0.097950004,9.87405
1679916276128,1096264484463862,0.94395006,0.27705002,9.91005
1679916276131,1096264486966016,0.94905007,0.20295002,9.891001
1679916276134,1096264489468151,0.93195003,0.20295002,9.913051
1679916276136,1096264491970536,0.90405005,0.26505002,9.988951
1679916276139,1096264494472689,0.906,0.273,9.92895
1679916276142,1096264496974843,0.9580501,0.28005,9.88395
1679916276143,1096264499476766,0.95595,0.15795001,9.934051
1679916276146,1096264501978925,0.95295006,0.246,9.996
1679916276151,1096264504481079,0.9289501,0.25005,9.970051
1679916276152,1096264506983464,0.99195004,0.23700002,9.949051
1679916276156,1096264509485618,0.97305006,0.23895001,9.891001
1679916276156,1096264511987756,0.86595005,0.186,9.91005
1679916276159,1096264514489910,0.95100003,0.29895002,9.90495
1679916276163,1096264516992064,0.93900007,0.26295,9.999001
1679916276164,1096264519494218,0.915,0.23400001,9.94095
1679916276167,1096264521996435,0.94905007,0.17400001,9.96105
1679916276169,1096264524498589,0.92700005,0.24900001,9.831
1679916276172,1096264527000742,0.90405005,0.21705002,9.85305
1679916276173,1096264529502819,0.91695005,0.25005,10.02795
1679916276177,1096264532004973,0.83505005,0.28395,9.939
1679916276178,1096264534507127,0.82305,0.22200002,9.88395
1679916276183,1096264537009358,0.87495005,0.30105,9.934051
1679916276184,1096264539511512,0.837,0.23895001,9.951
1679916276187,1096264542013666,0.78705,0.26295,9.8220005
1679916276189,1096264544515809,0.88500005,0.27,9.8550005
1679916276192,1096264547017886,0.87495005,0.18405001,9.975
1679916276194,1096264549520117,0.83505005,0.15,9.934051
1679916276196,1096264552022502,0.88305,0.26295,9.85995
1679916276199,1096264554524656,0.94095004,0.24900001,9.87195
1679916276202,1096264557026579,0.95295006,0.22005,10.008
1679916276204,1096264559528732,1.0680001,0.27495003,9.87705
1679916276206,1096264562031117,1.07295,0.20505,9.8890505
1679916276209,1096264564533257,0.9889501,0.19605,9.903001
1679916276212,1096264567035411,0.95100003,0.186,9.826051
1679916276213,1096264569537565,1.0350001,0.16995001,9.967951
1679916276217,1096264572039488,1.0350001,0.21000001,9.88395
1679916276218,1096264574541627,1.0320001,0.24105,9.949051
1679916276223,1096264577044011,1.03995,0.20805001,9.847951
1679916276224,1096264579546165,0.99195004,0.13605,9.88395
1679916276226,1096264582048319,0.975,0.10695001,9.89805
1679916276230,1096264584550478,1.059,0.055050004,9.988951
1679916276231,1096264587052632,0.93195003,0.177,10.012951
1679916276234,1096264589554785,0.90795004,0.19605,9.87195
1679916276236,1096264592057016,0.95295006,0.22695,9.87705
1679916276239,1096264594559170,0.96795005,0.24900001,9.9199505
1679916276242,1096264597061358,0.88995004,0.31095,9.811951
1679916276244,1096264599563435,0.94905007,0.23700002,9.805051
1679916276248,1096264602065589,0.90795004,0.20295002,9.858001
1679916276249,1096264604567743,0.94605005,0.16695,9.946051
1679916276251,1096264607069973,0.906,0.246,9.805051
1679916276254,1096264609572117,0.91005003,0.31095,9.783
1679916276256,1096264612074271,0.90795004,0.18195,9.87705
1679916276259,1096264614576425,0.95295006,0.28005,9.811951
1679916276263,1096264617078579,0.91995007,0.23400001,9.831
1679916276264,1096264619580623,0.906,0.177,9.949051
1679916276268,1096264622082853,0.94905007,0.23895001,9.87195
1679916276268,1096264624585007,0.88500005,0.20295002,9.89595
1679916276272,1096264627087161,0.89895004,0.15795001,9.8550005
1679916276274,1096264629589315,0.90795004,0.33705002,9.880951
1679916276277,1096264632091497,0.96795005,0.24105,9.92205
1679916276279,1096264634593651,0.97695005,0.22200002,9.979951
1679916276282,1096264637096035,0.96495,0.17895001,9.799951
1679916276284,1096264639598189,0.99405,0.273,9.805051
1679916276286,1096264642100314,0.91695005,0.15795001,10.05405
1679916276289,1096264644602468,0.9889501,0.246,9.96105
1679916276291,1096264647104391,0.975,0.22200002,9.847951
1679916276294,1096264649606545,0.96795005,0.20805001,9.89805
1679916276296,1096264652108934,0.915,0.27495003,9.901051
1679916276299,1096264654611088,0.92505,0.21000001,9.913051
1679916276303,1096264657113242,0.91005003,0.23400001,9.951
1679916276306,1096264659615396,0.91695005,0.20295002,9.826051
1679916276306,1096264662117521,0.96300006,0.162,9.955951
1679916276309,1096264664619675,0.97695005,0.165,9.867001
1679916276312,1096264667121906,0.88500005,0.13605,9.951
1679916276314,1096264669624059,0.96300006,0.201,10.01805
1679916276317,1096264672126228,0.91305006,0.19095,9.951
1679916276318,1096264674628382,0.93900007,0.201,9.94095
1679916276323,1096264677130459,0.88695,0.28395,9.89595
1679916276324,1096264679632613,0.98505,0.12195001,9.903001
1679916276327,1096264682134839,0.88500005,0.28395,9.88395
1679916276329,1096264684636992,0.89505005,0.22695,9.87195
1679916276332,1096264687139146,0.94095004,0.16695,9.73095
1679916276334,1096264689641300,0.95100003,0.18405001,9.975
1679916276337,1096264692143454,0.93195003,0.17400001,9.891001
1679916276339,1096264694645512,0.91005003,0.13800001,9.913051
1679916276345,1096264697147743,0.92505,0.20295002,9.90495
1679916276346,1096264699650127,0.94605005,0.17895001,9.90795
1679916276347,1096264702152050,0.89205,0.049950004,9.987
1679916276350,1096264704654204,0.96300006,0.177,10.035001
1679916276351,1096264707156358,0.89505005,0.15,9.903001
1679916276354,1096264709658512,1.02795,0.069000006,9.91695
1679916276356,1096264712160897,1.02495,0.13095,9.92205
1679916276359,1096264714663065,0.93195003,0.17205001,9.92895
1679916276362,1096264717165219,0.95100003,0.14595,9.903001
1679916276365,1096264719667373,1.0159501,0.14295001,9.89805
1679916276366,1096264722169527,1.09695,0.22005,9.891001
1679916276370,1096264724671455,0.97695005,0.22905001,9.870001
1679916276371,1096264727173840,0.9580501,0.22905001,9.846001
1679916276374,1096264729675994,1.02495,0.21000001,9.831
1679916276377,1096264732178147,0.93195003,0.29895002,9.87195
1679916276381,1096264734680305,0.87495005,0.25605002,9.96105
1679916276385,1096264737182459,0.89895004,0.27495003,9.850051
1679916276386,1096264739684613,0.94395006,0.26805001,9.963
1679916276387,1096264742186767,0.93195003,0.21300001,10.01805
1679916276389,1096264744688998,0.99195004,0.16995001,9.964951
1679916276391,1096264747191151,0.96300006,0.13605,9.91005
1679916276394,1096264749693305,0.94395006,0.13395001,9.90795
1679916276396,1096264752195382,0.93705004,0.23700002,9.963
1679916276398,1096264754697536,0.90795004,0.23400001,10.008
1679916276402,1096264757199763,0.91005003,0.141,9.831
1679916276404,1096264759701917,0.99705005,0.28005,9.67605
1679916276406,1096264762204071,0.95595,0.20505,9.982051
1679916276412,1096264764706224,0.95100003,0.19305001,10.111051
1679916276412,1096264767208378,0.90405005,0.14805001,9.799951
1679916276414,1096264769710531,0.89505005,0.186,9.702001
1679916276418,1096264772212685,0.90195006,0.13095,9.94095
1679916276419,1096264774714839,0.96105003,0.282,9.9529505
1679916276424,1096264777217013,0.906,0.16995001,9.89595
1679916276425,1096264779719167,0.92205006,0.20505,9.880951
1679916276427,1096264782221320,1.0009501,0.27495003,9.88395
1679916276429,1096264784723474,0.92505,0.18405001,10.035001
1679916276431,1096264787225859,0.90195006,0.21000001,9.89805
1679916276434,1096264789728037,0.99195004,0.102000006,9.781051
1679916276436,1096264792230191,0.96495,0.273,9.805051
1679916276439,1096264794732344,1.0320001,0.22695,9.87195
1679916276442,1096264797234498,0.897,0.18405001,9.91695
1679916276444,1096264799736652,0.97695005,0.25005,9.880951
1679916276446,1096264802238575,0.99705005,0.15495001,9.85995
1679916276449,1096264804740960,1.023,0.186,10.044001
1679916276452,1096264807243114,1.0180501,0.201,10.126051
1679916276455,1096264809745268,0.98505,0.273,9.958051
1679916276456,1096264812247421,0.85395,0.26505002,9.637051
1679916276459,1096264814749575,0.94095004,0.26505002,9.766951
1679916276463,1096264817251729,0.96105003,0.25605002,10.104
1679916276464,1096264819753883,0.90405005,0.29205,9.835951
1679916276466,1096264822256109,0.92700005,0.30600002,9.634951
1679916276469,1096264824758263,0.873,0.22695,9.7570505
1679916276472,1096264827260416,0.99405,0.23895001,10.24995
1679916276474,1096264829762493,0.90405005,0.23895001,10.20495
1679916276477,1096264832264681,0.86595005,0.26295,9.65205
1679916276479,1096264834766912,0.92205006,0.282,9.61095
1679916276482,1096264837269066,0.88305,0.33,10.2310505
1679916276484,1096264839771143,0.87495005,0.24105,10.143001
1679916276487,1096264842273354,0.79605,0.34395,9.526951
1679916276490,1096264844775507,0.88005006,0.16695,9.538951
1679916276494,1096264847277661,0.96795005,0.15300001,9.90495
1679916276494,1096264849779815,1.044,0.112050004,10.309951
1679916276496,1096264852281969,0.906,0.21705002,9.988951
1679916276501,1096264854784123,0.89895004,0.30405003,9.40005
1679916276503,1096264857286507,0.96795005,0.13095,9.87195
1679916276504,1096264859788661,1.056,0.201,10.321951
1679916276506,1096264862290844,0.84900004,0.15300001,9.92205
1679916276509,1096264864792998,0.94905007,0.165,9.498
1679916276512,1096264867294921,1.07805,0.19305001,9.73095
1679916276514,1096264869797075,1.0030501,0.13095,10.509001
1679916276518,1096264872299465,0.92505,0.093,9.982051
1679916276519,1096264874801618,0.89505005,0.15795001,9.346951
1679916276522,1096264877303772,1.047,0.11400001,10.05405
1679916276524,1096264879805926,1.044,0.079050004,10.38405
1679916276527,1096264882308080,1.02495,0.12195001,9.850051
1679916276530,1096264884810248,0.92505,0.16005,9.489
1679916276531,1096264887312402,1.044,0.15,9.939
1679916276534,1096264889814556,1.0639501,0.20295002,10.2310505
1679916276537,1096264892316786,0.92505,0.252,10.03005
1679916276539,1096264894818940,0.93195003,0.246,9.747001
1679916276543,1096264897320993,0.915,0.14595,9.843
1679916276544,1096264899823147,1.056,0.29205,10.135051
1679916276547,1096264902325301,0.89205,0.21495001,9.988951
1679916276549,1096264904827532,0.81495005,0.261,9.726001
1679916276552,1096264907329685,0.92205006,0.21000001,9.759001
1679916276554,1096264909831801,0.91995007,0.16995001,9.988951
1679916276556,1096264912333955,0.81795,0.25800002,9.955951
1679916276559,1096264914836032,0.86595005,0.31800002,9.74505
1679916276562,1096264917338186,0.92505,0.30405003,9.76395
1679916276564,1096264919840445,0.91695005,0.33495003,9.939
1679916276568,1096264922342599,0.80100006,0.141,9.970051
1679916276569,1096264924844752,0.85905004,0.261,10.011001
1679916276572,1096264927346906,0.95295006,0.26295,10.255051
1679916276574,1096264929849065,0.873,0.25605002,9.75195
1679916276577,1096264932351219,0.86295,0.30105,9.38805
1679916276579,1096264934853604,0.9889501,0.15,9.958051
1679916276583,1096264937355527,0.94605005,0.17400001,10.03995
1679916276584,1096264939857911,0.83505005,0.26295,9.357
1679916276587,1096264942360056,0.897,0.201,9.295051
1679916276589,1096264944861979,0.97005004,0.186,10.04895
1679916276591,1096264947364133,0.96795005,0.16695,10.47795
1679916276594,1096264949866518,0.82005006,0.261,10.078051
1679916276597,1096264952368662,0.92205006,0.22695,9.66405
1679916276599,1096264954870815,0.95100003,0.26295,10.063951
1679916276602,1096264957372969,1.0030501,0.22005,10.255051
1679916276605,1096264959875123,0.96795005,0.17400001,9.96105
1679916276606,1096264962377041,0.86805004,0.10695001,9.661051
1679916276609,1096264964879426,1.04205,0.15795001,9.811951
1679916276611,1096264967381580,1.107,0.18405001,9.88605
1679916276614,1096264969883733,1.011,0.15,9.87195
1679916276617,1096264972385873,0.9580501,0.079050004,9.649051
1679916276619,1096264974888027,1.0009501,0.093,9.891001
1679916276623,1096264977390181,1.02795,0.20295002,10.123051
1679916276624,1096264979892412,0.93705004,0.141,9.867001
1679916276626,1096264982394604,0.94605005,0.15795001,9.826051
1679916276629,1096264984896758,0.94095004,0.15495001,9.87195
1679916276632,1096264987398911,0.98205006,0.18405001,10.044001
1679916276634,1096264989901065,0.86805004,0.15795001,9.9529505
1679916276636,1096264992403113,0.90795004,0.12195001,9.835951
1679916276640,1096264994905344,0.98205006,0.17400001,9.89295
1679916276644,1096264997407498,0.98205006,0.27,10.05195
1679916276644,1096264999909652,0.85095006,0.19305001,10.092
1679916276647,1096265002411805,0.804,0.22500001,10.047001
1679916276649,1096265004913959,0.82995003,0.282,9.867001
1679916276652,1096265007416113,0.78195006,0.31605002,9.85995
1679916276654,1096265009918498,0.89505005,0.21300001,9.690001
1679916276657,1096265012420431,0.78705,0.20295002,9.55305
1679916276659,1096265014922585,0.86595005,0.19305001,9.979951
1679916276663,1096265017424969,0.87105006,0.28395,10.143001
1679916276664,1096265019927123,0.88005006,0.17400001,9.87405
1679916276668,1096265022429027,0.85095006,0.282,9.472051
1679916276669,1096265024931412,1.00605,0.21000001,10.23795
1679916276672,1096265027433566,1.0009501,0.17205001,10.33395
1679916276674,1096265029935720,0.86100006,0.29895002,9.879001
1679916276678,1096265032437863,0.9580501,0.28905,9.847951
1679916276681,1096265034940017,1.0030501,0.21000001,10.08495
1679916276683,1096265037442171,1.0180501,0.33495003,9.934051
1679916276685,1096265039944325,0.95295006,0.19305001,10.14
1679916276686,1096265042446479,1.023,0.105000004,9.97305
1679916276690,1096265044948619,0.9889501,0.22200002,9.691951
1679916276692,1096265047450773,1.0320001,0.186,9.63195
1679916276694,1096265049952926,1.044,0.186,10.152
1679916276697,1096265052455080,1.02795,0.15795001,10.123051
1679916276700,1096265054957306,0.98205006,0.23400001,9.747001
1679916276703,1096265057459460,1.023,0.16005,9.5460005
1679916276704,1096265059961614,1.03995,0.08805001,10.31505
1679916276707,1096265062463768,0.873,0.061950002,10.123051
1679916276709,1096265064965930,0.915,0.16995001,9.56505
1679916276711,1096265067468084,0.91695005,0.19605,9.735001
1679916276714,1096265069970238,1.07295,0.15495001,10.281
1679916276718,1096265072472392,0.97695005,0.19305001,10.429951
1679916276719,1096265074974580,0.87495005,0.27705002,9.71895
1679916276722,1096265077476734,0.915,0.31995,9.38595
1679916276724,1096265079978888,0.96300006,0.22005,10.02495
1679916276727,1096265082481041,0.915,0.15495001,10.18605
1679916276729,1096265084983426,0.82305,0.201,9.58005
1679916276732,1096265087485315,0.90405005,0.29205,9.261001
1679916276734,1096265089987469,0.95100003,0.27705002,10.03005
1679916276737,1096265092489623,0.93405,0.19305001,10.452001
1679916276739,1096265094992007,0.837,0.18900001,9.988951
1679916276744,1096265097493960,0.81105006,0.19800001,9.43095
1679916276745,1096265099996344,0.95295006,0.32505003,10.143001
1679916276747,1096265102498498,0.90405005,0.186,10.255051
1679916276749,1096265105000652,0.86595005,0.16995001,9.90495
1679916276752,1096265107502821,0.94095004,0.201,9.61095
1679916276756,1096265110005051,1.056,0.20295002,9.795
1679916276757,1096265112507128,1.044,0.18405001,10.30095
1679916276759,1096265115009282,1.0030501,0.186,10.035001
1679916276762,1096265117511450,0.95100003,0.31605002,9.558001
1679916276764,1096265120013604,0.91695005,0.273,9.37395
1679916276767,1096265122515758,1.0030501,0.29205,10.21695
1679916276769,1096265125017989,1.0009501,0.10695001,10.188001
1679916276772,1096265127520142,0.90405005,0.21495001,9.691951
1679916276774,1096265130022219,1.0030501,0.11400001,9.594001
1679916276777,1096265132524450,1.02495,0.15795001,10.03695
1679916276779,1096265135026604,1.0159501,0.18195,10.31295
1679916276783,1096265137528772,0.97305006,0.19095,9.970051
1679916276784,1096265140030926,0.91005003,0.28005,9.87195
1679916276787,1096265142533080,0.9799501,0.22905001,9.870001
1679916276789,1096265145035233,0.91695005,0.252,9.654
1679916276793,1096265147537373,0.91005003,0.165,10.126051
1679916276795,1096265150039527,0.89205,0.12195001,9.964951
1679916276797,1096265152541681,0.90795004,0.24405001,9.56295
1679916276800,1096265155044066,0.97005004,0.23895001,9.60105
1679916276802,1096265157546219,0.92505,0.24105,9.90495
1679916276804,1096265160048172,0.91305006,0.22500001,10.53495
1679916276808,1096265162550325,0.84405005,0.177,9.970051
1679916276809,1096265165052479,0.83205,0.20505,9.364051
1679916276812,1096265167554633,0.94905007,0.21000001,9.823951
1679916276815,1096265170057022,0.96795005,0.069000006,10.429951
1679916276818,1096265172559176,0.88995004,0.124050006,9.7879505
1679916276820,1096265175061329,0.975,0.124050006,9.316051
1679916276823,1096265177563483,0.975,0.27705002,9.89595
1679916276824,1096265180065637,1.04205,0.12900001,10.5379505
1679916276827,1096265182567791,0.915,0.17205001,9.786
1679916276831,1096265185070022,0.93405,0.19305001,9.45495
1679916276831,1096265187572099,1.03005,0.15795001,10.096951
1679916276834,1096265190074253,1.0009501,0.26295,10.308001
1679916276837,1096265192576435,0.94605005,0.11895001,10.03695
1679916276840,1096265195078589,0.95295006,0.25005,9.477
1679916276843,1096265197580743,1.0030501,0.31800002,9.38595
1679916276844,1096265200082974,1.0129501,0.201,10.095
1679916276847,1096265202585143,0.84405005,0.24900001,10.16205
1679916276849,1096265205087297,0.873,0.29895002,9.87195
1679916276852,1096265207589450,0.82695,0.21300001,9.958051
1679916276854,1096265210091604,0.906,0.29895002,9.90495
1679916276856,1096265212593705,0.87795,0.12195001,10.273951
1679916276859,1096265215096167,0.90795004,0.24105,10.152
1679916276863,1096265217598090,0.897,0.117000006,10.03995
1679916276864,1096265220100244,1.044,0.27495003,9.8220005
1679916276868,1096265222602402,1.0350001,0.12195001,9.72105
1679916276870,1096265225104555,1.0710001,0.19800001,9.679951
1679916276873,1096265227606709,0.9990001,0.25005,9.747001
1679916276874,1096265230109094,0.96105003,0.16005,9.666
1679916276877,1096265232611248,1.059,0.19305001,9.74295
1679916276879,1096265235113181,0.95595,0.117000006,9.86205
1679916276882,1096265237615335,0.9580501,0.15495001,10.011001
1679916276884,1096265240117489,0.915,0.13095,10.032001
1679916276888,1096265242619642,0.94905007,0.177,9.97305
1679916276891,1096265245122041,0.915,0.20805001,9.96105
1679916276892,1096265247624195,1.011,0.061950002,10.16205
1679916276895,1096265250126349,1.0710001,0.045,10.15005
1679916276897,1096265252628503,0.96105003,0.13605,10.114051
1679916276900,1096265255130680,1.07295,0.18405001,10.152
1679916276903,1096265257632834,0.9889501,0.19305001,10.21395
1679916276906,1096265260135065,0.9990001,0.23895001,9.89805
1679916276907,1096265262637219,1.0129501,0.201,9.558001
1679916276909,1096265265139296,0.98205006,0.24900001,9.637051
1679916276912,1096265267641436,1.011,0.26505002,9.61095
1679916276914,1096265270143589,0.85905004,0.29895002,9.71895
1679916276917,1096265272645743,0.93705004,0.22905001,9.690001
1679916276920,1096265275147974,0.90405005,0.17400001,9.799951
1679916276923,1096265277650133,0.9580501,0.21705002,10.056001
1679916276924,1096265280152287,0.91995007,0.31605002,10.06095
1679916276927,1096265282654364,0.90195006,0.14295001,9.7879505
1679916276930,1096265285156518,0.88695,0.23700002,9.786
1679916276932,1096265287658671,0.9889501,0.18900001,9.97305
1679916276935,1096265290161113,0.92505,0.16695,10.48005
1679916276937,1096265292663036,0.80595005,0.13395001,10.132951
1679916276940,1096265295165190,0.84405005,0.201,9.807
1679916276945,1096265297667344,0.84405005,0.19605,9.74295
1679916276946,1096265300169498,0.91695005,0.282,9.86505
1679916276947,1096265302671651,0.9580501,0.273,9.793051
1679916276950,1096265305174036,0.88500005,0.29205,9.52005
1679916276952,1096265307676190,0.88995004,0.26295,9.41895
1679916276954,1096265310178344,0.93405,0.26805001,9.88605
1679916276957,1096265312680258,0.95295006,0.37905002,9.934051
1679916276960,1096265315182412,0.906,0.30795002,9.915001
1679916276962,1096265317684566,0.91695005,0.24900001,9.87195
1679916276964,1096265320186950,0.91305006,0.25605002,9.92895
1679916276967,1096265322689089,0.88500005,0.165,10.123051
1679916276969,1096265325191243,0.95100003,0.13800001,10.114051
1679916276972,1096265327693397,0.9580501,0.20805001,10.012951
1679916276974,1096265330195551,1.0200001,0.21000001,10.008
1679916276976,1096265332697474,1.0710001,0.21300001,10.047001
1679916276981,1096265335199854,0.94095004,0.177,10.00395
1679916276985,1096265337702085,1.0200001,0.22905001,9.86205
1679916276986,1096265340204239,0.91995007,0.17895001,9.7570505
1679916276988,1096265342706292,1.008,0.186,9.74295
1679916276989,1096265345208446,1.0009501,0.21705002,9.799951
1679916276992,1096265347710600,0.95100003,0.19305001,9.766951
1679916276994,1096265350212830,0.90195006,0.07395,9.805051
1679916276998,1096265352714974,0.95100003,0.16695,9.84105
1679916276999,1096265355217128,0.9580501,0.043050002,9.96105
1679916277003,1096265357719282,0.92700005,0.15,9.891001
1679916277004,1096265360221359,0.915,0.177,10.012951
1679916277007,1096265362723513,0.84900004,0.186,10.07295
1679916277009,1096265365225738,0.85905004,0.26295,9.970051
1679916277012,1096265367727892,0.87105006,0.252,9.979951
1679916277015,1096265370230046,0.83205,0.18405001,9.89295
1679916277018,1096265372732200,0.87495005,0.30600002,9.982051
1679916277019,1096265375234354,0.78705,0.28005,9.754951
1679916277023,1096265377736508,0.81495005,0.282,9.805051
1679916277024,1096265380238892,0.92505,0.282,9.817051
1679916277027,1096265382741046,0.88305,0.282,9.72105
1679916277029,1096265385242955,0.88695,0.252,9.834001
1679916277033,1096265387745109,0.94605005,0.30105,9.86505
1679916277034,1096265390247494,0.90405005,0.177,9.858001
1679916277037,1096265392749648,0.94395006,0.27705002,9.970051
1679916277040,1096265395251801,0.97695005,0.21000001,9.955951
1679916277042,1096265397753955,0.99195004,0.28905,9.7879505
1679916277045,1096265400255878,0.91005003,0.28005,10.00605
1679916277046,1096265402758032,0.9289501,0.28005,10.02795
1679916277052,1096265405260417,0.897,0.30795002,10.05405
1679916277053,1096265407762566,0.94095004,0.25005,9.934051
1679916277056,1096265410264720,0.98505,0.26295,9.970051
1679916277057,1096265412766873,1.09905,0.23700002,9.91005
1679916277061,1096265415269027,0.93705004,0.27705002,9.89805
1679916277063,1096265417771181,1.0639501,0.25800002,9.814051
1679916277065,1096265420273412,1.0900501,0.201,9.771001
1679916277067,1096265422775566,1.06095,0.17205001,9.927
1679916277070,1096265425277720,1.095,0.28395,9.925051
1679916277072,1096265427779797,1.0639501,0.14805001,10.035001
1679916277075,1096265430281950,0.98700005,0.19305001,9.958051
1679916277077,1096265432784104,0.99705005,0.10695001,9.870001
1679916277080,1096265435286335,1.011,0.18900001,9.846001
1679916277083,1096265437788489,1.0200001,0.10005,9.88605
1679916277085,1096265440290643,0.91695005,0.043050002,10.00605
1679916277087,1096265442792797,0.9289501,0.12900001,10.000951
1679916277090,1096265445294950,0.88305,0.10695001,9.927
1679916277093,1096265447797012,0.90795004,0.24405001,9.915001
1679916277095,1096265450299243,0.9289501,0.126,9.8890505
1679916277097,1096265452801397,0.88305,0.18900001,9.879001
1679916277100,1096265455303782,0.81795,0.22905001,9.759001
1679916277103,1096265457805705,0.89505005,0.20805001,9.618
1679916277104,1096265460307878,0.88305,0.22695,9.66405
1679916277107,1096265462810031,0.86295,0.15795001,9.867001
1679916277110,1096265465312416,0.94605005,0.14295001,9.85305
1679916277112,1096265467814570,0.89895004,0.17895001,9.74295
1679916277115,1096265470316734,0.82305,0.22905001,9.89295
1679916277117,1096265472818888,0.873,0.23895001,9.94095
1679916277119,1096265475320811,0.89895004,0.21705002,9.976951
1679916277122,1096265477822965,0.87495005,0.18405001,9.846001
1679916277124,1096265480325311,0.88500005,0.27495003,9.955951
1679916277128,1096265482827465,0.91005003,0.13395001,10.008
1679916277131,1096265485329619,0.91995007,0.25800002,10.00395
1679916277132,1096265487831773,0.99195004,0.261,9.943951
1679916277135,1096265490333927,0.94095004,0.20805001,9.847951
1679916277137,1096265492836080,0.95295006,0.26505002,9.915001
1679916277139,1096265495338311,1.044,0.30405003,9.984
1679916277143,1096265497840388,1.03995,0.23895001,9.85305
1679916277144,1096265500342532,0.95295006,0.201,9.89805
1679916277147,1096265502844763,0.9990001,0.26505002,9.96105
1679916277150,1096265505346840,0.94605005,0.26295,9.967951
1679916277152,1096265507848994,0.91695005,0.24900001,9.976951
1679916277155,1096265510351229,0.9799501,0.19305001,10.05405
1679916277157,1096265512853383,0.94095004,0.20505,9.967951
1679916277160,1096265515355537,0.90795004,0.162,9.90495
1679916277162,1096265517857691,1.023,0.162,9.927
1679916277164,1096265520359854,0.90405005,0.112050004,9.8890505
1679916277169,1096265522861931,0.92205006,0.19605,9.823951
1679916277170,1096265525364161,0.93900007,0.20805001,9.931951
1679916277172,1096265527866315,0.92505,0.16695,9.8890505
1679916277175,1096265530368469,0.93405,0.21000001,9.846001
1679916277177,1096265532870623,0.88005006,0.24405001,9.87705
1679916277180,1096265535372777,0.96300006,0.109950006,9.88395
1679916277183,1096265537874931,0.9990001,0.21000001,9.781051
1679916277185,1096265540377315,0.87795,0.19305001,9.798
1679916277187,1096265542879469,0.86100006,0.246,9.87705
1679916277190,1096265545381623,0.837,0.17205001,9.903001
1679916277193,1096265547883777,0.88305,0.16005,9.915001
1679916277194,1096265550385931,0.86595005,0.15300001,9.99195
1679916277198,1096265552887869,0.88305,0.23895001,9.94095
1679916277199,1096265555390253,0.91695005,0.16995001,10.03995
1679916277202,1096265557892407,0.9289501,0.273,9.958051
1679916277206,1096265560394561,0.92700005,0.31800002,9.819
1679916277207,1096265562896715,0.90405005,0.19305001,9.891001
1679916277211,1096265565398854,0.90795004,0.28395,9.85305
1679916277212,1096265567901008,0.975,0.27,9.913051
1679916277216,1096265570403162,1.00605,0.246,9.87405
1679916277218,1096265572905315,0.9889501,0.16695,9.915001
1679916277220,1096265575407469,0.98505,0.31605002,9.91695
1679916277223,1096265577909686,1.008,0.17400001,9.831
1679916277225,1096265580411763,1.0129501,0.24105,9.847951
1679916277227,1096265582913917,1.0009501,0.28695002,10.03695
1679916277230,1096265585416148,0.99705005,0.21705002,10.114051
1679916277232,1096265587918301,1.0200001,0.25800002,9.949051
1679916277235,1096265590420455,1.00605,0.246,10.02495
1679916277237,1096265592922609,0.9580501,0.13605,9.89805
1679916277240,1096265595424763,0.91005003,0.22200002,9.901051
1679916277244,1096265597926912,0.95100003,0.13095,9.89805
1679916277245,1096265600429066,1.02795,0.22695,9.89295
1679916277247,1096265602931220,0.915,0.282,9.87705
1679916277250,1096265605433373,0.92505,0.25605002,9.86205
1679916277253,1096265607935527,0.94905007,0.21000001,9.87195
1679916277255,1096265610437681,0.93405,0.21705002,9.811951
1679916277257,1096265612939835,0.93195003,0.273,9.89805
1679916277260,1096265615442220,0.975,0.141,9.769051
1679916277263,1096265617944143,0.93195003,0.16995001,9.913051
1679916277265,1096265620446305,0.88995004,0.14805001,9.949051
1679916277267,1096265622948690,0.99705005,0.11400001,9.927
1679916277270,1096265625450844,0.86805004,0.08805001,9.8550005
1679916277272,1096265627952767,0.96105003,0.16995001,9.850051
1679916277275,1096265630455152,0.90405005,0.25005,9.91005
1679916277278,1096265632957311,1.0009501,0.19605,9.84105
1679916277281,1096265635459464,0.91005003,0.11895001,9.802051
1679916277284,1096265637961618,0.91005003,0.29205,9.769051
1679916277285,1096265640463772,0.93900007,0.25605002,9.847951
1679916277287,1096265642965922,0.97305006,0.30405003,9.879001
1679916277290,1096265645468076,0.94605005,0.22905001,9.826051
1679916277293,1096265647970230,0.99705005,0.177,9.87705
1679916277295,1096265650472383,0.95295006,0.24105,9.903001
1679916277298,1096265652974574,0.99195004,0.18405001,9.96105
1679916277300,1096265655476728,0.93705004,0.24900001,10.05405
1679916277303,1096265657978882,0.94395006,0.24405001,9.988951
1679916277304,1096265660481113,0.9990001,0.29205,9.87195
1679916277308,1096265662983267,0.93900007,0.18900001,10.05195
1679916277310,1096265665485354,1.011,0.201,9.880951
1679916277313,1096265667987584,1.00605,0.19305001,9.943951
1679916277314,1096265670489738,0.97695005,0.19605,9.88395
1679916277319,1096265672991863,0.92505,0.273,9.838051
1679916277321,1096265675494017,0.90405005,0.17205001,9.958051
1679916277323,1096265677996171,1.00605,0.126,9.87705
1679916277325,1096265680498325,0.98505,0.15795001,9.86205
1679916277327,1096265683000478,0.88995004,0.30600002,9.838051
1679916277329,1096265685502887,0.91695005,0.177,9.87195
1679916277333,1096265688005041,0.92505,0.141,9.880951
1679916277334,1096265690506964,0.90405005,0.201,9.7900505
1679916277337,1096265693009118,0.93900007,0.22005,9.86505
1679916277339,1096265695511281,0.88500005,0.16005,9.988951
1679916277343,1096265698013435,0.83205,0.22005,9.925051
1679916277345,1096265700515819,0.87795,0.16995001,9.87405
1679916277348,1096265703017973,0.86805004,0.16695,9.793051
1679916277351,1096265705520113,0.915,0.105000004,9.88605
1679916277352,1096265708022267,0.92505,0.16005,9.858001
1679916277356,1096265710524421,0.81795,0.23895001,9.73095
1679916277357,1096265713026574,0.93705004,0.26295,9.807
1679916277360,1096265715528772,0.94395006,0.22500001,9.89295
1679916277363,1096265718030926,0.97005004,0.20505,9.798
1679916277364,1096265720533003,0.93195003,0.19800001,9.951
1679916277368,1096265723035157,0.897,0.102000006,9.987
1679916277369,1096265725537311,0.873,0.186,10.056001
1679916277372,1096265728039427,0.88305,0.19800001,9.913051
1679916277375,1096265730541580,0.9799501,0.29895002,10.012951
1679916277377,1096265733043811,1.0129501,0.26805001,10.19295
1679916277379,1096265735545965,0.94095004,0.15795001,10.035001
1679916277384,1096265738048042,1.0639501,0.252,9.92205
1679916277385,1096265740550196,1.03005,0.25605002,9.819
1679916277387,1096265743052350,0.96795005,0.26295,9.9199505
1679916277390,1096265745554580,0.94905007,0.22905001,9.86205
1679916277394,1096265748056733,1.0030501,0.21000001,9.85995
1679916277395,1096265750558887,1.02495,0.25800002,9.847951
1679916277398,1096265753061041,1.056,0.22905001,9.9199505
1679916277400,1096265755563195,1.03995,0.17895001,9.8890505
1679916277402,1096265758065349,0.9799501,0.20505,9.915001
1679916277405,1096265760567499,1.0030501,0.16005,10.03005
1679916277407,1096265763069883,0.906,0.16005,9.90795
1679916277410,1096265765572037,1.0030501,0.19095,10.01595
1679916277412,1096265768073960,0.96105003,0.162,9.979951
1679916277415,1096265770576118,0.91695005,0.19800001,9.87405
1679916277418,1096265773078272,0.897,0.165,9.89295
1679916277419,1096265775580426,0.93195003,0.18405001,9.937051
1679916277423,1096265778082810,0.94605005,0.19095,9.937051
1679916277425,1096265780584964,0.86805004,0.20805001,9.87195
1679916277427,1096265783087118,0.88005006,0.19305001,9.838051
1679916277432,1096265785589041,1.047,0.17400001,9.91005
1679916277434,1096265788091426,0.873,0.22695,9.858001
1679916277435,1096265790593340,0.82005006,0.177,9.738001
1679916277438,1096265793095801,0.80595005,0.162,9.762
1679916277440,1096265795597878,0.82305,0.23400001,9.8890505
1679916277442,1096265798100032,0.897,0.17205001,10.047001
1679916277445,1096265800602166,0.9990001,0.24105,9.915001
1679916277448,1096265803104320,1.023,0.29895002,10.035001
1679916277449,1096265805606474,1.0540501,0.21300001,9.996
1679916277452,1096265808108704,0.98505,0.21000001,9.847951
1679916277455,1096265810610854,1.0350001,0.26295,9.8890505
1679916277457,1096265813113008,0.96795005,0.18195,9.819
1679916277460,1096265815615085,1.107,0.22695,9.786
1679916277463,1096265818117239,0.9889501,0.26805001,9.979951
1679916277465,1096265820619383,0.96105003,0.22500001,9.85995
1679916277469,1096265823121614,1.0489501,0.23400001,9.931951
1679916277470,1096265825623767,1.07295,0.252,9.87705
1679916277472,1096265828125921,0.96105003,0.29205,9.870001
1679916277475,1096265830628075,0.94395006,0.28905,10.04205
1679916277477,1096265833130157,0.94605005,0.186,9.976951
1679916277480,1096265835632388,0.95100003,0.19095,9.987
1679916277482,1096265838134772,1.03995,0.246,9.92205
1679916277485,1096265840636926,0.98505,0.16995001,9.799951
1679916277488,1096265843138839,0.915,0.19605,9.967951
1679916277490,1096265845640993,0.96105003,0.22905001,9.946051
1679916277493,1096265848143147,0.906,0.23895001,9.86505
1679916277495,1096265850645301,0.897,0.18195,9.9199505
1679916277497,1096265853147681,0.90795004,0.15795001,9.880951
1679916277500,1096265855649834,0.89205,0.061950002,9.86205
1679916277503,1096265858151988,0.9289501,0.16005,9.87195
1679916277506,1096265860654142,0.89895004,0.17400001,9.915001
1679916277507,1096265863156065,0.87105006,0.20805001,9.90795
1679916277509,1096265865658210,0.84405005,0.36105,9.89805
1679916277512,1096265868160595,0.95595,0.21495001,9.903001
1679916277514,1096265870662749,0.97695005,0.24405001,9.901051
1679916277517,1096265873164930,0.84705,0.41805002,10.212001
1679916277519,1096265875667084,0.92505,-0.0010500001,9.64395
1679916277522,1096265878169238,0.99705005,0.30405003,9.525001
1679916277524,1096265880671392,1.0849501,0.26805001,11.26305
1679916277527,1096265883173623,1.0680001,0.009000001,10.531051
1679916277529,1096265885675787,0.86805004,0.29205,9.264001
1679916277532,1096265888177940,1.0489501,0.12195001,8.811001
1679916277535,1096265890680017,1.14495,0.07095,10.1310005
1679916277537,1096265893182171,1.0350001,0.16695,11.029051
1679916277540,1096265895684344,0.94395006,0.049950004,9.666
1679916277544,1096265898186575,0.93900007,0.26505002,8.634001
1679916277545,1096265900688729,1.128,0.24405001,9.949051
1679916277547,1096265903190883,1.0030501,0.13395001,10.753051
1679916277549,1096265905693026,0.76500005,0.201,10.008
1679916277552,1096265908195180,0.82305,0.273,9.10305
1679916277554,1096265910697257,1.00605,0.22905001,9.64395
1679916277557,1096265913199488,0.98205006,0.165,10.741051
1679916277559,1096265915701863,0.82500005,0.08595,10.321951
1679916277562,1096265918203786,0.82995003,0.21495001,9.502951
1679916277564,1096265920705940,0.98505,0.282,9.538951
1679916277567,1096265923208093,1.14495,0.16695,10.417951
1679916277569,1096265925710252,0.93900007,0.19305001,10.123051
1679916277572,1096265928212637,0.86595005,0.165,9.59895
1679916277575,1096265930714791,0.99405,0.165,9.628051
1679916277577,1096265933216945,1.047,0.21000001,9.976951
1679916277581,1096265935718844,0.9289501,0.31995,10.047001
1679916277584,1096265938221228,0.85905004,0.22695,9.726001
1679916277585,1096265940723382,0.906,0.31095,9.771001
1679916277587,1096265943225536,0.96795005,0.201,10.035001
1679916277589,1096265945727690,1.0159501,0.34005,10.108951
1679916277592,1096265948229844,0.85605,0.28905,9.931951
1679916277594,1096265950731767,0.88005006,0.31605002,9.834001
1679916277597,1096265953234151,0.96105003,0.354,10.012951
1679916277599,1096265955736305,0.86805004,0.32505003,10.155001
1679916277602,1096265958238463,0.9289501,0.27495003,9.999001
1679916277604,1096265960740617,0.93195003,0.29895002,9.786
1679916277607,1096265963242771,0.88995004,0.27495003,9.955951
1679916277609,1096265965744925,0.975,0.177,9.996
1679916277612,1096265968247155,0.94905007,0.33,9.987
1679916277614,1096265970749324,1.0320001,0.24405001,9.72795
1679916277618,1096265973251478,0.9580501,0.29595003,9.901051
1679916277620,1096265975753632,0.90405005,0.23400001,9.955951
1679916277623,1096265978255723,0.85395,0.162,9.982051
1679916277624,1096265980757877,0.90405005,0.22005,9.802051
1679916277627,1096265983260108,0.91995007,0.13800001,9.913051
1679916277630,1096265985762261,0.97695005,0.17205001,9.880951
1679916277633,1096265988264415,0.873,0.08805001,9.880951
1679916277635,1096265990766579,0.92700005,0.14595,9.88605
1679916277637,1096265993268733,0.88995004,0.15495001,9.85305
1679916277639,1096265995770887,0.95100003,0.08805001,9.958051
1679916277642,1096265998273041,0.82305,0.13095,9.943951
1679916277644,1096266000775189,0.88500005,0.15495001,9.82905
1679916277647,1096266003277343,0.93195003,0.102000006,9.7900505
1679916277649,1096266005779497,0.96495,0.028050002,9.949051
1679916277652,1096266008281651,0.91695005,0.093,9.783
1679916277656,1096266010783848,0.94605005,0.13605,9.8220005
1679916277657,1096266013286232,0.97695005,0.11400001,9.834001
1679916277660,1096266015788386,0.92700005,0.177,9.850051
1679916277663,1096266018290540,0.95595,0.07095,9.901051
1679916277665,1096266020792694,1.092,0.13395001,10.078051
1679916277667,1096266023294839,1.0489501,0.0019500001,10.080001
1679916277670,1096266025796762,0.99195004,0.11400001,9.927
1679916277672,1096266028299147,1.02795,0.19605,9.870001
1679916277675,1096266030801300,1.0540501,0.18195,9.9529505
1679916277677,1096266033303449,0.97305006,0.17895001,10.035001
1679916277680,1096266035805603,1.056,0.27495003,10.092
1679916277682,1096266038307757,0.88695,0.28905,9.92895
1679916277685,1096266040809911,0.915,0.282,9.81
1679916277687,1096266043312094,0.906,0.36105,9.931951
1679916277690,1096266045814248,0.88695,0.37695003,9.92895
1679916277694,1096266048316401,0.915,0.30600002,9.870001
1679916277695,1096266050818555,0.87795,0.41505003,9.81
1679916277698,1096266053320646,0.87495005,0.31305,9.87405
1679916277701,1096266055822800,0.88995004,0.36405003,9.946051
1679916277703,1096266058325031,0.81105006,0.31800002,9.846001
1679916277705,1096266060827185,0.93405,0.32505003,9.999001
1679916277707,1096266063329343,0.897,0.28005,10.047001
1679916277710,1096266065831497,0.88500005,0.19305001,10.03005
1679916277713,1096266068333651,0.873,0.261,9.86205
1679916277715,1096266070835805,0.82305,0.24405001,9.778951
1679916277718,1096266073337959,0.90795004,0.25800002,9.91005
1679916277720,1096266075840113,0.86295,0.18405001,9.87405
1679916277722,1096266078342267,0.897,0.28005,9.72105
1679916277725,1096266080844420,0.84405005,0.21705002,9.870001
1679916277728,1096266083346574,0.92505,0.19095,9.86505
1679916277731,1096266085848757,0.96495,0.22200002,9.793051
1679916277732,1096266088351142,0.92205006,0.19605,9.867001
1679916277735,1096266090853296,0.9889501,0.17895001,10.00605
1679916277737,1096266093355219,0.94605005,0.093,9.979951
1679916277740,1096266095857373,0.98700005,0.23700002,10.023001
1679916277743,1096266098359733,1.0180501,0.141,10.07295
1679916277745,1096266100861887,1.047,0.11400001,9.87195
1679916277747,1096266103364041,1.0830001,0.11400001,9.951
1679916277751,1096266105866195,0.78195006,0.30795002,9.295051
1679916277752,1096266108368358,1.02795,0.20295002,9.838051
1679916277755,1096266110870511,0.98205006,0.17895001,10.38195
1679916277758,1096266113372665,0.97005004,0.19605,9.999001
1679916277760,1096266115874819,0.97005004,0.17895001,9.858001
1679916277762,1096266118377016,1.02795,0.20805001,9.8550005
1679916277765,1096266120879093,1.023,0.13800001,10.387051
1679916277769,1096266123381247,1.044,0.094950005,10.08495
1679916277770,1096266125883401,0.94905007,0.17400001,9.57495
1679916277772,1096266128385554,1.116,0.186,9.72105
1679916277775,1096266130887704,1.06095,0.21300001,10.02
1679916277777,1096266133389935,1.0180501,0.21300001,10.132951
1679916277780,1096266135892089,0.975,0.26805001,9.927
1679916277783,1096266138394243,1.00605,0.28395,9.82905
1679916277785,1096266140896411,1.0350001,0.24900001,10.044001
1679916277787,1096266143398564,1.0200001,0.17400001,10.116
1679916277790,1096266145900718,0.906,0.246,9.8550005
1679916277792,1096266148403103,0.915,0.21495001,9.766951
1679916277795,1096266150905026,0.93900007,0.33495003,9.89805
1679916277797,1096266153407151,0.81495005,0.17400001,9.96105
1679916277800,1096266155909305,0.77205,0.21705002,9.823951
1679916277802,1096266158411459,0.86595005,0.28395,9.754951
1679916277806,1096266160913612,0.86595005,0.22005,9.795
1679916277807,1096266163415959,0.87495005,0.19305001,9.87195
1679916277810,1096266165918113,0.95295006,0.15795001,9.937051
1679916277812,1096266168420036,0.84405005,0.165,9.82905
1679916277815,1096266170922190,0.88995004,0.21705002,9.82905
1679916277817,1096266173424344,0.94605005,0.055050004,10.063951
1679916277820,1096266175926502,0.89895004,0.058950003,9.847951
1679916277823,1096266178428886,0.90795004,0.16005,9.870001
1679916277825,1096266180931040,0.86595005,0.13605,9.814051
1679916277827,1096266183433194,0.88305,0.13800001,9.931951
1679916277830,1096266185935343,0.98205006,0.23700002,9.88395
1679916277832,1096266188437497,0.88305,0.26295,9.819
1679916277835,1096266190939650,0.85095006,0.21705002,9.97305
1679916277837,1096266193441881,0.86805004,0.26805001,10.068001
1679916277840,1096266195944050,0.9289501,0.32505003,9.984
1679916277844,1096266198446127,0.90795004,0.35205,9.931951
1679916277845,1096266200948281,0.98505,0.31800002,9.88605
1679916277847,1096266203450435,0.95595,0.261,9.66405
1679916277850,1096266205952578,0.9889501,0.22200002,10.01595
1679916277852,1096266208454809,1.04205,0.26295,9.850051
1679916277855,1096266210956886,1.0320001,0.22695,10.107
1679916277857,1096266213459040,1.092,0.15300001,9.891001
1679916277860,1096266215961233,1.1380501,0.22695,9.87195
1679916277863,1096266218463464,1.1740501,0.17205001,10.011001
1679916277865,1096266220965618,1.06095,0.15,9.999001
1679916277867,1096266223467771,0.96105003,0.097950004,9.934051
1679916277870,1096266225969901,1.0009501,0.10695001,9.86505
1679916277872,1096266228472055,0.98700005,0.21000001,9.943951
1679916277875,1096266230974209,1.0159501,0.165,9.74505
1679916277877,1096266233476594,0.96105003,0.20805001,9.814051
1679916277881,1096266235978727,0.88005006,0.20805001,9.82905
1679916277883,1096266238480881,0.83205,0.342,9.86505
1679916277885,1096266240982804,0.80805004,0.23700002,9.805051
1679916277887,1096266243484958,0.84900004,0.22905001,9.88605
1679916277890,1096266245987112,0.81495005,0.21300001,9.831
1679916277892,1096266248489508,0.76500005,0.201,9.747001
1679916277895,1096266250991662,0.78195006,0.28005,9.870001
1679916277897,1096266253493815,0.80805004,0.24900001,9.769051
1679916277900,1096266255995969,0.78705,0.30795002,9.9199505
1679916277903,1096266258498113,0.79905003,0.246,9.90795
1679916277905,1096266261000036,0.91695005,0.21495001,9.880951
1679916277907,1096266263502421,0.906,0.26805001,9.82905
1679916277910,1096266266004575,0.86805004,0.21000001,9.823951
1679916277912,1096266268506805,1.02495,0.15,9.823951
1679916277915,1096266271008892,1.023,0.22500001,9.964951
1679916277919,1096266273511046,0.97005004,0.15495001,9.8550005
1679916277921,1096266276013200,0.92205006,0.23700002,9.927
1679916277922,1096266278515354,0.93405,0.11895001,9.7879505
1679916277925,1096266281017595,1.0009501,0.26295,9.951
1679916277927,1096266283519749,1.02495,0.29205,9.946051
1679916277930,1096266286021902,0.96495,0.342,9.913051
1679916277932,1096266288523979,1.00605,0.23400001,9.88605
1679916277935,1096266291026147,0.99195004,0.28395,9.879001
1679916277937,1096266293528378,0.98505,0.22905001,9.96105
1679916277940,1096266296030532,1.04205,0.273,9.967951
1679916277943,1096266298532686,1.0489501,0.22005,9.955951
1679916277945,1096266301034820,1.008,0.23400001,10.04205
1679916277947,1096266303536974,0.99705005,0.165,10.035001
1679916277950,1096266306039128,1.044,0.14295001,9.934051
1679916277952,1096266308541282,1.0180501,0.246,9.879001
1679916277956,1096266311043421,1.07805,0.186,9.87195
1679916277957,1096266313545806,1.08,0.186,9.8890505
1679916277960,1096266316047959,1.023,0.23895001,9.8220005
1679916277962,1096266318549882,0.87495005,0.186,9.835951
1679916277965,1096266321052036,0.85905004,0.23205002,9.8550005
1679916277967,1096266323554450,0.97305006,0.19305001,9.903001
1679916277970,1096266326056604,0.90795004,0.18195,9.799951
1679916277972,1096266328558758,0.93195003,0.22500001,9.766951
1679916277975,1096266331060911,0.83895004,0.19305001,9.931951
1679916277977,1096266333563089,0.84900004,0.25605002,9.934051
1679916277980,1096266336065012,0.837,0.30795002,9.807
1679916277983,1096266338567397,0.82995003,0.25800002,9.811951
1679916277985,1096266341069551,0.86100006,0.177,9.982051
1679916277987,1096266343571705,0.85605,0.23895001,9.9199505
1679916277990,1096266346073859,0.9289501,0.16695,9.834001
1679916277994,1096266348576012,0.84705,0.22200002,9.834001
1679916277995,1096266351078166,0.88305,0.186,9.879001
1679916277997,1096266353580407,1.0030501,0.22695,9.85305
1679916278000,1096266356082484,0.93705004,0.22200002,9.7879505
1679916278002,1096266358584638,0.98205006,0.12900001,9.87405
1679916278005,1096266361086792,1.0519501,0.20805001,9.949051
1679916278007,1096266363589012,0.98700005,0.246,9.934051
1679916278010,1096266366091089,1.00605,0.201,9.955951
1679916278012,1096266368593320,1.0200001,0.22500001,9.976951
1679916278015,1096266371095474,1.0489501,0.246,9.819
1679916278017,1096266373597628,1.011,0.25605002,9.999001
1679916278020,1096266376099782,1.0830001,0.33195,10.00395
1679916278023,1096266378601936,1.0830001,0.30405003,9.87705
1679916278025,1096266381104089,1.0159501,0.186,9.846001
1679916278027,1096266383606243,1.04205,0.246,9.86205
1679916278031,1096266386108397,0.9889501,0.19605,9.988951
1679916278032,1096266388610551,1.0350001,0.33195,10.03995
1679916278035,1096266391112705,0.9580501,0.16995001,9.949051
1679916278037,1096266393614859,0.93195003,0.15795001,9.949051
1679916278040,1096266396117013,0.90405005,0.15,9.955951
1679916278042,1096266398619397,0.91695005,0.24900001,9.92895
1679916278045,1096266401121551,0.91005003,0.23895001,9.85995
1679916278047,1096266403623474,0.84195006,0.177,9.927
1679916278050,1096266406125628,0.85095006,0.28395,9.85305
1679916278052,1096266408627782,0.87795,0.094950005,9.85995
1679916278055,1096266411129936,0.85905004,0.32505003,9.901051
1679916278057,1096266413632320,0.83505005,0.23700002,9.8220005
1679916278060,1096266416134469,0.87105006,0.177,9.86505
1679916278063,1096266418636623,0.83205,0.15300001,9.86205
1679916278065,1096266421138777,0.84900004,0.22200002,9.783
1679916278069,1096266423640949,0.76305,0.11400001,9.831
1679916278070,1096266426143103,0.83205,0.177,9.967951
1679916278072,1096266428645333,0.873,0.22500001,9.925051
1679916278075,1096266431147410,0.84705,0.23205002,9.8220005
1679916278077,1096266433649564,0.84405005,0.177,9.858001
1679916278080,1096266436151705,0.9289501,0.22200002,9.8890505
1679916278083,1096266438653859,0.86805004,0.17400001,9.970051
1679916278085,1096266441156013,0.91005003,0.22200002,9.943951
1679916278087,1096266443658243,0.98505,0.13395001,9.999001
1679916278090,1096266446160410,0.92505,0.10695001,9.87195
1679916278092,1096266448662564,1.0030501,0.186,9.937051
1679916278095,1096266451164641,1.0320001,0.252,9.951
1679916278097,1096266453666872,1.1040001,0.28005,9.988951
1679916278101,1096266456169036,1.02795,0.32805002,9.979951
1679916278103,1096266458671420,1.07595,0.252,10.023001
1679916278106,1096266461173343,1.0680001,0.21300001,9.967951
1679916278107,1096266463675497,1.02795,0.24105,9.91695
1679916278110,1096266466177670,0.96795005,0.21300001,10.00395
1679916278112,1096266468679824,1.011,0.27495003,9.99405
1679916278115,1096266471181978,0.98700005,0.23400001,9.987
1679916278118,1096266473684132,0.88695,0.23400001,9.86505
1679916278120,1096266476186511,0.99405,0.282,9.934051
1679916278122,1096266478688665,0.92205006,0.26505002,9.943951
1679916278125,1096266481190588,0.94905007,0.29595003,9.86205
1679916278127,1096266483692742,0.92505,0.08295,9.87195
1679916278130,1096266486195099,0.83205,0.31605002,9.901051
1679916278132,1096266488697253,0.85605,0.186,9.96105
1679916278135,1096266491199176,0.93405,0.24900001,9.92205
1679916278137,1096266493701329,0.90795004,0.21300001,9.87405
1679916278140,1096266496203483,0.93195003,0.22005,9.783
1679916278145,1096266498705877,0.86295,0.23895001,9.793051
1679916278146,1096266501208031,0.86295,0.22200002,9.819
1679916278148,1096266503710185,0.85095006,0.23400001,9.91005
1679916278150,1096266506212354,0.86805004,0.23205002,9.807
1679916278153,1096266508714507,0.91005003,0.20505,9.92895
1679916278155,1096266511216661,0.915,0.15795001,9.843
1679916278158,1096266513718892,0.897,0.29205,9.87195
1679916278160,1096266516221046,0.93195003,0.21705002,9.87405
1679916278163,1096266518723118,0.92505,0.093,9.913051
1679916278165,1096266521225272,0.97005004,0.17205001,9.86505
1679916278167,1096266523727425,0.9889501,0.15,10.032001
1679916278170,1096266526229579,0.92505,0.12195001,9.988951
1679916278172,1096266528731800,0.98505,0.17895001,9.979951
1679916278175,1096266531233954,0.95100003,0.24900001,9.915001
1679916278177,1096266533736108,1.011,0.177,9.89595
1679916278181,1096266536238262,0.98505,0.26295,9.85305
1679916278184,1096266538740339,1.0540501,0.21300001,10.02
1679916278185,1096266541242492,1.04205,0.177,9.94095
1679916278187,1096266543744954,0.98205006,0.13395001,10.04205
1679916278190,1096266546246877,0.98505,0.22695,9.843
1679916278192,1096266548749036,0.9990001,0.282,9.870001
1679916278195,1096266551251190,1.0030501,0.29895002,9.964951
1679916278197,1096266553753344,0.95295006,0.23400001,9.90495
1679916278201,1096266556255497,0.95595,0.27705002,9.89805
1679916278203,1096266558757891,0.90195006,0.31305,9.967951
