system_ts_ms, sensor_ts_ns, gyrX, gyrY, gyrZ
1679932372764,1112361115301260,-0.116875,-0.214225,0.0451
1679932372764,1112361117803414,-0.1199,-0.230175,0.0581625
1679932372765,1112361120305582,-0.1208625,-0.2382875,0.0661375
1679932372767,1112361122807736,-0.12485,-0.2512125,0.070125
1679932372770,1112361125309889,-0.12485,-0.2591875,0.07205
1679932372779,1112361127812120,-0.1238875,-0.263175,0.07315
1679932372779,1112361130314255,-0.12485,-0.2682625,0.0671
1679932372780,1112361132816332,-0.12485,-0.2682625,0.0600875
1679932372780,1112361135318486,-0.1238875,-0.263175,0.0551375
1679932372782,1112361137820717,-0.12595,-0.2561625,0.053075
1679932372785,1112361140322881,-0.1219625,-0.2371875,0.048125
1679932372787,1112361142825034,-0.11495,-0.220275,0.048125
1679932372792,1112361145327188,-0.1109625,-0.198275,0.0471625
1679932372794,1112361147829342,-0.1079375,-0.1681625,0.0441375
1679932372797,1112361150331496,-0.1049125,-0.1381875,0.0380875
1679932372799,1112361152833650,-0.0988625,-0.1241625,0.031075
1679932372800,1112361155335804,-0.094875,-0.109175,0.0270875
1679932372802,1112361157838188,-0.0889625,-0.0972125,0.015125
1679932372809,1112361160340342,-0.0908875,-0.0922625,0.0081124995
1679932372809,1112361162842505,-0.083875,-0.087175,0.0020625
1679932372811,1112361165344659,-0.0798875,-0.0862125,-0.00385
1679932372813,1112361167846813,-0.0829125,-0.0842875,-0.011825
1679932372816,1112361170348966,-0.0798875,-0.08525,-0.0199375
1679932372817,1112361172851115,-0.0779625,-0.087175,-0.0248875
1679932372819,1112361175353346,-0.078925,-0.099275,-0.0279125
1679932372825,1112361177855500,-0.078925,-0.1082125,-0.02585
1679932372826,1112361180357654,-0.0768625,-0.1172875,-0.0248875
1679932372829,1112361182859818,-0.0809875,-0.1282875,-0.023924999
1679932372832,1112361185361972,-0.08195,-0.1351625,-0.0218625
1679932372833,1112361187864125,-0.08195,-0.142175,-0.0209
1679932372836,1112361190366510,-0.086899996,-0.1452,-0.01595
1679932372842,1112361192868664,-0.0859375,-0.1472625,-0.012925
1679932372842,1112361195370823,-0.089925,-0.1452,-0.012925
1679932372843,1112361197872977,-0.09295,-0.1461625,-0.0089375
1679932372845,1112361200374900,-0.0939125,-0.1472625,-0.0059125
1679932372848,1112361202877053,-0.094875,-0.148225,-0.001925
1679932372850,1112361205379212,-0.095975,-0.148225,-0.0028875
1679932372852,1112361207881674,-0.0939125,-0.143275,-0.006875
1679932372859,1112361210383751,-0.0919875,-0.1442375,-0.0089375
1679932372859,1112361212885905,-0.089925,-0.1472625,-0.01485
1679932372861,1112361215388054,-0.083875,-0.15125,-0.0218625
1679932372862,1112361217890207,-0.0829125,-0.154275,-0.02695
1679932372867,1112361220392361,-0.0809875,-0.1582625,-0.0319
1679932372871,1112361222894592,-0.0759,-0.1552375,-0.036849998
1679932372875,1112361225396741,-0.07095,-0.15125,-0.0408375
1679932372876,1112361227898895,-0.0688875,-0.1442375,-0.047849998
1679932372877,1112361230401049,-0.0658625,-0.1342,-0.045925
1679932372879,1112361232903202,-0.0539,-0.1252625,-0.04895
1679932372882,1112361235405356,-0.045925,-0.110275,-0.0518375
1679932372883,1112361237907741,-0.0419375,-0.0972125,-0.050875
1679932372885,1112361240409895,-0.0389125,-0.0842875,-0.050875
1679932372887,1112361242912049,-0.0339625,-0.071225,-0.0499125
1679932372892,1112361245414202,-0.0279125,-0.0622875,-0.047849998
1679932372893,1112361247916121,-0.0218625,-0.049225,-0.047849998
1679932372896,1112361250418505,-0.017875,-0.0391875,-0.045925
1679932372900,1112361252920659,-0.012925,-0.0361625,-0.045925
1679932372900,1112361255422890,-0.0099,-0.027224999,-0.0438625
1679932372904,1112361257924977,-0.0099,-0.0171875,-0.0438625
1679932372909,1112361260427131,-0.006875,-0.010175,-0.039875
1679932372909,1112361262929284,-0.0059125,-0.00825,-0.036849998
1679932372911,1112361265431515,-0.0059125,0.0017875,-0.03795
1679932372913,1112361267933669,-9.625E-4,0.005775,-0.0389125
1679932372916,1112361270435808,1.375E-4,0.011825,-0.0358875
1679932372918,1112361272937962,0.003025,0.01375,-0.0358875
1679932372921,1112361275440116,0.0020625,0.0177375,-0.0358875
1679932372927,1112361277942193,0.0020625,0.027775,-0.033825
1679932372928,1112361280444630,0.0011,0.03575,-0.0319
1679932372929,1112361282946784,0.0011,0.0408375,-0.0328625
1679932372931,1112361285448938,0.003025,0.0457875,-0.0319
1679932372933,1112361287950861,0.0020625,0.0518375,-0.0298375
1679932372936,1112361290453240,0.003025,0.0518375,-0.02585
1679932372937,1112361292955394,0.0011,0.055825,-0.02695
1679932372942,1112361295457548,-0.001925,0.0567875,-0.028875
1679932372944,1112361297959702,-9.625E-4,0.055825,-0.0248875
1679932372947,1112361300461861,-0.0039875,0.0518375,-0.0209
1679932372948,1112361302964015,-0.00495,0.0507375,-0.0209
1679932372951,1112361305466169,-0.00495,0.0427625,-0.022824999
1679932372952,1112361307968322,-0.007975,0.0367125,-0.0188375
1679932372960,1112361310470462,-0.0089375,0.038775,-0.017875
1679932372961,1112361312972693,-0.0108624995,0.03575,-0.01595
1679932372962,1112361315474847,-0.0119624995,0.0287375,-0.01595
1679932372964,1112361317977001,-0.012925,0.022824999,-0.011825
1679932372965,1112361320479155,-0.0138875,0.0177375,-0.006875
1679932372967,1112361322981312,-0.0149875,0.0158125,-0.00495
1679932372970,1112361325483466,-0.017875,0.010725,-0.00495
1679932372975,1112361327985620,-0.0169125,0.0037125,-0.0078375
1679932372976,1112361330488005,-0.018975,-0.0012375,-0.0078375
1679932372979,1112361332990150,-0.0209,-0.0031625,-0.0078375
1679932372981,1112361335492304,-0.0229625,-0.00825,-0.0089375
1679932372983,1112361337994457,-0.0209,-0.011275,-0.0108624995
1679932372985,1112361340496611,-0.0209,-0.0132,-0.0099
1679932372987,1112361342998765,-0.0259875,-0.014162499,-0.0078375
1679932372992,1112361345501010,-0.0248875,-0.016224999,-0.0099
1679932372993,1112361348003087,-0.0248875,-0.015262499,-0.0089375
1679932372997,1112361350505318,-0.023924999,-0.0171875,-0.011825
1679932372998,1112361353007394,-0.0218625,-0.016224999,-0.011825
1679932373000,1112361355509548,-0.0199375,-0.011275,-0.011825
1679932373002,1112361358011683,-0.0209,-0.016224999,-0.011825
1679932373010,1112361360513914,-0.0218625,-0.01925,-0.011825
1679932373011,1112361363016068,-0.0199375,-0.016224999,-0.01485
1679932373012,1112361365518222,-0.0209,-0.0202125,-0.0169125
1679932373014,1112361368020352,-0.0229625,-0.022275,-0.0169125
1679932373017,1112361370522505,-0.017875,-0.0251625,-0.0169125
1679932373019,1112361373024659,-0.01595,-0.0251625,-0.0199375
1679932373021,1112361375526813,-0.0218625,-0.0242,-0.0199375
1679932373027,1112361378029212,-0.0209,-0.0202125,-0.0199375
1679932373027,1112361380531366,-0.018975,-0.01925,-0.022824999
1679932373028,1112361383033519,-0.0138875,-0.0171875,-0.0218625
1679932373031,1112361385535673,-0.01595,-0.016224999,-0.022824999
1679932373033,1112361388037842,-0.01595,-0.014162499,-0.02695
1679932373036,1112361390539996,-0.0138875,-0.0092124995,-0.023924999
1679932373038,1112361393042227,-0.01595,-0.0072875,-0.02585
1679932373044,1112361395544381,-0.01595,8.25E-4,-0.0248875
1679932373045,1112361398046534,-0.012925,0.0048125,-0.02695
1679932373047,1112361400548688,-0.0138875,0.0067375,-0.02585
1679932373048,1112361403050842,-0.012925,0.0097624995,-0.028875
1679932373050,1112361405552919,-0.0119624995,0.005775,-0.0248875
1679932373054,1112361408055159,-0.0119624995,0.0097624995,-0.0218625
1679932373059,1112361410557543,-0.0108624995,0.0048125,-0.0248875
1679932373060,1112361413059467,-0.007975,0.00275,-0.0248875
1679932373061,1112361415561620,-0.007975,-0.0022,-0.022824999
1679932373063,1112361418064005,-0.0089375,-0.005225,-0.0248875
1679932373065,1112361420565948,-0.007975,-0.010175,-0.02695
1679932373068,1112361423068102,-0.007975,-0.0202125,-0.0248875
1679932373072,1112361425570487,-0.0089375,-0.033275,-0.0248875
1679932373079,1112361428072640,-0.0108624995,-0.041249998,-0.02695
1679932373080,1112361430574770,-0.012925,-0.049225,-0.0209
1679932373081,1112361433076924,-0.012925,-0.0721875,-0.0218625
1679932373082,1112361435579078,-0.0169125,-0.11825,-0.022824999
1679932373083,1112361438081232,-0.023924999,-0.165275,-0.022824999
1679932373086,1112361440583381,-0.029975,-0.181225,-0.0209
1679932373087,1112361443085611,-0.0319,-0.17325,-0.0188375
1679932373092,1112361445587765,-0.028875,-0.1632125,-0.0188375
1679932373093,1112361448089919,-0.02695,-0.159225,-0.017875
1679932373096,1112361450592068,-0.0259875,-0.1472625,-0.0188375
1679932373098,1112361453094222,-0.0229625,-0.1342,-0.0209
1679932373100,1112361455596376,-0.0199375,-0.1332375,-0.0218625
1679932373102,1112361458098760,-0.023924999,-0.1381875,-0.0218625
1679932373108,1112361460600683,-0.0248875,-0.1522125,-0.022824999
1679932373110,1112361463103068,-0.023924999,-0.1662375,-0.023924999
1679932373111,1112361465605222,-0.023924999,-0.17325,-0.0248875
1679932373114,1112361468107145,-0.023924999,-0.1832875,-0.023924999
1679932373115,1112361470609299,-0.028875,-0.1962125,-0.028875
1679932373118,1112361473111698,-0.0259875,-0.198275,-0.036849998
1679932373121,1112361475613929,-0.0259875,-0.1931875,-0.039875
1679932373127,1112361478116006,-0.0259875,-0.1912625,-0.0419375
1679932373128,1112361480618160,-0.023924999,-0.1931875,-0.0429
1679932373130,1112361483120323,-0.0248875,-0.1962125,-0.044825
1679932373131,1112361485622477,-0.023924999,-0.198275,-0.044825
1679932373133,1112361488124631,-0.023924999,-0.2011625,-0.0499125
1679932373136,1112361490626861,-0.0229625,-0.208175,-0.050875
1679932373138,1112361493129015,-0.0218625,-0.21725,-0.047849998
1679932373141,1112361495631165,-0.0259875,-0.2292125,-0.050875
1679932373143,1112361498133319,-0.0259875,-0.2322375,-0.0518375
1679932373146,1112361500635473,-0.0218625,-0.2382875,-0.0539
1679932373148,1112361503137627,-0.0218625,-0.24419999,-0.0518375
1679932373151,1112361505640015,-0.0229625,-0.2512125,-0.047849998
1679932373153,1112361508142169,-0.0259875,-0.2561625,-0.0499125
1679932373156,1112361510644323,-0.0248875,-0.258225,-0.047849998
1679932373157,1112361513146477,-0.023924999,-0.258225,-0.044825
1679932373160,1112361515648400,-0.0229625,-0.2572625,-0.044825
1679932373164,1112361518150780,-0.0259875,-0.2572625,-0.0438625
1679932373167,1112361520652934,-0.0248875,-0.2572625,-0.0389125
1679932373170,1112361523155165,-0.023924999,-0.2542375,-0.039875
1679932373171,1112361525657242,-0.0259875,-0.258225,-0.039875
1679932373173,1112361528159410,-0.0248875,-0.26125,-0.036849998
1679932373177,1112361530661564,-0.0248875,-0.26125,-0.036849998
1679932373178,1112361533163795,-0.0259875,-0.263175,-0.034925
1679932373181,1112361535665871,-0.02695,-0.2682625,-0.034925
1679932373183,1112361538168097,-0.028875,-0.2732125,-0.0328625
1679932373188,1112361540670251,-0.0319,-0.280225,-0.02695
1679932373189,1112361543172405,-0.0328625,-0.2891625,-0.023924999
1679932373193,1112361545674559,-0.0389125,-0.302225,-0.023924999
1679932373194,1112361548176943,-0.039875,-0.3251875,-0.0199375
1679932373196,1112361550679092,-0.0438625,-0.36025,-0.0089375
1679932373198,1112361553181246,-0.0468875,-0.39627498,-0.001925
1679932373201,1112361555683400,-0.050875,-0.4131875,-8.25E-4
1679932373205,1112361558185545,-0.0539,-0.4202,0.0011
1679932373207,1112361560687699,-0.0539,-0.4312,0.0011
1679932373209,1112361563189853,-0.050875,-0.4321625,-0.00385
1679932373210,1112361565692083,-0.050875,-0.434225,-0.006875
1679932373213,1112361568194237,-0.0499125,-0.445225,-0.0089375
1679932373216,1112361570696333,-0.0539,-0.450175,-0.01485
1679932373218,1112361573198487,-0.056925,-0.4642,-0.0169125
1679932373222,1112361575700641,-0.0578875,-0.47025,-0.0199375
1679932373224,1112361578202795,-0.0589875,-0.4761625,-0.0218625
1679932373226,1112361580705025,-0.0578875,-0.494175,-0.02585
1679932373228,1112361583207179,-0.0639375,-0.500225,-0.02695
1679932373231,1112361585709333,-0.0639375,-0.5022875,-0.028875
1679932373234,1112361588211487,-0.0669625,-0.5072375,-0.02695
1679932373236,1112361590713641,-0.0688875,-0.5082,-0.028875
1679932373238,1112361593215795,-0.0669625,-0.505175,-0.0328625
1679932373243,1112361595718179,-0.0669625,-0.4962375,-0.0328625
1679932373244,1112361598220333,-0.061875,-0.48125,-0.03795
1679932373248,1112361600722497,-0.0639375,-0.473275,-0.0438625
1679932373249,1112361603224651,-0.062975,-0.462275,-0.047849998
1679932373250,1112361605726805,-0.062975,-0.451275,-0.0529375
1679932373253,1112361608228959,-0.0589875,-0.43821248,-0.05995
1679932373256,1112361610731107,-0.05995,-0.428175,-0.064899996
1679932373258,1112361613233338,-0.061875,-0.4202,-0.066825
1679932373261,1112361615735492,-0.0589875,-0.412225,-0.0688875
1679932373263,1112361618237646,-0.0559625,-0.4101625,-0.06985
1679932373266,1112361620739800,-0.0548625,-0.4032875,-0.07095
1679932373268,1112361623241954,-0.0559625,-0.3991625,-0.06985
1679932373272,1112361625744031,-0.0529375,-0.39325,-0.0688875
1679932373274,1112361628246261,-0.0539,-0.384175,-0.0658625
1679932373277,1112361630748419,-0.0559625,-0.3762,-0.0609125
1679932373280,1112361633250804,-0.0529375,-0.3722125,-0.055825
1679932373282,1112361635752727,-0.0499125,-0.3642375,-0.0499125
1679932373284,1112361638254881,-0.0539,-0.36025,-0.0429
1679932373286,1112361640757035,-0.0499125,-0.3562625,-0.0419375
1679932373289,1112361643259188,-0.04895,-0.351175,-0.03795
1679932373290,1112361645761573,-0.0499125,-0.3482875,-0.0319
1679932373293,1112361648263727,-0.050875,-0.346225,-0.034925
1679932373297,1112361650765881,-0.04895,-0.3471875,-0.0298375
1679932373299,1112361653268045,-0.0479875,-0.3471875,-0.0279125
1679932373301,1112361655770198,-0.04895,-0.3482875,-0.028875
1679932373303,1112361658272352,-0.04895,-0.3482875,-0.0279125
1679932373306,1112361660774583,-0.0529375,-0.3432,-0.028875
1679932373308,1112361663276751,-0.050875,-0.3361875,-0.0279125
1679932373311,1112361665778905,-0.04895,-0.3322,-0.028875
1679932373314,1112361668281059,-0.050875,-0.32725,-0.028875
1679932373318,1112361670783212,-0.0529375,-0.31625,-0.0298375
1679932373320,1112361673285299,-0.050875,-0.3111625,-0.0328625
1679932373322,1112361675787530,-0.050875,-0.3012625,-0.033825
1679932373324,1112361678289915,-0.050875,-0.2902625,-0.033825
1679932373327,1112361680792069,-0.0529375,-0.2792625,-0.0358875
1679932373329,1112361683293982,-0.050875,-0.26125,-0.0358875
1679932373333,1112361685796136,-0.0479875,-0.258225,-0.034925
1679932373335,1112361688298289,-0.04895,-0.252175,-0.0389125
1679932373336,1112361690800443,-0.04895,-0.2451625,-0.0408375
1679932373338,1112361693302828,-0.0479875,-0.2462625,-0.0419375
1679932373341,1112361695804987,-0.0479875,-0.24419999,-0.0408375
1679932373343,1112361698307141,-0.0449625,-0.2382875,-0.044825
1679932373346,1112361700809294,-0.0468875,-0.2352625,-0.04895
1679932373348,1112361703311448,-0.0438625,-0.22825,-0.050875
1679932373351,1112361705813612,-0.0419375,-0.2242625,-0.0518375
1679932373355,1112361708315843,-0.0369875,-0.214225,-0.0518375
1679932373357,1112361710817997,-0.0358875,-0.2022625,-0.0548625
1679932373359,1112361713320151,-0.0369875,-0.1942875,-0.0548625
1679932373361,1112361715822304,-0.0328625,-0.1791625,-0.0578875
1679932373363,1112361718324458,-0.0319,-0.1632125,-0.058849998
1679932373366,1112361720826612,-0.02695,-0.154275,-0.05995
1679932373368,1112361723328689,-0.0248875,-0.142175,-0.05995
1679932373371,1112361725831151,-0.0248875,-0.1342,-0.058849998
1679932373373,1112361728333300,-0.0259875,-0.126225,-0.05995
1679932373376,1112361730835453,-0.0209,-0.1161875,-0.0578875
1679932373379,1112361733337376,-0.018975,-0.1082125,-0.0539
1679932373382,1112361735839761,-0.01595,-0.100237496,-0.0548625
1679932373390,1112361738341900,-0.0119624995,-0.093225,-0.0539
1679932373410,1112361740844054,-0.012925,-0.087175,-0.0539
1679932373410,1112361743346208,-0.012925,-0.0812625,-0.0529375
1679932373410,1112361745848361,-0.012925,-0.071225,-0.045925
1679932373410,1112361748350520,-0.0108624995,-0.0691625,-0.045925
1679932373411,1112361750852674,-0.012925,-0.0682,-0.0438625
1679932373411,1112361753354828,-0.0169125,-0.0581625,-0.0419375
1679932373411,1112361755857059,-0.017875,-0.0592625,-0.0389125
1679932373412,1112361758359213,-0.0138875,-0.0581625,-0.034925
1679932373412,1112361760861377,-0.0119624995,-0.049225,-0.028875
1679932373412,1112361763363530,-0.0138875,-0.0471625,-0.02585
1679932373413,1112361765865684,-0.0149875,-0.0422125,-0.023924999
1679932373414,1112361768367847,-0.0119624995,-0.0391875,-0.023924999
1679932373416,1112361770870001,-0.012925,-0.0422125,-0.0188375
1679932373418,1112361773372386,-0.0149875,-0.0422125,-0.01485
1679932373421,1112361775874539,-0.01595,-0.043175,-0.0188375
1679932373423,1112361778376703,-0.0169125,-0.0482625,-0.0218625
1679932373426,1112361780878626,-0.0169125,-0.052249998,-0.01485
1679932373432,1112361783381011,-0.01595,-0.0581625,-0.017875
1679932373433,1112361785883165,-0.0199375,-0.065175,-0.017875
1679932373435,1112361788385329,-0.0199375,-0.0682,-0.0218625
1679932373437,1112361790887483,-0.0209,-0.077275,-0.0218625
1679932373439,1112361793389636,-0.0229625,-0.0812625,-0.017875
1679932373441,1112361795891790,-0.023924999,-0.087175,-0.0209
1679932373443,1112361798393944,-0.0248875,-0.099275,-0.023924999
1679932373447,1112361800896088,-0.023924999,-0.104225,-0.02695
1679932373448,1112361803398242,-0.028875,-0.110275,-0.0298375
1679932373451,1112361805900473,-0.029975,-0.121275,-0.033825
1679932373455,1112361808402626,-0.0309375,-0.1271875,-0.036849998
1679932373456,1112361810904780,-0.0339625,-0.132275,-0.0389125
1679932373458,1112361813406934,-0.0319,-0.143275,-0.03795
1679932373461,1112361815909088,-0.0358875,-0.148225,-0.039875
1679932373464,1112361818411242,-0.040975,-0.15125,-0.0408375
1679932373470,1112361820913583,-0.0389125,-0.1582625,-0.0429
1679932373471,1112361823415737,-0.0419375,-0.1612875,-0.044825
1679932373473,1112361825917660,-0.0419375,-0.159225,-0.045925
1679932373475,1112361828419814,-0.040975,-0.1711875,-0.0429
1679932373477,1112361830922199,-0.0429,-0.1942875,-0.044825
1679932373480,1112361833424353,-0.04895,-0.2022625,-0.047849998
1679932373481,1112361835926507,-0.04895,-0.2072125,-0.04895
1679932373483,1112361838428660,-0.050875,-0.2112,-0.047849998
1679932373486,1112361840930814,-0.0529375,-0.21725,-0.047849998
1679932373488,1112361843432968,-0.0499125,-0.2242625,-0.04895
1679932373490,1112361845935112,-0.0468875,-0.22825,-0.047849998
1679932373493,1112361848437343,-0.0438625,-0.242275,-0.045925
1679932373496,1112361850939497,-0.0449625,-0.2921875,-0.0518375
1679932373498,1112361853441650,-0.04895,-0.330275,-0.056925
1679932373501,1112361855943741,-0.0539,-0.3441625,-0.05995
1679932373506,1112361858445972,-0.0559625,-0.363275,-0.067925
1679932373508,1112361860948126,-0.0589875,-0.3762,-0.072875
1679932373509,1112361863450511,-0.05995,-0.38225,-0.0768625
1679932373512,1112361865952425,-0.0589875,-0.39421248,-0.077825
1679932373515,1112361868454579,-0.0589875,-0.4002625,-0.0829125
1679932373517,1112361870956732,-0.05995,-0.401225,-0.083875
1679932373520,1112361873458886,-0.0589875,-0.3972375,-0.083875
1679932373524,1112361875961011,-0.0609125,-0.401225,-0.086899996
1679932373525,1112361878463396,-0.0589875,-0.407275,-0.0859375
1679932373527,1112361880965550,-0.0589875,-0.407275,-0.0848375
1679932373531,1112361883467703,-0.05995,-0.412225,-0.08085
1679932373532,1112361885969857,-0.05995,-0.418275,-0.078925
1679932373534,1112361888472001,-0.0589875,-0.4241875,-0.0749375
1679932373536,1112361890974155,-0.05995,-0.4351875,-0.0749375
1679932373542,1112361893476309,-0.062975,-0.4461875,-0.0749375
1679932373543,1112361895978540,-0.064899996,-0.4582875,-0.0759
1679932373548,1112361898480674,-0.064899996,-0.47025,-0.0738375
1679932373549,1112361900982828,-0.0669625,-0.4802875,-0.07095
1679932373550,1112361903484982,-0.0719125,-0.4932125,-0.072875
1679932373552,1112361905987059,-0.0719125,-0.5011875,-0.0749375
1679932373554,1112361908489290,-0.0749375,-0.5102625,-0.0738375
1679932373557,1112361910991664,-0.073975,-0.5182375,-0.0749375
1679932373559,1112361913493588,-0.0768625,-0.5302,-0.072875
1679932373560,1112361915995741,-0.0809875,-0.5322625,-0.07095
1679932373564,1112361918498126,-0.0798875,-0.5402375,-0.067925
1679932373566,1112361921000280,-0.0809875,-0.544225,-0.066825
1679932373568,1112361923502194,-0.0798875,-0.544225,-0.066825
1679932373571,1112361926004348,-0.0809875,-0.54821247,-0.0658625
1679932373573,1112361928506732,-0.0809875,-0.5542625,-0.061875
1679932373576,1112361931008886,-0.08195,-0.5522,-0.064899996
1679932373583,1112361933510995,-0.0809875,-0.544225,-0.064899996
1679932373583,1112361936013149,-0.078925,-0.5412,-0.061875
1679932373586,1112361938515303,-0.0768625,-0.539275,-0.061875
1679932373587,1112361941017457,-0.072875,-0.5322625,-0.064899996
1679932373591,1112361943519697,-0.0719125,-0.5292375,-0.0628375
1679932373592,1112361946021851,-0.0699875,-0.51425,-0.0628375
1679932373593,1112361948524005,-0.0658625,-0.4972,-0.0628375
1679932373597,1112361951026159,-0.061875,-0.48221248,-0.058849998
1679932373599,1112361953528313,-0.0578875,-0.4681875,-0.058849998
1679932373601,1112361956030467,-0.0578875,-0.450175,-0.058849998
1679932373603,1112361958532616,-0.050875,-0.429275,-0.056925
1679932373607,1112361961034769,-0.0479875,-0.4101625,-0.0539
1679932373609,1112361963536923,-0.0429,-0.3911875,-0.0499125
1679932373611,1112361966039308,-0.040975,-0.3661625,-0.04895
1679932373614,1112361968541448,-0.039875,-0.3432,-0.0438625
1679932373620,1112361971043371,-0.0369875,-0.3202375,-0.0429
1679932373620,1112361973545525,-0.0328625,-0.2932875,-0.039875
1679932373622,1112361976047909,-0.029975,-0.2701875,-0.0358875
1679932373624,1112361978550063,-0.0229625,-0.2451625,-0.036849998
1679932373627,1112361981052226,-0.0209,-0.2231625,-0.0358875
1679932373629,1112361983554380,-0.017875,-0.203225,-0.036849998
1679932373632,1112361986056534,-0.0138875,-0.1802625,-0.0328625
1679932373633,1112361988558688,-0.0119624995,-0.1612875,-0.0328625
1679932373636,1112361991060894,-0.0089375,-0.1452,-0.0298375
1679932373639,1112361993563048,-0.007975,-0.1282875,-0.02585
1679932373641,1112361996065202,-0.00495,-0.111237496,-0.022824999
1679932373645,1112361998567356,-0.006875,-0.099275,-0.0188375
1679932373647,1112362001069544,-0.00495,-0.093225,-0.0199375
1679932373648,1112362003571698,-9.625E-4,-0.077275,-0.01595
1679932373651,1112362006073851,-0.0039875,-0.0642125,-0.011825
1679932373657,1112362008575995,-0.0059125,-0.0572,-0.0108624995
1679932373659,1112362011078380,-0.006875,-0.043175,-0.0108624995
1679932373660,1112362013580534,-0.0099,-0.0342375,-0.0089375
1679932373662,1112362016082688,-0.0099,-0.0312125,-0.00495
1679932373664,1112362018584611,-0.00495,-0.0292875,-0.00495
1679932373667,1112362021086765,-0.0089375,-0.0312125,-0.0028875
1679932373668,1112362023589149,-0.0119624995,-0.0361625,-0.0028875
1679932373671,1112362026091380,-0.0149875,-0.0422125,1.375E-4
1679932373674,1112362028593457,-0.0149875,-0.0482625,-8.25E-4
1679932373677,1112362031095606,-0.0138875,-0.0581625,-0.001925
1679932373679,1112362033597760,-0.01595,-0.06325,1.375E-4
1679932373681,1112362036099913,-0.0218625,-0.07425,0.0020625
1679932373683,1112362038602067,-0.0199375,-0.088275,0.0020625
1679932373686,1112362041104298,-0.0199375,-0.1012,0.00605
1679932373688,1112362043606462,-0.0229625,-0.1122,0.0081124995
1679932373693,1112362046108616,-0.029975,-0.122237496,0.00605
1679932373695,1112362048610770,-0.029975,-0.1342,0.00605
1679932373698,1112362051112924,-0.028875,-0.1452,0.009075
1679932373699,1112362053615120,-0.0328625,-0.1502875,0.009075
1679932373701,1112362056117274,-0.0358875,-0.1491875,0.009075
1679932373704,1112362058619659,-0.0358875,-0.1452,0.009075
1679932373706,1112362061121813,-0.0339625,-0.1351625,0.014162499
1679932373709,1112362063623967,-0.0309375,-0.12925,0.013062499
1679932373712,1112362066125914,-0.0369875,-0.120175,0.014162499
1679932373715,1112362068628067,-0.0309375,-0.1012,0.0160875
1679932373719,1112362071130452,-0.0309375,-0.0911625,0.01705
1679932373720,1112362073632683,-0.0309375,-0.0782375,0.0160875
1679932373722,1112362076134760,-0.0259875,-0.066275,0.0160875
1679932373724,1112362078636933,-0.0248875,-0.055275,0.01705
1679932373727,1112362081139087,-0.023924999,-0.038225,0.013062499
1679932373732,1112362083641240,-0.0218625,-0.0251625,0.0111375
1679932373733,1112362086143385,-0.0218625,-0.015262499,0.009075
1679932373735,1112362088645616,-0.0169125,-0.0072875,0.00605
1679932373737,1112362091147770,-0.0108624995,-0.0022,0.0031625
1679932373739,1112362093649924,-0.0089375,-0.0031625,-0.001925
1679932373741,1112362096152078,-0.0039875,-0.010175,-0.0089375
1679932373744,1112362098654250,-0.001925,-0.022275,-0.01595
1679932373750,1112362101156404,-0.00495,-0.0292875,-0.0209
1679932373752,1112362103658789,-0.001925,-0.0292875,-0.02585
1679932373753,1112362106160943,-0.001925,-0.027224999,-0.0328625
1679932373754,1112362108663126,-0.001925,-0.0242,-0.034925
1679932373757,1112362111165049,0.0011,-0.0242,-0.034925
1679932373758,1112362113667433,0.0011,-0.015262499,-0.033825
1679932373761,1112362116169587,0.004125,-0.0072875,-0.0328625
1679932373765,1112362118671731,0.0050875,0.0067375,-0.028875
1679932373768,1112362121173885,0.003025,0.0198,-0.0188375
1679932373770,1112362123676039,0.004125,0.027775,-0.012925
1679932373772,1112362126178193,0.004125,0.033825,-0.011825
1679932373774,1112362128680336,0.0050875,0.0457875,-0.006875
1679932373777,1112362131182567,0.0070125,0.0488125,-0.0028875
1679932373779,1112362133684721,0.0081124995,0.0488125,0.00715
1679932373782,1112362136186875,0.0100375,0.0408375,0.00605
1679932373784,1112362138689029,0.009075,0.033825,0.0081124995
1679932373787,1112362141191179,0.0070125,0.0367125,0.0111375
1679932373789,1112362143693332,0.0081124995,0.03575,0.014162499
1679932373792,1112362146195717,0.00605,0.0308,0.020075
1679932373794,1112362148697640,0.0020625,0.0317625,0.0240625
1679932373797,1112362151199780,0.0050875,0.022824999,0.0270875
1679932373798,1112362153702165,0.004125,0.0198,0.026124999
1679932373801,1112362156204318,0.003025,0.021724999,0.0270875
1679932373805,1112362158706247,1.375E-4,0.0207625,0.02805
1679932373808,1112362161208400,-0.001925,0.0207625,0.02915
1679932373810,1112362163710785,0.0020625,0.0237875,0.0331375
1679932373811,1112362166212939,-0.001925,0.027775,0.0341
1679932373814,1112362168715093,-0.0059125,0.032725,0.0341
1679932373817,1112362171217232,-0.0039875,0.0347875,0.039049998
1679932373818,1112362173719385,-0.0039875,0.0378125,0.0341
1679932373821,1112362176221539,-0.0039875,0.038775,0.02805
1679932373823,1112362178723770,-0.00495,0.0268125,0.01705
1679932373826,1112362181225915,-0.00495,0.010725,0.0111375
1679932373829,1112362183728069,-0.00495,0.0048125,0.004125
1679932373832,1112362186230223,-0.0059125,-0.0072875,-0.0059125
1679932373834,1112362188732376,-0.0099,-0.014162499,-0.017875
1679932373837,1112362191234559,-0.0108624995,-0.022275,-0.023924999
1679932373839,1112362193736944,-0.0108624995,-0.0281875,-0.0298375
1679932373843,1112362196238867,-0.012925,-0.0361625,-0.034925
1679932373845,1112362198741021,-0.01595,-0.044275,-0.036849998
1679932373848,1112362201243175,-0.0169125,-0.0532125,-0.039875
1679932373850,1112362203745559,-0.0169125,-0.060225,-0.0438625
1679932373852,1112362206247482,-0.017875,-0.065175,-0.044825
1679932373854,1112362208749636,-0.018975,-0.07425,-0.0429
1679932373856,1112362211252021,-0.01595,-0.0782375,-0.0419375
1679932373859,1112362213754155,-0.0169125,-0.0792,-0.039875
1679932373861,1112362216256309,-0.017875,-0.077275,-0.036849998
1679932373865,1112362218758462,-0.0209,-0.07425,-0.036849998
1679932373867,1112362221260616,-0.017875,-0.0752125,-0.0298375
1679932373869,1112362223762761,-0.0169125,-0.0801625,-0.02695
1679932373872,1112362226264992,-0.0199375,-0.0831875,-0.0279125
1679932373874,1112362228767146,-0.0229625,-0.0842875,-0.02695
1679932373877,1112362231269300,-0.018975,-0.088275,-0.0218625
1679932373881,1112362233771434,-0.018975,-0.0911625,-0.0199375
1679932373883,1112362236273588,-0.018975,-0.0941875,-0.0169125
1679932373884,1112362238775742,-0.0169125,-0.09625,-0.012925
1679932373887,1112362241277896,-0.012925,-0.0941875,-0.011825
1679932373889,1112362243780050,-0.0138875,-0.076175,-0.02585
1679932373891,1112362246282194,0.003025,-0.014162499,-0.0658625
1679932373893,1112362248784578,0.026124999,0.0697125,-0.122925
1679932373897,1112362251286732,0.0551375,0.170775,-0.1529
1679932373899,1112362253788655,0.0661375,0.247775,-0.133925
1679932373901,1112362256290818,0.050049998,0.2437875,-0.105875
1679932373904,1112362258793203,0.0290125,0.197725,-0.078925
1679932373907,1112362261295357,0.0100375,0.1687125,-0.056925
1679932373909,1112362263797510,1.375E-4,0.1478125,-0.0429
1679932373912,1112362266299660,-9.625E-4,0.1337875,-0.0298375
1679932373914,1112362268801814,-9.625E-4,0.1258125,-0.0199375
1679932373919,1112362271303968,0.003025,0.12773749,-0.0089375
1679932373921,1112362273806122,0.0081124995,0.132825,0.0031625
1679932373923,1112362276308342,0.0160875,0.1307625,0.0191125
1679932373925,1112362278810496,0.025024999,0.131725,0.0331375
1679932373927,1112362281312649,0.026124999,0.137775,0.0411125
1679932373929,1112362283814803,0.026124999,0.1478125,0.048125
1679932373932,1112362286316957,0.0320375,0.1527625,0.053075
1679932373935,1112362288819106,0.036025,0.170775,0.0471625
1679932373937,1112362291321260,0.0380875,0.18975,0.039049998
1679932373939,1112362293823414,0.0451,0.2107875,0.031075
1679932373941,1112362296325567,0.0540375,0.2277,0.01705
1679932373943,1112362298827967,0.059125,0.24475,-0.001925
1679932373947,1112362301329890,0.0600875,0.258775,-0.0188375
1679932373949,1112362303832044,0.0570625,0.2627625,-0.036849998
1679932373952,1112362306334429,0.0551375,0.2487375,-0.0539
1679932373956,1112362308836587,0.0510125,0.2297625,-0.0749375
1679932373960,1112362311338740,0.042075,0.198825,-0.0878625
1679932373961,1112362313840894,0.0320375,0.1667875,-0.09295
1679932373962,1112362316343048,0.026124999,0.1617,-0.0979
1679932373964,1112362318845202,0.020075,0.1527625,-0.099825
1679932373967,1112362321347361,0.0121,0.154825,-0.0908875
1679932373969,1112362323849592,0.0020625,0.16775,-0.077825
1679932373972,1112362326351745,-0.0039875,0.1797125,-0.0628375
1679932373974,1112362328853899,-9.625E-4,0.187825,-0.0529375
1679932373977,1112362331356058,0.0020625,0.1948375,-0.0429
1679932373980,1112362333858212,0.0070125,0.2047375,-0.0408375
1679932373982,1112362336360366,0.015125,0.2237125,-0.0408375
1679932373984,1112362338862750,0.0231,0.241725,-0.0389125
1679932373986,1112362341364933,0.0320375,0.2597375,-0.039875
1679932373989,1112362343866856,0.0380875,0.2717,-0.039875
1679932373994,1112362346369241,0.042075,0.2767875,-0.034925
1679932373996,1112362348871164,0.050049998,0.25575,-0.033825
1679932373998,1112362351661342,0.0490875,0.225775,-0.034925
1679932374000,1112362353875496,0.0451,0.197725,-0.0319
1679932374002,1112362356377957,0.0411125,0.176825,-0.0298375
1679932374004,1112362358880034,0.036025,0.1518,-0.0279125
1679932374007,1112362361382188,0.0290125,0.131725,-0.02585
1679932374011,1112362363884342,0.026124999,0.1067,-0.0209
1679932374026,1112362366386496,0.0210375,0.0807125,-0.01595
1679932374026,1112362368888650,0.0180125,0.05775,-0.0078375
1679932374027,1112362371390880,0.0160875,0.0408375,0.0031625
1679932374027,1112362373893024,0.013062499,0.02475,0.013062499
1679932374027,1112362376395178,0.0081124995,0.0037125,0.0221375
1679932374028,1112362378897332,0.003025,-0.021175,0.031075
1679932374028,1112362381399486,-0.001925,-0.0391875,0.04015
1679932374030,1112362383901654,-0.0089375,-0.0572,0.0471625
1679932374033,1112362386403808,-0.012925,-0.077275,0.0521125
1679932374036,1112362388905961,-0.017875,-0.098175,0.0551375
1679932374037,1112362391408115,-0.02695,-0.1192125,0.0570625
1679932374039,1112362393910269,-0.0328625,-0.1442375,0.059125
1679932374041,1112362396412409,-0.0358875,-0.164175,0.059125
1679932374044,1112362398914794,-0.0449625,-0.1782,0.059125
1679932374047,1112362401416947,-0.0449625,-0.1931875,0.059125
1679932374048,1112362403919101,-0.0479875,-0.2041875,0.050049998
1679932374051,1112362406421255,-0.0499125,-0.214225,0.0441375
1679932374053,1112362408923414,-0.0539,-0.225225,0.0361625
1679932374056,1112362411425568,-0.0548625,-0.236225,0.026124999
1679932374058,1112362413927799,-0.0559625,-0.252175,0.020075
1679932374061,1112362416429952,-0.0559625,-0.27719998,0.009075
1679932374064,1112362418932106,-0.05995,-0.2811875,1.375E-4
1679932374068,1112362421434260,-0.0658625,-0.285175,-0.00385
1679932374073,1112362423936414,-0.0669625,-0.2872375,-0.006875
1679932374073,1112362426438491,-0.0688875,-0.2872375,-0.0089375
1679932374076,1112362428940726,-0.0658625,-0.2792625,-0.011825
1679932374078,1112362431442880,-0.0658625,-0.2811875,-0.0108624995
1679932374081,1112362433945264,-0.0658625,-0.2891625,-0.01595
1679932374082,1112362436447187,-0.062975,-0.3122625,-0.02585
1679932374084,1112362438949313,-0.05995,-0.3322,-0.0298375
1679932374087,1112362441451467,-0.062975,-0.335225,-0.033825
1679932374089,1112362443953621,-0.05995,-0.3372875,-0.03795
1679932374092,1112362446456005,-0.0639375,-0.335225,-0.039875
1679932374094,1112362448958159,-0.064899996,-0.3372875,-0.0429
1679932374100,1112362451460337,-0.061875,-0.3342625,-0.044825
1679932374101,1112362453962491,-0.061875,-0.330275,-0.04895
1679932374107,1112362456464602,-0.062975,-0.3262875,-0.047849998
1679932374109,1112362458966756,-0.0589875,-0.3152875,-0.0408375
1679932374109,1112362461468986,-0.05995,-0.3122625,-0.039875
1679932374110,1112362463971140,-0.05995,-0.30621248,-0.036849998
1679932374113,1112362466473294,-0.0609125,-0.302225,-0.028875
1679932374116,1112362468975434,-0.062975,-0.2982375,-0.02695
1679932374118,1112362471477588,-0.0639375,-0.297275,-0.022824999
1679932374121,1112362473979665,-0.0639375,-0.297275,-0.0188375
1679932374123,1112362476481819,-0.0609125,-0.296175,-0.017875
1679932374126,1112362478984049,-0.0589875,-0.302225,-0.01595
1679932374128,1112362481486434,-0.05995,-0.3042875,-0.017875
1679932374131,1112362483988357,-0.0578875,-0.307175,-0.01595
1679932374132,1112362486490511,-0.050875,-0.30621248,-0.0059125
1679932374134,1112362488992665,-0.045925,-0.3031875,0.0011
1679932374137,1112362491494824,-0.0438625,-0.3102,1.375E-4
1679932374139,1112362493997208,-0.045925,-0.3092375,1.375E-4
1679932374145,1112362496499362,-0.0438625,-0.3141875,-0.00385
1679932374148,1112362499001516,-0.0468875,-0.3202375,-0.0089375
1679932374148,1112362501503693,-0.045925,-0.3322,-0.01485
1679932374149,1112362504005847,-0.0429,-0.335225,-0.01595
1679932374152,1112362506508001,-0.0429,-0.340175,-0.0209
1679932374154,1112362509010231,-0.0438625,-0.341275,-0.022824999
1679932374157,1112362511512385,-0.040975,-0.340175,-0.023924999
1679932374159,1112362514014520,-0.0339625,-0.3392125,-0.028875
1679932374161,1112362516516674,-0.0369875,-0.3361875,-0.033825
1679932374165,1112362519018828,-0.0369875,-0.3342625,-0.0358875
1679932374167,1112362521520905,-0.03795,-0.3331625,-0.0419375
1679932374169,1112362524023045,-0.0358875,-0.3282125,-0.0429
1679932374171,1112362526525275,-0.0328625,-0.3262875,-0.045925
1679932374175,1112362529027660,-0.0319,-0.324225,-0.045925
1679932374177,1112362531529583,-0.0319,-0.3232625,-0.047849998
1679932374181,1112362534031718,-0.029975,-0.31625,-0.0499125
1679932374182,1112362536533872,-0.0279125,-0.3111625,-0.0499125
1679932374184,1112362539036026,-0.02695,-0.302225,-0.0529375
1679932374187,1112362541538410,-0.028875,-0.2982375,-0.0529375
1679932374189,1112362544040564,-0.028875,-0.2891625,-0.0529375
1679932374192,1112362546542742,-0.0279125,-0.2781625,-0.058849998
1679932374195,1112362549044896,-0.0279125,-0.2712875,-0.0628375
1679932374198,1112362551547050,-0.0259875,-0.263175,-0.067925
1679932374199,1112362554049203,-0.0259875,-0.2492875,-0.0719125
1679932374201,1112362556551357,-0.0259875,-0.236225,-0.0768625
1679932374204,1112362559053530,-0.0229625,-0.2292125,-0.077825
1679932374207,1112362561555761,-0.023924999,-0.2162875,-0.08085
1679932374209,1112362564057915,-0.0209,-0.2072125,-0.0848375
1679932374215,1112362566560069,-0.0199375,-0.19525,-0.083875
1679932374215,1112362569062156,-0.017875,-0.186175,-0.086899996
1679932374218,1112362571564309,-0.0149875,-0.1742125,-0.0848375
1679932374220,1112362574066540,-0.0138875,-0.1632125,-0.0848375
1679932374222,1112362576568694,-0.0108624995,-0.159225,-0.0859375
1679932374224,1112362579070867,-0.0108624995,-0.15125,-0.0829125
1679932374227,1112362581573021,-0.0099,-0.1412125,-0.08195
1679932374229,1112362584075175,-0.006875,-0.137225,-0.08085
1679932374232,1112362586577328,-0.00495,-0.12925,-0.08085
1679932374234,1112362589079727,-0.0059125,-0.1192125,-0.0749375
1679932374237,1112362591581881,-0.0039875,-0.1172875,-0.06985
1679932374239,1112362594084035,-0.0039875,-0.115225,-0.066825
1679932374241,1112362596586189,-0.00495,-0.1142625,-0.0658625
1679932374244,1112362599088348,-0.007975,-0.109175,-0.0609125
1679932374247,1112362601590501,-0.007975,-0.109175,-0.055825
1679932374249,1112362604092655,-0.007975,-0.1082125,-0.055825
1679932374252,1112362606594809,-0.0089375,-0.109175,-0.0539
1679932374255,1112362609096968,-0.007975,-0.1032625,-0.0539
1679932374258,1112362611599199,-0.0099,-0.1012,-0.050875
1679932374260,1112362614101353,-0.012925,-0.100237496,-0.050875
1679932374262,1112362616603429,-0.0149875,-0.0972125,-0.0518375
1679932374264,1112362619105583,-0.0108624995,-0.1012,-0.0518375
1679932374267,1112362621607814,-0.0149875,-0.099275,-0.0518375
1679932374269,1112362624109968,-0.0149875,-0.0941875,-0.050875
1679932374272,1112362626612122,-0.01595,-0.09625,-0.0518375
1679932374274,1112362629114276,-0.0149875,-0.0952875,-0.04895
1679932374278,1112362631616473,-0.018975,-0.0911625,-0.047849998
1679932374279,1112362634118626,-0.0199375,-0.0922625,-0.050875
1679932374282,1112362636620780,-0.017875,-0.0941875,-0.0529375
1679932374286,1112362639123165,-0.0169125,-0.08525,-0.0518375
1679932374288,1112362641625319,-0.017875,-0.082225,-0.0518375
1679932374289,1112362644127487,-0.0199375,-0.082225,-0.050875
1679932374293,1112362646629640,-0.0248875,-0.0801625,-0.04895
1679932374297,1112362649131794,-0.0218625,-0.0792,-0.045925
1679932374298,1112362651633944,-0.0229625,-0.0801625,-0.047849998
1679932374300,1112362654136175,-0.023924999,-0.0801625,-0.0438625
1679932374302,1112362656638252,-0.0218625,-0.082225,-0.0429
1679932374304,1112362659140483,-0.0229625,-0.0842875,-0.039875
1679932374307,1112362661642636,-0.0218625,-0.0831875,-0.0408375
1679932374309,1112362664144717,-0.017875,-0.0842875,-0.0408375
1679932374313,1112362666646871,-0.0218625,-0.0842875,-0.0389125
1679932374315,1112362669149102,-0.0188375,-0.0842875,-0.034925
1679932374318,1112362671651256,-0.0209,-0.0812625,-0.0319
1679932374320,1112362674153396,-0.0169125,-0.0792,-0.028875
1679932374322,1112362676655550,-0.0138875,-0.0831875,-0.02695
1679932374324,1112362679157703,-0.0138875,-0.0842875,-0.023924999
1679932374327,1112362681660088,-0.0119624995,-0.0782375,-0.0248875
1679932374332,1112362684162232,-0.0119624995,-0.077275,-0.023924999
1679932374333,1112362686664386,-0.0089375,-0.077275,-0.023924999
1679932374334,1112362689166309,-0.0078375,-0.0721875,-0.02695
1679932374337,1112362691668463,-0.0099,-0.0721875,-0.02585
1679932374339,1112362694170847,-0.0108624995,-0.0682,-0.0248875
1679932374341,1112362696673078,-0.0089375,-0.065175,-0.022824999
1679932374344,1112362699175155,-0.006875,-0.0642125,-0.028875
1679932374348,1112362701677309,-0.006875,-0.0622875,-0.0298375
1679932374349,1112362704179463,-0.006875,-0.0572,-0.0328625
1679932374352,1112362706681589,-0.00495,-0.0572,-0.0298375
1679932374354,1112362709183742,-0.0089375,-0.054175,-0.02695
1679932374360,1112362711685973,-0.006875,-0.0462,-0.02695
1679932374360,1112362714188127,-0.0078375,-0.0471625,-0.02585
1679932374362,1112362716690281,-0.006875,-0.0422125,-0.0279125
1679932374365,1112362719192420,-0.0059125,-0.038225,-0.02695
1679932374369,1112362721694574,-0.0059125,-0.038225,-0.02585
1679932374371,1112362724196727,-0.006875,-0.0352,-0.022824999
1679932374373,1112362726698881,-0.00495,-0.033275,-0.0218625
1679932374378,1112362729201218,-0.0059125,-0.03025,-0.023924999
1679932374379,1112362731703372,-0.006875,-0.0312125,-0.022824999
1679932374381,1112362734205526,-0.006875,-0.033275,-0.022824999
1679932374382,1112362736707449,-0.0078375,-0.0342375,-0.023924999
1679932374384,1112362739209603,-0.0108624995,-0.032175,-0.0248875
1679932374387,1112362741711992,-0.0089375,-0.033275,-0.0218625
1679932374389,1112362744214223,-0.0108624995,-0.0342375,-0.0218625
1679932374394,1112362746716300,-0.012925,-0.0352,-0.0218625
1679932374396,1112362749218454,-0.017875,-0.0352,-0.0199375
1679932374398,1112362751720593,-0.0188375,-0.0312125,-0.0199375
1679932374400,1112362754222746,-0.0188375,-0.0342375,-0.0188375
1679932374402,1112362756724900,-0.023924999,-0.0342375,-0.0169125
1679932374407,1112362759227054,-0.02585,-0.0342375,-0.017875
1679932374410,1112362761729271,-0.02585,-0.0342375,-0.01485
1679932374411,1112362764231425,-0.02695,-0.0352,-0.011825
1679932374412,1112362766733579,-0.028875,-0.0352,-0.01595
1679932374415,1112362769235732,-0.0309375,-0.033275,-0.012925
1679932374417,1112362771737886,-0.0309375,-0.032175,-0.0089375
1679932374419,1112362774239953,-0.0328625,-0.0372625,-0.0099
1679932374422,1112362776742415,-0.0339625,-0.0342375,-0.012925
1679932374424,1112362779244569,-0.0328625,-0.0372625,-0.0089375
1679932374428,1112362781746722,-0.0309375,-0.041249998,-0.0089375
1679932374430,1112362784248675,-0.0339625,-0.038225,-0.0089375
1679932374433,1112362786750828,-0.0328625,-0.0372625,-0.006875
1679932374434,1112362789252982,-0.0309375,-0.0372625,-0.00385
1679932374438,1112362791755367,-0.028875,-0.033275,-8.25E-4
1679932374439,1112362794257521,-0.0279125,-0.038225,-8.25E-4
1679932374443,1112362796759636,-0.0229625,-0.041249998,-0.0028875
1679932374447,1112362799261789,-0.0229625,-0.038225,-0.00385
1679932374449,1112362801763943,-0.0209,-0.0342375,0.0011
1679932374451,1112362804266097,-0.023924999,-0.0352,-8.25E-4
1679932374452,1112362806768251,-0.0218625,-0.033275,-8.25E-4
1679932374454,1112362809270477,-0.0209,-0.0361625,-0.001925
1679932374457,1112362811772631,-0.017875,-0.033275,1.375E-4
1679932374459,1112362814274784,-0.0188375,-0.032175,-0.00495
1679932374462,1112362816776938,-0.017875,-0.027224999,-0.0089375
1679932374464,1112362819279106,-0.017875,-0.0262625,-0.0059125
1679932374467,1112362821781260,-0.0169125,-0.0262625,-0.0089375
1679932374469,1112362824283645,-0.0169125,-0.01925,-0.0108624995
1679932374473,1112362826785799,-0.01485,-0.0182875,-0.01595
1679932374475,1112362829287976,-0.0169125,-0.0182875,-0.012925
1679932374478,1112362831789899,-0.01595,-0.01925,-0.012925
1679932374481,1112362834292053,-0.01595,-0.0171875,-0.012925
1679932374483,1112362836794207,-0.012925,-0.0122375,-0.01595
1679932374486,1112362839296578,-0.0138875,-0.011275,-0.01595
1679932374488,1112362841798732,-0.012925,-0.010175,-0.012925
1679932374489,1112362844300885,-0.0138875,-0.010175,-0.012925
1679932374492,1112362846803039,-0.0138875,-0.010175,-0.01595
1679932374494,1112362849305193,-0.0108624995,-0.0092124995,-0.012925
1679932374498,1112362851807351,-0.0108624995,-0.0072875,-0.011825
1679932374500,1112362854309505,-0.0099,-0.0092124995,-0.011825
1679932374502,1112362856811736,-0.0108624995,-0.005225,-0.012925
1679932374504,1112362859313890,-0.0119624995,-0.0031625,-0.011825
1679932374507,1112362861816043,-0.012925,-0.0072875,-0.0108624995
1679932374509,1112362864318212,-0.012925,-0.0061875,-0.0108624995
1679932374513,1112362866820366,-0.012925,-0.005225,-0.0089375
1679932374515,1112362869322520,-0.0108624995,-0.0042625,-0.0089375
1679932374519,1112362871824592,-0.0108624995,-0.0061875,-0.0059125
1679932374521,1112362874327053,-0.0089375,-0.005225,-0.00495
1679932374524,1112362876829207,-0.0108624995,-0.0042625,-0.0059125
1679932374527,1112362879331130,-0.0078375,-0.0092124995,-0.006875
1679932374529,1112362881957626,-0.0078375,-0.011275,-0.0059125
1679932374535,1112362884544318,-0.006875,-0.010175,-0.00495
1679932374536,1112362886837857,-0.00495,-0.00825,-0.006875
1679932374541,1112362889340011,-0.00385,-0.014162499,-0.0099
1679932374543,1112362891842164,-9.625E-4,-0.01925,-0.0108624995
1679932374545,1112362894344322,-0.00385,-0.0171875,-0.0089375
1679932374546,1112362896846476,-0.001925,-0.0171875,-0.0078375
1679932374549,1112362899348630,-0.001925,-0.022275,-0.0099
1679932374551,1112362901850784,0.0011,-0.0262625,-0.012925
1679932374553,1112362904353049,0.0011,-0.0251625,-0.0169125
1679932374558,1112362906855202,-9.625E-4,-0.027224999,-0.0169125
1679932374560,1112362909357356,1.375E-4,-0.0292875,-0.01485
1679932374564,1112362911859510,0.0020625,-0.033275,-0.0209
1679932374567,1112362914361650,1.375E-4,-0.033275,-0.0199375
1679932374569,1112362916863804,-9.625E-4,-0.0352,-0.0169125
1679932374571,1112362919365958,1.375E-4,-0.0361625,-0.017875
1679932374574,1112362921868342,-0.001925,-0.0361625,-0.017875
1679932374576,1112362924370496,0.0011,-0.038225,-0.0209
1679932374579,1112362926872414,1.375E-4,-0.0422125,-0.0218625
1679932374581,1112362929374568,0.0011,-0.041249998,-0.0218625
1679932374583,1112362931876722,0.0031625,-0.041249998,-0.0209
1679932374585,1112362934378876,0.004125,-0.0452375,-0.0199375
1679932374587,1112362936881269,0.0031625,-0.0462,-0.022824999
1679932374590,1112362939383423,0.0031625,-0.043175,-0.0218625
1679932374592,1112362941885577,0.0011,-0.0391875,-0.0199375
1679932374593,1112362944387731,0.0011,-0.044275,-0.023924999
1679932374596,1112362946889885,0.0011,-0.0462,-0.0218625
1679932374598,1112362949392039,1.375E-4,-0.0422125,-0.0188375
1679932374600,1112362952010885,0.0011,-0.041249998,-0.0188375
1679932374601,1112362954396423,1.375E-4,-0.038225,-0.0199375
1679932374604,1112362956898500,-0.001925,-0.0352,-0.0199375
1679932374606,1112362959400654,-0.00385,-0.0361625,-0.0209
1679932374608,1112362961902808,0.0031625,-0.0372625,-0.0188375
1679932374610,1112362964405039,0.0031625,-0.0352,-0.0188375
1679932374613,1112362966907193,0.0011,-0.03025,-0.0209
1679932374615,1112362969409365,0.0011,-0.03025,-0.0199375
1679932374618,1112362971911519,0.00715,-0.03025,-0.0188375
1679932374620,1112362974413673,0.0020625,-0.0292875,-0.0199375
1679932374622,1112362976915827,0.0020625,-0.03025,-0.0188375
1679932374624,1112362979418212,-9.625E-4,-0.0312125,-0.017875
1679932374627,1112362981920375,-0.001925,-0.0312125,-0.0169125
1679932374633,1112362984422299,0.0011,-0.032175,-0.0199375
1679932374634,1112362986924683,0.0011,-0.0312125,-0.0209
1679932374638,1112362989426837,-9.625E-4,-0.03025,-0.0199375
1679932374645,1112362991928991,-9.625E-4,-0.0342375,-0.0218625
1679932374645,1112362994430914,0.0020625,-0.033275,-0.0199375
1679932374645,1112362996933299,0.0031625,-0.0342375,-0.017875
1679932374645,1112362999435452,-9.625E-4,-0.0342375,-0.0199375
1679932374646,1112363001937692,-0.00385,-0.0352,-0.0218625
1679932374649,1112363004439769,-0.0078375,-0.0372625,-0.023924999
1679932374652,1112363006941923,-0.00495,-0.0361625,-0.0248875
1679932374654,1112363009444077,-0.006875,-0.041249998,-0.022824999
1679932374657,1112363011946304,-0.0099,-0.041249998,-0.0218625
1679932374659,1112363014448457,-0.0099,-0.0422125,-0.0218625
1679932374662,1112363016950611,-0.0089375,-0.043175,-0.0218625
1679932374665,1112363019452765,-0.0108624995,-0.0422125,-0.022824999
1679932374668,1112363021954909,-0.0089375,-0.0372625,-0.0199375
1679932374670,1112363024457063,-0.01485,-0.0391875,-0.0199375
1679932374674,1112363026959447,-0.017875,-0.0391875,-0.0218625
1679932374677,1112363029461601,-0.0169125,-0.0422125,-0.0188375
1679932374679,1112363031963755,-0.01485,-0.0391875,-0.0209
1679932374681,1112363034465909,-0.0209,-0.038225,-0.0199375
1679932374682,1112363036968063,-0.0218625,-0.041249998,-0.0169125
1679932374684,1112363039470217,-0.0209,-0.041249998,-0.017875
1679932374687,1112363041972356,-0.0218625,-0.0391875,-0.01595
1679932374689,1112363044474509,-0.023924999,-0.038225,-0.01485
1679932374691,1112363046976663,-0.0229625,-0.038225,-0.01595
1679932374695,1112363049478817,-0.0209,-0.038225,-0.0099
1679932374697,1112363051980933,-0.0229625,-0.0422125,-0.0099
1679932374699,1112363054483087,-0.023924999,-0.0361625,-0.0099
1679932374702,1112363056985241,-0.0209,-0.0352,-0.0089375
1679932374709,1112363059487452,-0.0229625,-0.0372625,-0.0078375
1679932374709,1112363061989606,-0.0209,-0.0352,-0.0059125
1679932374711,1112363064491760,-0.0218625,-0.0342375,-0.0089375
1679932374715,1112363066993914,-0.0229625,-0.0312125,-0.0089375
1679932374717,1112363069496068,-0.0199375,-0.032175,-0.006875
1679932374721,1112363071998217,-0.0199375,-0.032175,-0.0059125
1679932374721,1112363074500371,-0.0199375,-0.0312125,-0.006875
1679932374723,1112363077002755,-0.0188375,-0.03025,-0.011825
1679932374726,1112363079504909,-0.0188375,-0.0262625,-0.0099
1679932374728,1112363082006832,-0.0188375,-0.0202125,-0.011825
1679932374730,1112363084508986,-0.0209,-0.021175,-0.01485
1679932374732,1112363087011395,-0.0188375,-0.0242,-0.01485
1679932374735,1112363089513548,-0.0188375,-0.0202125,-0.01595
1679932374737,1112363092015702,-0.0218625,-0.0171875,-0.0169125
1679932374739,1112363094517856,-0.0209,-0.016224999,-0.012925
1679932374743,1112363097020019,-0.0199375,-0.0132,-0.0089375
1679932374746,1112363099522173,-0.0209,-0.0132,-0.0059125
1679932374749,1112363102024327,-0.0218625,-0.015262499,-0.006875
1679932374750,1112363104526481,-0.023924999,-0.0122375,-0.0099
1679932374752,1112363107028634,-0.023924999,-0.014162499,-0.0059125
1679932374755,1112363109530856,-0.0218625,-0.015262499,-0.0059125
1679932374757,1112363112033010,-0.0248875,-0.014162499,-0.0028875
1679932374759,1112363114535164,-0.0248875,-0.0122375,-0.001925
1679932374762,1112363117037318,-0.0218625,-0.0122375,-0.001925
1679932374765,1112363119539476,-0.023924999,-0.010175,-8.25E-4
1679932374767,1112363122041629,-0.0248875,-0.0122375,1.375E-4
1679932374769,1112363124544014,-0.0229625,-0.016224999,1.375E-4
1679932374772,1112363127046168,-0.02585,-0.014162499,0.004125
1679932374775,1112363129548067,-0.02695,-0.015262499,0.0020625
1679932374777,1112363132050221,-0.028875,-0.01925,0.004125
1679932374781,1112363134552605,-0.0298375,-0.0182875,0.00605
1679932374782,1112363137054759,-0.02695,-0.022275,0.00605
1679932374786,1112363139556909,-0.02695,-0.0253,0.009075
1679932374788,1112363142059063,-0.0290125,-0.021175,0.009075
1679932374789,1112363144561217,-0.0279125,-0.0292875,0.0061875
1679932374792,1112363147063371,-0.0290125,-0.0342375,0.00715
1679932374795,1112363149565525,-0.0290125,-0.0342375,0.010175
1679932374797,1112363152067678,-0.0279125,-0.0352,0.010175
1679932374799,1112363154569832,-0.029975,-0.043175,0.009075
1679932374802,1112363157072063,-0.0290125,-0.0422125,0.0121
1679932374805,1112363159574217,-0.0279125,-0.0422125,0.014162499
1679932374807,1112363162076342,-0.0259875,-0.049225,0.014162499
1679932374809,1112363164578496,-0.0259875,-0.052249998,0.0121
1679932374812,1112363167080649,-0.0339625,-0.0532125,0.015125
1679932374817,1112363169582803,-0.0279125,-0.055275,0.015125
1679932374819,1112363172085154,-0.0290125,-0.0583,0.015125
1679932374821,1112363174587308,-0.0290125,-0.0611875,0.014162499
1679932374822,1112363177089231,-0.0290125,-0.0592625,0.014162499
1679932374825,1112363179591385,-0.029975,-0.0592625,0.013062499
1679932374827,1112363182093539,-0.029975,-0.0642125,0.014162499
1679932374829,1112363184595933,-0.029975,-0.066275,0.013062499
1679932374833,1112363187097856,-0.0309375,-0.0672375,0.014162499
1679932374835,1112363189600241,-0.033,-0.069299996,0.0121
1679932374837,1112363192102395,-0.033,-0.0702625,0.013062499
1679932374840,1112363194604568,-0.0389125,-0.071225,0.0111375
1679932374842,1112363197106721,-0.0389125,-0.07425,0.009075
1679932374845,1112363199608875,-0.040975,-0.0803,0.0081124995
1679932374848,1112363202111029,-0.044,-0.0782375,0.0061875
1679932374849,1112363204613260,-0.045925,-0.082225,0.0020625
1679932374852,1112363207115409,-0.04895,-0.088275,0.0011
1679932374857,1112363209617563,-0.0499125,-0.0941875,-8.25E-4
1679932374859,1112363212119717,-0.0539,-0.098175,-8.25E-4
1679932374860,1112363214621798,-0.0578875,-0.1023,-0.00385
1679932374862,1112363217124029,-0.062975,-0.1082125,-0.0048125
1679932374865,1112363219626414,-0.0669625,-0.1082125,-0.0089375
1679932374867,1112363222128568,-0.0688875,-0.111237496,-0.011825
1679932374869,1112363224630491,-0.073975,-0.1161875,-0.0108624995
1679932374873,1112363227132683,-0.0749375,-0.1243,-0.0108624995
1679932374876,1112363229634836,-0.0798875,-0.12925,-0.01485
1679932374877,1112363232137221,-0.0859375,-0.1332375,-0.012925
1679932374879,1112363234639375,-0.09295,-0.14025,-0.0169125
1679932374882,1112363237141529,-0.0969375,-0.142175,-0.0188375
1679932374885,1112363239643683,-0.0979,-0.1452,-0.0209
1679932374887,1112363242145837,-0.10395,-0.153175,-0.0209
1679932374889,1112363244647990,-0.1079375,-0.1582625,-0.0209
1679932374894,1112363247150221,-0.11,-0.1692625,-0.022824999
1679932374897,1112363249652380,-0.111925,-0.1821875,-0.0248875
1679932374898,1112363252154534,-0.11495,-0.18425,-0.0248875
1679932374899,1112363254656688,-0.1199,-0.19525,-0.0248875
1679932374902,1112363257158765,-0.1238875,-0.20927499,-0.023924999
1679932374905,1112363259660918,-0.1269125,-0.2151875,-0.02585
1679932374907,1112363262163139,-0.132,-0.2233,-0.0279125
1679932374909,1112363264665524,-0.1329625,-0.230175,-0.0319
1679932374912,1112363267167447,-0.1309,-0.2343,-0.033825
1679932374916,1112363269669601,-0.1359875,-0.242275,-0.036849998
1679932374918,1112363272171760,-0.1390125,-0.2432375,-0.034925
1679932374920,1112363274673914,-0.1379125,-0.24419999,-0.034925
1679932374922,1112363277176067,-0.1390125,-0.24419999,-0.0358875
1679932374925,1112363279678452,-0.1379125,-0.242275,-0.036849998
1679932374927,1112363282180606,-0.1359875,-0.2343,-0.0389125
1679932374931,1112363284682770,-0.133925,-0.2332,-0.039875
1679932374933,1112363287184924,-0.1379125,-0.2272875,-0.0408375
1679932374936,1112363289687077,-0.1390125,-0.2162875,-0.0389125
1679932374937,1112363292189231,-0.13695,-0.2123,-0.036849998
1679932374939,1112363294691462,-0.1390125,-0.203225,-0.0378125
1679932374942,1112363297193553,-0.139975,-0.1962125,-0.0389125
1679932374949,1112363299695784,-0.139975,-0.18727499,-0.0408375
1679932374950,1112363302197938,-0.14093749,-0.181225,-0.0389125
1679932374951,1112363304700015,-0.14093749,-0.170225,-0.034925
1679932374953,1112363307202163,-0.1439625,-0.159225,-0.034925
1679932374958,1112363309704317,-0.144925,-0.1472625,-0.033825
1679932374959,1112363312206548,-0.1500125,-0.1412125,-0.0328625
1679932374960,1112363314708702,-0.155925,-0.1353,-0.028875
1679932374962,1112363317210856,-0.15895,-0.1243,-0.0268125
1679932374966,1112363319713026,-0.1599125,-0.1161875,-0.02585
1679932374971,1112363322215179,-0.1639,-0.115225,-0.0199375
1679932374972,1112363324717333,-0.1689875,-0.1082125,-0.0188375
1679932374973,1112363327219718,-0.1689875,-0.0972125,-0.0158125
1679932374976,1112363329721872,-0.1720125,-0.0922625,-0.0089375
1679932374978,1112363332224026,-0.1739375,-0.088275,-0.0048125
1679932374980,1112363334726179,-0.1720125,-0.08525,-0.0028875
1679932374982,1112363337228333,-0.1720125,-0.0782375,1.375E-4
1679932374986,1112363339730487,-0.1749,-0.076175,0.0031625
1679932374987,1112363342232727,-0.177925,-0.069299996,0.0050875
1679932374990,1112363344734804,-0.1819125,-0.0642125,0.0081124995
1679932374993,1112363347237035,-0.1819125,-0.060225,0.0111375
1679932374996,1112363349739188,-0.1898875,-0.0611875,0.0111375
1679932374998,1112363352241347,-0.1898875,-0.055275,0.015125
1679932374999,1112363354743424,-0.1898875,-0.052249998,0.021175
1679932375002,1112363357245578,-0.1959375,-0.052249998,0.0240625
1679932375008,1112363359747819,-0.1989625,-0.049225,0.0251625
1679932375009,1112363362249973,-0.1989625,-0.044275,0.026124999
1679932375011,1112363364752127,-0.2039125,-0.0452375,0.0301125
1679932375014,1112363367254280,-0.205975,-0.044275,0.0301125
1679932375016,1112363369756434,-0.205975,-0.0422125,0.032175
1679932375018,1112363372258588,-0.2099625,-0.0422125,0.0341
1679932375019,1112363374760949,-0.210925,-0.0422125,0.0380875
1679932375022,1112363377263103,-0.2129875,-0.038225,0.0411125
1679932375026,1112363379765256,-0.2129875,-0.0372625,0.0441375
1679932375028,1112363382267410,-0.2189,-0.0372625,0.0441375
1679932375030,1112363384769564,-0.221925,-0.0363,0.0441375
1679932375033,1112363387271718,-0.2209625,-0.0352,0.0460625
1679932375036,1112363389773872,-0.2239875,-0.0352,0.0471625
1679932375038,1112363392276026,-0.2228875,-0.033275,0.0501875
1679932375041,1112363394778270,-0.2239875,-0.0342375,0.0521125
1679932375044,1112363397280424,-0.2259125,-0.033275,0.053075
1679932375046,1112363399782578,-0.227975,-0.0281875,0.0551375
1679932375048,1112363402284655,-0.22495,-0.0292875,0.0551375
1679932375050,1112363404786823,-0.2259125,-0.0292875,0.0551375
1679932375053,1112363407289054,-0.22893749,-0.0262625,0.0570625
1679932375056,1112363409791208,-0.2259125,-0.0202125,0.0581625
1679932375058,1112363412293361,-0.2270125,-0.0122375,0.0581625
1679932375060,1112363414795515,-0.2270125,-0.0132,0.0611875
1679932375062,1112363417297689,-0.227975,-0.0122375,0.0600875
1679932375066,1112363419799843,-0.2270125,-0.0061875,0.0600875
1679932375067,1112363422302228,-0.221925,-2.75E-4,0.0611875
1679932375070,1112363424804376,-0.2189,0.0017875,0.0611875
1679932375073,1112363427306530,-0.2179375,0.005775,0.064075
1679932375076,1112363429808684,-0.2189,0.0127875,0.0691625
1679932375078,1112363432310838,-0.2189,0.0187,0.0710875
1679932375082,1112363434812987,-0.2179375,0.021724999,0.07205
1679932375084,1112363437315141,-0.2189,0.027775,0.0801625
1679932375086,1112363439817295,-0.2160125,0.0317625,0.0831875
1679932375088,1112363442319448,-0.2129875,0.0347875,0.0900625
1679932375090,1112363444821602,-0.2129875,0.038775,0.09515
1679932375092,1112363447323809,-0.21395,0.0488125,0.1021625
1679932375100,1112363449825886,-0.2149125,0.0488125,0.1051875
1679932375102,1112363452328040,-0.20899999,0.0517,0.1111
1679932375104,1112363454830271,-0.2099625,0.055825,0.122099996
1679932375105,1112363457332414,-0.2118875,0.0598125,0.125125
1679932375108,1112363459834568,-0.2079,0.060775,0.13213749
1679932375110,1112363462336722,-0.20693749,0.0627,0.136125
1679932375112,1112363464838876,-0.2079,0.0617375,0.1401125
1679932375113,1112363467341030,-0.2079,0.0647625,0.142175
1679932375116,1112363469843184,-0.2079,0.066825,0.1461625
1679932375120,1112363472345568,-0.205975,0.06875,0.15015
1679932375121,1112363474847722,-0.2039125,0.0727375,0.15413749
1679932375124,1112363477349896,-0.20295,0.076725,0.158125
1679932375127,1112363479852050,-0.2050125,0.077825,0.158125
1679932375129,1112363482354204,-0.2039125,0.0757625,0.1590875
1679932375130,1112363484856358,-0.199925,0.0787875,0.1621125
1679932375133,1112363487358511,-0.1959375,0.0858,0.1621125
1679932375135,1112363489860659,-0.199925,0.0867625,0.163075
1679932375137,1112363492362890,-0.199925,0.087725,0.163075
1679932375140,1112363494865044,-0.20295,0.0897875,0.163075
1679932375142,1112363497367121,-0.198,0.0977625,0.164175
1679932375146,1112363499869260,-0.198,0.10175,0.1651375
1679932375148,1112363502371414,-0.1989625,0.10175,0.163075
1679932375150,1112363504873644,-0.1989625,0.1067,0.1661
1679932375154,1112363507375798,-0.199925,0.110825,0.1661
1679932375158,1112363509877948,-0.194975,0.11275,0.169125
1679932375159,1112363512380102,-0.1959375,0.1197625,0.1681625
1679932375161,1112363514882487,-0.1929125,0.121825,0.1681625
1679932375163,1112363517384410,-0.1929125,0.1258125,0.1700875
1679932375166,1112363519886563,-0.1929125,0.12773749,0.17215
1679932375168,1112363522388721,-0.1898875,0.1287,0.17407499
1679932375170,1112363524890875,-0.188925,0.12979999,0.17407499
1679932375172,1112363527393029,-0.1898875,0.12979999,0.17613749
1679932375175,1112363529895414,-0.1859,0.12979999,0.17613749
1679932375178,1112363532397568,-0.18095,0.1307625,0.1780625
1679932375180,1112363534899713,-0.1819125,0.131725,0.1780625
1679932375182,1112363537401867,-0.1799875,0.131725,0.175175
1679932375187,1112363539904021,-0.1769625,0.132825,0.1780625
1679932375188,1112363542406175,-0.1769625,0.131725,0.1791625
1679932375190,1112363544908419,-0.1769625,0.1227875,0.1791625
1679932375197,1112363547410573,-0.1769625,0.1197625,0.180125
1679932375201,1112363549912713,-0.1720125,0.1188,0.1771
1679932375202,1112363552870867,-0.1689875,0.1188,0.175175
1679932375203,1112363555011175,-0.16499999,0.1167375,0.1711875
1679932375204,1112363557419098,-0.1610125,0.1137125,0.169125
1679932375206,1112363559921252,-0.15895,0.1137125,0.1700875
1679932375209,1112363562423713,-0.1568875,0.1137125,0.1661
1679932375210,1112363564925637,-0.154,0.109725,0.1621125
1679932375212,1112363567427790,-0.1549625,0.109725,0.158125
1679932375216,1112363569929944,-0.1529,0.1067,0.1551
1679932375217,1112363572432098,-0.1489125,0.1067,0.152075
1679932375220,1112363574934247,-0.1489125,0.1027125,0.147125
1679932375222,1112363577436632,-0.1469875,0.10175,0.1450625
1679932375226,1112363579938785,-0.144925,0.1038125,0.1431375
1679932375227,1112363582440939,-0.143,0.098725,0.1401125
1679932375232,1112363584943064,-0.1419,0.09075,0.136125
1679932375234,1112363587445218,-0.14093749,0.0867625,0.13213749
1679932375237,1112363589947372,-0.1379125,0.087725,0.13213749
1679932375239,1112363592449526,-0.133925,0.0818125,0.12815
1679932375240,1112363594951756,-0.1309,0.0818125,0.1260875
1679932375245,1112363597453900,-0.1309,0.0787875,0.120175
1679932375247,1112363599956054,-0.1299375,0.0757625,0.11715
1679932375248,1112363602458131,-0.1309,0.0697125,0.1161875
1679932375250,1112363604960285,-0.1299375,0.06875,0.1131625
1679932375252,1112363607462536,-0.12595,0.0647625,0.1101375
1679932375255,1112363609964920,-0.1280125,0.0627,0.1071125
1679932375257,1112363612466843,-0.1269125,0.054725,0.10615
1679932375262,1112363614968997,-0.1249875,0.0528,0.1040875
1679932375268,1112363617471165,-0.12595,0.0517,0.1021625
1679932375269,1112363619973319,-0.1299375,0.0488125,0.1021625
1679932375269,1112363622475473,-0.1269125,0.0477125,0.0991375
1679932375271,1112363624977627,-0.122925,0.0477125,0.09515
1679932375274,1112363627480021,-0.1219625,0.044825,0.092125
1679932375277,1112363629982175,-0.122925,0.0407,0.0891
1679932375279,1112363632484329,-0.1189375,0.0397375,0.0911625
1679932375281,1112363634986483,-0.1189375,0.0407,0.0881375
1679932375282,1112363637488637,-0.1170125,0.0427625,0.0790625
1679932375286,1112363639990786,-0.1208625,0.0408375,0.076175
1679932375287,1112363642493016,-0.116875,0.0397375,0.07205
1679932375290,1112363644995170,-0.11495,0.0408375,0.0691625
1679932375292,1112363647497324,-0.1128875,0.0408375,0.065175
1679932375296,1112363649999377,-0.1109625,0.043725,0.064075
1679932375298,1112363652501531,-0.1079375,0.04675,0.059125
1679932375300,1112363655003685,-0.1079375,0.0457875,0.0551375
1679932375302,1112363657506146,-0.10285,0.0408375,0.0521125
1679932375310,1112363660008048,-0.10285,0.0408375,0.048125
1679932375310,1112363662510202,-0.10285,0.0397375,0.0451
1679932375311,1112363665012356,-0.0979,0.038775,0.042075
1679932375316,1112363667514510,-0.0988625,0.0367125,0.0411125
1679932375318,1112363670016664,-0.095975,0.032725,0.04015
1679932375319,1112363672518814,-0.094875,0.0298375,0.0361625
1679932375323,1112363675021198,-0.095975,0.0268125,0.0361625
1679932375324,1112363677523352,-0.094875,0.0268125,0.037125
1679932375326,1112363680025506,-0.0939125,0.0237875,0.0380875
1679932375328,1112363682527660,-0.09295,0.0237875,0.0380875
1679932375330,1112363685029814,-0.0878625,0.022824999,0.0380875
1679932375332,1112363687531737,-0.089925,0.022824999,0.037125
1679932375336,1112363690034198,-0.0859375,0.022824999,0.037125
1679932375337,1112363692536352,-0.083875,0.0177375,0.037125
1679932375340,1112363695038506,-0.0829125,0.016775,0.0331375
1679932375346,1112363697540597,-0.0798875,0.016775,0.031075
1679932375349,1112363700042751,-0.0768625,0.014712499,0.02805
1679932375349,1112363702544905,-0.073975,0.0177375,0.026124999
1679932375350,1112363705047063,-0.07095,0.011825,0.0240625
1679932375354,1112363707549294,-0.0669625,0.010725,0.0191125
1679932375356,1112363710051448,-0.064899996,0.010725,0.0160875
1679932375358,1112363712553602,-0.061875,0.0078375,0.014162499
1679932375360,1112363715055756,-0.0559625,0.0078375,0.010175
1679932375362,1112363717557910,-0.04895,0.0078375,0.009075
1679932375366,1112363720060063,-0.045925,0.0048125,0.0031625
1679932375367,1112363722562448,-0.039875,0.0037125,-8.25E-4
1679932375370,1112363725064602,-0.040975,-2.75E-4,-8.25E-4
1679932375373,1112363727566760,-0.0389125,-2.75E-4,-0.0028875
1679932375377,1112363730068914,-0.0339625,-0.0031625,-0.0099
1679932375378,1112363732571067,-0.0279125,-0.0031625,-0.012925
1679932375382,1112363735073221,-0.02695,-0.0061875,-0.01595
1679932375383,1112363737575371,-0.02585,-0.00825,-0.0169125
1679932375386,1112363740077525,-0.023924999,-0.011275,-0.0199375
1679932375388,1112363742579756,-0.0209,-0.0132,-0.023924999
1679932375390,1112363745081910,-0.017875,-0.014162499,-0.02695
1679932375393,1112363747583962,-0.0108624995,-0.0182875,-0.028875
1679932375396,1112363750086115,-0.006875,-0.022275,-0.0279125
1679932375398,1112363752588269,-0.001925,-0.0281875,-0.0298375
1679932375399,1112363755090500,-9.625E-4,-0.03025,-0.0358875
1679932375402,1112363757592654,1.375E-4,-0.03025,-0.039875
1679932375406,1112363760094832,0.003025,-0.033275,-0.0419375
1679932375407,1112363762596986,0.00715,-0.043175,-0.045925
1679932375410,1112363765099139,0.0111375,-0.0471625,-0.050875
1679932375412,1112363767601293,0.013062499,-0.0452375,-0.0529375
1679932375417,1112363770103693,0.0191125,-0.0482625,-0.0548625
1679932375419,1112363772605847,0.0221375,-0.052249998,-0.058849998
1679932375421,1112363775108001,0.0231,-0.049225,-0.0609125
1679932375423,1112363777610154,0.025024999,-0.0471625,-0.064899996
1679932375426,1112363780112303,0.0270875,-0.054175,-0.06985
1679932375428,1112363782614457,0.0240625,-0.0572,-0.0738375
1679932375430,1112363785116380,0.0221375,-0.055275,-0.0738375
1679932375433,1112363787618765,0.020075,-0.0532125,-0.0768625
1679932375436,1112363790120991,0.0210375,-0.0512875,-0.078925
1679932375438,1112363792623068,0.0231,-0.0501875,-0.08085
1679932375440,1112363795125221,0.0240625,-0.0482625,-0.077825
1679932375443,1112363797627452,0.0221375,-0.0482625,-0.08195
1679932375446,1112363800129606,0.025024999,-0.0471625,-0.08085
1679932375448,1112363802631760,0.0270875,-0.0462,-0.078925
1679932375450,1112363805133914,0.0270875,-0.0501875,-0.08085
1679932375453,1112363807636068,0.026124999,-0.049225,-0.08085
1679932375458,1112363810138197,0.026124999,-0.049225,-0.08195
1679932375459,1112363812640582,0.025024999,-0.0482625,-0.0768625
1679932375461,1112363815142736,0.0221375,-0.0462,-0.0749375
1679932375465,1112363817644659,0.020075,-0.0452375,-0.077825
1679932375467,1112363820146813,0.020075,-0.0462,-0.0749375
1679932375468,1112363822648977,0.020075,-0.0471625,-0.07095
1679932375470,1112363825151361,0.0191125,-0.0462,-0.067925
1679932375473,1112363827653284,0.0160875,-0.049225,-0.0658625
1679932375477,1112363830155669,0.0121,-0.0462,-0.0628375
1679932375479,1112363832657827,0.013062499,-0.0501875,-0.058849998
1679932375480,1112363835159981,0.0111375,-0.0532125,-0.0548625
1679932375482,1112363837662135,0.0121,-0.0532125,-0.0499125
1679932375486,1112363840164288,0.0100375,-0.0611875,-0.04895
1679932375487,1112363842666442,0.00715,-0.0622875,-0.0429
1679932375490,1112363845168673,0.00605,-0.0592625,-0.0408375
1679932375497,1112363847670827,0.0050875,-0.0642125,-0.0358875
1679932375500,1112363850172981,1.375E-4,-0.066275,-0.0298375
1679932375501,1112363852675135,-9.625E-4,-0.0672375,-0.0298375
1679932375502,1112363855177208,-0.0059125,-0.0691625,-0.0319
1679932375503,1112363857679438,-0.007975,-0.0752125,-0.0279125
1679932375506,1112363860181823,-0.007975,-0.0792,-0.02585
1679932375507,1112363862683977,-0.01595,-0.0801625,-0.0279125
1679932375516,1112363865185876,-0.0199375,-0.0842875,-0.0279125
1679932375518,1112363867688030,-0.023924999,-0.0862125,-0.02695
1679932375519,1112363870190184,-0.028875,-0.0941875,-0.02695
1679932375522,1112363872692568,-0.0279125,-0.0972125,-0.0298375
1679932375523,1112363875194486,-0.0309375,-0.1012,-0.0298375
1679932375525,1112363877696871,-0.0328625,-0.100237496,-0.0328625
1679932375528,1112363882699025,-0.036849998,-0.1051875,-0.039875
1679932375529,1112363882837486,-0.0389125,-0.1142625,-0.039875
1679932375533,1112363885203333,-0.0389125,-0.1122,-0.0419375
1679932375536,1112363887705486,-0.0419375,-0.115225,-0.045925
1679932375537,1112363892707640,-0.0419375,-0.11825,-0.0499125
1679932375539,1112363892812640,-0.0429,-0.115225,-0.047849998
1679932375541,1112363895212025,-0.040975,-0.115225,-0.04895
1679932375543,1112363897714208,-0.0419375,-0.1122,-0.045925
1679932375546,1112363900216362,-0.039875,-0.1122,-0.0518375
1679932375548,1112363902718515,-0.0339625,-0.1082125,-0.055825
1679932375550,1112363905220669,-0.0328625,-0.100237496,-0.055825
1679932375554,1112363907722842,-0.028875,-0.09625,-0.056925
1679932375556,1112363910225227,-0.0229625,-0.08525,-0.05995
1679932375558,1112363912727150,-0.0229625,-0.0752125,-0.0628375
1679932375560,1112363915229304,-0.0199375,-0.0611875,-0.064899996
1679932375563,1112363917731458,-0.01485,-0.0482625,-0.061875
1679932375566,1112363920233616,-0.0089375,-0.032175,-0.056925
1679932375570,1112363922735770,-0.00385,-0.014162499,-0.056925
1679932375572,1112363925238155,-9.625E-4,-0.0022,-0.055825
1679932375574,1112363927740309,0.0050875,0.0127875,-0.0529375
1679932375577,1112363930242453,0.00605,0.0268125,-0.050875
1679932375579,1112363932744606,0.0081124995,0.038775,-0.0499125
1679932375582,1112363935246760,0.0111375,0.055825,-0.044825
1679932375583,1112363937748914,0.015125,0.0638,-0.0438625
1679932375586,1112363940251054,0.0160875,0.076725,-0.0389125
1679932375588,1112363942753285,0.013062499,0.0848375,-0.0319
1679932375591,1112363945255439,0.0160875,0.087725,-0.0319
1679932375593,1112363947757592,0.01815,0.09075,-0.02695
1679932375596,1112363950259741,0.0160875,0.0928125,-0.0209
1679932375598,1112363952761818,0.0111375,0.088825,-0.01595
1679932375600,1112363955264049,0.0111375,0.0867625,-0.0108624995
1679932375603,1112363957766434,0.009075,0.082775,-0.0099
1679932375607,1112363960268357,0.00715,0.0757625,-0.0059125
1679932375609,1112363962770511,0.003025,0.0628375,-0.00495
1679932375611,1112363965272664,0.0011,0.0528,-0.00385
1679932375613,1112363967774818,-0.001925,0.044825,0.0011
1679932375616,1112363970276972,-0.001925,0.032725,-8.25E-4
1679932375618,1112363972779361,-0.00495,0.0188375,0.0031625
1679932375620,1112363975281515,-0.0108624995,0.005775,0.0011
1679932375623,1112363977783668,-0.012925,-0.0092124995,0.0020625
1679932375625,1112363980285822,-0.01485,-0.021175,-8.25E-4
1679932375627,1112363982787976,-0.01485,-0.0281875,-0.001925
1679932375631,1112363985290150,-0.0209,-0.0462,1.375E-4
1679932375632,1112363987792304,-0.0218625,-0.0572,-8.25E-4
1679932375636,1112363990294535,-0.0229625,-0.0642125,-0.0028875
1679932375638,1112363992796688,-0.0248875,-0.07425,-0.0028875
1679932375640,1112363995298866,-0.02695,-0.082225,1.375E-4
1679932375644,1112363997801020,-0.02695,-0.0862125,0.0011
1679932375647,1112364000303097,-0.0279125,-0.093225,0.0011
1679932375649,1112364002805255,-0.02695,-0.0952875,0.0020625
1679932375651,1112364005307716,-0.02695,-0.0972125,0.004125
1679932375653,1112364007809640,-0.0309375,-0.104225,0.00605
1679932375655,1112364010311793,-0.028875,-0.10725,0.0081124995
1679932375657,1112364012813947,-0.0279125,-0.1032625,0.0081124995
1679932375660,1112364015316121,-0.0279125,-0.10725,0.009075
1679932375663,1112364017818275,-0.02695,-0.1051875,0.0081124995
1679932375667,1112364020320429,-0.02695,-0.100237496,0.0111375
1679932375668,1112364022822813,-0.0248875,-0.0952875,0.010175
1679932375671,1112364025324962,-0.02585,-0.0902,0.0191125
1679932375673,1112364027827116,-0.023924999,-0.0842875,0.0160875
1679932375676,1112364030329270,-0.0218625,-0.076175,0.01705
1679932375678,1112364032831424,-0.0218625,-0.0691625,0.021175
1679932375682,1112364035333597,-0.0229625,-0.060225,0.020075
1679932375684,1112364037835827,-0.0218625,-0.055275,0.0221375
1679932375686,1112364040337981,-0.018975,-0.0452375,0.0221375
1679932375689,1112364042840135,-0.018975,-0.0352,0.0221375
1679932375690,1112364045342289,-0.017875,-0.0312125,0.0231
1679932375693,1112364047844366,-0.0169125,-0.0251625,0.0231
1679932375696,1112364050346597,-0.01485,-0.015262499,0.020075
1679932375698,1112364052848981,-0.0169125,-0.0122375,0.0221375
1679932375700,1112364055351135,-0.01595,-0.005225,0.020075
1679932375703,1112364057853034,-0.01595,0.00275,0.020075
1679932375706,1112364060355188,-0.017875,0.0048125,0.0191125
1679932375708,1112364062857342,-0.0138875,0.0067375,0.01705
1679932375711,1112364065359727,-0.0169125,0.010725,0.0160875
1679932375713,1112364067861650,-0.017875,0.0127875,0.0160875
1679932375716,1112364070364034,-0.017875,0.011825,0.0160875
1679932375719,1112364072866188,-0.017875,0.0127875,0.0191125
1679932375722,1112364075368111,-0.018975,0.0127875,0.0191125
1679932375724,1112364077870241,-0.0218625,0.011825,0.01705
1679932375727,1112364080372626,-0.0209,0.01375,0.014162499
1679932375728,1112364082874780,-0.0218625,0.0127875,0.013062499
1679932375732,1112364085376933,-0.0248875,0.011825,0.013062499
1679932375733,1112364087879087,-0.02585,0.0097624995,0.014162499
1679932375736,1112364090381227,-0.02585,0.005775,0.010175
1679932375737,1112364092883381,-0.0279125,0.0048125,0.0081124995
1679932375740,1112364095385612,-0.028875,-0.0031625,0.0121
1679932375743,1112364097887766,-0.0328625,-2.75E-4,0.0121
1679932375746,1112364100389899,-0.0339625,8.25E-4,0.0081124995
1679932375748,1112364102892053,-0.0319,-0.005225,0.010175
1679932375752,1112364105394207,-0.0339625,-0.0061875,0.0121
1679932375753,1112364107896361,-0.0389125,-0.00825,0.0121
1679932375757,1112364110398515,-0.0389125,-0.0092124995,0.0121
1679932375759,1112364112900900,-0.0358875,-0.010175,0.013062499
1679932375761,1112364115403053,-0.036849998,-0.015262499,0.0111375
1679932375763,1112364117905207,-0.036849998,-0.01925,0.009075
1679932375766,1112364120407361,-0.0389125,-0.016224999,0.0081124995
1679932375768,1112364122909506,-0.040975,-0.0202125,0.00715
1679932375770,1112364125411429,-0.0389125,-0.0182875,0.0050875
1679932375773,1112364127913814,-0.0389125,-0.0202125,0.004125
1679932375776,1112364130415967,-0.0429,-0.0202125,0.0031625
1679932375778,1112364132918130,-0.0419375,-0.0281875,-8.25E-4
1679932375780,1112364135420284,-0.040975,-0.0251625,-8.25E-4
1679932375784,1112364137922438,-0.0429,-0.0251625,-0.001925
1679932375786,1112364140424592,-0.0429,-0.027224999,-0.0028875
1679932375787,1112364142926746,-0.040975,-0.032175,-0.00495
1679932375791,1112364145428977,-0.0429,-0.033275,-0.00495
1679932375795,1112364147931130,-0.0438625,-0.0342375,-0.00385
1679932375798,1112364150433284,-0.0438625,-0.0342375,-0.0099
1679932375799,1112364152935424,-0.0429,-0.033275,-0.0108624995
1679932375801,1112364155437578,-0.040975,-0.0352,-0.012925
1679932375803,1112364157939732,-0.040975,-0.033275,-0.01485
1679932375805,1112364160442116,-0.0429,-0.0352,-0.01595
1679932375808,1112364162944039,-0.039875,-0.032175,-0.017875
1679932375810,1112364165446395,-0.0419375,-0.0292875,-0.0188375
1679932375813,1112364167948549,-0.039875,-0.027224999,-0.0169125
1679932375816,1112364170450703,-0.03795,-0.0312125,-0.0188375
1679932375818,1112364172952626,-0.0389125,-0.0281875,-0.0199375
1679932375820,1112364175455021,-0.03795,-0.027224999,-0.0169125
1679932375823,1112364177957174,-0.03795,-0.021175,-0.01485
1679932375826,1112364180459328,-0.0369875,-0.0171875,-0.012925
1679932375828,1112364182961482,-0.0339625,-0.016224999,-0.01595
1679932375833,1112364185463612,-0.0328625,-0.0143,-0.0188375
1679932375835,1112364187965766,-0.0328625,-0.011275,-0.012925
1679932375838,1112364190467920,-0.0339625,-0.0061875,-0.011825
1679932375839,1112364192970150,-0.0369875,-0.0033,-0.012925
1679932375841,1112364195472304,-0.0369875,-2.75E-4,-0.012925
1679932375843,1112364197974463,-0.0328625,0.00275,-0.0089375
1679932375847,1112364200476617,-0.0319,0.0077,-0.0099
1679932375848,1112364202978771,-0.0319,0.010725,-0.0059125
1679932375851,1112364205480925,-0.029975,0.010725,-0.0028875
1679932375853,1112364207983304,-0.029975,0.01375,1.375E-4
1679932375856,1112364210485227,-0.029975,0.014712499,1.375E-4
1679932375858,1112364212987381,-0.028875,0.01375,-8.25E-4
1679932375860,1112364215489535,-0.02695,0.0097624995,-0.00385
1679932375863,1112364217991939,-0.028875,0.0067375,-0.001925
1679932375866,1112364220493862,-0.0279125,0.011825,1.375E-4
1679932375869,1112364222996016,-0.029975,0.010725,0.004125
1679932375872,1112364225498400,-0.0319,0.0077,-8.25E-4
1679932375874,1112364228000583,-0.0279125,0.0077,0.0011
1679932375877,1112364230502737,-0.02695,0.0067375,0.00605
1679932375879,1112364233004891,-0.0259875,0.0048125,0.009075
1679932375881,1112364235507045,-0.028875,8.25E-4,0.010175
1679932375883,1112364238009199,-0.02695,-2.75E-4,0.0111375
1679932375888,1112364240511415,-0.023924999,0.0017875,0.0111375
1679932375894,1112364243013569,-0.0259875,8.25E-4,0.0121
1679932375894,1112364245515723,-0.02695,8.25E-4,0.014162499
1679932375894,1112364248017800,-0.0279125,-0.0012375,0.01705
1679932375895,1112364250520031,-0.028875,-0.0042625,0.021175
1679932375897,1112364253022185,-0.0259875,-0.0033,0.020075
1679932375900,1112364255524569,-0.023924999,-0.0022,0.0221375
1679932375902,1112364258026492,-0.0248875,-0.0072875,0.0240625
1679932375907,1112364260528684,-0.0248875,-0.0132,0.026124999
1679932375909,1112364263030838,-0.0259875,-0.0132,0.026124999
1679932375911,1112364265533223,-0.0279125,-0.0132,0.02915
1679932375913,1112364268035146,-0.029975,-0.0182875,0.0301125
1679932375917,1112364270537319,-0.029975,-0.021175,0.0301125
1679932375919,1112364273039703,-0.02695,-0.021175,0.0301125
1679932375921,1112364275541857,-0.029975,-0.0202125,0.032175
1679932375923,1112364278044011,-0.0319,-0.0242,0.0361625
1679932375926,1112364280546165,-0.0319,-0.0242,0.037125
1679932375928,1112364283048333,-0.0328625,-0.0242,0.037125
1679932375931,1112364285550486,-0.0319,-0.0262625,0.039049998
1679932375933,1112364288052717,-0.0358875,-0.0262625,0.04015
1679932375936,1112364290554871,-0.0369875,-0.0262625,0.042075
1679932375938,1112364293057025,-0.0339625,-0.0281875,0.04015
1679932375940,1112364295559111,-0.03795,-0.0253,0.042075
1679932375944,1112364298061265,-0.039875,-0.021175,0.0411125
1679932375948,1112364300563495,-0.039875,-0.0242,0.0411125
1679932375948,1112364303065649,-0.0369875,-0.0262625,0.0411125
1679932375951,1112364305567785,-0.0389125,-0.0202125,0.0411125
1679932375953,1112364308069939,-0.039875,-0.0202125,0.039049998
1679932375956,1112364310572093,-0.03795,-0.0202125,0.0380875
1679932375957,1112364313074247,-0.03795,-0.0202125,0.039049998
1679932375960,1112364315576401,-0.040975,-0.0202125,0.039049998
1679932375963,1112364318078568,-0.040975,-0.015262499,0.0341
1679932375966,1112364320580953,-0.0419375,-0.015262499,0.0301125
1679932375968,1112364323083107,-0.0438625,-0.0122375,0.032175
1679932375970,1112364325585261,-0.0449625,-0.0122375,0.031075
1679932375973,1112364328087424,-0.0468875,-0.0122375,0.02915
1679932375976,1112364330589577,-0.045925,-0.00825,0.02805
1679932375978,1112364333091731,-0.0419375,-0.0061875,0.02915
1679932375982,1112364335593885,-0.0438625,-0.005225,0.02805
1679932375983,1112364338096131,-0.045925,8.25E-4,0.02805
1679932375986,1112364340598285,-0.0479875,-0.0022,0.02915
1679932375988,1112364343100362,-0.045925,-0.0012375,0.026124999
1679932375991,1112364345602516,-0.0468875,0.005775,0.02915
1679932375993,1112364348104669,-0.0479875,0.0067375,0.02805
1679932375996,1112364350606900,-0.045925,0.0067375,0.0251625
1679932375998,1112364353109054,-0.0438625,0.0077,0.026124999
1679932376000,1112364355611208,-0.0449625,0.0067375,0.0270875
1679932376003,1112364358113362,-0.0429,0.0077,0.026124999
1679932376006,1112364360615525,-0.0438625,0.0037125,0.0270875
1679932376008,1112364363117909,-0.0449625,0.0077,0.0251625
1679932376010,1112364365620063,-0.0419375,0.011825,0.0231
1679932376013,1112364368122217,-0.040975,0.011825,0.021175
1679932376016,1112364370624366,-0.0419375,0.0067375,0.021175
1679932376020,1112364373126520,-0.0419375,0.0127875,0.021175
1679932376021,1112364375628673,-0.040975,0.011825,0.0221375
1679932376023,1112364378130827,-0.0429,0.016775,0.0231
1679932376026,1112364380632981,-0.0449625,0.021724999,0.0221375
1679932376028,1112364383135212,-0.0468875,0.02475,0.0251625
1679932376031,1112364385637366,-0.0468875,0.0308,0.0240625
1679932376033,1112364388139443,-0.045925,0.032725,0.0251625
1679932376036,1112364390641583,-0.0479875,0.0367125,0.0301125
1679932376038,1112364393143736,-0.0499125,0.0378125,0.02915
1679932376040,1112364395645967,-0.0548625,0.0397375,0.0301125
1679932376043,1112364398148121,-0.0539,0.043725,0.0331375
1679932376046,1112364400650275,-0.0539,0.0488125,0.032175
1679932376048,1112364403152434,-0.05995,0.0507375,0.0341
1679932376050,1112364405654588,-0.0589875,0.0517,0.037125
1679932376055,1112364408156741,-0.0609125,0.0528,0.037125
1679932376060,1112364410659121,-0.062975,0.0567875,0.04015
1679932376061,1112364413161275,-0.064899996,0.05775,0.039049998
1679932376062,1112364415663429,-0.0699875,0.0617375,0.0411125
1679932376063,1112364418165583,-0.07095,0.0647625,0.0451
1679932376066,1112364420667736,-0.072875,0.065725,0.053075
1679932376068,1112364423169890,-0.072875,0.066825,0.053075
1679932376073,1112364425671798,-0.0759,0.06875,0.0570625
1679932376074,1112364428174183,-0.0768625,0.071775,0.059125
1679932376077,1112364430676414,-0.0759,0.076725,0.0600875
1679932376079,1112364433178568,-0.0768625,0.0818125,0.061049998
1679932376081,1112364435680645,-0.0798875,0.07975,0.0691625
1679932376083,1112364438182775,-0.0798875,0.0837375,0.07205
1679932376086,1112364440684929,-0.0859375,0.087725,0.07315
1679932376088,1112364443187160,-0.083875,0.088825,0.076175
1679932376090,1112364445689314,-0.086899996,0.0928125,0.078099996
1679932376095,1112364448191449,-0.0908875,0.0968,0.0820875
1679932376100,1112364450693603,-0.0889625,0.0977625,0.086075
1679932376101,1112364453195756,-0.0939125,0.099825,0.087175
1679932376102,1112364455697910,-0.0969375,0.099825,0.0881375
1679932376103,1112364458200064,-0.0988625,0.1038125,0.0900625
1679932376106,1112364460702444,-0.1029875,0.1038125,0.0961125
1679932376108,1112364463204598,-0.1049125,0.104775,0.098175
1679932376112,1112364465706752,-0.106975,0.1057375,0.100099996
1679932376114,1112364468208905,-0.1098625,0.10175,0.1071125
1679932376117,1112364470711035,-0.108899996,0.1007875,0.1120625
1679932376119,1112364473212958,-0.1109625,0.104775,0.11715
1679932376121,1112364475715343,-0.1139875,0.1027125,0.122099996
1679932376123,1112364478217497,-0.1159125,0.098725,0.1260875
1679932376126,1112364480719651,-0.1219625,0.1038125,0.1291125
1679932376128,1112364483221804,-0.122925,0.1038125,0.131175
1679932376132,1112364485723958,-0.1249875,0.1038125,0.13213749
1679932376134,1112364488226112,-0.1249875,0.1027125,0.136125
1679932376137,1112364490728314,-0.1269125,0.1067,0.13915
1679932376139,1112364493230468,-0.1309,0.109725,0.13805
1679932376140,1112364495732622,-0.133925,0.1057375,0.1351625
1679932376143,1112364498234776,-0.1379125,0.109725,0.1351625
1679932376146,1112364500736929,-0.1439625,0.1117875,0.13805
1679932376148,1112364503239073,-0.1519375,0.1117875,0.13915
1679932376151,1112364505741227,-0.155925,0.1137125,0.142175
1679932376153,1112364508243612,-0.1568875,0.11275,0.147125
1679932376156,1112364510745535,-0.160875,0.11275,0.1450625
1679932376158,1112364513247934,-0.161975,0.109725,0.147125
1679932376161,1112364515750088,-0.1659625,0.1078,0.152075
1679932376163,1112364518252242,-0.1659625,0.1078,0.152075
1679932376166,1112364520754165,-0.1709125,0.104775,0.15413749
1679932376171,1112364523256530,-0.172975,0.0947375,0.15413749
1679932376173,1112364525758684,-0.16995,0.0867625,0.1571625
1679932376174,1112364528260838,-0.1749,0.07975,0.1590875
1679932376179,1112364530762991,-0.1788875,0.0757625,0.16005
1679932376181,1112364533265145,-0.1769625,0.066825,0.164175
1679932376182,1112364535767294,-0.1769625,0.0617375,0.1621125
1679932376183,1112364538269448,-0.172975,0.0567875,0.163075
1679932376186,1112364540771679,-0.177925,0.0567875,0.1661
1679932376188,1112364543273833,-0.177925,0.0567875,0.1651375
1679932376191,1112364545776005,-0.1788875,0.0528,0.164175
1679932376193,1112364548278082,-0.1799875,0.054725,0.164175
1679932376196,1112364550780313,-0.1799875,0.0567875,0.1621125
1679932376198,1112364553282467,-0.1799875,0.0617375,0.163075
1679932376201,1112364555784852,-0.1758625,0.0647625,0.16115
1679932376203,1112364558286775,-0.1758625,0.071775,0.1590875
1679932376208,1112364560788929,-0.1788875,0.082775,0.1551
1679932376209,1112364563291313,-0.177925,0.093775,0.153175
1679932376211,1112364565793467,-0.1799875,0.1007875,0.15015
1679932376213,1112364568295395,-0.177925,0.1038125,0.14905
1679932376216,1112364570797780,-0.177925,0.1137125,0.1480875
1679932376219,1112364573299934,-0.1788875,0.1188,0.1461625
1679932376221,1112364575802087,-0.18095,0.131725,0.1480875
1679932376223,1112364578304207,-0.1819125,0.1357125,0.147125
1679932376226,1112364580806361,-0.18287499,0.1357125,0.147125
1679932376228,1112364583308515,-0.1799875,0.1357125,0.15015
1679932376232,1112364585810669,-0.1799875,0.137775,0.14905
1679932376233,1112364588312900,-0.18287499,0.1408,0.1461625
1679932376236,1112364590815053,-0.18493749,0.1397,0.1480875
1679932376238,1112364593317207,-0.188925,0.1397,0.147125
1679932376241,1112364595819361,-0.1879625,0.1408,0.1450625
1679932376245,1112364598321539,-0.19195,0.1357125,0.1431375
1679932376248,1112364600823693,-0.1959375,0.1337875,0.141075
1679932376250,1112364603326077,-0.193875,0.132825,0.1401125
1679932376252,1112364605828231,-0.1978625,0.1337875,0.1370875
1679932376253,1112364608330154,-0.199925,0.12979999,0.136125
1679932376256,1112364610832303,-0.1989625,0.1287,0.13213749
1679932376258,1112364613334457,-0.2019875,0.12773749,0.1291125
1679932376261,1112364615836611,-0.2079,0.1197625,0.1260875
1679932376263,1112364618338765,-0.2118875,0.117699996,0.125125
1679932376266,1112364620841183,-0.210925,0.1148125,0.1260875
1679932376268,1112364623343337,-0.215875,0.1117875,0.120175
1679932376272,1112364625845491,-0.2189,0.1057375,0.119075
1679932376273,1112364628347645,-0.221925,0.1027125,0.11715
1679932376276,1112364630849784,-0.2228875,0.098725,0.1150875
1679932376278,1112364633351938,-0.22495,0.09075,0.119075
1679932376282,1112364635854092,-0.22687499,0.0858,0.11605
1679932376284,1112364638356245,-0.22687499,0.0807125,0.11715
1679932376286,1112364640858423,-0.2270125,0.073699996,0.114125
1679932376289,1112364643360577,-0.22495,0.0708125,0.1131625
1679932376290,1112364645862808,-0.2270125,0.0638,0.1111
1679932376293,1112364648364962,-0.2259125,0.05775,0.109175
1679932376299,1112364650867116,-0.2239875,0.055825,0.1071125
1679932376301,1112364653369279,-0.2228875,0.049775,0.103125
1679932376303,1112364655871433,-0.2228875,0.049775,0.097075
1679932376305,1112364658373587,-0.2209625,0.049775,0.09515
1679932376308,1112364660875741,-0.2179375,0.044825,0.0930875
1679932376309,1112364663378150,-0.2149125,0.0477125,0.0911625
1679932376313,1112364665880073,-0.2129875,0.0507375,0.087175
1679932376314,1112364668382457,-0.210925,0.0507375,0.086075
1679932376317,1112364670884611,-0.2079,0.0457875,0.086075
1679932376322,1112364673386524,-0.205975,0.0457875,0.081125
1679932376323,1112364675888678,-0.20295,0.049775,0.078099996
1679932376326,1112364678391063,-0.198,0.049775,0.0801625
1679932376328,1112364680893217,-0.1959375,0.0528,0.0771375
1679932376330,1112364683395370,-0.19195,0.055825,0.075075
1679932376331,1112364685897505,-0.1898875,0.055825,0.075075
1679932376333,1112364688399659,-0.1830125,0.060775,0.07315
1679932376337,1112364690901813,-0.1799875,0.0627,0.0710875
1679932376338,1112364693404044,-0.1799875,0.060775,0.0661375
1679932376341,1112364695906198,-0.176,0.055825,0.0631125
1679932376344,1112364698408376,-0.1709125,0.0598125,0.06215
1679932376346,1112364700910530,-0.1720125,0.054725,0.0570625
1679932376349,1112364703412684,-0.172975,0.055825,0.054175
1679932376352,1112364705914838,-0.16995,0.0517,0.0460625
1679932376353,1112364708416992,-0.1639,0.0517,0.043175
1679932376358,1112364710919376,-0.1568875,0.0477125,0.039049998
1679932376361,1112364713421300,-0.155925,0.0488125,0.0341
1679932376362,1112364715923453,-0.1519375,0.0457875,0.031075
1679932376365,1112364718425607,-0.1519375,0.0397375,0.0301125
1679932376367,1112364720927992,-0.1519375,0.0367125,0.0270875
1679932376369,1112364723429915,-0.1489125,0.032725,0.026124999
1679932376373,1112364725932300,-0.1489125,0.027775,0.0231
1679932376374,1112364728434453,-0.1489125,0.022824999,0.0221375
1679932376377,1112364730936607,-0.1469875,0.0187,0.0240625
1679932376379,1112364733438761,-0.144925,0.014712499,0.0240625
1679932376381,1112364735940915,-0.1469875,0.0127875,0.0251625
1679932376384,1112364738443059,-0.143,0.010725,0.0270875
1679932376386,1112364740945213,-0.14093749,0.0017875,0.026124999
1679932376388,1112364743447443,-0.14093749,8.25E-4,0.0240625
1679932376392,1112364745949597,-0.139975,-2.75E-4,0.026124999
1679932376395,1112364748451770,-0.1359875,-0.005225,0.02805
1679932376397,1112364750953847,-0.13695,-0.00825,0.02805
1679932376399,1112364753456001,-0.14093749,-0.00825,0.0270875
1679932376401,1112364755958232,-0.14093749,-0.011275,0.02915
1679932376403,1112364758460616,-0.1419,-0.0143,0.02915
1679932376407,1112364760962535,-0.1439625,-0.0143,0.026124999
1679932376408,1112364763464689,-0.1419,-0.0072875,0.0251625
1679932376413,1112364765966843,-0.1379125,-0.0072875,0.0240625
1679932376414,1112364768468997,-0.13695,-0.0061875,0.02805
1679932376417,1112364770971146,-0.132,-0.0012375,0.0270875
1679932376418,1112364773473300,-0.1299375,0.0048125,0.026124999
1679932376421,1112364775975684,-0.1299375,0.0048125,0.0251625
1679932376425,1112364778477838,-0.12595,0.0067375,0.026124999
1679932376427,1112364780980006,-0.1189375,0.0077,0.026124999
1679932376429,1112364783482160,-0.11495,0.0097624995,0.0221375
1679932376433,1112364785984314,-0.1159125,0.014712499,0.0221375
1679932376436,1112364788486237,-0.1159125,0.0177375,0.021175
1679932376437,1112364790988621,-0.111925,0.0207625,0.0191125
1679932376439,1112364793490852,-0.111925,0.0207625,0.0160875
1679932376441,1112364795993006,-0.111925,0.022824999,0.013062499
1679932376443,1112364798495083,-0.106975,0.02475,0.0111375
1679932376449,1112364800997237,-0.10395,0.022824999,0.0121
1679932376450,1112364803499391,-0.0979,0.022824999,0.0081124995
1679932376452,1112364806001621,-0.09295,0.0177375,0.009075
1679932376454,1112364808503775,-0.0889625,0.0158125,0.0081124995
1679932376456,1112364811005929,-0.08195,0.014712499,0.00715
1679932376459,1112364813508069,-0.0779625,0.016775,0.0020625
1679932376461,1112364816010223,-0.0719125,0.0127875,-0.0028875
1679932376466,1112364818512377,-0.0669625,0.011825,-0.0078375
1679932376471,1112364821014521,-0.0620125,0.005775,-0.012925
1679932376471,1112364823516905,-0.0589875,0.0037125,-0.01485
1679932376473,1112364826019059,-0.0578875,-0.0033,-0.0199375
1679932376475,1112364828521213,-0.0578875,-0.0033,-0.022824999
1679932376479,1112364831023367,-0.0578875,-0.0042625,-0.02695
1679932376481,1112364833525526,-0.05995,-0.0132,-0.0279125
1679932376482,1112364836027449,-0.056925,-0.0182875,-0.0279125
1679932376484,1112364838529833,-0.0499125,-0.0202125,-0.0279125
1679932376487,1112364841031987,-0.0510125,-0.0242,-0.02695
1679932376488,1112364843534218,-0.0499125,-0.03025,-0.0279125
1679932376491,1112364846036319,-0.045925,-0.0292875,-0.023924999
1679932376494,1112364848538473,-0.045925,-0.0292875,-0.022824999
1679932376497,1112364851040627,-0.0449625,-0.0342375,-0.0248875
1679932376499,1112364853542780,-0.0429,-0.0372625,-0.02585
1679932376501,1112364856045016,-0.0400125,-0.041249998,-0.023924999
1679932376504,1112364858547170,-0.03795,-0.0422125,-0.02585
1679932376508,1112364861049324,-0.0339625,-0.0452375,-0.02695
1679932376510,1112364863551478,-0.0309375,-0.0473,-0.02695
1679932376515,1112364866053632,-0.0259875,-0.049225,-0.0298375
1679932376523,1112364868555785,-0.0209,-0.0473,-0.0319
1679932376524,1112364871058170,-0.01595,-0.0482625,-0.0328625
1679932376524,1112364873560324,-0.0138875,-0.052249998,-0.034925
1679932376524,1112364876062247,-0.0149875,-0.0512875,-0.0319
1679932376524,1112364878564665,-0.0119624995,-0.0512875,-0.0328625
1679932376526,1112364881066818,-0.0099,-0.0482625,-0.0328625
1679932376528,1112364883568742,-0.0099,-0.043175,-0.0279125
1679932376530,1112364886071126,-0.0089375,-0.0462,-0.02585
1679932376533,1112364888573285,-0.00495,-0.0452375,-0.023924999
1679932376536,1112364891075439,-0.0059125,-0.044275,-0.0209
1679932376538,1112364893577593,-0.0059125,-0.041249998,-0.0209
1679932376541,1112364896079747,-0.0039875,-0.0462,-0.012925
1679932376545,1112364898581910,-0.0039875,-0.0482625,-0.0108624995
1679932376548,1112364901084064,-0.0059125,-0.0482625,-0.0099
1679932376549,1112364903586295,-0.0089375,-0.054175,-0.0078375
1679932376552,1112364906088449,-0.0059125,-0.0611875,-0.00385
1679932376554,1112364908590603,-0.0070125,-0.066275,-0.001925
1679932376557,1112364911092766,-0.0039875,-0.0672375,-0.0028875
1679932376562,1112364913594919,-0.0070125,-0.0702625,-0.00385
1679932376562,1112364916097304,-0.0089375,-0.0782375,-0.00495
1679932376565,1112364918599227,-0.007975,-0.0792,-0.0059125
1679932376566,1112364921101391,-0.0059125,-0.0782375,-0.006875
1679932376569,1112364923603545,-0.0070125,-0.077275,-0.006875
1679932376573,1112364926105699,-0.00495,-0.077275,-0.0089375
1679932376574,1112364928608083,-0.00495,-0.077275,-0.0089375
1679932376577,1112364931110242,-0.001925,-0.071225,-0.011825
1679932376583,1112364933612396,-0.00495,-0.07425,-0.012925
1679932376583,1112364936114550,-0.0059125,-0.076175,-0.01485
1679932376587,1112364938616704,-0.0059125,-0.07425,-0.0209
1679932376588,1112364941118858,-0.0039875,-0.076175,-0.0199375
1679932376589,1112364943621011,-0.0039875,-0.0721875,-0.01595
1679932376593,1112364946123165,0.0011,-0.0702625,-0.0218625
1679932376595,1112364948625319,0.0,-0.07425,-0.023924999
1679932376597,1112364951127550,0.0020625,-0.076175,-0.0218625
1679932376598,1112364953629704,0.0011,-0.07425,-0.0218625
1679932376601,1112364956131781,0.0,-0.07425,-0.022824999
1679932376603,1112364958633935,0.0020625,-0.0721875,-0.0199375
1679932376606,1112364961136165,-0.001925,-0.076175,-0.017875
1679932376608,1112364963638319,-9.625E-4,-0.076175,-0.0188375
1679932376611,1112364966140458,0.0011,-0.077275,-0.0209
1679932376615,1112364968642612,0.0,-0.0792,-0.0199375
1679932376617,1112364971144766,0.003025,-0.0831875,-0.0188375
1679932376620,1112364973646939,0.003025,-0.08525,-0.017875
1679932376622,1112364976149092,0.0011,-0.08525,-0.0169125
1679932376624,1112364978651477,0.0011,-0.0862125,-0.0169125
1679932376627,1112364981153631,0.0011,-0.0842875,-0.0199375
1679932376628,1112364983655785,0.0020625,-0.0831875,-0.0188375
1679932376632,1112364986157713,-0.0039875,-0.0792,-0.0218625
1679932376633,1112364988660098,-0.00495,-0.082225,-0.02585
1679932376636,1112364991162251,-0.00495,-0.0842875,-0.023924999
1679932376638,1112364993664405,-0.0070125,-0.077275,-0.023924999
1679932376641,1112364996166559,-0.00495,-0.0721875,-0.02585
1679932376643,1112364998668722,-0.0039875,-0.0702625,-0.022824999
1679932376646,1112365001170876,-0.007975,-0.07425,-0.0199375
1679932376648,1112365003673030,-0.0070125,-0.0672375,-0.017875
1679932376651,1112365006175183,-0.0089375,-0.0682,-0.017875
1679932376654,1112365008677381,-0.0099,-0.065175,-0.0218625
1679932376658,1112365011179535,-0.011,-0.066275,-0.022824999
1679932376660,1112365013681689,-0.0119624995,-0.065175,-0.0199375
1679932376661,1112365016183843,-0.012925,-0.0622875,-0.0199375
1679932376664,1112365018685992,-0.012925,-0.0592625,-0.0209
1679932376667,1112365021188146,-0.012925,-0.0611875,-0.0209
1679932376669,1112365023690299,-0.0138875,-0.0622875,-0.022824999
1679932376672,1112365026192684,-0.022,-0.0642125,-0.022824999
1679932376675,1112365028694833,-0.0199375,-0.0702625,-0.0248875
1679932376677,1112365031196987,-0.018975,-0.07425,-0.02585
1679932376679,1112365033698910,-0.018975,-0.0782375,-0.02585
1679932376682,1112365036201064,-0.0169125,-0.0792,-0.02585
1679932376683,1112365038703433,-0.0169125,-0.0803,-0.0248875
1679932376686,1112365041205664,-0.0149875,-0.0842875,-0.023924999
1679932376688,1112365043707741,-0.0119624995,-0.091299996,-0.0218625
1679932376691,1112365046209895,-0.0099,-0.0941875,-0.0218625
1679932376695,1112365048712030,-0.0059125,-0.0952875,-0.0209
1679932376698,1112365051214184,-0.007975,-0.099275,-0.023924999
1679932376700,1112365053716337,-0.007975,-0.100237496,-0.0248875
1679932376702,1112365056218491,-0.0089375,-0.1051875,-0.023924999
1679932376704,1112365058720722,-0.00495,-0.1051875,-0.0248875
1679932376706,1112365061222866,-0.0059125,-0.109175,-0.0279125
1679932376709,1112365063725020,-0.00495,-0.109175,-0.0319
1679932376715,1112365066227174,-0.00495,-0.109175,-0.0328625
1679932376716,1112365068729327,-9.625E-4,-0.1142625,-0.0319
1679932376718,1112365071231399,0.0011,-0.110275,-0.0298375
1679932376719,1112365073733861,0.0020625,-0.10725,-0.0298375
1679932376721,1112365076236015,0.0050875,-0.1012,-0.028875
1679932376724,1112365078738169,0.0050875,-0.098175,-0.02695
1679932376727,1112365081240082,0.0081124995,-0.098175,-0.0279125
1679932376729,1112365083742236,0.0100375,-0.091299996,-0.02695
1679932376733,1112365086244389,0.011,-0.088275,-0.0248875
1679932376735,1112365088746774,0.0149875,-0.082225,-0.0248875
1679932376737,1112365091248919,0.0160875,-0.07425,-0.022824999
1679932376739,1112365093751073,0.0160875,-0.0672375,-0.0209
1679932376741,1112365096253227,0.0180125,-0.0611875,-0.017875
1679932376743,1112365098755380,0.0210375,-0.0532125,-0.017875
1679932376746,1112365101257539,0.022,-0.0482625,-0.017875
1679932376749,1112365103759693,0.0231,-0.044275,-0.0169125
1679932376752,1112365106261924,0.0231,-0.0372625,-0.011825
1679932376754,1112365108764001,0.0240625,-0.0292875,-0.011825
1679932376757,1112365111266217,0.0240625,-0.021175,-0.01485
1679932376759,1112365113768370,0.0270875,-0.016224999,-0.0108624995
1679932376761,1112365116270524,0.0259875,-0.011275,-0.011825
1679932376764,1112365118772601,0.025024999,-0.0072875,-0.011825
1679932376767,1112365121274832,0.0240625,-0.0072875,-0.0099
1679932376771,1112365123776996,0.0231,-0.0061875,-0.006875
1679932376773,1112365126279150,0.0210375,-0.0072875,-0.0089375
1679932376774,1112365128781304,0.0180125,-0.0092124995,-0.011825
1679932376777,1112365131283466,0.0160875,-0.010175,-0.0089375
1679932376779,1112365133785620,0.0121,-0.0122375,-0.0078375
1679932376781,1112365136287774,0.0081124995,-0.0171875,-0.0089375
1679932376784,1112365138790159,0.0070125,-0.021175,-0.0089375
1679932376787,1112365141292313,0.00605,-0.0281875,-0.012925
1679932376789,1112365143794466,0.0050875,-0.033275,-0.0089375
1679932376792,1112365146296620,0.004125,-0.0363,-0.0108624995
1679932376794,1112365148798774,1.375E-4,-0.041249998,-0.017875
1679932376797,1112365151300928,-0.0039875,-0.0452375,-0.0188375
1679932376799,1112365153803159,-0.0039875,-0.0512875,-0.0199375
1679932376801,1112365156305236,-0.00495,-0.060225,-0.023924999
1679932376804,1112365158807390,-0.0059125,-0.06325,-0.023924999
1679932376808,1112365161309543,-0.00495,-0.0702625,-0.0199375
1679932376810,1112365163811774,-0.007975,-0.0702625,-0.0218625
1679932376811,1112365166313851,-0.0059125,-0.0721875,-0.0188375
1679932376814,1112365168816005,-0.006875,-0.076175,-0.017875
1679932376817,1112365171318236,-0.0099,-0.0782375,-0.017875
1679932376819,1112365173820390,-0.0089375,-0.0792,-0.0169125
1679932376821,1112365176322543,-0.0089375,-0.0782375,-0.01595
1679932376823,1112365178824697,-0.0099,-0.0803,-0.01595
1679932376827,1112365181326851,-0.0138875,-0.082225,-0.0188375
1679932376829,1112365183829005,-0.0149875,-0.082225,-0.0209
1679932376832,1112365186331376,-0.01595,-0.0782375,-0.022824999
1679932376834,1112365188833529,-0.01595,-0.0792,-0.0209
1679932376837,1112365191335683,-0.0169125,-0.076175,-0.022824999
1679932376839,1112365193837606,-0.018975,-0.0752125,-0.022824999
1679932376841,1112365196339991,-0.0229625,-0.0721875,-0.0218625
1679932376847,1112365198842135,-0.02695,-0.0642125,-0.023924999
1679932376849,1112365201344289,-0.028875,-0.06325,-0.02585
1679932376851,1112365203846443,-0.029975,-0.060225,-0.028875
1679932376852,1112365206348596,-0.0339625,-0.054175,-0.0319
1679932376854,1112365208850750,-0.0389125,-0.055275,-0.0358875
1679932376857,1112365211352981,-0.0419375,-0.0512875,-0.03795
1679932376859,1112365213855135,-0.0429,-0.0452375,-0.0389125
1679932376862,1112365216357212,-0.0449625,-0.0363,-0.0438625
1679932376864,1112365218859443,-0.045925,-0.033275,-0.04895
1679932376867,1112365221361596,-0.0479875,-0.027224999,-0.0518375
1679932376869,1112365223863673,-0.0468875,-0.01925,-0.056925
1679932376872,1112365226365827,-0.0438625,-0.011275,-0.0578875
1679932376874,1112365228868058,-0.045925,-0.005225,-0.058849998
1679932376877,1112365231370207,-0.0438625,0.005775,-0.0628375
1679932376880,1112365233872361,-0.045925,0.0158125,-0.066825
1679932376883,1112365236374515,-0.0438625,0.0268125,-0.067925
1679932376888,1112365238876668,-0.045925,0.03575,-0.07095
1679932376889,1112365241378818,-0.0438625,0.043725,-0.06985
1679932376891,1112365243881203,-0.0468875,0.0537625,-0.0688875
1679932376892,1112365246383357,-0.045925,0.0598125,-0.06985
1679932376894,1112365248885511,-0.0429,0.0638,-0.0658625
1679932376898,1112365251387664,-0.0429,0.0677875,-0.0609125
1679932376900,1112365253889827,-0.0429,0.0708125,-0.0609125
1679932376902,1112365256391981,-0.039875,0.0697125,-0.058849998
1679932376904,1112365258894135,-0.03795,0.06875,-0.0518375
1679932376907,1112365261396366,-0.0328625,0.0697125,-0.0499125
1679932376909,1112365263898434,-0.0328625,0.076725,-0.04895
1679932376912,1112365266400588,-0.0339625,0.076725,-0.047849998
1679932376915,1112365268902741,-0.0339625,0.077825,-0.0438625
1679932376918,1112365271404895,-0.0339625,0.0787875,-0.0429
1679932376921,1112365273907039,-0.0358875,0.0837375,-0.0419375
1679932376923,1112365276409270,-0.0328625,0.088825,-0.03795
1679932376927,1112365278911424,-0.0339625,0.09075,-0.033825
1679932376929,1112365281413578,-0.0339625,0.095699996,-0.02695
1679932376931,1112365283915731,-0.028875,0.1027125,-0.022824999
1679932376933,1112365286417890,-0.0339625,0.104775,-0.023924999
1679932376935,1112365288920044,-0.029975,0.1117875,-0.0218625
1679932376937,1112365291422198,-0.0279125,0.11275,-0.017875
1679932376939,1112365293924583,-0.0309375,0.115775,-0.017875
1679932376941,1112365296426736,-0.0339625,0.120725,-0.017875
1679932376944,1112365298928880,-0.0369875,0.1188,-0.01595
1679932376947,1112365301430803,-0.0389125,0.120725,-0.0188375
1679932376949,1112365303932957,-0.0438625,0.120725,-0.0188375
1679932376952,1112365306435097,-0.0438625,0.120725,-0.017875
1679932376954,1112365308937482,-0.0479875,0.1188,-0.017875
1679932376958,1112365311439636,-0.050875,0.1137125,-0.01595
1679932376960,1112365313941789,-0.0548625,0.110825,-0.011825
1679932376962,1112365316443943,-0.0578875,0.1067,-0.0099
1679932376964,1112365318946092,-0.0589875,0.1027125,-0.0078375
1679932376967,1112365321448246,-0.05995,0.10175,-0.0099
1679932376969,1112365323950477,-0.0669625,0.098725,-0.0099
1679932376972,1112365326452631,-0.0669625,0.0897875,-0.0099
1679932376974,1112365328954693,-0.0699875,0.0837375,-0.0099
1679932376978,1112365331456923,-0.07095,0.0787875,-0.0108624995
1679932376981,1112365333959077,-0.07095,0.073699996,-0.0099
1679932376982,1112365336461231,-0.0699875,0.0638,-0.012925
1679932376984,1112365338963308,-0.0699875,0.05775,-0.01595
1679932376987,1112365341465539,-0.073975,0.049775,-0.0169125
1679932376989,1112365343967693,-0.0749375,0.0457875,-0.0218625
1679932376993,1112365346469846,-0.0759,0.0427625,-0.0209
1679932376996,1112365348971981,-0.073975,0.0367125,-0.0199375
1679932377000,1112365351474135,-0.072875,0.032725,-0.0248875
1679932377002,1112365353976289,-0.073975,0.0297,-0.02585
1679932377004,1112365356478674,-0.0759,0.0237875,-0.0218625
1679932377006,1112365358980827,-0.078925,0.0187,-0.0218625
1679932377008,1112365361482991,-0.078925,0.01375,-0.022824999
1679932377010,1112365363985145,-0.0749375,0.010725,-0.0248875
1679932377011,1112365366487299,-0.0759,0.0067375,-0.02585
1679932377015,1112365368989222,-0.0749375,0.0017875,-0.023924999
1679932377017,1112365371491630,-0.0719125,-0.005225,-0.0209
1679932377019,1112365373993861,-0.0658625,-0.0092124995,-0.0199375
1679932377021,1112365376495937,-0.064899996,-0.010175,-0.017875
1679932377025,1112365378998091,-0.062975,-0.0092124995,-0.017875
1679932377027,1112365381500245,-0.0578875,-0.0122375,-0.0169125
1679932377029,1112365384002429,-0.0539,-0.0132,-0.01595
1679932377034,1112365386504583,-0.0529375,-0.011275,-0.017875
1679932377036,1112365389006814,-0.04895,-0.011275,-0.0199375
1679932377038,1112365391673295,-0.0468875,-0.011275,-0.0188375
1679932377040,1112365394011141,-0.045925,-0.00825,-0.0188375
1679932377042,1112365396513295,-0.0429,-0.0033,-0.017875
1679932377044,1112365399015449,-0.0438625,-0.0022,-0.01595
1679932377048,1112365401517602,-0.040975,-0.0012375,-0.0108624995
1679932377049,1112365404019987,-0.039875,0.0017875,-0.0078375
1679932377052,1112365406521910,-0.039875,0.0037125,-0.006875
1679932377054,1112365409024294,-0.039875,0.0017875,-0.0078375
1679932377057,1112365411526448,-0.0389125,-0.0022,-0.0078375
1679932377059,1112365414028602,-0.039875,-0.0061875,-0.0028875
1679932377061,1112365416530525,-0.03795,-0.0143,-8.25E-4
1679932377065,1112365419032679,-0.0328625,-0.0242,-0.001925
1679932377066,1112365421535063,-0.0319,-0.0281875,-0.0028875
1679932377071,1112365424037213,-0.0309375,-0.0312125,-0.00385
1679932377074,1112365426539367,-0.029975,-0.0422125,-0.00385
1679932377076,1112365429041521,-0.0259875,-0.043175,-0.0059125
1679932377079,1112365431580060,-0.0248875,-0.0422125,-0.0059125
1679932377081,1112365434045829,-0.0229625,-0.038225,-0.0078375
1679932377083,1112365436548089,-0.0209,-0.041249998,-0.0078375
1679932377083,1112365439050242,-0.01595,-0.0352,-0.006875
1679932377087,1112365441552396,-0.0169125,-0.0312125,-0.0059125
1679932377089,1112365444054473,-0.0218625,-0.0262625,-0.001925
1679932377091,1112365446556617,-0.0199375,-0.016224999,-0.0028875
1679932377094,1112365449058848,-0.0209,-0.00825,-8.25E-4
1679932377097,1112365451561002,-0.0218625,-0.005225,0.0011
1679932377099,1112365454063155,-0.0209,0.0017875,-8.25E-4
1679932377102,1112365456565304,-0.017875,0.0037125,1.375E-4
1679932377104,1112365459067458,-0.017875,0.011825,0.0020625
1679932377110,1112365461569612,-0.0199375,0.01375,-8.25E-4
1679932377111,1112365464071766,-0.0218625,0.0198,1.375E-4
1679932377113,1112365466573925,-0.0229625,0.022824999,-0.001925
1679932377116,1112365469076309,-0.0279125,0.0198,-0.00385
1679932377118,1112365471578463,-0.0248875,0.0268125,-0.0059125
1679932377120,1112365474080617,-0.0248875,0.0297,-0.0078375
1679932377122,1112365476582540,-0.028875,0.0268125,-0.0078375
1679932377127,1112365479084920,-0.02695,0.0297,-0.00495
1679932377129,1112365481587074,-0.02695,0.033825,-0.00385
1679932377130,1112365484089227,-0.029975,0.0317625,-0.0059125
1679932377132,1112365486591381,-0.0279125,0.032725,-0.0078375
1679932377134,1112365489093535,-0.029975,0.0287375,-0.0078375
1679932377143,1112365491595679,-0.0328625,0.0317625,-0.006875
1679932377151,1112365494097833,-0.0358875,0.0347875,-0.0099
1679932377151,1112365496600064,-0.0328625,0.0317625,-0.012925
1679932377151,1112365499102218,-0.0309375,0.032725,-0.012925
1679932377152,1112365501604386,-0.0309375,0.033825,-0.01595
1679932377152,1112365504106540,-0.0309375,0.0317625,-0.017875
1679932377152,1112365506608694,-0.0339625,0.027775,-0.0169125
1679932377154,1112365509110848,-0.0328625,0.021724999,-0.0209
1679932377156,1112365511613252,-0.0309375,0.0198,-0.02585
1679932377158,1112365514115405,-0.028875,0.0158125,-0.02585
1679932377161,1112365516617328,-0.029975,0.0127875,-0.0279125
1679932377165,1112365519119482,-0.028875,0.0097624995,-0.033825
1679932377167,1112365521621636,-0.028875,0.00275,-0.036849998
1679932377169,1112365524123824,-0.023924999,-0.0012375,-0.03795
1679932377171,1112365526626209,-0.023924999,-0.0033,-0.036849998
1679932377174,1112365529128363,-0.023924999,-0.0061875,-0.036849998
1679932377177,1112365531630516,-0.0229625,-0.00825,-0.0389125
1679932377179,1112365534132665,-0.0209,-0.011275,-0.036849998
1679932377183,1112365536634819,-0.0209,-0.011275,-0.033825
1679932377186,1112365539136973,-0.0169125,-0.0132,-0.0298375
1679932377187,1112365541639127,-0.01595,-0.00825,-0.028875
1679932377189,1112365544141358,-0.0119624995,-0.0012375,-0.0248875
1679932377192,1112365546643511,-0.012925,8.25E-4,-0.0209
1679932377194,1112365549145665,-0.017875,0.00275,-0.0218625
1679932377198,1112365551647819,-0.0149875,0.010725,-0.0188375
1679932377199,1112365554149896,-0.012925,0.0127875,-0.0169125
1679932377201,1112365556652050,-0.0119624995,0.0177375,-0.01485
1679932377204,1112365559154281,-0.012925,0.0317625,-0.011825
1679932377207,1112365561656435,-0.0108624995,0.0367125,-0.012925
1679932377209,1112365564158573,-0.0099,0.0397375,-0.0108624995
1679932377211,1112365566660727,-0.0099,0.0457875,-0.00495
1679932377215,1112365569162881,-0.0108624995,0.04675,-0.0059125
1679932377218,1112365571665035,-0.0138875,0.0507375,-0.0028875
1679932377221,1112365574167199,-0.012925,0.0517,1.375E-4
1679932377222,1112365576669583,-0.0149875,0.0517,0.0020625
1679932377224,1112365579171737,-0.0149875,0.0517,0.004125
1679932377227,1112365581673891,-0.01595,0.0477125,0.00605
1679932377229,1112365584175814,-0.017875,0.0397375,0.010175
1679932377232,1112365586678185,-0.0169125,0.038775,0.00715
1679932377234,1112365589180339,-0.0229625,0.03575,0.009075
1679932377237,1112365591682493,-0.02695,0.0317625,0.0081124995
1679932377239,1112365594184646,-0.0259875,0.0237875,0.004125
1679932377241,1112365596686800,-0.029975,0.021724999,0.0011
1679932377246,1112365599188939,-0.0328625,0.014712499,0.0020625
1679932377249,1112365601691093,-0.029975,0.0127875,-0.0028875
1679932377249,1112365604193247,-0.028875,0.0067375,-0.0028875
1679932377251,1112365606695478,-0.0279125,0.005775,-8.25E-4
1679932377254,1112365609197631,-0.028875,0.0097624995,-0.00495
1679932377258,1112365611699761,-0.028875,0.0048125,-0.0078375
1679932377260,1112365614201915,-0.0279125,-0.0012375,-0.0099
1679932377262,1112365616704069,-0.0259875,0.0017875,-0.0108624995
1679932377265,1112365619206223,-0.0259875,-0.0022,-0.017875
1679932377267,1112365621708396,-0.023924999,8.25E-4,-0.0209
1679932377273,1112365624210550,-0.0218625,-0.0012375,-0.0188375
1679932377274,1112365626712934,-0.0169125,-0.0033,-0.0199375
1679932377277,1112365629215088,-0.0149875,-0.0033,-0.0199375
1679932377279,1112365631717011,-0.012925,-0.0033,-0.0218625
1679932377280,1112365634219165,-0.007975,8.25E-4,-0.0248875
1679932377282,1112365636721319,-0.007975,0.005775,-0.0199375
1679932377284,1112365639223703,-0.0059125,0.005775,-0.0188375
1679932377287,1112365641725852,-0.001925,0.011825,-0.022824999
1679932377289,1112365644228006,-9.625E-4,0.016775,-0.0209
1679932377291,1112365646730160,0.0070125,0.0198,-0.0209
1679932377296,1112365649232314,0.0111375,0.02475,-0.0209
1679932377300,1112365651734478,0.0111375,0.0308,-0.023924999
1679932377301,1112365654236631,0.0121,0.03575,-0.0199375
1679932377302,1112365656738862,0.0121,0.038775,-0.0188375
1679932377304,1112365659240939,0.0160875,0.043725,-0.0199375
1679932377307,1112365661743107,0.0180125,0.0408375,-0.017875
1679932377309,1112365664245261,0.015125,0.04675,-0.017875
1679932377312,1112365666747492,0.015125,0.049775,-0.017875
1679932377315,1112365669249569,0.01705,0.0537625,-0.01595
1679932377317,1112365671751804,0.0100375,0.0507375,-0.012925
1679932377320,1112365674253958,0.0100375,0.0457875,-0.0108624995
1679932377322,1112365676756112,0.0100375,0.0488125,-0.0099
1679932377324,1112365679258266,0.01705,0.0477125,-0.0078375
1679932377327,1112365681760420,0.0160875,0.04675,-0.0078375
1679932377329,1112365684262545,0.015125,0.0488125,-0.0078375
1679932377333,1112365686764698,0.0180125,0.044825,-0.0089375
1679932377338,1112365689267083,0.0180125,0.03575,-0.0099
1679932377339,1112365691769237,0.0160875,0.0397375,-0.0108624995
1679932377340,1112365694271396,0.0160875,0.0378125,-0.011825
1679932377342,1112365696773319,0.01705,0.0317625,-0.0099
1679932377344,1112365699275473,0.0180125,0.032725,-0.0108624995
1679932377348,1112365701777627,0.01705,0.0347875,-0.0108624995
1679932377349,1112365704280088,0.020075,0.0367125,-0.011825
1679932377353,1112365706782179,0.0180125,0.0298375,-0.017875
1679932377354,1112365709284333,0.01705,0.02475,-0.017875
1679932377357,1112365711786487,0.0180125,0.022824999,-0.01485
1679932377359,1112365714288641,0.0180125,0.0198,-0.017875
1679932377362,1112365716790790,0.01705,0.0198,-0.0169125
1679932377364,1112365719293021,0.0160875,0.016775,-0.011825
1679932377367,1112365721795175,0.015125,0.0127875,-0.012925
1679932377371,1112365724297329,0.0111375,0.0127875,-0.012925
1679932377373,1112365726799366,0.0070125,0.0078375,-0.012925
1679932377378,1112365729301597,0.009075,0.00275,-0.01595
1679932377379,1112365731803751,0.0081124995,0.00275,-0.0108624995
1679932377381,1112365734305904,0.0050875,-0.0031625,-0.0108624995
1679932377382,1112365736808058,0.004125,-0.0042625,-0.011825
1679932377384,1112365739310203,0.0020625,-0.005225,-0.0108624995
1679932377387,1112365741812357,-9.625E-4,-0.010175,-0.01595
1679932377389,1112365744314511,-9.625E-4,-0.014162499,-0.017875
1679932377393,1112365746816665,-0.00495,-0.0132,-0.017875
1679932377394,1112365749318822,-0.007975,-0.014162499,-0.0209
1679932377398,1112365751821207,-0.0099,-0.015262499,-0.0218625
1679932377399,1112365754323361,-0.0108624995,-0.0182875,-0.022824999
1679932377402,1112365756825284,-0.0108624995,-0.01925,-0.0248875
1679932377405,1112365759327453,-0.0099,-0.022275,-0.02695
1679932377409,1112365761829838,-0.0099,-0.0182875,-0.028875
1679932377411,1112365764331991,-0.00495,-0.014162499,-0.0319
1679932377412,1112365766834145,-0.00495,-0.0132,-0.033825
1679932377415,1112365769336303,-0.0059125,-0.011275,-0.033825
1679932377417,1112365771838457,-0.007975,-0.005225,-0.0358875
1679932377419,1112365774340611,-0.006875,-0.0022,-0.0389125
1679932377422,1112365776842765,-0.00495,8.25E-4,-0.0389125
1679932377424,1112365779344995,-0.001925,0.005775,-0.03795
1679932377427,1112365781847145,-0.0039875,0.0097624995,-0.0408375
1679932377429,1112365784349222,1.375E-4,0.0127875,-0.0389125
1679932377433,1112365786851376,0.0011,0.0158125,-0.039875
1679932377434,1112365789353607,0.0011,0.0177375,-0.03795
1679932377438,1112365791855746,-9.625E-4,0.02475,-0.0389125
1679932377439,1112365794357900,1.375E-4,0.027775,-0.036849998
1679932377442,1112365796860053,0.0020625,0.0268125,-0.036849998
1679932377449,1112365799362188,0.0011,0.033825,-0.0389125
1679932377452,1112365801864342,-0.00495,0.038775,-0.03795
1679932377454,1112365804366496,-0.007975,0.04675,-0.0408375
1679932377455,1112365806868650,-0.007975,0.054725,-0.039875
1679932377456,1112365809370804,-0.0089375,0.0567875,-0.03795
1679932377459,1112365811873178,-0.0099,0.0628375,-0.036849998
1679932377460,1112365814375332,-0.0138875,0.0628375,-0.0419375
1679932377462,1112365816877486,-0.01595,0.0638,-0.03795
1679932377467,1112365819379640,-0.017875,0.0638,-0.0389125
1679932377470,1112365821881578,-0.0209,0.060775,-0.0408375
1679932377471,1112365824383732,-0.017875,0.05775,-0.0429
1679932377473,1112365826886193,-0.0209,0.0598125,-0.0408375
1679932377476,1112365829388347,-0.0229625,0.05775,-0.0429
1679932377480,1112365831890424,-0.02695,0.0528,-0.0429
1679932377482,1112365834392578,-0.028875,0.0488125,-0.045925
1679932377483,1112365836894732,-0.0339625,0.0477125,-0.047849998
1679932377486,1112365839396886,-0.039875,0.0397375,-0.050875
1679932377487,1112365841899130,-0.039875,0.032725,-0.0529375
1679932377491,1112365844401284,-0.0429,0.0298375,-0.0518375
1679932377493,1112365846903438,-0.0468875,0.0287375,-0.0539
1679932377495,1112365849405592,-0.045925,0.022824999,-0.056925
1679932377499,1112365851907746,-0.0479875,0.0158125,-0.058849998
1679932377501,1112365854409914,-0.050875,0.0127875,-0.061875
1679932377502,1112365856912068,-0.0479875,0.0097624995,-0.0688875
1679932377504,1112365859414221,-0.050875,0.00275,-0.06985
1679932377507,1112365861916375,-0.0539,-0.0012375,-0.0749375
1679932377510,1112365864418505,-0.050875,-0.005225,-0.0749375
1679932377514,1112365866920659,-0.0499125,-0.00825,-0.078925
1679932377518,1112365869422813,-0.0449625,-0.011275,-0.083875
1679932377519,1112365871924967,-0.0438625,-0.010175,-0.0859375
1679932377522,1112365874427332,-0.0468875,-0.0092124995,-0.086899996
1679932377525,1112365876929486,-0.0419375,-0.0092124995,-0.0848375
1679932377527,1112365879431640,-0.039875,-0.0012375,-0.0829125
1679932377529,1112365882072948,-0.0369875,0.0017875,-0.077825
1679932377531,1112365884435948,-0.0358875,0.005775,-0.0738375
1679932377533,1112365886938121,-0.0319,0.010725,-0.06985
1679932377535,1112365889440044,-0.02695,0.010725,-0.0658625
1679932377538,1112365891942505,-0.0218625,0.01375,-0.05995
1679932377539,1112365894444659,-0.0199375,0.014712499,-0.055825
1679932377543,1112365896946804,-0.017875,0.0127875,-0.050875
1679932377545,1112365899448881,-0.01595,0.01375,-0.039875
1679932377548,1112365901951035,-0.01595,0.01375,-0.0328625
1679932377550,1112365904453188,-0.0138875,0.01375,-0.02585
1679932377553,1112365906955419,-0.01595,0.0067375,-0.0218625
1679932377555,1112365909457568,-0.018975,0.0037125,-0.022824999
1679932377559,1112365911959722,-0.0169125,0.0017875,-0.01485
1679932377560,1112365914461876,-0.017875,8.25E-4,-0.0089375
1679932377562,1112365916964030,-0.017875,-0.005225,-0.0108624995
1679932377565,1112365919466165,-0.0149875,-0.00825,-0.006875
1679932377567,1112365921968549,-0.0149875,-0.0061875,-0.00495
1679932377569,1112365924470703,-0.01595,-0.0092124995,-0.00385
1679932377572,1112365926972626,-0.0149875,-0.016224999,-0.0059125
1679932377574,1112365929474770,-0.0138875,-0.01925,-0.001925
1679932377577,1112365931977155,-0.012925,-0.0171875,-0.001925
1679932377581,1112365934479308,-0.012925,-0.0202125,1.375E-4
1679932377583,1112365936981231,-0.012925,-0.021175,-0.0028875
1679932377586,1112365939483621,-0.0119624995,-0.022275,-0.00495
1679932377589,1112365941985775,-0.0059125,-0.0242,-0.001925
1679932377591,1112365944487929,-9.625E-4,-0.0202125,-0.00385
1679932377593,1112365946990083,-0.001925,-0.0202125,-0.00495
1679932377597,1112365949492232,1.375E-4,-0.014162499,-0.0078375
1679932377601,1112365951994385,0.0050875,-0.0122375,-0.0099
1679932377603,1112365954496616,0.0070125,-0.00825,-0.012925
1679932377605,1112365956998770,0.0111375,-0.0061875,-0.01595
1679932377606,1112365959500924,0.0100375,-0.0022,-0.017875
1679932377608,1112365962003097,0.0111375,8.25E-4,-0.0199375
1679932377610,1112365964505251,0.015125,0.010725,-0.0218625
1679932377612,1112365967007327,0.01705,0.0158125,-0.0218625
1679932377616,1112365969509481,0.0160875,0.0177375,-0.0248875
1679932377617,1112365972011712,0.0160875,0.0198,-0.022824999
1679932377619,1112365974513909,0.0191125,0.022824999,-0.0209
1679932377622,1112365977016063,0.020075,0.0268125,-0.0199375
1679932377627,1112365979518217,0.0180125,0.0268125,-0.0209
1679932377629,1112365982020386,0.0180125,0.032725,-0.0209
1679932377629,1112365984522539,0.0180125,0.027775,-0.0218625
1679932377634,1112365987024924,0.01705,0.0237875,-0.0199375
1679932377637,1112365989527078,0.015125,0.0237875,-0.0199375
1679932377638,1112365992238217,0.0111375,0.022824999,-0.0199375
1679932377640,1112365994531371,0.0111375,0.0198,-0.0218625
1679932377642,1112365997033524,0.0081124995,0.01375,-0.0199375
1679932377646,1112365999535678,0.009075,0.010725,-0.0218625
1679932377648,1112366002037832,0.009075,0.0017875,-0.0209
