system_ts_ms, sensor_ts_ns, accX, accY, accZ
1679932372764,1112361115301260,1.473,2.14695,9.012
1679932372764,1112361117803414,1.8010501,2.19705,9.0070505
1679932372765,1112361120305582,1.8750001,2.367,9.06705
1679932372767,1112361122807736,2.127,2.2999501,9.10095
1679932372770,1112361125309889,2.25195,2.4850502,9.06
1679932372779,1112361127812120,2.43405,2.6899502,9.129001
1679932372779,1112361130314255,2.5480502,2.7139502,9.22305
1679932372780,1112361132816332,2.532,2.6830502,9.264001
1679932372780,1112361135318486,2.48895,2.76195,9.25905
1679932372782,1112361137820717,2.5170002,2.7460501,9.27795
1679932372785,1112361140322881,2.62995,2.72895,9.489
1679932372787,1112361142825034,2.6850002,2.7480001,9.68505
1679932372792,1112361145327188,2.70195,2.7889502,9.690001
1679932372794,1112361147829342,2.7949502,2.77395,9.679951
1679932372797,1112361150331496,2.8260002,2.74095,9.640051
1679932372798,1112361152833650,2.9250002,2.86995,9.537001
1679932372800,1112361155335804,2.8140001,2.73795,9.604051
1679932372802,1112361157838188,2.7589502,2.7769501,9.498
1679932372808,1112361160340342,2.70705,2.72895,9.606001
1679932372809,1112361162842505,2.7160501,2.71005,9.417001
1679932372811,1112361165344659,2.709,2.74095,9.457951
1679932372812,1112361167846813,2.69895,2.559,9.538951
1679932372815,1112361170348966,2.6250002,2.5470002,9.462001
1679932372817,1112361172851115,2.5890002,2.52795,9.450001
1679932372819,1112361175353346,2.48895,2.4169502,9.472051
1679932372825,1112361177855500,2.4409502,2.30205,9.481951
1679932372826,1112361180357654,2.3760002,2.2470002,9.37395
1679932372829,1112361182859818,2.3110502,2.36505,9.496051
1679932372831,1112361185361972,2.2750502,2.3170502,9.44295
1679932372833,1112361187864125,2.1769502,2.283,9.450001
1679932372836,1112361190366510,2.19195,2.3430002,9.508051
1679932372842,1112361192868664,2.23005,2.3359501,9.477
1679932372842,1112361195370823,2.2110002,2.36205,9.39105
1679932372842,1112361197872977,2.3070002,2.35305,9.450001
1679932372845,1112361200374900,2.3470502,2.3820002,9.43095
1679932372847,1112361202877053,2.52195,2.4409502,9.462001
1679932372850,1112361205379212,2.5890002,2.49405,9.460051
1679932372852,1112361207881674,2.6749501,2.6190002,9.498
1679932372858,1112361210383751,2.802,2.7,9.38805
1679932372859,1112361212885905,2.83095,2.631,9.42405
1679932372861,1112361215388059,2.88105,2.7120001,9.43395
1679932372862,1112361217890207,2.8909502,2.6790001,9.328051
1679932372867,1112361220392361,2.91,2.6520002,9.346951
1679932372869,1112361222894592,2.8909502,2.6470501,9.42405
1679932372875,1112361225396741,2.8500001,2.5780501,9.474
1679932372876,1112361227898895,2.8600502,2.595,9.54405
1679932372876,1112361230401049,2.9200501,2.53005,9.5460005
1679932372878,1112361232903202,2.94105,2.496,9.460051
1679932372881,1112361235405356,2.87895,2.46795,9.486
1679932372883,1112361237907741,2.8930502,2.427,9.505051
1679932372885,1112361240409895,2.9269502,2.5399501,9.4480505
1679932372887,1112361242912049,2.8930502,2.5519502,9.38805
1679932372891,1112361245414202,2.8840501,2.4820502,9.529051
1679932372893,1112361247916121,2.93895,2.52795,9.38595
1679932372895,1112361250418505,2.8960502,2.53695,9.394951
1679932372900,1112361252920659,2.8290002,2.4169502,9.649051
1679932372900,1112361255422890,2.7930002,2.4460502,9.4789505
1679932372904,1112361257924977,2.7280502,2.427,9.462001
1679932372909,1112361260427131,2.6850002,2.391,9.522
1679932372909,1112361262929284,2.7160501,2.46495,9.56805
1679932372911,1112361265431515,2.6230502,2.427,9.4140005
1679932372913,1112361267933669,2.6779501,2.42505,9.382951
1679932372916,1112361270435808,2.57205,2.4130502,9.529051
1679932372918,1112361272937962,2.56995,2.42895,9.361951
1679932372920,1112361275440116,2.505,2.259,9.405001
1679932372927,1112361277942193,2.592,2.358,9.42195
1679932372928,1112361280444630,2.6250002,2.355,9.5130005
1679932372929,1112361282946784,2.59605,2.35305,9.37395
1679932372930,1112361285448938,2.5890002,2.39595,9.40995
1679932372932,1112361287950861,2.5410001,2.45295,9.39795
1679932372935,1112361290453245,2.4790502,2.3500502,9.307051
1679932372937,1112361292955394,2.5150502,2.403,9.337951
1679932372942,1112361295457548,2.5480502,2.32395,9.43605
1679932372943,1112361297959702,2.4409502,2.47305,9.25905
1679932372946,1112361300461861,2.493,2.463,9.37605
1679932372948,1112361302964015,2.469,2.43405,9.28995
1679932372950,1112361305466169,2.4379501,2.49405,9.297001
1679932372952,1112361307968322,2.4169502,2.43195,9.331051
1679932372960,1112361310470476,2.4450002,2.4409502,9.240001
1679932372961,1112361312972693,2.3779502,2.38905,9.41205
1679932372961,1112361315474847,2.4120002,2.43705,9.36705
1679932372962,1112361317977001,2.42595,2.4799502,9.358951
1679932372965,1112361320479155,2.46,2.49195,9.25605
1679932372967,1112361322981312,2.50095,2.45295,9.283051
1679932372970,1112361325483466,2.532,2.48895,9.26805
1679932372975,1112361327985620,2.4739501,2.39595,9.24195
1679932372976,1112361330488005,2.4720001,2.5080001,9.28995
1679932372979,1112361332990150,2.5480502,2.532,9.283051
1679932372981,1112361335492304,2.5170002,2.523,9.28995
1679932372983,1112361337994457,2.48895,2.5849502,9.40005
1679932372985,1112361340496611,2.5080001,2.4850502,9.25395
1679932372987,1112361342998765,2.4720001,2.4750001,9.34305
1679932372992,1112361345501010,2.69895,2.571,9.37605
1679932372992,1112361348003087,2.6749501,2.5519502,9.4480505
1679932372995,1112361350505318,2.6130002,2.56605,9.469951
1679932372998,1112361353007394,2.6779501,2.56095,9.429001
1679932373000,1112361355509548,2.709,2.5129502,9.43605
1679932373002,1112361358011683,2.6490002,2.45805,9.426001
1679932373010,1112361360513914,2.697,2.499,9.534
1679932373011,1112361363016068,2.73795,2.43405,9.462001
1679932373011,1112361365518222,2.778,2.45295,9.58005
1679932373013,1112361368020352,2.8290002,2.499,9.46695
1679932373017,1112361370522505,2.7520502,2.4870002,9.44295
1679932373019,1112361373024659,2.66805,2.4460502,9.369
1679932373021,1112361375526813,2.766,2.50095,9.42195
1679932373026,1112361378029212,2.7640502,2.4390001,9.357
1679932373027,1112361380531366,2.7160501,2.5200002,9.460051
1679932373028,1112361383033519,2.6830502,2.4510002,9.505051
1679932373031,1112361385535673,2.7160501,2.4490502,9.5130005
1679932373032,1112361388037842,2.60595,2.427,9.55095
1679932373035,1112361390539996,2.6869502,2.5440001,9.417001
1679932373037,1112361393042227,2.7139502,2.43705,9.457951
1679932373044,1112361395544381,2.6539502,2.463,9.39105
1679932373045,1112361398046534,2.5800002,2.5110002,9.477
1679932373047,1112361400548688,2.6110501,2.4870002,9.450001
1679932373048,1112361403050842,2.697,2.49405,9.450001
1679932373050,1112361405552919,2.5770001,2.50095,9.465
1679932373054,1112361408055159,2.6110501,2.5159502,9.417001
1679932373059,1112361410557543,2.5819502,2.50605,9.460051
1679932373060,1112361413059467,2.5819502,2.5489502,9.328051
1679932373061,1112361415561620,2.6250002,2.48895,9.36705
1679932373062,1112361418064005,2.5840502,2.4850502,9.225
1679932373065,1112361420565948,2.5170002,2.47305,9.288
1679932373067,1112361423068102,2.5129502,2.43705,9.232051
1679932373071,1112361425570487,2.4720001,2.46795,9.240001
1679932373079,1112361428072640,2.53905,2.5080001,9.25605
1679932373080,1112361430574770,2.57205,2.45295,9.148951
1679932373081,1112361433076924,2.4139502,2.604,8.752951
1679932373081,1112361435579078,2.39505,2.42505,8.81595
1679932373082,1112361438081232,2.292,2.5110002,9.192
1679932373085,1112361440583381,2.3040001,2.4799502,9.541051
1679932373087,1112361443085611,2.35695,2.4100502,9.438001
1679932373091,1112361445587765,2.39505,2.4100502,9.558001
1679932373093,1112361448089919,2.4499502,2.43405,9.453
1679932373096,1112361450592068,2.4379501,2.331,9.4140005
1679932373098,1112361453094222,2.5510502,2.41995,9.393001
1679932373100,1112361455596376,2.4810002,2.42505,9.204
1679932373102,1112361458098760,2.4430501,2.40105,9.184951
1679932373108,1112361460600683,2.49105,2.38395,9.220051
1679932373109,1112361463103068,2.4720001,2.43405,9.163051
1679932373111,1112361465605222,2.5170002,2.45295,9.217951
1679932373114,1112361468107145,2.52495,2.5470002,9.252001
1679932373115,1112361470609299,2.5510502,2.43405,9.28995
1679932373118,1112361473111698,2.5819502,2.50095,9.429001
1679932373120,1112361475613929,2.59605,2.50605,9.39795
1679932373127,1112361478116006,2.5770001,2.4799502,9.484051
1679932373128,1112361480618160,2.565,2.50395,9.394951
1679932373129,1112361483120323,2.532,2.48895,9.402
1679932373131,1112361485622477,2.70405,2.46105,9.325951
1679932373133,1112361488124631,2.592,2.4169502,9.228001
1679932373135,1112361490626861,2.60805,2.4490502,9.30195
1679932373137,1112361493129015,2.6560502,2.391,9.402
1679932373141,1112361495631165,2.6470501,2.3719501,9.38595
1679932373142,1112361498133319,2.661,2.3100002,9.37905
1679932373146,1112361500635473,2.6490002,2.4079502,9.349951
1679932373148,1112361503137627,2.697,2.30205,9.37395
1679932373151,1112361505640015,2.5440001,2.358,9.264001
1679932373153,1112361508142169,2.67105,2.35995,9.349951
1679932373155,1112361510644323,2.6749501,2.331,9.40995
1679932373157,1112361513146477,2.6749501,2.43405,9.402
1679932373160,1112361515648400,2.697,2.4439502,9.35505
1679932373163,1112361518150780,2.6920502,2.35995,9.405001
1679932373167,1112361520652934,2.6440501,2.40105,9.285001
1679932373169,1112361523155165,2.6250002,2.43195,9.321
1679932373171,1112361525657242,2.63505,2.3740501,9.36705
1679932373173,1112361528159410,2.6490002,2.3380501,9.358951
1679932373176,1112361530661564,2.63505,2.43405,9.43095
1679932373178,1112361533163795,2.63205,2.43705,9.309
1679932373180,1112361535665871,2.59605,2.427,9.393001
1679932373183,1112361538168102,2.5870502,2.463,9.313951
1679932373187,1112361540670251,2.5440001,2.3460002,9.3
1679932373189,1112361543172405,2.5819502,2.391,9.352051
1679932373192,1112361545674559,2.56995,2.3359501,9.163051
1679932373194,1112361548176943,2.3710501,2.3719501,8.851951
1679932373195,1112361550679092,2.4190502,2.32605,9.08895
1679932373198,1112361553181246,2.469,2.4049501,9.25605
1679932373200,1112361555683400,2.529,2.3460002,9.42405
1679932373204,1112361558185545,2.63505,2.49405,9.394951
1679932373207,1112361560687699,2.6110501,2.5519502,9.4140005
1679932373209,1112361563189853,2.601,2.5159502,9.41205
1679932373210,1112361565692083,2.697,2.595,9.37395
1679932373213,1112361568194237,2.67105,2.535,9.1369505
1679932373215,1112361570696333,2.63205,2.50395,9.276
1679932373218,1112361573198487,2.6920502,2.523,9.297001
1679932373222,1112361575700641,2.697,2.5849502,9.33495
1679932373223,1112361578202795,2.6779501,2.535,9.24195
1679932373226,1112361580705025,2.6490002,2.4390001,9.187051
1679932373228,1112361583207179,2.7640502,2.48895,9.307051
1679932373231,1112361585709333,2.6950502,2.36505,9.297001
1679932373233,1112361588211487,2.70705,2.39805,9.337951
1679932373236,1112361590713641,2.73795,2.5399501,9.469951
1679932373238,1112361593215795,2.877,2.56605,9.594001
1679932373242,1112361595718179,2.83605,2.5200002,9.496051
1679932373244,1112361598220333,3.0559502,2.5399501,9.46695
1679932373247,1112361600722497,3.1620002,2.5129502,9.465
1679932373249,1112361603224651,3.186,2.46105,9.534
1679932373250,1112361605726805,3.21405,2.5870502,9.41205
1679932373253,1112361608228959,3.1879501,2.5870502,9.441
1679932373255,1112361610731107,3.28095,2.53005,9.498
1679932373258,1112361613233338,3.2310002,2.41995,9.35505
1679932373260,1112361615735492,3.2929502,2.38395,9.40695
1679932373263,1112361618237646,3.2569501,2.42505,9.405001
1679932373265,1112361620739800,3.24495,2.319,9.41895
1679932373268,1112361623241954,3.2620502,2.2810502,9.41205
1679932373271,1112361625744031,3.2020502,2.25,9.382951
1679932373273,1112361628246261,3.21405,2.283,9.37395
1679932373276,1112361630748419,3.219,2.2669501,9.39105
1679932373280,1112361633250804,3.2209501,2.286,9.352051
1679932373282,1112361635752727,3.2359502,2.3119502,9.307051
1679932373283,1112361638254881,3.25005,2.25705,9.38805
1679932373286,1112361640757035,3.2209501,2.3170502,9.38595
1679932373288,1112361643259188,3.2670002,2.3820002,9.405001
1679932373290,1112361645761573,3.3010502,2.358,9.309
1679932373293,1112361648263727,3.2929502,2.45595,9.316051
1679932373295,1112361650765881,3.3010502,2.4769502,9.24195
1679932373298,1112361653268045,3.2569501,2.5200002,9.252001
1679932373300,1112361655770198,3.2310002,2.45595,9.297001
1679932373303,1112361658272352,3.1900501,2.4769502,9.316051
1679932373306,1112361660774583,3.28395,2.47305,9.42405
1679932373308,1112361663276751,3.2310002,2.4049501,9.45495
1679932373311,1112361665778905,3.2430003,2.46495,9.481951
1679932373314,1112361668281059,3.2430003,2.40105,9.474
1679932373317,1112361670783212,3.31995,2.4169502,9.42405
1679932373319,1112361673285299,3.2050502,2.45595,9.53205
1679932373322,1112361675787530,3.2620502,2.49405,9.59595
1679932373324,1112361678289915,3.2620502,2.46105,9.481951
1679932373327,1112361680792069,3.3319502,2.4079502,9.460051
1679932373329,1112361683293982,3.3460503,2.3740501,9.37605
1679932373333,1112361685796136,3.4110003,2.463,9.4140005
1679932373334,1112361688298289,3.3750002,2.559,9.382951
1679932373336,1112361690800443,3.4750502,2.47005,9.36705
1679932373338,1112361693302828,3.4660501,2.535,9.441
1679932373340,1112361695804987,3.41805,2.43405,9.364051
1679932373343,1112361698307141,3.52095,2.6470501,9.4140005
1679932373345,1112361700809294,3.52095,2.45295,9.361951
1679932373348,1112361703311448,3.3750002,2.568,9.37905
1679932373351,1112361705813612,3.5140502,2.4870002,9.43095
1679932373354,1112361708315843,3.55695,2.45805,9.525001
1679932373357,1112361710817997,3.4990501,2.5440001,9.402
1679932373359,1112361713320151,3.55905,2.49195,9.56805
1679932373361,1112361715822304,3.5449502,2.42505,9.450001
1679932373363,1112361718324458,3.6450002,2.43195,9.402
1679932373366,1112361720826612,3.59505,2.4100502,9.316051
1679932373368,1112361723328689,3.6070502,2.47305,9.3
1679932373370,1112361725831151,3.5380502,2.3050501,9.41205
1679932373373,1112361728333300,3.5809503,2.3140502,9.394951
1679932373375,1112361730835453,3.5740502,2.4079502,9.402
1679932373378,1112361733337376,3.6139503,2.4409502,9.361951
1679932373380,1112361735839761,3.5520003,2.3479502,9.42195
1679932373384,1112361738341900,3.624,2.3740501,9.316051
1679932373409,1112361740844054,3.5500503,2.3719501,9.364051
1679932373410,1112361743346208,3.6019502,2.3700001,9.333
1679932373410,1112361745848361,3.5659502,2.32395,9.325951
1679932373410,1112361748350520,3.5830503,2.40105,9.276
1679932373411,1112361750852674,3.5500503,2.3460002,9.43395
1679932373411,1112361753354828,3.4630501,2.42505,9.328051
1679932373411,1112361755857059,3.5160003,2.3050501,9.364051
1679932373411,1112361758359213,3.5419502,2.3050501,9.36705
1679932373412,1112361760861377,3.4630501,2.2350001,9.319051
1679932373412,1112361763363530,3.4710002,2.41995,9.252001
1679932373413,1112361765865684,3.4660501,2.42895,9.204
1679932373413,1112361768367838,3.4440002,2.331,9.349951
1679932373416,1112361770870001,3.44895,2.4799502,9.25395
1679932373418,1112361773372386,3.4470003,2.4460502,9.208051
1679932373420,1112361775874539,3.56205,2.43705,9.163051
1679932373423,1112361778376693,3.42,2.3700001,9.1390505
1679932373425,1112361780878626,3.3460503,2.45295,9.10305
1679932373432,1112361783381011,3.3360002,2.4510002,9.229951
1679932373432,1112361785883165,3.2770503,2.571,9.193951
1679932373434,1112361788385329,3.25005,2.5080001,9.27105
1679932373437,1112361790887483,3.2980502,2.3740501,9.237
1679932373439,1112361793389636,3.279,2.50395,9.177
1679932373441,1112361795891790,3.28605,2.463,9.3810005
1679932373443,1112361798393944,3.2410502,2.571,9.196951
1679932373446,1112361800896088,3.2620502,2.5440001,9.1060505
1679932373448,1112361803398242,3.2929502,2.523,9.10995
1679932373450,1112361805900473,3.2359502,2.5420501,9.264001
1679932373455,1112361808402626,3.2260501,2.523,9.120001
1679932373456,1112361810904780,3.25305,2.53005,9.22305
1679932373458,1112361813406934,3.21405,2.4820502,9.12495
1679932373460,1112361815909088,3.2359502,2.4870002,9.321
1679932373463,1112361818411242,3.2020502,2.5159502,9.168
1679932373469,1112361820913583,3.2599502,2.5080001,9.108001
1679932373470,1112361823415737,3.24795,2.4820502,9.208051
1679932373472,1112361825917660,3.3100502,2.4490502,9.120001
1679932373474,1112361828419814,3.3100502,2.46795,9.05805
1679932373477,1112361830922199,3.3100502,2.4439502,8.890051
1679932373479,1112361833424353,3.4110003,2.4490502,9.085951
1679932373481,1112361835926507,3.348,2.4870002,9.23505
1679932373483,1112361838428660,3.37995,2.35995,9.0379505
1679932373486,1112361840930814,3.3409503,2.43405,9.1699505
1679932373488,1112361843432968,3.3049502,2.39805,9.153001
1679932373490,1112361845935112,3.3289502,2.4439502,9.11295
1679932373493,1112361848437343,3.3649502,2.607,8.422951
1679932373496,1112361850939497,3.4320002,2.595,8.832001
1679932373498,1112361853441650,3.3679502,2.67105,9.10095
1679932373501,1112361855943741,3.35805,2.595,8.82495
1679932373506,1112361858445972,3.3750002,2.532,9.07695
1679932373508,1112361860948126,3.3439503,2.46795,9.043051
1679932373509,1112361863450511,3.4630501,2.499,9.153001
1679932373512,1112361865952425,3.3390002,2.42895,9.048
1679932373514,1112361868454579,3.35595,2.52495,9.328051
1679932373517,1112361870956732,3.2910001,2.3460002,9.07905
1679932373519,1112361873458886,3.35295,2.32605,9.382951
1679932373523,1112361875961011,3.4249501,2.3479502,9.03405
1679932373525,1112361878463396,3.4110003,2.17995,9.165
1679932373527,1112361880965550,3.4249501,2.23305,9.213
1679932373531,1112361883467703,3.3990002,2.2350001,9.06705
1679932373532,1112361885969857,3.4390502,2.2669501,9.043051
1679932373533,1112361888472001,3.459,2.21895,9.153001
1679932373536,1112361890974155,3.42705,2.36205,9.09105
1679932373540,1112361893476309,3.5710502,2.3479502,8.93505
1679932373542,1112361895978540,3.4350002,2.20005,8.866051
1679932373548,1112361898480674,3.4470003,2.30205,9.0379505
1679932373549,1112361900982828,3.3439503,2.26395,9.015
1679932373549,1112361903484982,3.4350002,2.298,9.010051
1679932373552,1112361905987059,3.4950001,2.25495,9.049951
1679932373554,1112361908489290,3.5659502,2.3140502,9.012
1679932373557,1112361910991664,3.5140502,2.2810502,9.043051
1679932373559,1112361913493588,3.55695,2.223,9.1369505
1679932373560,1112361915995741,3.51795,2.3380501,9.05805
1679932373564,1112361918498126,3.5809503,2.3170502,9.108001
1679932373566,1112361921000280,3.624,2.394,9.09105
1679932373568,1112361923502194,3.7339501,2.2740002,8.988001
1679932373570,1112361926004348,3.68895,2.3380501,9.096001
1679932373573,1112361928506732,3.7120502,2.43405,9.144
1679932373576,1112361931008886,3.7770002,2.25705,9.08895
1679932373583,1112361933510995,3.79905,2.3479502,9.10305
1679932373583,1112361936013149,3.8149502,2.2690501,9.193951
1679932373585,1112361938515303,3.8869503,2.3700001,9.175051
1679932373586,1112361941017457,3.9540002,2.2690501,9.11505
1679932373591,1112361943519687,3.9829502,2.3100002,9.40005
1679932373592,1112361946021851,3.9900002,2.394,9.273001
1679932373593,1112361948524005,4.026,2.36505,9.22305
1679932373597,1112361951026159,4.11705,2.394,9.14595
1679932373598,1112361953528313,4.14795,2.3119502,9.25605
1679932373601,1112361956030467,4.1389503,2.259,9.28995
1679932373603,1112361958532616,4.19595,2.36205,9.26595
1679932373606,1112361961034769,4.1509504,2.2759502,9.333
1679932373608,1112361963536923,4.2660003,2.35305,9.3
1679932373610,1112361966039308,4.18905,2.25495,9.307051
1679932373614,1112361968541462,4.302,2.36505,9.370951
1679932373619,1112361971043371,4.27995,2.2710001,9.337951
1679932373620,1112361973545525,4.314,2.23305,9.325951
1679932373621,1112361976047909,4.3039503,2.16105,9.364051
1679932373623,1112361978550063,4.3500004,2.32905,9.316051
1679932373626,1112361981052226,4.42395,2.283,9.346951
1679932373628,1112361983554380,4.3039503,2.331,9.319051
1679932373631,1112361986056534,4.32795,2.2350001,9.37605
1679932373633,1112361988558688,4.29705,2.2020001,9.450001
1679932373636,1112361991060894,4.21995,2.2110002,9.36705
1679932373638,1112361993563048,4.17,2.259,9.193951
1679932373641,1112361996065202,4.14405,2.2740002,9.237
1679932373645,1112361998567356,4.1200504,2.2350001,9.193951
1679932373647,1112362001069544,4.09305,2.18295,9.24195
1679932373648,1112362003571698,4.0410004,2.2399502,9.27795
1679932373651,1112362006073851,4.13205,2.29305,9.370951
1679932373657,1112362008576005,4.0999503,2.26395,9.273001
1679932373658,1112362011078380,4.0789504,2.3170502,9.26805
1679932373659,1112362013580534,4.0350003,2.259,9.165
1679932373661,1112362016082688,3.9900002,2.35305,9.252001
1679932373664,1112362018584611,4.03305,2.2470002,9.144
1679932373666,1112362021086765,3.969,2.3430002,9.108001
1679932373668,1112362023589149,3.9949503,2.3380501,9.160951
1679932373671,1112362026091380,4.03095,2.3500502,9.085951
1679932373674,1112362028593457,3.89895,2.358,9.040951
1679932373677,1112362031095606,4.00005,2.283,8.9740505
1679932373678,1112362033597760,3.90405,2.3790002,9.04605
1679932373681,1112362036099913,3.86805,2.2690501,9.06
1679932373683,1112362038602067,3.8509502,2.2789502,8.91195
1679932373686,1112362041104298,3.86805,2.2380002,8.9740505
1679932373688,1112362043606462,3.8850002,2.38905,8.99295
1679932373692,1112362046108616,4.0009503,2.3050501,9.06
1679932373694,1112362048610770,3.9160502,2.3170502,9.024
1679932373698,1112362051112924,3.8920503,2.38395,9.0070505
1679932373699,1112362053615120,3.9090002,2.3460002,9.016951
1679932373701,1112362056117274,3.933,2.38905,9.151051
1679932373703,1112362058619659,3.9850502,2.3170502,9.24195
1679932373706,1112362061121813,4.0470004,2.286,9.153001
1679932373708,1112362063623967,4.0680003,2.28795,9.21105
1679932373711,1112362066125914,4.03305,2.3140502,9.216001
1679932373714,1112362068628067,4.191,2.283,9.240001
1679932373717,1112362071130452,4.17705,2.3119502,9.27795
1679932373720,1112362073632683,4.2390003,2.3050501,9.25905
1679932373722,1112362076134760,4.1290503,2.23305,9.213
1679932373724,1112362078636933,4.29195,2.19,9.163051
1679932373726,1112362081139087,4.29705,2.259,9.217951
1679932373731,1112362083641240,4.25895,2.22105,9.07005
1679932373733,1112362086143385,4.33995,2.16105,9.165
1679932373734,1112362088645616,4.1940002,2.23095,9.15795
1679932373736,1112362091147770,4.263,2.18805,9.1369505
1679932373738,1112362093649924,4.3500004,2.38395,8.928
1679932373741,1112362096152078,4.1680503,2.3479502,8.96895
1679932373743,1112362098654250,4.1680503,2.38905,8.98095
1679932373750,1112362101156404,4.1599503,2.355,9.004951
1679932373751,1112362103658789,4.09305,2.43405,9.0379505
1679932373752,1112362106160943,4.08705,2.4169502,9.165
1679932373754,1112362108663126,4.0680003,2.28795,9.156
1679932373757,1112362111165049,4.086,2.3770502,9.11505
1679932373758,1112362113667433,4.038,2.4100502,9.328051
1679932373761,1112362116169587,4.05,2.2999501,9.165
1679932373765,1112362118671741,3.966,2.259,9.0
1679932373768,1112362121173885,3.9280503,2.286,9.06495
1679932373770,1112362123676039,3.9420002,2.29095,9.12195
1679932373772,1112362126178193,4.01895,2.322,9.085951
1679932373774,1112362128680336,4.0009503,2.4169502,9.10305
1679932373777,1112362131182567,4.07205,2.2669501,9.144
1679932373779,1112362133684721,4.077,2.2810502,8.9740505
1679932373781,1112362136186875,3.9090002,2.28795,9.012
1679932373783,1112362138689029,3.9259503,2.3380501,9.061951
1679932373786,1112362141191179,3.969,2.2669501,8.94705
1679932373788,1112362143693332,3.9829502,2.28795,9.003
1679932373791,1112362146195717,3.9570003,2.286,8.94705
1679932373793,1112362148697640,3.9060001,2.283,8.93295
1679932373796,1112362151199780,3.897,2.295,9.043051
1679932373798,1112362153702165,3.9180002,2.3719501,8.94705
1679932373801,1112362156204318,3.9060001,2.3140502,8.931001
1679932373805,1112362158706247,3.8869503,2.39595,8.94495
1679932373807,1112362161208400,3.9739501,2.29095,8.93295
1679932373809,1112362163710785,3.8869503,2.2350001,9.084001
1679932373811,1112362166212939,3.9739501,2.4150002,9.052951
1679932373814,1112362168715093,3.9760501,2.35995,9.09795
1679932373816,1112362171217232,3.9900002,2.391,9.144
1679932373818,1112362173719385,4.0069504,2.47005,8.986051
1679932373821,1112362176221539,4.23,2.5110002,8.916
1679932373823,1112362178723770,4.11495,2.53695,8.78505
1679932373826,1112362181225915,4.09305,2.6569502,8.871
1679932373828,1112362183728069,4.0999503,2.69295,8.847
1679932373832,1112362186230223,4.077,2.607,8.928
1679932373834,1112362188732376,4.0999503,2.70705,8.95905
1679932373836,1112362191234559,4.005,2.63805,8.97105
1679932373839,1112362193736944,4.01895,2.5870502,8.94495
1679932373842,1112362196238867,3.9450002,2.69295,8.93505
1679932373845,1112362198741021,3.9640503,2.5900502,8.964001
1679932373848,1112362201243175,3.9520502,2.568,9.08205
1679932373850,1112362203745559,3.8869503,2.5519502,8.98095
1679932373851,1112362206247482,3.8920503,2.592,9.0
1679932373853,1112362208749636,3.7909503,2.5870502,8.952001
1679932373856,1112362211252021,3.897,2.5180502,9.10995
1679932373858,1112362213754155,3.9499502,2.499,9.012
1679932373861,1112362216256309,3.9930003,2.46105,9.0720005
1679932373864,1112362218758462,4.02105,2.4390001,9.0070505
1679932373866,1112362221260616,4.0080004,2.3380501,8.931001
1679932373869,1112362223762761,4.05705,2.4169502,8.908951
1679932373872,1112362226264992,4.0140004,2.3359501,9.199051
1679932373874,1112362228767146,4.086,2.322,8.892
1679932373876,1112362231269300,4.11,2.29305,9.02595
1679932373880,1112362233771434,4.09095,2.2350001,9.06
1679932373882,1112362236273588,4.0669503,2.36505,9.055051
1679932373884,1112362238775742,4.05,2.23305,9.0379505
1679932373887,1112362241277896,4.4760003,2.22105,9.220051
1679932373888,1112362243780050,4.9219503,1.845,9.661051
1679932373891,1112362246282194,4.69395,1.74405,9.70905
1679932373893,1112362248784578,3.765,2.18505,9.982051
1679932373896,1112362251286732,3.4510503,2.391,9.345
1679932373899,1112362253788655,3.5520003,2.3100002,8.751
1679932373901,1112362256290818,3.83205,2.2710001,8.646001
1679932373903,1112362258793203,3.8590503,2.21895,8.66205
1679932373906,1112362261295357,3.7339501,2.2669501,8.586
1679932373908,1112362263797510,3.8059502,2.15205,8.79405
1679932373911,1112362266299660,3.79395,1.9549501,8.976001
1679932373914,1112362268801814,3.7480502,2.16405,9.12495
1679932373918,1112362271303968,3.7890003,2.12805,9.213
1679932373920,1112362273806122,3.79395,2.11995,9.117001
1679932373922,1112362276308342,3.8149502,2.15595,9.108001
1679932373925,1112362278810496,3.9139502,2.3410501,8.986051
1679932373927,1112362281312649,4.09095,2.331,9.129001
1679932373929,1112362283814803,4.1790004,2.4870002,9.012
1679932373932,1112362286316957,4.1790004,2.59905,9.192
1679932373933,1112362288819106,4.17495,2.7529502,9.144
1679932373936,1112362291321260,4.12395,2.7550502,9.189
1679932373938,1112362293823414,4.03095,2.8870502,9.249001
1679932373941,1112362296325567,4.03305,2.913,9.184951
1679932373943,1112362298827967,3.9229503,2.6569502,9.1699505
1679932373946,1112362301329890,3.9570003,2.7120001,9.18
1679932373949,1112362303832044,4.1080503,2.5420501,8.98095
1679932373952,1112362306334429,4.03095,2.42895,8.81805
1679932373955,1112362308836587,3.8940003,2.355,8.83695
1679932373959,1112362311338740,3.9259503,2.4100502,9.07905
1679932373960,1112362313840894,3.9019501,2.298,9.1060505
1679932373962,1112362316343048,3.9280503,2.43405,9.03405
1679932373963,1112362318845202,3.9400501,2.4100502,9.117001
1679932373966,1112362321347361,4.09305,2.38905,9.357
1679932373968,1112362323849592,4.32795,2.47305,9.316051
1679932373971,1112362326351745,4.55805,2.523,9.394951
1679932373973,1112362328853899,4.5700502,2.53005,9.549001
1679932373976,1112362331356058,4.59105,2.499,9.45495
1679932373978,1112362333858212,4.59105,2.42895,9.526951
1679932373982,1112362336360366,4.5360003,2.3479502,9.465
1679932373984,1112362338862750,4.4809504,2.42505,9.441
1679932373986,1112362341364904,4.4359503,2.4169502,9.321
1679932373989,1112362343866856,4.4050503,2.4049501,9.3
1679932373993,1112362346369241,4.347,2.496,9.06705
1679932373996,1112362348871164,4.19595,2.5830002,9.031051
1679932373998,1112362351661342,4.09305,2.52495,8.916
1679932374000,1112362353875496,3.9229503,2.59695,8.872951
1679932374002,1112362356377957,3.7099502,2.496,8.93295
1679932374003,1112362358880034,3.66,2.4390001,8.920951
1679932374006,1112362361382188,3.4990501,2.4150002,8.916
1679932374009,1112362363884342,3.4039502,2.2759502,8.923051
1679932374026,1112362366386496,3.2310002,2.1780002,8.976001
1679932374026,1112362368888650,3.186,2.094,9.05805
1679932374027,1112362371390880,3.1930501,2.025,9.1060505
1679932374027,1112362373893034,3.11595,2.046,9.043051
1679932374027,1112362376395178,3.1590002,1.9860001,8.895
1679932374027,1112362378897332,3.1879501,2.1420002,8.872951
1679932374028,1112362381399486,3.2929502,2.17995,8.93805
1679932374030,1112362383901654,3.279,2.16105,8.895
1679932374032,1112362386403808,3.3270001,2.154,8.80095
1679932374035,1112362388905961,3.4129503,2.2429502,8.883
1679932374037,1112362391408115,3.4710002,2.2110002,8.95905
1679932374039,1112362393910269,3.5400002,2.259,8.86095
1679932374041,1112362396412409,3.7390501,2.2810502,8.94495
1679932374043,1112362398914794,3.7150502,2.22795,9.003
1679932374047,1112362401416947,3.86595,2.283,8.94495
1679932374048,1112362403919101,3.8130002,2.2690501,8.919001
1679932374051,1112362406421255,4.01895,2.16405,9.06705
1679932374053,1112362408923414,3.9970503,2.298,9.08895
1679932374056,1112362411425568,4.1269503,2.3479502,8.868
1679932374058,1112362413927799,3.9739501,2.3719501,8.923051
1679932374061,1112362416429952,3.9850502,2.3460002,9.004951
1679932374064,1112362418932106,3.9109502,2.40105,8.872951
1679932374068,1112362421434260,3.9180002,2.3460002,9.12705
1679932374071,1112362423936414,3.8710501,2.36205,9.132
1679932374073,1112362426438491,3.9450002,2.4169502,9.07905
1679932374075,1112362428940726,4.01895,2.38905,9.073951
1679932374078,1112362431442880,4.0800004,2.5519502,8.97105
1679932374080,1112362433945264,4.0350003,2.6209502,8.746051
1679932374082,1112362436447187,3.9900002,2.52495,8.809051
1679932374084,1112362438949313,4.0609503,2.42205,8.93805
1679932374086,1112362441451467,3.9300003,2.5110002,9.03405
1679932374089,1112362443953621,3.9450002,2.3740501,9.09105
1679932374091,1112362446456005,3.9619503,2.3479502,9.084001
1679932374094,1112362448958159,3.966,2.42505,9.12705
1679932374099,1112362451460337,3.9300003,2.25195,9.12705
1679932374100,1112362453962491,3.9229503,2.262,9.172951
1679932374107,1112362456464602,4.0080004,2.23305,9.189
1679932374108,1112362458966756,3.9520502,2.2999501,9.11505
1679932374109,1112362461468986,3.8899503,2.42505,9.193951
1679932374110,1112362463971140,3.9450002,2.3050501,9.120001
1679932374113,1112362466473294,3.897,2.36205,9.073951
1679932374116,1112362468975448,3.90405,2.42505,9.12195
1679932374118,1112362471477588,3.8920503,2.43705,9.015
1679932374120,1112362473979665,3.9780002,2.463,9.0
1679932374123,1112362476481819,3.9109502,2.5800002,9.07905
1679932374126,1112362478984049,3.9229503,2.5080001,9.03405
1679932374128,1112362481486434,3.8440502,2.4460502,9.08895
1679932374131,1112362483988357,3.6360002,2.805,9.04605
1679932374132,1112362486490511,3.729,2.63805,9.031051
1679932374133,1112362488992665,3.8080502,2.63295,9.06
1679932374136,1112362491494824,3.8590503,2.4390001,9.02595
1679932374138,1112362493997208,3.9640503,2.463,8.92605
1679932374144,1112362496499362,4.00005,2.43405,8.863951
1679932374146,1112362499001516,3.9760501,2.42205,8.866051
1679932374148,1112362501503693,3.966,2.4169502,8.896951
1679932374149,1112362504005847,3.9450002,2.3479502,9.0
1679932374152,1112362506508001,4.065,2.28795,8.871
1679932374154,1112362509010231,4.0470004,2.29305,9.022051
1679932374157,1112362511512385,4.11705,2.35995,9.073951
1679932374158,1112362514014520,4.09305,2.2759502,8.99295
1679932374161,1112362516516674,4.1389503,2.283,8.892
1679932374165,1112362519018828,4.08405,2.283,9.06705
1679932374167,1112362521520905,4.14405,2.3100002,8.908951
1679932374169,1112362524023045,4.12395,2.38905,8.916
1679932374171,1112362526525275,4.2180004,2.463,9.07695
1679932374175,1112362529027660,4.29405,2.331,8.99295
1679932374176,1112362531529583,4.22505,2.4409502,8.931001
1679932374180,1112362534031718,4.26105,2.3820002,9.061951
1679932374182,1112362536533872,4.302,2.3790002,9.022051
1679932374184,1112362539036026,4.3180504,2.2789502,8.91405
1679932374187,1112362541538410,4.3780503,2.3770502,8.93295
1679932374189,1112362544040564,4.51695,2.39805,8.89995
1679932374192,1112362546542742,4.5270004,2.41995,9.02595
1679932374194,1112362549044896,4.4760003,2.50605,8.93295
1679932374198,1112362551547050,4.464,2.4490502,9.0070505
1679932374199,1112362554049203,4.44495,2.4769502,8.99505
1679932374201,1112362556551357,4.347,2.4150002,8.99295
1679932374203,1112362559053530,4.4209504,2.3820002,9.055051
1679932374206,1112362561555761,4.29195,2.36505,8.97105
1679932374209,1112362564057915,4.347,2.4049501,8.904
1679932374214,1112362566560069,4.3660502,2.3119502,8.998051
1679932374215,1112362569062156,4.32795,2.463,9.06705
1679932374218,1112362571564309,4.2319503,2.4750001,9.05805
1679932374220,1112362574066540,4.1940002,2.45295,8.98095
1679932374222,1112362576568694,4.203,2.358,8.95695
1679932374224,1112362579070867,4.275,2.3860502,9.016951
1679932374227,1112362581573021,4.1989503,2.43705,8.883
1679932374229,1112362584075175,4.122,2.42895,8.986051
1679932374232,1112362586577328,4.0740004,2.3820002,8.93295
1679932374234,1112362589079713,4.16505,2.38395,9.024
1679932374237,1112362591581881,4.2060003,2.42895,9.040951
1679932374239,1112362594084035,4.1530504,2.298,8.895
1679932374241,1112362596586189,4.2109504,2.39805,8.976001
1679932374244,1112362599088343,4.215,2.3700001,9.061951
1679932374246,1112362601590501,4.158,2.43405,9.073951
1679932374249,1112362604092655,4.32795,2.3820002,9.085951
1679932374251,1112362606594809,4.24695,2.39595,8.99505
1679932374255,1112362609096968,4.2850504,2.45295,8.93505
1679932374258,1112362611599199,4.29195,2.367,9.040951
1679932374259,1112362614101353,4.2660003,2.3719501,9.1369505
1679932374262,1112362616603429,4.3500004,2.3380501,8.943001
1679932374264,1112362619105583,4.43295,2.43705,8.98095
1679932374267,1112362621607814,4.3830004,2.2789502,8.98095
1679932374269,1112362624109968,4.314,2.42505,9.05805
1679932374272,1112362626612122,4.35405,2.322,8.976001
1679932374274,1112362629114276,4.3830004,2.3170502,9.028951
1679932374277,1112362631616473,4.34205,2.35995,9.055051
1679932374279,1112362634118626,4.40205,2.3719501,9.108001
1679932374282,1112362636620780,4.479,2.3050501,9.07695
1679932374286,1112362639123165,4.3500004,2.3050501,8.986051
1679932374287,1112362641625319,4.38105,2.3740501,9.05805
1679932374289,1112362644127487,4.3879504,2.2450502,8.998051
1679932374293,1112362646629640,4.38105,2.29305,8.890051
1679932374296,1112362649131794,4.4689503,2.295,9.004951
1679932374298,1112362651633944,4.44495,2.25495,9.0379505
1679932374300,1112362654136175,4.3759503,2.319,8.94705
1679932374301,1112362656638252,4.4050503,2.286,8.89995
1679932374304,1112362659140483,4.3830004,2.3359501,8.979
1679932374307,1112362661642636,4.42605,2.21595,8.99295
1679932374309,1112362664144717,4.4359503,2.286,8.923051
1679932374312,1112362666646871,4.42605,2.2470002,9.08895
1679932374314,1112362669149102,4.5030003,2.21895,8.928
1679932374317,1112362671651256,4.431,2.25495,8.863951
1679932374319,1112362674153396,4.6320004,2.32605,8.83695
1679932374321,1112362676655550,4.56705,2.19705,8.904
1679932374324,1112362679157703,4.5,2.259,8.92605
1679932374326,1112362681660088,4.60605,2.28795,8.940001
1679932374331,1112362684162232,4.6150503,2.35995,8.952001
1679932374333,1112362686664386,4.623,2.283,8.95905
1679932374334,1112362689166309,4.5480003,2.2759502,8.923051
1679932374337,1112362691668463,4.5529504,2.283,8.964001
1679932374339,1112362694170847,4.6200004,2.25,8.931001
1679932374341,1112362696673078,4.66995,2.355,8.93505
1679932374343,1112362699175155,4.47405,2.36205,9.012
1679932374347,1112362701677309,4.53195,2.3740501,9.012
1679932374349,1112362704179463,4.53405,2.32905,9.012
1679932374352,1112362706681589,4.572,2.391,8.904
1679932374354,1112362709183742,4.49595,2.3050501,9.031051
1679932374359,1112362711685973,4.50495,2.295,8.892
1679932374360,1112362714188127,4.53195,2.298,8.94705
1679932374362,1112362716690281,4.57695,2.322,9.043051
1679932374364,1112362719192420,4.51695,2.319,8.871
1679932374368,1112362721694574,4.5480003,2.322,8.94705
1679932374370,1112362724196727,4.45695,2.2690501,8.943001
1679932374373,1112362726698881,4.395,2.3380501,8.976001
1679932374377,1112362729201218,4.55805,2.39595,8.964001
1679932374379,1112362731703372,4.48605,2.3380501,8.9740505
1679932374381,1112362734205526,4.45305,2.30205,8.90205
1679932374382,1112362736707449,4.464,2.36205,9.0070505
1679932374384,1112362739209603,4.45305,2.3740501,8.96895
1679932374386,1112362741711992,4.39995,2.463,8.923051
1679932374389,1112362744214223,4.39305,2.331,9.019051
1679932374394,1112362746716300,4.2730503,2.2759502,8.904
1679932374396,1112362749218454,4.2709503,2.42505,8.955001
1679932374398,1112362751720593,4.3060503,2.283,9.028951
1679932374400,1112362754222746,4.3180504,2.43405,8.892
1679932374401,1112362756724900,4.314,2.358,8.99505
1679932374407,1112362759227054,4.3060503,2.45295,8.99295
1679932374409,1112362761729271,4.37295,2.3410501,8.923051
1679932374410,1112362764231425,4.431,2.3119502,8.92605
1679932374412,1112362766733579,4.287,2.3500502,8.986051
1679932374415,1112362769235732,4.44495,2.3380501,8.916
1679932374417,1112362771737886,4.39305,2.3119502,9.003
1679932374419,1112362774239953,4.3570504,2.427,8.80605
1679932374421,1112362776742415,4.44105,2.496,8.928
1679932374424,1112362779244569,4.39305,2.4439502,9.010051
1679932374428,1112362781746722,4.48395,2.4100502,9.07905
1679932374429,1112362784248675,4.44495,2.39805,9.015
1679932374432,1112362786750828,4.42395,2.4769502,8.979
1679932374434,1112362789252982,4.4209504,2.47005,9.05805
1679932374437,1112362791755367,4.42605,2.3460002,8.95695
1679932374439,1112362794257521,4.4209504,2.39595,9.0379505
1679932374443,1112362796759636,4.524,2.45295,8.98305
1679932374446,1112362799261789,4.44495,2.4820502,8.923051
1679932374449,1112362801763943,4.44495,2.47005,8.93295
1679932374450,1112362804266097,4.4599504,2.45805,8.94495
1679932374452,1112362806768251,4.45695,2.35995,8.95695
1679932374454,1112362809270477,4.5529504,2.49195,8.79195
1679932374457,1112362811772631,4.53195,2.4750001,9.019051
1679932374459,1112362814274784,4.4689503,2.4049501,9.024
1679932374462,1112362816776938,4.4430003,2.43405,8.895
1679932374464,1112362819279106,4.5409503,2.3700001,9.004951
1679932374467,1112362821781260,4.40205,2.463,8.896951
1679932374469,1112362824283645,4.4599504,2.358,8.931001
1679932374472,1112362826785799,4.45695,2.32905,8.96205
1679932374474,1112362829287976,4.3879504,2.3380501,8.79705
1679932374477,1112362831789899,4.3180504,2.3770502,8.863951
1679932374481,1112362834292053,4.35195,2.4100502,8.851951
1679932374483,1112362836794207,4.43295,2.3740501,8.79405
1679932374486,1112362839296578,4.395,2.3119502,8.799001
1679932374487,1112362841798732,4.3710003,2.3070002,8.78895
1679932374489,1112362844300885,4.3159504,2.319,8.844001
1679932374491,1112362846803039,4.2990003,2.391,8.8279505
1679932374494,1112362849305193,4.2900004,2.298,8.86095
1679932374497,1112362851807351,4.2900004,2.2810502,8.776951
1679932374500,1112362854309505,4.35195,2.40105,8.878051
1679932374501,1112362856811736,4.3110003,2.334,8.964001
1679932374504,1112362859313890,4.3060503,2.46795,8.832001
1679932374507,1112362861816043,4.34205,2.32605,8.81805
1679932374509,1112362864318212,4.3900504,2.3740501,8.81295
1679932374512,1112362866820366,4.359,2.3790002,8.80095
1679932374515,1112362869322520,4.28205,2.3820002,8.863951
1679932374518,1112362871824592,4.3380003,2.2759502,8.691
1679932374521,1112362874327053,4.2850504,2.38395,8.93505
1679932374524,1112362876829207,4.3879504,2.38905,8.81295
1679932374527,1112362879331130,4.3570504,2.3719501,8.842051
1679932374529,1112362881957626,4.3330503,2.2759502,8.76105
1679932374535,1112362884544318,4.35405,2.367,8.83005
1679932374535,1112362886837857,4.3710003,2.29305,8.875951
1679932374540,1112362889340011,4.35195,2.3479502,8.79195
1679932374542,1112362891842164,4.3380003,2.367,8.80605
1679932374544,1112362894344322,4.4430003,2.35305,8.859
1679932374546,1112362896846476,4.3570504,2.367,8.80605
1679932374548,1112362899348630,4.25895,2.3119502,8.734051
1679932374551,1112362901850784,4.26795,2.3380501,8.895
1679932374553,1112362904353015,4.362,2.355,8.80395
1679932374558,1112362906855202,4.347,2.3460002,8.872951
1679932374560,1112362909357356,4.2900004,2.2789502,8.847
1679932374564,1112362911859510,4.33005,2.3170502,8.83005
1679932374566,1112362914361650,4.3759503,2.4130502,8.92605
1679932374568,1112362916863804,4.33995,2.3460002,8.75595
1679932374571,1112362919365958,4.3060503,2.3430002,8.79705
1679932374573,1112362921868342,4.33995,2.40105,8.821051
1679932374576,1112362924370496,4.32105,2.3050501,8.890051
1679932374578,1112362926872414,4.3710003,2.331,8.871
1679932374580,1112362929374568,4.36905,2.355,8.895
1679932374583,1112362931876722,4.275,2.262,8.895
1679932374585,1112362934378876,4.431,2.427,8.88
1679932374587,1112362936881260,4.3879504,2.463,8.943001
1679932374589,1112362939383423,4.44495,2.331,8.943001
1679932374591,1112362941885577,4.4359503,2.427,9.0
1679932374593,1112362944387731,4.4599504,2.427,8.890051
1679932374595,1112362946889885,4.5150003,2.4460502,8.859
1679932374598,1112362949392039,4.4359503,2.47005,8.868
1679932374600,1112362952010885,4.4760003,2.3820002,8.83695
1679932374601,1112362954396423,4.41195,2.38395,8.98095
1679932374604,1112362956898500,4.40205,2.4409502,9.02595
1679932374606,1112362959400654,4.41405,2.3719501,8.986051
1679932374608,1112362961902808,4.4479504,2.3700001,8.907001
1679932374610,1112362964405039,4.3780503,2.367,8.979
1679932374612,1112362966907193,4.3879504,2.4079502,8.95905
1679932374615,1112362969409365,4.395,2.4100502,8.871
1679932374617,1112362971911519,4.42605,2.2759502,8.920951
1679932374619,1112362974413673,4.39305,2.40105,8.878051
1679932374622,1112362976915827,4.3639503,2.3740501,8.91405
1679932374624,1112362979418212,4.3830004,2.3460002,8.847
1679932374627,1112362981920375,4.42605,2.391,8.823
1679932374632,1112362984422299,4.42395,2.295,8.844001
1679932374634,1112362986924683,4.44495,2.35305,8.868
1679932374636,1112362989426837,4.4479504,2.28795,8.832001
1679932374645,1112362991928991,4.39305,2.3460002,8.842051
1679932374645,1112362994430914,4.39305,2.4169502,8.967
1679932374645,1112362996933299,4.4620504,2.35995,8.98095
1679932374645,1112362999435452,4.42605,2.38905,8.988001
1679932374646,1112363001937692,4.3830004,2.35305,8.96895
1679932374649,1112363004439769,4.3710003,2.3740501,8.923051
1679932374651,1112363006941923,4.4430003,2.30205,8.93505
1679932374654,1112363009444077,4.3879504,2.3700001,8.96205
1679932374657,1112363011946304,4.44495,2.3050501,8.89995
1679932374659,1112363014448457,4.4170504,2.3700001,8.878051
1679932374661,1112363016950611,4.3900504,2.4409502,8.94705
1679932374664,1112363019452765,4.4290504,2.355,8.964001
1679932374668,1112363021954909,4.44495,2.35995,8.895
1679932374670,1112363024457063,4.53195,2.42205,8.916
1679932374673,1112363026959447,4.38495,2.319,9.048
1679932374676,1112363029461601,4.4380503,2.3790002,9.031051
1679932374678,1112363031963755,4.4359503,2.3740501,8.84895
1679932374680,1112363034465909,4.4209504,2.3359501,8.99295
1679932374682,1112363036968063,4.4760003,2.36205,8.964001
1679932374684,1112363039470217,4.49595,2.358,9.016951
1679932374687,1112363041972356,4.395,2.3479502,8.907001
1679932374689,1112363044474509,4.3780503,2.4799502,8.892
1679932374691,1112363046976663,4.35405,2.355,8.896951
1679932374695,1112363049478817,4.5270004,2.39595,8.923051
1679932374697,1112363051980933,4.5,2.39595,8.878051
1679932374699,1112363054483087,4.5079503,2.4409502,9.010051
1679932374701,1112363056985241,4.56495,2.3460002,8.95695
1679932374708,1112363059487452,4.4809504,2.4130502,8.904
1679932374709,1112363061989606,4.5600004,2.38905,8.923051
1679932374711,1112363064491760,4.57695,2.30205,8.96205
1679932374715,1112363066993914,4.57695,2.43705,8.952001
1679932374717,1112363069496068,4.5480003,2.41995,9.022051
1679932374721,1112363071998217,4.6129503,2.3700001,8.99295
1679932374721,1112363074500371,4.5150003,2.4490502,8.908951
1679932374723,1112363077002755,4.57905,2.3740501,8.896951
1679932374726,1112363079504909,4.596,2.4439502,8.907001
1679932374728,1112363082006832,4.5199504,2.391,8.875951
1679932374730,1112363084508986,4.51695,2.3359501,8.90205
1679932374732,1112363087011395,4.4809504,2.36205,8.866051
1679932374735,1112363089513548,4.479,2.26395,8.821051
1679932374737,1112363092015702,4.5409503,2.3820002,8.887951
1679932374739,1112363094517856,4.467,2.3700001,8.896951
1679932374743,1112363097020019,4.491,2.3070002,8.875951
1679932374746,1112363099522173,4.42605,2.3460002,9.022051
1679932374748,1112363102024327,4.4359503,2.36505,8.81295
1679932374750,1112363104526481,4.53405,2.3119502,8.890051
1679932374752,1112363107028634,4.47405,2.3460002,8.875951
1679932374754,1112363109530856,4.5100503,2.45295,8.890051
1679932374757,1112363112033010,4.47195,2.3740501,8.878051
1679932374759,1112363114535164,4.5820503,2.39805,8.83695
1679932374761,1112363117037318,4.491,2.45295,8.967
1679932374765,1112363119539476,4.5,2.391,8.842051
1679932374767,1112363122041629,4.5270004,2.367,8.81805
1679932374769,1112363124544014,4.4880004,2.3500502,8.81805
1679932374771,1112363127046168,4.55595,2.4130502,8.988001
1679932374775,1112363129548067,4.48605,2.496,8.96895
1679932374777,1112363132050221,4.45305,2.42505,8.875951
1679932374781,1112363134552605,4.5,2.53005,8.92605
1679932374782,1112363137054759,4.5409503,2.496,8.90205
1679932374785,1112363139556909,4.5750003,2.46495,8.916
1679932374787,1112363142059063,4.5100503,2.4150002,8.80095
1679932374789,1112363144561217,4.5529504,2.50095,8.896951
1679932374792,1112363147063371,4.563,2.46795,8.887951
1679932374795,1112363149565525,4.56705,2.3860502,8.74905
1679932374797,1112363152067678,4.5100503,2.46105,8.76105
1679932374799,1112363154569832,4.53195,2.4460502,8.832001
1679932374802,1112363157072063,4.5360003,2.39595,8.713051
1679932374805,1112363159574217,4.55595,2.39805,8.920951
1679932374807,1112363162076342,4.5100503,2.4439502,8.78205
1679932374809,1112363164578496,4.4380503,2.42895,8.92605
1679932374811,1112363167080649,4.5199504,2.394,8.851951
1679932374815,1112363169582803,4.48395,2.32395,8.710051
1679932374819,1112363172085154,4.5079503,2.286,8.764951
1679932374820,1112363174587308,4.5409503,2.4169502,8.80605
1679932374822,1112363177089231,4.54395,2.3790002,8.81805
1679932374824,1112363179591385,4.55595,2.367,8.8279505
1679932374826,1112363182093539,4.47405,2.3820002,8.868
1679932374829,1112363184595933,4.57905,2.403,8.7630005
1679932374832,1112363187097856,4.54605,2.403,8.88
1679932374834,1112363189600241,4.4760003,2.38395,8.91195
1679932374837,1112363192102395,4.467,2.355,8.809051
1679932374839,1112363194604549,4.45305,2.4150002,8.727
1679932374842,1112363197106721,4.5079503,2.3140502,8.752951
1679932374845,1112363199608875,4.4880004,2.3820002,8.8279505
1679932374848,1112363202111029,4.4599504,2.403,8.832001
1679932374849,1112363204613260,4.4380503,2.4169502,8.77005
1679932374851,1112363207115409,4.3830004,2.3430002,8.823
1679932374856,1112363209617563,4.3570504,2.298,8.701051
1679932374858,1112363212119717,4.42605,2.30205,8.707951
1679932374860,1112363214621798,4.3639503,2.3740501,8.80605
1679932374862,1112363217124029,4.45695,2.499,8.76105
1679932374865,1112363219626414,4.3450503,2.463,8.8279505
1679932374867,1112363222128568,4.287,2.403,8.787001
1679932374869,1112363224630491,4.26795,2.3860502,8.809051
1679932374872,1112363227132683,4.22505,2.39595,8.851951
1679932374875,1112363229634836,4.2390003,2.4169502,8.81295
1679932374877,1112363232137221,4.23,2.532,8.764951
1679932374879,1112363234639375,4.2510004,2.4100502,8.799001
1679932374882,1112363237141529,4.25895,2.41995,8.964001
1679932374885,1112363239643683,4.29705,2.4100502,8.878051
1679932374887,1112363242145837,4.26105,2.50605,8.93505
1679932374889,1112363244647990,4.1790004,2.295,8.90205
1679932374893,1112363247150221,4.27995,2.4850502,8.99505
1679932374896,1112363249652380,4.2660003,2.367,9.012
1679932374898,1112363252154534,4.27995,2.3479502,8.95905
1679932374899,1112363254656688,4.3330503,2.3719501,8.91195
1679932374901,1112363257158765,4.275,2.334,8.9740505
1679932374905,1112363259660918,4.3450503,2.3740501,9.003
1679932374907,1112363262163139,4.3759503,2.38905,9.08895
1679932374909,1112363264665524,4.29705,2.3500502,9.07695
1679932374912,1112363267167447,4.4599504,2.3820002,9.12495
1679932374915,1112363269669601,4.5220504,2.2669501,8.952001
1679932374918,1112363272171760,4.5700502,2.3430002,8.93805
1679932374920,1112363274673914,4.5,2.3119502,9.12705
1679932374922,1112363277176067,4.5409503,2.3119502,9.048
1679932374925,1112363279678452,4.644,2.21895,9.024
1679932374927,1112363282180606,4.6129503,2.3050501,9.108001
1679932374931,1112363284682770,4.7260504,2.32905,9.108001
1679932374933,1112363287184924,4.70895,2.2429502,9.04605
1679932374935,1112363289687077,4.73295,2.18295,9.022051
1679932374937,1112363292189231,4.76595,2.2039502,9.022051
1679932374939,1112363294691462,4.7299504,2.2399502,9.120001
1679932374942,1112363297193553,4.8,2.2470002,9.085951
1679932374948,1112363299695784,4.7380505,2.16105,9.192
1679932374950,1112363302197938,4.8360004,2.2429502,9.06495
1679932374951,1112363304700015,4.86,2.262,9.06
1679932374953,1112363307202163,4.8190503,2.25,9.1699505
1679932374957,1112363309704317,4.78095,2.23095,9.06705
1679932374959,1112363312206548,4.85505,2.3050501,9.084001
1679932374960,1112363314708702,4.82595,2.322,9.08205
1679932374962,1112363317210856,4.88805,2.3430002,9.004951
1679932374965,1112363319713026,4.79505,2.2399502,9.117001
1679932374970,1112363322215179,4.80495,2.25705,9.11505
1679932374972,1112363324717333,4.87605,2.4079502,9.022051
1679932374973,1112363327219718,4.79505,2.3359501,9.040951
1679932374976,1112363329721872,4.8840003,2.29305,9.108001
1679932374978,1112363332224026,4.932,2.3050501,9.184951
1679932374979,1112363334726179,4.95795,2.2069502,9.14595
1679932374982,1112363337228333,4.9669504,2.3359501,9.096001
1679932374985,1112363339730487,4.872,2.355,9.163051
1679932374987,1112363342232727,4.9240503,2.367,9.10305
1679932374989,1112363344734804,4.9080005,2.319,9.1060505
1679932374993,1112363347237035,4.872,2.36205,9.129001
1679932374995,1112363349739188,4.8619504,2.2470002,9.232051
1679932374997,1112363352241342,4.8690004,2.36505,9.12495
1679932374999,1112363354743424,4.8690004,2.3070002,9.05805
1679932375002,1112363357245578,4.872,2.36505,9.14595
1679932375007,1112363359747809,4.90005,2.3380501,9.09795
1679932375009,1112363362249973,4.833,2.25195,9.10995
1679932375011,1112363364752127,4.881,2.2399502,9.1369505
1679932375012,1112363367254280,4.848,2.21595,9.1390505
1679932375015,1112363369756434,4.848,2.2039502,9.040951
1679932375017,1112363372258588,4.84095,2.223,9.168
1679932375019,1112363374760949,4.8619504,2.214,9.049951
1679932375022,1112363377263103,4.9410005,2.1760502,9.03405
1679932375026,1112363379765256,4.848,2.2069502,9.18
1679932375027,1112363382267410,4.81395,2.154,8.97105
1679932375029,1112363384769564,4.91505,2.1349502,9.012
1679932375032,1112363387271718,4.9030504,2.25195,9.096001
1679932375035,1112363389773872,4.8910503,2.22795,8.976001
1679932375037,1112363392276026,4.821,2.2399502,9.073951
1679932375040,1112363394778270,4.84305,2.1400502,9.052951
1679932375044,1112363397280424,4.84305,2.19495,9.09795
1679932375046,1112363399782578,4.8840003,2.0650501,8.964001
1679932375048,1112363402284655,4.761,2.19495,9.024
1679932375050,1112363404786823,4.8499503,2.05305,9.028951
1679932375052,1112363407289054,4.72305,2.11605,9.036
1679932375056,1112363409791208,4.7520003,2.046,8.875951
1679932375058,1112363412293361,4.7520003,2.0730002,8.920951
1679932375059,1112363414795515,4.85505,2.046,8.866051
1679932375062,1112363417297689,4.8240004,2.049,8.931001
1679932375066,1112363419799843,4.872,1.9770001,8.95905
1679932375067,1112363422302228,4.79295,1.93605,8.854051
1679932375069,1112363424804381,4.8790503,1.9939501,8.928
1679932375072,1112363427306530,4.87395,1.9909501,8.832001
1679932375076,1112363429808684,4.8240004,2.022,8.73705
1679932375078,1112363432310838,4.8499503,1.93605,8.851951
1679932375081,1112363434812987,4.86705,1.9770001,8.81805
1679932375083,1112363437315141,4.86,1.9260001,8.80095
1679932375086,1112363439817295,4.9120502,1.8829501,8.80095
1679932375087,1112363442319448,4.99095,1.8520501,8.856
1679932375089,1112363444821602,4.9510503,1.8280501,8.866051
1679932375092,1112363447323809,4.9939504,1.9219501,8.746051
1679932375100,1112363449825886,4.9890003,1.917,8.718
1679932375101,1112363452328040,5.02995,1.86705,8.74905
1679932375103,1112363454830271,5.0779505,1.8520501,8.68395
1679932375105,1112363457332424,5.1469502,1.8550501,8.77005
1679932375107,1112363459834568,5.1540003,1.89495,8.875951
1679932375109,1112363462336722,5.0350504,1.7760001,8.82495
1679932375111,1112363464838876,5.1589503,1.8690001,8.91405
1679932375113,1112363467341030,5.1780005,1.99995,8.746051
1679932375115,1112363469843184,5.1060004,1.8739501,8.8279505
1679932375119,1112363472345568,5.1709504,1.83105,8.99295
1679932375121,1112363474847722,5.0820003,1.90005,8.955001
1679932375124,1112363477349896,5.12295,1.8349501,8.98095
1679932375127,1112363479852050,5.1139503,1.8930001,8.884951
1679932375129,1112363482354204,5.025,1.9429501,8.892
1679932375130,1112363484856358,5.07,1.8690001,9.022051
1679932375132,1112363487358511,5.025,1.8739501,8.839951
1679932375135,1112363489860659,5.04405,1.86705,9.040951
1679932375137,1112363492362890,5.025,1.9219501,9.010051
1679932375139,1112363494865044,5.025,1.9050001,9.022051
1679932375142,1112363497367121,4.9939504,1.8499501,8.95005
1679932375146,1112363499869260,5.03205,1.7539501,8.988001
1679932375147,1112363502371414,4.88595,1.7400001,8.940001
1679932375150,1112363504873644,4.872,1.8139501,9.015
1679932375154,1112363507375798,4.9750504,1.677,8.907001
1679932375157,1112363509877948,4.8960004,1.83105,9.012
1679932375159,1112363512380102,4.8790503,1.7040001,8.872951
1679932375161,1112363514882487,4.872,1.7560501,8.835
1679932375163,1112363517384410,4.8499503,1.7830501,8.928
1679932375166,1112363519886563,4.7899504,1.7179501,8.892
1679932375168,1112363522388721,4.7520003,1.8019501,9.010051
1679932375170,1112363524890875,4.7689505,1.7230501,8.878051
1679932375172,1112363527393029,4.7779503,1.74405,8.872951
1679932375175,1112363529895414,4.73295,1.70895,8.691
1679932375177,1112363532397568,4.7400002,1.7830501,8.856
1679932375179,1112363534899713,4.7779503,1.7560501,8.77005
1679932375182,1112363537401867,4.73295,1.86705,8.727
1679932375187,1112363539904021,4.716,1.881,8.64795
1679932375188,1112363542406175,4.7400002,1.8040501,8.739
1679932375190,1112363544908419,4.75395,1.9380001,8.7289505
1679932375196,1112363547410573,4.7059503,1.81605,8.740951
1679932375200,1112363549912713,4.60305,1.7899501,8.731951
1679932375202,1112363552870867,4.7179503,1.7680501,8.799001
1679932375203,1112363555011175,4.65105,1.8280501,8.835
1679932375204,1112363557419098,4.539,1.8090001,8.82495
1679932375206,1112363559921252,4.584,1.8349501,8.866051
1679932375208,1112363562423713,4.5409503,1.764,8.823
1679932375210,1112363564925637,4.563,1.8210001,8.703
1679932375212,1112363567427790,4.4380503,1.8690001,8.727
1679932375215,1112363569929944,4.5100503,1.7880001,8.79195
1679932375217,1112363572432098,4.42605,1.7539501,8.739
1679932375219,1112363574934247,4.479,1.8589501,8.740951
1679932375222,1112363577436632,4.42605,1.81605,8.79705
1679932375225,1112363579938785,4.3879504,1.8139501,8.703
1679932375227,1112363582440939,4.39995,1.69395,8.68395
1679932375231,1112363584943064,4.3639503,1.6990501,8.76795
1679932375234,1112363587445218,4.395,1.81605,8.73705
1679932375236,1112363589947372,4.314,1.8070501,8.775001
1679932375238,1112363592449526,4.3570504,1.7710501,8.80095
1679932375240,1112363594951756,4.335,1.67295,8.707951
1679932375245,1112363597453900,4.29705,1.8190501,8.679001
1679932375247,1112363599956054,4.25595,1.8330001,8.81805
1679932375248,1112363602458131,4.2850504,1.71105,8.706
1679932375250,1112363604960285,4.3060503,1.7539501,8.701051
1679932375252,1112363607462516,4.26105,1.8280501,8.809051
1679932375255,1112363609964920,4.3110003,1.8400501,8.746051
1679932375257,1112363612466843,4.2709503,1.8259501,8.72505
1679932375260,1112363614968997,4.2850504,1.74405,8.88
1679932375268,1112363617471151,4.3110003,1.764,8.740951
1679932375269,1112363619973319,4.254,1.8139501,8.72505
1679932375269,1112363622475473,4.275,1.77795,8.694
1679932375271,1112363624977627,4.27995,1.8430501,8.83005
1679932375274,1112363627480021,4.35405,1.8760501,8.743951
1679932375277,1112363629982175,4.3380003,1.8859501,8.851951
1679932375279,1112363632484329,4.44105,1.7710501,8.713051
1679932375281,1112363634986483,4.3710003,1.7560501,8.72505
1679932375282,1112363637488637,4.35195,1.74705,8.964001
1679932375286,1112363639990786,4.33995,1.74195,8.809051
1679932375287,1112363642493016,4.347,1.86705,8.856
1679932375290,1112363644995170,4.3330503,1.7040001,8.859
1679932375292,1112363647497324,4.275,1.7370001,8.83005
1679932375296,1112363649999377,4.335,1.71105,8.839951
1679932375298,1112363652501531,4.347,1.8259501,8.863951
1679932375299,1112363655003685,4.314,1.6849501,8.79195
1679932375302,1112363657506146,4.38495,1.74195,8.919001
1679932375309,1112363660008048,4.362,1.6819501,8.8279505
1679932375310,1112363662510202,4.45695,1.713,8.78505
1679932375311,1112363665012356,4.314,1.6369501,8.81595
1679932375315,1112363667514510,4.2900004,1.728,8.73705
1679932375317,1112363670016664,4.39305,1.6390501,8.868
1679932375319,1112363672518814,4.3500004,1.5979501,8.81295
1679932375323,1112363675021198,4.41405,1.6849501,8.875951
1679932375324,1112363677523352,4.37295,1.65795,8.752951
1679932375326,1112363680025506,4.35405,1.5460501,8.98095
1679932375328,1112363682527660,4.3969502,1.6060501,8.821051
1679932375330,1112363685029814,4.4089503,1.4980501,8.851951
1679932375332,1112363687531737,4.39305,1.6099501,8.907001
1679932375335,1112363690034198,4.4359503,1.55505,8.93505
1679932375337,1112363692536352,4.4380503,1.50495,8.84895
1679932375339,1112363695038506,4.4479504,1.58895,8.89995
1679932375345,1112363697540597,4.44495,1.5790501,8.77005
1679932375349,1112363700042751,4.5030003,1.455,8.821051
1679932375349,1112363702544905,4.5,1.4470501,8.84895
1679932375350,1112363705047063,4.479,1.45905,8.77305
1679932375353,1112363707549294,4.49805,1.371,8.77995
1679932375356,1112363710051448,4.4760003,1.4569501,8.851951
1679932375358,1112363712553602,4.467,1.3759501,8.731951
1679932375360,1112363715055756,4.4880004,1.3800001,8.743951
1679932375362,1112363717557910,4.43295,1.3399501,8.75805
1679932375365,1112363720060063,4.35195,1.368,8.79195
1679932375367,1112363722562448,4.2850504,1.32105,8.746051
1679932375370,1112363725064602,4.35195,1.3399501,8.740951
1679932375372,1112363727566760,4.335,1.33305,8.715
1679932375377,1112363730068914,4.2660003,1.27005,8.75595
1679932375378,1112363732571067,4.3500004,1.3440001,8.731951
1679932375382,1112363735073221,4.40205,1.31295,8.79705
1679932375383,1112363737575371,4.2439504,1.28505,8.64795
1679932375386,1112363740077525,4.33995,1.3300501,8.719951
1679932375388,1112363742579756,4.431,1.3590001,8.734051
1679932375390,1112363745081910,4.3879504,1.3759501,8.740951
1679932375393,1112363747583987,4.3060503,1.33305,8.832001
1679932375395,1112363750086115,4.3969502,1.3399501,8.706
1679932375398,1112363752588269,4.45305,1.4119501,8.65995
1679932375399,1112363755090500,4.37295,1.34895,8.844001
1679932375402,1112363757592654,4.359,1.3759501,8.839951
1679932375405,1112363760094832,4.49805,1.3920001,8.86095
1679932375407,1112363762596986,4.45695,1.3969501,8.97105
1679932375409,1112363765099139,4.4689503,1.42095,8.93805
1679932375412,1112363767601293,4.41195,1.4980501,8.96205
1679932375417,1112363770103693,4.44495,1.5619501,8.99505
1679932375419,1112363772605847,4.5079503,1.5190501,8.93805
1679932375421,1112363775108001,4.4500504,1.4310001,8.890051
1679932375423,1112363777610154,4.4880004,1.5000001,8.890051
1679932375425,1112363780112303,4.52895,1.5600001,8.851951
1679932375427,1112363782614457,4.5409503,1.4470501,8.964001
1679932375430,1112363785116380,4.57695,1.3399501,8.923051
1679932375433,1112363787618765,4.5100503,1.47105,8.99295
1679932375436,1112363790120991,4.524,1.3780501,8.9740505
1679932375438,1112363792623068,4.55595,1.5120001,8.887951
1679932375439,1112363795125221,4.5220504,1.54305,8.976001
1679932375442,1112363797627452,4.65105,1.4620501,8.859
1679932375445,1112363800129606,4.539,1.4310001,8.964001
1679932375447,1112363802631760,4.64895,1.4140501,8.89995
1679932375450,1112363805133914,4.65105,1.5270001,8.887951
1679932375452,1112363807636068,4.58895,1.5289501,8.79195
1679932375457,1112363810138197,4.6920004,1.5289501,8.878051
1679932375459,1112363812640582,4.611,1.503,8.8279505
1679932375461,1112363815142736,4.7140503,1.5700501,8.895
1679932375465,1112363817644659,4.6540504,1.50495,8.856
1679932375466,1112363820146813,4.6870503,1.5409501,8.904
1679932375468,1112363822648977,4.55595,1.6129501,8.775001
1679932375470,1112363825151361,4.6080003,1.6390501,8.95905
1679932375473,1112363827653284,4.6150503,1.6459501,8.97105
1679932375476,1112363830155669,4.6270504,1.5960001,8.890051
1679932375478,1112363832657827,4.69005,1.728,8.94705
1679932375480,1112363835159981,4.71105,1.7560501,8.887951
1679932375482,1112363837662135,4.70205,1.7350501,8.93805
1679932375485,1112363840164288,4.66305,1.71105,8.93805
1679932375487,1112363842666442,4.69395,1.74705,8.99505
1679932375490,1112363845168673,4.7140503,1.7490001,9.052951
1679932375495,1112363847670827,4.6420503,1.7730001,9.096001
1679932375499,1112363850172981,4.6540504,1.8259501,9.165
1679932375501,1112363852675135,4.6270504,1.845,9.14595
1679932375502,1112363855177208,4.7569504,1.8589501,9.132
1679932375503,1112363857679438,4.6849504,1.9069501,9.13395
1679932375505,1112363860181823,4.7380505,1.7760001,9.15795
1679932375507,1112363862683977,4.67805,1.8349501,9.1699505
1679932375512,1112363865185876,4.776,1.8070501,9.18
1679932375517,1112363867688030,4.7730002,1.78005,9.1369505
1679932375519,1112363870190184,4.7730002,1.8019501,9.193951
1679932375522,1112363872692568,4.761,1.6819501,9.172951
1679932375523,1112363875194486,4.7730002,1.81605,9.22305
1679932375524,1112363877696871,4.7970004,1.7230501,9.27105
1679932375527,1112363882699025,4.821,1.7659501,9.21105
1679932375529,1112363882837486,4.79295,1.6560001,9.24405
1679932375533,1112363885203333,4.75395,1.69395,9.27795
1679932375535,1112363887705486,4.86,1.6530001,9.18
1679932375537,1112363892707640,4.87395,1.62195,9.175051
1679932375539,1112363892812640,4.78305,1.5820501,9.12195
1679932375541,1112363895212025,4.91505,1.55505,9.187051
1679932375542,1112363897714208,4.881,1.4980501,9.175051
1679932375546,1112363900216362,4.9290004,1.5270001,9.151051
1679932375548,1112363902718515,4.9510503,1.5150001,9.049951
1679932375550,1112363905220669,4.9099503,1.6180501,9.06
1679932375553,1112363907722842,4.92705,1.5790501,9.156
1679932375556,1112363910225227,4.953,1.572,9.08895
1679932375558,1112363912727150,4.8960004,1.5120001,8.884951
1679932375559,1112363915229304,4.8619504,1.4470501,9.048
1679932375562,1112363917731458,4.761,1.4089501,8.998051
1679932375566,1112363920233616,4.79505,1.47405,9.09405
1679932375569,1112363922735770,4.821,1.4790001,8.92605
1679932375571,1112363925238155,4.7730002,1.4500501,8.964001
1679932375573,1112363927740309,4.7569504,1.4430001,8.878051
1679932375576,1112363930242453,4.6579504,1.4760001,8.83695
1679932375578,1112363932744606,4.64895,1.4760001,8.83695
1679932375581,1112363935246760,4.68195,1.491,8.892
1679932375583,1112363937748914,4.6270504,1.43505,8.923051
1679932375586,1112363940251054,4.59105,1.5340501,8.863951
1679932375587,1112363942753285,4.524,1.5499501,8.80605
1679932375591,1112363945255439,4.5100503,1.4929501,8.80395
1679932375592,1112363947757592,4.5700502,1.5979501,8.764951
1679932375596,1112363950259741,4.5270004,1.5619501,8.839951
1679932375597,1112363952761818,4.44495,1.6200001,8.80095
1679932375600,1112363955264049,4.3969502,1.6060501,8.743951
1679932375602,1112363957766434,4.4290504,1.55295,8.89995
1679932375607,1112363960268357,4.44495,1.677,8.80095
1679932375609,1112363962770511,4.407,1.69395,8.81595
1679932375610,1112363965272664,4.5270004,1.7230501,8.823
1679932375612,1112363967774818,4.4359503,1.7659501,8.92605
1679932375615,1112363970276972,4.51695,1.71105,8.923051
1679932375617,1112363972779361,4.5100503,1.7040001,8.90205
1679932375620,1112363975281515,4.48605,1.8019501,8.98305
1679932375622,1112363977783668,4.5220504,1.74195,8.97105
1679932375625,1112363980285822,4.5480003,1.7299501,9.019051
1679932375627,1112363982787976,4.54605,1.7590501,8.952001
1679932375630,1112363985290150,4.49805,1.8499501,9.04605
1679932375632,1112363987792304,4.563,1.7539501,8.908951
1679932375635,1112363990294535,4.60305,1.74195,9.003
1679932375637,1112363992796688,4.5270004,1.7320501,8.99505
1679932375640,1112363995298866,4.61805,1.7730001,8.955001
1679932375644,1112363997801020,4.5820503,1.713,9.003
1679932375646,1112364000303097,4.563,1.6459501,9.06495
1679932375648,1112364002805255,4.61805,1.7209501,9.14595
1679932375651,1112364005307716,4.6579504,1.6320001,9.049951
1679932375652,1112364007809640,4.73295,1.6390501,9.08895
1679932375655,1112364010311793,4.704,1.7040001,9.040951
1679932375657,1112364012813947,4.6870503,1.6990501,9.07005
1679932375660,1112364015316121,4.761,1.572,9.02595
1679932375663,1112364017818275,4.71105,1.57395,8.991
1679932375666,1112364020320429,4.6990504,1.5270001,9.08205
1679932375668,1112364022822813,4.70205,1.4620501,8.98095
1679932375671,1112364025324962,4.728,1.4809501,8.979
1679932375673,1112364027827116,4.68195,1.47405,8.943001
1679932375676,1112364030329270,4.78095,1.4929501,8.96205
1679932375678,1112364032831424,4.7470503,1.5480001,9.04605
1679932375682,1112364035333597,4.78305,1.46895,9.073951
1679932375684,1112364037835827,4.80495,1.55805,9.055051
1679932375686,1112364040337981,4.70205,1.62195,9.09795
1679932375688,1112364042840135,4.79295,1.4980501,8.95695
1679932375690,1112364045342289,4.8,1.5790501,8.952001
1679932375692,1112364047844366,4.8,1.6650001,9.108001
1679932375696,1112364050346597,4.821,1.5289501,9.1060505
1679932375698,1112364052848981,4.7299504,1.71105,9.1390505
1679932375700,1112364055351135,4.776,1.725,9.120001
1679932375703,1112364057853034,4.79505,1.6680001,9.04605
1679932375706,1112364060355188,4.6870503,1.67295,8.93505
1679932375708,1112364062857342,4.668,1.5600001,9.019051
1679932375711,1112364065359727,4.66995,1.62495,8.986051
1679932375712,1112364067861650,4.60305,1.6609501,9.07005
1679932375716,1112364070364034,4.55805,1.5769501,9.049951
1679932375719,1112364072866188,4.60305,1.62195,8.952001
1679932375721,1112364075368111,4.6270504,1.5600001,9.010051
1679932375723,1112364077870241,4.57695,1.6060501,8.908951
1679932375726,1112364080372626,4.63695,1.6200001,8.919001
1679932375728,1112364082874780,4.623,1.5979501,8.931001
1679932375732,1112364085376933,4.63005,1.5700501,8.955001
1679932375733,1112364087879087,4.4880004,1.58895,8.91405
1679932375735,1112364090381227,4.5870004,1.608,9.09105
1679932375737,1112364092883381,4.5600004,1.6290001,8.91195
1679932375740,1112364095385612,4.6800003,1.5670501,8.955001
1679932375742,1112364097887766,4.6129503,1.6819501,9.06
1679932375746,1112364100389899,4.656,1.6150501,8.940001
1679932375748,1112364102892053,4.65105,1.55805,8.86095
1679932375751,1112364105394207,4.60605,1.5150001,8.940001
1679932375753,1112364107896361,4.6200004,1.644,8.98095
1679932375757,1112364110398515,4.656,1.5790501,8.97105
1679932375759,1112364112900900,4.5700502,1.65795,8.99505
1679932375761,1112364115403053,4.5820503,1.50705,9.04605
1679932375762,1112364117905207,4.55595,1.52205,9.07905
1679932375765,1112364120407361,4.6200004,1.62495,9.022051
1679932375767,1112364122909506,4.5990005,1.6819501,8.928
1679932375770,1112364125411429,4.5750003,1.6030501,9.048
1679932375772,1112364127913814,4.4880004,1.6609501,9.08895
1679932375776,1112364130415967,4.539,1.4980501,8.988001
1679932375778,1112364132918130,4.6129503,1.57395,8.916
1679932375780,1112364135420284,4.6270504,1.6320001,8.99505
1679932375784,1112364137922438,4.6009502,1.62495,8.896951
1679932375786,1112364140424592,4.6540504,1.6030501,8.96895
1679932375787,1112364142926746,4.6849504,1.5700501,8.99505
1679932375791,1112364145428977,4.6870503,1.5270001,9.004951
1679932375794,1112364147931130,4.68195,1.5409501,8.99505
1679932375798,1112364150433284,4.716,1.58595,8.952001
1679932375799,1112364152935424,4.69395,1.58595,8.91195
1679932375800,1112364155437578,4.8619504,1.5979501,9.09795
1679932375802,1112364157939732,4.7520003,1.5340501,8.95005
1679932375805,1112364160442116,4.80705,1.6060501,8.93295
1679932375807,1112364162944039,4.821,1.58895,9.08895
1679932375810,1112364165446395,4.80495,1.6060501,9.024
1679932375812,1112364167948549,4.73505,1.58595,8.78505
1679932375815,1112364170450703,4.8570004,1.5979501,8.964001
1679932375818,1112364172952626,4.788,1.6060501,8.91195
1679932375820,1112364175455011,4.84095,1.55805,9.0379505
1679932375822,1112364177957174,4.8640504,1.59405,8.887951
1679932375826,1112364180459328,4.881,1.6849501,8.979
1679932375828,1112364182961482,4.8690004,1.7370001,8.868
1679932375833,1112364185463612,4.8619504,1.7010001,9.028951
1679932375835,1112364187965766,4.8120003,1.6819501,8.847
1679932375837,1112364190467920,4.92705,1.6699501,8.890051
1679932375839,1112364192970150,4.821,1.6609501,8.96895
1679932375841,1112364195472304,4.84305,1.7179501,8.919001
1679932375843,1112364197974463,4.872,1.764,8.86095
1679932375846,1112364200476617,4.9240503,1.71105,8.967
1679932375848,1112364202978771,4.79505,1.5979501,8.872951
1679932375850,1112364205480925,4.848,1.67505,8.892
1679932375852,1112364207983309,4.9669504,1.58595,8.976001
1679932375855,1112364210485227,5.025,1.6060501,8.74905
1679932375858,1112364212987381,4.8960004,1.5820501,8.875951
1679932375860,1112364215489535,4.9339504,1.6819501,8.81295
1679932375862,1112364217991920,4.8790503,1.6800001,8.86095
1679932375865,1112364220493862,4.8520503,1.725,8.884951
1679932375869,1112364222996016,4.79505,1.5480001,8.775001
1679932375872,1112364225498400,4.84305,1.58895,8.88
1679932375874,1112364228000583,4.8570004,1.6819501,8.74905
1679932375877,1112364230502737,4.8019505,1.6680001,8.883
1679932375879,1112364233004891,4.78095,1.58895,8.743951
1679932375881,1112364235507045,4.82595,1.6680001,8.809051
1679932375882,1112364238009199,4.7569504,1.58595,8.743951
1679932375885,1112364240511415,4.7850003,1.5480001,8.7630005
1679932375894,1112364243013569,4.8570004,1.55505,8.83005
1679932375894,1112364245515723,4.78095,1.572,8.734051
1679932375894,1112364248017800,4.80495,1.5270001,8.81805
1679932375895,1112364250520031,4.8240004,1.4830501,8.77305
1679932375897,1112364253022185,4.79505,1.4569501,8.809051
1679932375900,1112364255524569,4.8190503,1.5000001,8.73705
1679932375902,1112364258026492,4.788,1.47405,9.022051
1679932375907,1112364260528684,4.73505,1.4950501,8.875951
1679932375909,1112364263030838,4.80705,1.44,8.884951
1679932375911,1112364265533223,4.80705,1.5460501,8.839951
1679932375913,1112364268035146,4.7970004,1.4980501,8.895
1679932375917,1112364270537300,4.70205,1.4809501,8.920951
1679932375919,1112364273039703,4.881,1.4809501,9.028951
1679932375921,1112364275541857,4.8640504,1.47405,8.86095
1679932375923,1112364278044011,4.75395,1.4760001,8.91405
1679932375926,1112364280546165,4.75395,1.4860501,8.94495
1679932375928,1112364283048333,4.7520003,1.5670501,8.93295
1679932375931,1112364285550486,4.80705,1.5700501,8.94495
1679932375933,1112364288052717,4.7569504,1.50705,8.91195
1679932375935,1112364290554871,4.8,1.5289501,9.07005
1679932375938,1112364293057025,4.79505,1.5649501,8.98305
1679932375940,1112364295559111,4.78305,1.536,9.12495
1679932375944,1112364298061265,4.761,1.5000001,8.97105
1679932375947,1112364300563495,4.78095,1.50495,9.0
1679932375948,1112364303065649,4.71105,1.6369501,9.073951
1679932375951,1112364305567785,4.761,1.5310501,9.129001
1679932375953,1112364308069939,4.69395,1.5960001,9.141001
1679932375955,1112364310572093,4.76595,1.5840001,9.10995
1679932375957,1112364313074247,4.644,1.4809501,9.09795
1679932375960,1112364315576401,4.7179503,1.43805,9.07695
1679932375962,1112364318078568,4.65105,1.4830501,9.061951
1679932375966,1112364320580953,4.6249504,1.5820501,9.06
1679932375967,1112364323083107,4.68195,1.5409501,9.073951
1679932375970,1112364325585261,4.70895,1.572,9.1390505
1679932375973,1112364328087424,4.5990005,1.5979501,9.193951
1679932375976,1112364330589577,4.563,1.5340501,9.12495
1679932375977,1112364333091731,4.6420503,1.52205,9.028951
1679932375981,1112364335593885,4.66095,1.51005,9.06705
1679932375983,1112364338096131,4.5870004,1.455,9.108001
1679932375986,1112364340598285,4.6249504,1.5120001,9.13395
1679932375988,1112364343100362,4.584,1.5460501,9.165
1679932375991,1112364345602516,4.58895,1.47105,9.10305
1679932375992,1112364348104669,4.6470003,1.524,9.10305
1679932375996,1112364350606900,4.611,1.4670001,9.06495
1679932375997,1112364353109054,4.623,1.4470501,9.10305
1679932376000,1112364355611208,4.6009502,1.47105,8.98305
1679932376002,1112364358113362,4.5750003,1.4280001,9.096001
1679932376006,1112364360615525,4.70205,1.43295,9.019051
1679932376007,1112364363117909,4.6320004,1.488,9.003
1679932376010,1112364365620063,4.7400002,1.452,9.049951
1679932376012,1112364368122217,4.61805,1.488,9.120001
1679932376015,1112364370624366,4.70205,1.4260501,9.049951
1679932376020,1112364373126520,4.69005,1.3369501,9.040951
1679932376021,1112364375628673,4.7260504,1.3660501,9.031051
1679932376023,1112364378130827,4.7059503,1.4430001,9.108001
1679932376026,1112364380632981,4.72305,1.368,9.061951
1679932376028,1112364383135212,4.73505,1.383,9.09795
1679932376031,1112364385637366,4.6969504,1.3609501,9.120001
1679932376033,1112364388139443,4.7400002,1.3920001,9.201
1679932376036,1112364390641597,4.7400002,1.3039501,9.0379505
1679932376038,1112364393143736,4.809,1.3950001,9.184951
1679932376040,1112364395645967,4.761,1.31295,9.1060505
1679932376042,1112364398148121,4.788,1.3300501,9.168
1679932376046,1112364400650275,4.7590504,1.2889501,9.14595
1679932376048,1112364403152434,4.82595,1.3729501,9.25605
1679932376050,1112364405654588,4.809,1.4310001,9.27105
1679932376054,1112364408156741,4.69395,1.2940501,9.10995
1679932376059,1112364410659121,4.8169503,1.3039501,9.12495
1679932376061,1112364413161275,4.8190503,1.215,9.1390505
1679932376061,1112364415663429,4.85505,1.2919501,9.13395
1679932376063,1112364418165583,4.75395,1.218,9.205951
1679932376066,1112364420667736,4.7590504,1.3230001,9.28995
1679932376068,1112364423169890,4.8310504,1.1770501,9.199051
1679932376073,1112364425671798,4.8360004,1.2270001,9.285001
1679932376074,1112364428174183,4.80495,1.24605,9.264001
1679932376076,1112364430676414,4.75005,1.23705,9.13395
1679932376078,1112364433178568,4.8289504,1.19805,9.26595
1679932376081,1112364435680645,4.7730002,1.1550001,9.24405
1679932376083,1112364438182775,4.94805,1.24395,9.12705
1679932376086,1112364440684929,4.92,1.1190001,9.1369505
1679932376088,1112364443187160,4.87395,1.2390001,9.129001
1679932376090,1112364445689314,4.9410005,1.2060001,9.24195
1679932376095,1112364448191449,4.9440002,1.2409501,9.096001
1679932376099,1112364450693603,4.8570004,1.218,9.181951
1679932376101,1112364453195756,4.9120502,1.2220501,9.0379505
1679932376102,1112364455697910,4.8,1.3060501,9.11505
1679932376103,1112364458200064,4.9120502,1.2079501,9.21105
1679932376106,1112364460702444,4.7590504,1.1719501,9.14595
1679932376108,1112364463204598,4.761,1.1530501,9.22305
1679932376112,1112364465706752,4.78305,1.218,9.148951
1679932376114,1112364468208905,4.8570004,1.2079501,9.165
1679932376116,1112364470711035,4.8289504,1.2060001,9.14595
1679932376118,1112364473212958,4.8520503,1.1719501,9.165
1679932376120,1112364475715343,4.83795,1.2079501,9.264001
1679932376123,1112364478217497,4.9080005,1.251,9.187051
1679932376126,1112364480719651,4.82595,1.24905,9.144
1679932376127,1112364483221804,4.7449503,1.2970501,9.120001
1679932376132,1112364485723958,4.76595,1.3729501,9.205951
1679932376134,1112364488226112,4.8640504,1.40205,9.264001
1679932376136,1112364490728314,4.809,1.3729501,9.216001
1679932376138,1112364493230468,4.728,1.368,9.10305
1679932376140,1112364495732622,4.6750503,1.39995,9.085951
1679932376143,1112364498234776,4.7380505,1.44,9.199051
1679932376146,1112364500736929,4.644,1.4449501,9.1390505
1679932376148,1112364503239073,4.6990504,1.4260501,9.295051
1679932376151,1112364505741227,4.63005,1.3590001,9.22305
1679932376153,1112364508243612,4.6270504,1.54305,9.193951
1679932376155,1112364510745535,4.6080003,1.491,9.208051
1679932376158,1112364513247934,4.6660504,1.5120001,9.181951
1679932376160,1112364515750088,4.68195,1.46895,9.27795
1679932376163,1112364518252242,4.656,1.3969501,9.325951
1679932376166,1112364520754165,4.635,1.43295,9.264001
1679932376171,1112364523256530,4.6200004,1.4280001,9.346951
1679932376172,1112364525758684,4.623,1.4119501,9.189
1679932376174,1112364528260838,4.5700502,1.44,9.225
1679932376179,1112364530762991,4.623,1.39005,9.189
1679932376181,1112364533265145,4.6129503,1.4569501,9.201
1679932376182,1112364535767294,4.57695,1.4670001,9.273001
1679932376183,1112364538269448,4.61805,1.4119501,9.177
1679932376186,1112364540771679,4.67805,1.3920001,9.129001
1679932376188,1112364543273833,4.73505,1.3609501,9.07905
1679932376191,1112364545776005,4.80495,1.3369501,9.084001
1679932376193,1112364548278082,4.716,1.4260501,9.024
1679932376196,1112364550780313,4.68195,1.4089501,9.024
1679932376198,1112364553282467,4.7689505,1.404,9.1369505
1679932376200,1112364555784852,4.7590504,1.40205,9.12495
1679932376203,1112364558286775,4.7779503,1.31805,9.14595
1679932376207,1112364560788929,4.7260504,1.3950001,9.196951
1679932376209,1112364563291313,4.74195,1.24395,9.288
1679932376211,1112364565793467,4.68195,1.3230001,9.160951
1679932376213,1112364568295395,4.6270504,1.3470001,9.225
1679932376216,1112364570797780,4.5870004,1.43805,9.1369505
1679932376218,1112364573299934,4.60605,1.3759501,9.12195
1679932376220,1112364575802087,4.6270504,1.44,9.21105
1679932376223,1112364578304241,4.55595,1.46895,9.043051
1679932376226,1112364580806361,4.49595,1.43295,9.08895
1679932376228,1112364583308515,4.4809504,1.3420501,9.165
1679932376231,1112364585810669,4.53195,1.4089501,9.175051
1679932376233,1112364588312900,4.53195,1.4070001,9.153001
1679932376236,1112364590815053,4.45305,1.5190501,9.132
1679932376238,1112364593317207,4.59105,1.4980501,9.06705
1679932376240,1112364595819361,4.512,1.5169501,9.153001
1679932376245,1112364598321539,4.4689503,1.4980501,9.1369505
1679932376248,1112364600823693,4.55595,1.5270001,9.028951
1679932376250,1112364603326077,4.539,1.5979501,8.98095
1679932376252,1112364605828231,4.4809504,1.5150001,8.97105
1679932376253,1112364608330154,4.524,1.488,9.03405
1679932376256,1112364610832303,4.51695,1.4569501,8.91405
1679932376258,1112364613334457,4.467,1.43805,8.979
1679932376260,1112364615836611,4.44495,1.3660501,9.036
1679932376263,1112364618338765,4.584,1.4430001,8.99295
1679932376266,1112364620841183,4.54605,1.43805,8.904
1679932376268,1112364623343337,4.479,1.3230001,8.95695
1679932376271,1112364625845491,4.4359503,1.3560001,8.998051
1679932376273,1112364628347645,4.49805,1.2750001,8.952001
1679932376276,1112364630849784,4.48395,1.3590001,8.842051
1679932376278,1112364633351938,4.38495,1.3110001,8.916
1679932376282,1112364635854092,4.4359503,1.2970501,8.79195
1679932376284,1112364638356245,4.3780503,1.1740501,8.920951
1679932376286,1112364640858423,4.4500504,1.28505,8.919001
1679932376288,1112364643360577,4.47405,1.33305,8.872951
1679932376290,1112364645862808,4.41195,1.2610501,8.81595
1679932376293,1112364648364962,4.3969502,1.182,8.919001
1679932376298,1112364650867116,4.3159504,1.14795,8.866051
1679932376301,1112364653369279,4.4359503,1.167,9.003
1679932376303,1112364655871433,4.32795,1.2079501,8.96895
1679932376305,1112364658373587,4.35195,1.1839501,8.976001
1679932376307,1112364660875741,4.3710003,1.146,8.923051
1679932376309,1112364663378126,4.28205,1.23405,8.93805
1679932376313,1112364665880073,4.359,1.2060001,8.854051
1679932376314,1112364668382457,4.26795,1.146,8.78895
1679932376317,1112364670884611,4.3380003,1.15005,8.81295
1679932376321,1112364673386524,4.32795,1.2390001,8.875951
1679932376323,1112364675888678,4.38105,1.1890501,8.887951
1679932376325,1112364678391063,4.3330503,1.20105,9.0
1679932376328,1112364680893217,4.3180504,1.1220001,8.847
1679932376329,1112364683395370,4.44105,1.1839501,8.859
1679932376331,1112364685897505,4.4050503,1.16505,8.93295
1679932376333,1112364688399659,4.47405,1.182,8.821051
1679932376336,1112364690901813,4.4500504,1.1149501,8.859
1679932376338,1112364693404044,4.54395,1.1550001,8.809051
1679932376340,1112364695906198,4.47195,1.2390001,8.884951
1679932376343,1112364698408376,4.47405,1.18605,8.83005
1679932376346,1112364700910530,4.491,1.1740501,8.90205
1679932376348,1112364703412684,4.5,1.0639501,8.991
1679932376351,1112364705914838,4.4550004,1.12905,8.99505
1679932376353,1112364708416992,4.3759503,1.0309501,8.923051
1679932376358,1112364710919376,4.3710003,0.966,8.95005
1679932376360,1112364713421300,4.38105,1.011,8.919001
1679932376362,1112364715923453,4.41405,0.95895004,8.851951
1679932376364,1112364718425607,4.5150003,1.026,8.916
1679932376367,1112364720927992,4.4430003,0.87495005,8.919001
1679932376368,1112364723429915,4.4170504,0.95400006,8.96205
1679932376373,1112364725932300,4.3710003,0.88500005,8.931001
1679932376374,1112364728434453,4.395,0.87705004,8.988001
1679932376377,1112364730936607,4.4170504,0.76695,8.904
1679932376379,1112364733438761,4.4380503,0.882,8.884951
1679932376381,1112364735940915,4.464,0.80100006,8.904
1679932376383,1112364738443069,4.467,0.753,9.03405
1679932376386,1112364740945213,4.4500504,0.77895004,8.93505
1679932376388,1112364743447443,4.44495,0.70995003,8.896951
1679932376391,1112364745949597,4.48605,0.81795,9.06705
1679932376395,1112364748451770,4.57695,0.786,8.890051
1679932376397,1112364750953847,4.4809504,0.786,8.9740505
1679932376399,1112364753456001,4.66305,0.80805004,8.923051
1679932376401,1112364755958232,4.5750003,0.71895003,8.98095
1679932376403,1112364758460616,4.6200004,0.74595004,9.049951
1679932376406,1112364760962535,4.5529504,0.73395,9.0070505
1679932376408,1112364763464689,4.6150503,0.72705,9.022051
1679932376412,1112364765966843,4.5600004,0.66405004,9.022051
1679932376414,1112364768468997,4.6470003,0.70995003,9.049951
1679932376416,1112364770971146,4.644,0.69105005,9.08205
1679932376418,1112364773473300,4.61805,0.597,9.06495
1679932376421,1112364775975684,4.5409503,0.597,9.10095
1679932376425,1112364778477838,4.623,0.61395,8.99505
1679932376427,1112364780980006,4.61805,0.67095006,9.0070505
1679932376429,1112364783482160,4.5700502,0.65205,8.991
1679932376433,1112364785984314,4.6249504,0.70995003,9.0070505
1679932376435,1112364788486237,4.512,0.73605,9.043051
1679932376437,1112364790988621,4.52895,0.657,9.151051
1679932376439,1112364793490852,4.48605,0.72405005,8.94705
1679932376441,1112364795993006,4.42395,0.69795,9.0070505
1679932376443,1112364798495083,4.34205,0.71205,8.93805
1679932376449,1112364800997237,4.395,0.64305,8.976001
1679932376450,1112364803499391,4.38105,0.72405005,9.06705
1679932376451,1112364806001621,4.3330503,0.70500004,9.052951
1679932376454,1112364808503775,4.33005,0.75795,8.940001
1679932376456,1112364811005929,4.3110003,0.78900003,8.95005
1679932376458,1112364813508069,4.2730503,0.71205,8.943001
1679932376461,1112364816010223,4.335,0.74295,8.976001
1679932376466,1112364818512377,4.1940002,0.74595004,8.97105
1679932376470,1112364821014521,4.18905,0.79095006,8.998051
1679932376471,1112364823516905,4.1940002,0.83895004,8.923051
1679932376473,1112364826019059,4.1680503,0.82695,8.878051
1679932376475,1112364828521213,4.14405,0.82695,8.908951
1679932376479,1112364831023367,4.0680003,0.69105005,8.955001
1679932376481,1112364833525526,4.086,0.71205,8.96205
1679932376482,1112364836027449,3.9619503,0.68805003,9.003
1679932376484,1112364838529833,4.11705,0.753,8.976001
1679932376486,1112364841031987,4.1290503,0.62805,9.043051
1679932376488,1112364843534218,4.16505,0.73905003,8.859
1679932376491,1112364846036319,4.16505,0.65205,8.96895
1679932376494,1112364848538473,4.2660003,0.66195005,8.83695
1679932376496,1112364851040627,4.182,0.66405004,9.028951
1679932376498,1112364853542780,4.254,0.70005006,8.940001
1679932376501,1112364856045016,4.34205,0.72405005,8.93805
1679932376503,1112364858547170,4.3110003,0.67095006,8.93505
1679932376508,1112364861049324,4.3330503,0.65205,9.036
1679932376509,1112364863551478,4.33995,0.73605,8.964001
1679932376512,1112364866053632,4.29705,0.69495004,8.94495
1679932376523,1112364868555785,4.347,0.67905,8.98095
1679932376524,1112364871058170,4.37295,0.66195005,8.868
1679932376524,1112364873560324,4.34205,0.69105005,8.89995
1679932376524,1112364876062247,4.35405,0.67605,8.919001
1679932376524,1112364878564665,4.4089503,0.62100005,8.895
1679932376526,1112364881066818,4.3380003,0.72195005,9.022051
1679932376528,1112364883568742,4.3660502,0.693,9.049951
1679932376530,1112364886071126,4.3500004,0.64995,8.916
1679932376533,1112364888573285,4.4290504,0.68595004,8.907001
1679932376535,1112364891075439,4.491,0.77400005,9.028951
1679932376538,1112364893577593,4.491,0.73605,8.896951
1679932376541,1112364896079747,4.44495,0.64500004,9.022051
1679932376545,1112364898581910,4.5,0.66195005,9.024
1679932376548,1112364901084064,4.48605,0.64005005,9.010051
1679932376549,1112364903586295,4.512,0.63600004,9.0
1679932376552,1112364906088449,4.539,0.67095006,9.07905
1679932376554,1112364908590603,4.63695,0.66195005,9.019051
1679932376556,1112364911092766,4.6800003,0.72405005,9.06
1679932376561,1112364913594919,4.6270504,0.72195005,9.08895
1679932376562,1112364916097304,4.6249504,0.72900003,9.06705
1679932376564,1112364918599227,4.5529504,0.69495004,9.1390505
1679932376566,1112364921101391,4.63005,0.59505004,9.07905
1679932376568,1112364923603545,4.6579504,0.63600004,9.0720005
1679932376573,1112364926105699,4.5150003,0.68100005,9.06495
1679932376574,1112364928608083,4.5870004,0.78900003,9.153001
1679932376576,1112364931110242,4.55595,0.74100006,9.12195
1679932376581,1112364933612396,4.5990005,0.76995003,9.1369505
1679932376583,1112364936114550,4.49595,0.753,9.019051
1679932376586,1112364938616704,4.5150003,0.80805004,9.18
1679932376588,1112364941118858,4.58895,0.71895003,9.10305
1679932376589,1112364943621011,4.4620504,0.83895004,9.10995
1679932376593,1112364946123165,4.5480003,0.92505,9.184951
1679932376594,1112364948625319,4.44495,0.89205,9.208051
1679932376597,1112364951127550,4.431,0.85095006,9.160951
1679932376598,1112364953629704,4.4209504,0.92295,9.208051
1679932376601,1112364956131781,4.4290504,0.84195006,9.184951
1679932376603,1112364958633935,4.5079503,0.95595,9.213
1679932376606,1112364961136165,4.407,0.91605,9.22305
1679932376608,1112364963638319,4.45305,0.92805004,9.184951
1679932376610,1112364966140458,4.45695,0.94500005,9.26595
1679932376615,1112364968642612,4.431,0.92295,9.192
1679932376617,1112364971144766,4.4929504,0.837,9.28005
1679932376620,1112364973646939,4.3969502,0.93000007,9.1060505
1679932376622,1112364976149092,4.4760003,0.81000006,9.196951
1679932376623,1112364978651477,4.4089503,0.94200003,9.175051
1679932376626,1112364981153631,4.5270004,0.933,9.187051
1679932376628,1112364983655785,4.5750003,0.95895004,9.24705
1679932376631,1112364986157713,4.5,0.86295,9.073951
1679932376633,1112364988660098,4.44495,0.86805004,9.11505
1679932376636,1112364991162251,4.40205,0.91305006,9.165
1679932376638,1112364993664405,4.4550004,0.91095006,9.189
1679932376641,1112364996166559,4.5100503,0.89205,9.07695
1679932376643,1112364998668722,4.4809504,0.88500005,9.12495
1679932376646,1112365001170876,4.4809504,0.85605,9.085951
1679932376648,1112365003673030,4.53195,0.762,9.09795
1679932376651,1112365006175183,4.4479504,0.882,9.02595
1679932376653,1112365008677381,4.539,0.83400005,9.184951
1679932376658,1112365011179535,4.63905,0.94005007,9.153001
1679932376659,1112365013681689,4.4430003,0.95400006,9.1060505
1679932376661,1112365016183843,4.524,0.94005007,9.13395
1679932376663,1112365018685997,4.551,0.92505,9.07005
1679932376667,1112365021188146,4.4760003,0.933,8.986051
1679932376668,1112365023690299,4.5079503,0.86100006,9.144
1679932376672,1112365026192684,4.4760003,0.91305006,9.048
1679932376675,1112365028694833,4.50495,0.87705004,9.1060505
1679932376677,1112365031196987,4.41195,0.69795,8.928
1679932376679,1112365033698910,4.5199504,0.85605,9.12495
1679932376681,1112365036201064,4.42395,0.83205,9.12705
1679932376683,1112365038703448,4.49595,0.80595005,9.1390505
1679932376686,1112365041205664,4.5870004,0.837,9.12195
1679932376688,1112365043707741,4.54605,0.88500005,9.052951
1679932376691,1112365046209895,4.5220504,0.86295,9.08895
1679932376695,1112365048712030,4.623,0.80100006,9.144
1679932376698,1112365051214184,4.63695,0.84195006,9.012
1679932376699,1112365053716337,4.69395,0.82500005,9.192
1679932376701,1112365056218491,4.7569504,0.72900003,9.06495
1679932376703,1112365058720722,4.7179503,0.76995003,9.043051
1679932376706,1112365061222866,4.7299504,0.84900004,9.004951
1679932376709,1112365063725020,4.7730002,0.81795,9.061951
1679932376714,1112365066227174,4.7970004,0.83895004,9.213
1679932376715,1112365068729327,4.7299504,0.73905003,9.040951
1679932376718,1112365071231399,4.75395,0.813,9.019051
1679932376719,1112365073733861,4.70895,0.786,9.004951
1679932376721,1112365076236015,4.81395,0.70695,9.040951
1679932376724,1112365078738169,4.82595,0.693,8.991
1679932376726,1112365081240082,4.6849504,0.70695,9.05805
1679932376728,1112365083742236,4.761,0.73095006,9.096001
1679932376732,1112365086244389,4.7640004,0.70500004,8.96205
1679932376735,1112365088746774,4.7730002,0.68295,9.12195
1679932376737,1112365091248919,4.8,0.66705,9.1060505
1679932376739,1112365093751073,4.7730002,0.70695,9.160951
1679932376741,1112365096253227,4.78095,0.657,9.06
1679932376743,1112365098755380,4.8190503,0.63105005,9.156
1679932376746,1112365101257539,4.7689505,0.66195005,9.02595
1679932376748,1112365103759693,4.80495,0.71505004,8.991
1679932376752,1112365106261924,4.8120003,0.80805004,8.916
1679932376754,1112365108764001,4.8360004,0.75105006,8.952001
1679932376756,1112365111266217,4.76595,0.89205,9.187051
1679932376758,1112365113768370,4.7899504,0.81495005,8.99295
1679932376761,1112365116270524,4.7449503,0.83400005,8.967
1679932376764,1112365118772601,4.6920004,0.90900004,9.07005
1679932376766,1112365121274832,4.776,0.85395,9.0
1679932376771,1112365123776996,4.6129503,0.9799501,9.07005
1679932376773,1112365126279150,4.69395,0.91605,9.04605
1679932376774,1112365128781304,4.644,0.91605,9.0379505
1679932376777,1112365131283466,4.7179503,0.92805004,9.004951
1679932376779,1112365133785620,4.66305,1.0669501,9.05805
1679932376781,1112365136287774,4.6800003,0.94695,9.048
1679932376783,1112365138790159,4.69005,0.94695,9.108001
1679932376787,1112365141292313,4.6870503,0.93705004,9.028951
1679932376788,1112365143794466,4.7449503,0.95205003,9.07695
1679932376792,1112365146296620,4.70205,0.88500005,9.151051
1679932376794,1112365148798774,4.7640004,0.87000006,9.13395
1679932376797,1112365151300928,4.70895,0.98295003,9.153001
1679932376799,1112365153803159,4.6579504,0.98805004,9.11295
1679932376801,1112365156305236,4.6150503,0.96795005,9.151051
1679932376803,1112365158807390,4.7569504,0.78900003,9.21105
1679932376808,1112365161309543,4.6420503,0.96795005,9.040951
1679932376809,1112365163811774,4.716,0.90105003,9.108001
1679932376811,1112365166313851,4.6870503,0.933,9.06
1679932376814,1112365168816005,4.63005,0.84405005,9.144
1679932376817,1112365171318236,4.5940504,0.86505,9.09105
1679932376819,1112365173820390,4.584,0.80805004,8.9740505
1679932376821,1112365176322543,4.6080003,0.89400005,9.031051
1679932376823,1112365178824697,4.6800003,0.897,8.94495
1679932376827,1112365181326851,4.60605,0.88005006,9.049951
1679932376829,1112365183829005,4.584,0.84405005,9.096001
1679932376831,1112365186331376,4.66995,0.83205,9.040951
1679932376834,1112365188833529,4.704,0.91605,9.1369505
1679932376836,1112365191335683,4.6270504,0.94005007,9.208051
1679932376838,1112365193837606,4.6320004,0.89205,9.1060505
1679932376841,1112365196339991,4.551,0.92100006,9.181951
1679932376846,1112365198842135,4.66305,1.00695,9.273001
1679932376849,1112365201344289,4.63695,0.9799501,9.32295
1679932376851,1112365203846443,4.5870004,1.0309501,9.349951
1679932376852,1112365206348596,4.5700502,0.98295003,9.394951
1679932376854,1112365208850750,4.63695,0.98505,9.489
1679932376856,1112365211352981,4.596,0.93000007,9.29205
1679932376858,1112365213855135,4.563,1.0360501,9.32295
1679932376861,1112365216357212,4.5990005,1.0000501,9.28995
1679932376863,1112365218859443,4.5,1.0570501,9.40005
1679932376867,1112365221361596,4.44495,1.04505,9.37395
1679932376869,1112365223863673,4.407,1.0570501,9.23505
1679932376872,1112365226365827,4.3500004,1.0830001,9.345
1679932376874,1112365228868058,4.3900504,1.0999501,9.35505
1679932376877,1112365231370207,4.3180504,1.1149501,9.24195
1679932376880,1112365233872361,4.39995,1.12695,9.35505
1679932376882,1112365236374515,4.47195,1.182,9.288
1679932376886,1112365238876668,4.5360003,1.1029501,9.319051
1679932376889,1112365241378818,4.53405,1.0999501,9.213
1679932376890,1112365243881203,4.4809504,1.09305,9.117001
1679932376892,1112365246383357,4.572,1.12395,9.189
1679932376893,1112365248885511,4.65105,1.098,9.14595
1679932376896,1112365251387664,4.79295,1.02795,9.165
1679932376900,1112365253889827,4.7899504,1.05495,9.117001
1679932376901,1112365256391981,4.788,1.04505,9.177
1679932376903,1112365258894135,4.8619504,0.97800004,9.061951
1679932376907,1112365261396366,4.9360504,1.0500001,9.184951
1679932376909,1112365263898443,4.86705,1.0360501,9.120001
1679932376912,1112365266400588,4.9080005,0.93000007,9.1699505
1679932376914,1112365268902741,4.88805,0.882,9.09795
1679932376917,1112365271404895,4.872,0.92100006,9.196951
1679932376921,1112365273907039,4.8840003,0.80595005,9.177
1679932376923,1112365276409270,4.9840503,0.83400005,9.11295
1679932376927,1112365278911424,4.9120502,0.86505,9.096001
1679932376929,1112365281413578,4.95795,0.79095006,9.25905
1679932376931,1112365283915731,4.9939504,0.80295,9.096001
1679932376933,1112365286417890,4.977,0.87495005,9.193951
1679932376934,1112365288920044,5.01105,0.84405005,9.07695
1679932376937,1112365291422198,5.046,0.81795,9.085951
1679932376939,1112365293924583,5.118,0.86505,9.10095
1679932376941,1112365296426736,5.058,0.86505,8.964001
1679932376943,1112365298928880,5.07495,0.75795,8.931001
1679932376947,1112365301430803,5.0080504,0.82005006,8.96205
1679932376949,1112365303932957,4.89795,0.80295,9.0
1679932376952,1112365306435097,4.85505,0.882,9.129001
1679932376954,1112365308937482,4.8190503,0.72195005,9.12705
1679932376958,1112365311439636,4.8120003,0.85095006,9.028951
1679932376960,1112365313941789,4.72305,0.822,9.061951
1679932376962,1112365316443943,4.66995,0.76995003,9.049951
1679932376963,1112365318946092,4.57905,0.75795,9.156
1679932376967,1112365321448246,4.5870004,0.80100006,9.117001
1679932376969,1112365323950477,4.5700502,0.77400005,9.073951
1679932376971,1112365326452631,4.51695,0.69495004,9.09405
1679932376974,1112365328954693,4.50495,0.77205,9.040951
1679932376978,1112365331456923,4.5870004,0.80295,9.156
1679932376979,1112365333959077,4.53195,0.67905,9.09405
1679932376982,1112365336461231,4.5409503,0.717,9.022051
1679932376984,1112365338963308,4.464,0.67905,8.895
1679932376986,1112365341465539,4.6009502,0.73095006,9.016951
1679932376988,1112365343967693,4.4929504,0.74100006,8.91405
1679932376992,1112365346469846,4.5079503,0.74100006,8.928
1679932376995,1112365348971981,4.5,0.624,9.019051
1679932376999,1112365351474135,4.50495,0.74805003,8.99505
1679932377002,1112365353976289,4.464,0.68295,8.943001
1679932377004,1112365356478674,4.539,0.72195005,8.96895
1679932377005,1112365358980827,4.53195,0.70005006,9.055051
1679932377008,1112365361482991,4.479,0.76995003,8.98305
1679932377009,1112365363985145,4.51695,0.67095006,8.97105
1679932377011,1112365366487299,4.49595,0.65505004,8.967
1679932377015,1112365368989222,4.47195,0.64005005,8.931001
1679932377017,1112365371491630,4.5,0.71505004,8.92605
1679932377019,1112365373993861,4.45305,0.75795,8.896951
1679932377021,1112365376495937,4.54605,0.60195005,8.896951
1679932377025,1112365378998091,4.53195,0.74295,8.851951
1679932377027,1112365381500245,4.6579504,0.762,8.904
1679932377029,1112365384002429,4.57695,0.69795,8.81595
1679932377033,1112365386504583,4.5990005,0.69105005,8.907001
1679932377036,1112365389006814,4.56495,0.69795,8.83695
1679932377038,1112365391673295,4.4880004,0.717,8.979
1679932377040,1112365394011141,4.53405,0.693,8.892
1679932377042,1112365396513295,4.551,0.777,9.06
1679932377044,1112365399015449,4.55595,0.78405005,9.0
1679932377048,1112365401517603,4.54395,0.78195006,8.99295
1679932377049,1112365404019987,4.6080003,0.92100006,9.004951
1679932377051,1112365406521910,4.572,0.80805004,8.967
1679932377054,1112365409024294,4.58895,0.80805004,9.036
1679932377057,1112365411526448,4.60305,0.813,8.967
1679932377059,1112365414028602,4.6540504,0.85800004,9.1060505
1679932377061,1112365416530525,4.6129503,0.76695,9.09105
1679932377065,1112365419032679,4.7059503,0.75495005,8.99295
1679932377066,1112365421535063,4.6750503,0.76695,9.165
1679932377071,1112365424037213,4.7179503,0.75495005,9.12195
1679932377073,1112365426539367,4.6540504,0.77400005,9.048
1679932377076,1112365429041521,4.60305,0.72195005,9.073951
1679932377078,1112365431580060,4.7569504,0.70695,9.232051
1679932377081,1112365434045829,4.63695,0.75795,9.12195
1679932377082,1112365436548089,4.6969504,0.73095006,9.141001
1679932377083,1112365439050242,4.6660504,0.79095006,9.07005
1679932377086,1112365441552396,4.7520003,0.74805003,9.144
1679932377089,1112365444054473,4.75005,0.76500005,9.12195
1679932377091,1112365446556617,4.7520003,0.70995003,9.055051
1679932377093,1112365449058848,4.776,0.76695,9.165
1679932377096,1112365451561002,4.8,0.77400005,9.07905
1679932377099,1112365454063155,4.84095,0.73905003,9.177
1679932377101,1112365456565304,4.9099503,0.73395,9.229951
1679932377104,1112365459067458,4.87605,0.75795,9.204
1679932377109,1112365461569612,4.8190503,0.67605,9.1390505
1679932377111,1112365464071766,4.79505,0.79395,9.153001
1679932377113,1112365466573925,4.7590504,0.669,9.09405
1679932377116,1112365469076309,4.6870503,0.81000006,9.120001
1679932377118,1112365471578463,4.57695,0.75495005,9.07005
1679932377120,1112365474080617,4.54395,0.66195005,9.192
1679932377122,1112365476582540,4.49595,0.76995003,9.08895
1679932377126,1112365479084920,4.44105,0.72900003,9.07695
1679932377128,1112365481587074,4.5100503,0.72195005,9.06495
1679932377130,1112365484089227,4.44105,0.72405005,9.08895
1679932377131,1112365486591381,4.45305,0.70695,9.12705
1679932377134,1112365489093535,4.42395,0.73395,9.09105
1679932377136,1112365491595679,4.4809504,0.87000006,9.003
1679932377151,1112365494097833,4.45305,0.80805004,9.084001
1679932377151,1112365496600064,4.4380503,0.86100006,9.004951
1679932377151,1112365499102218,4.479,0.76695,8.988001
1679932377152,1112365501604386,4.41405,0.75795,8.86095
1679932377152,1112365504106540,4.42395,0.85095006,9.10305
1679932377152,1112365506608694,4.44105,0.88695,9.028951
1679932377153,1112365509110848,4.44495,0.75795,9.09795
1679932377156,1112365511613233,4.42395,0.84900004,9.148951
1679932377158,1112365514115405,4.4500504,0.873,9.10995
1679932377161,1112365516617328,4.55805,0.78405005,9.096001
1679932377164,1112365519119482,4.45305,0.97605,9.07005
1679932377166,1112365521621636,4.5079503,0.88905007,9.085951
1679932377169,1112365524123824,4.5600004,0.82695,9.07695
1679932377171,1112365526626209,4.467,0.75105006,9.156
1679932377174,1112365529128363,4.4809504,0.80295,9.117001
1679932377177,1112365531630516,4.47195,0.72405005,9.09405
1679932377179,1112365534132665,4.467,0.786,9.1699505
1679932377183,1112365536634819,4.5100503,0.80295,9.11505
1679932377185,1112365539136973,4.5030003,0.64305,9.08205
1679932377187,1112365541639127,4.596,0.73605,9.073951
1679932377189,1112365544141358,4.524,0.85605,8.95005
1679932377192,1112365546643511,4.644,0.79800004,9.08895
1679932377194,1112365549145665,4.6800003,0.72705,9.168
1679932377198,1112365551647819,4.66995,0.76500005,9.09105
1679932377198,1112365554149896,4.7059503,0.73605,9.07005
1679932377201,1112365556652050,4.6660504,0.81795,9.049951
1679932377204,1112365559154281,4.68195,0.82695,9.09405
1679932377207,1112365561656435,4.68195,0.76695,9.14595
1679932377208,1112365564158588,4.7779503,0.93495005,9.181951
1679932377211,1112365566660727,4.6420503,0.92805004,9.141001
1679932377215,1112365569162881,4.572,0.97605,9.1060505
1679932377217,1112365571665035,4.6420503,0.91095006,9.08895
1679932377221,1112365574167199,4.63005,0.90405005,9.14595
1679932377222,1112365576669583,4.656,0.846,9.108001
1679932377224,1112365579171737,4.656,0.95595,9.129001
1679932377227,1112365581673891,4.6990504,0.897,9.05805
1679932377229,1112365584175814,4.66095,0.91095006,9.151051
1679932377232,1112365586678185,4.6470003,0.92100006,9.12705
1679932377234,1112365589180339,4.5870004,0.92295,9.129001
1679932377237,1112365591682493,4.6129503,0.92295,8.97105
1679932377239,1112365594184646,4.596,0.897,9.1390505
1679932377241,1112365596686800,4.512,0.86505,9.1060505
1679932377246,1112365599188939,4.539,0.83400005,9.193951
1679932377247,1112365601691093,4.49805,0.80295,9.205951
1679932377249,1112365604193247,4.44495,0.76995003,9.201
1679932377251,1112365606695478,4.53195,0.77895004,9.144
1679932377253,1112365609197631,4.53405,0.69495004,9.132
1679932377258,1112365611699761,4.5030003,0.777,9.07695
1679932377260,1112365614201915,4.5700502,0.78405005,9.09405
1679932377262,1112365616704069,4.584,0.72405005,9.13395
1679932377264,1112365619206223,4.539,0.72705,9.129001
1679932377267,1112365621708396,4.41405,0.67395,9.32295
1679932377271,1112365624210550,4.5409503,0.72195005,9.181951
1679932377274,1112365626712934,4.4620504,0.69105005,9.108001
1679932377277,1112365629215088,4.43295,0.68595004,9.11295
1679932377278,1112365631717011,4.5150003,0.62595004,9.12495
1679932377279,1112365634219165,4.5409503,0.67905,9.022051
1679932377282,1112365636721319,4.584,0.6,8.99295
1679932377284,1112365639223703,4.563,0.68805003,9.06
1679932377287,1112365641725852,4.5409503,0.633,9.043051
1679932377289,1112365644228006,4.61805,0.63600004,8.964001
1679932377291,1112365646730160,4.5750003,0.68295,8.96205
1679932377296,1112365649232314,4.5480003,0.60705,8.94705
1679932377300,1112365651734478,4.55595,0.67605,8.95695
1679932377301,1112365654236631,4.6080003,0.72405005,8.976001
1679932377302,1112365656738862,4.6009502,0.67905,9.0070505
1679932377304,1112365659240939,4.5409503,0.56100005,9.09795
1679932377307,1112365661743107,4.60305,0.669,9.1060505
1679932377309,1112365664245261,4.57905,0.70305,9.028951
1679932377312,1112365666747492,4.64895,0.70305,9.132
1679932377314,1112365669249569,4.6200004,0.65205,9.010051
1679932377317,1112365671751804,4.60605,0.62805,8.890051
1679932377319,1112365674253958,4.60305,0.609,9.031051
1679932377322,1112365676756112,4.563,0.68805003,8.976001
1679932377324,1112365679258266,4.6129503,0.65505004,9.14595
1679932377327,1112365681760420,4.55595,0.71505004,9.016951
1679932377329,1112365684262545,4.58895,0.74100006,8.892
1679932377333,1112365686764698,4.5480003,0.71505004,8.923051
1679932377336,1112365689267083,4.5,0.74295,8.93805
1679932377339,1112365691769237,4.41195,0.63105005,9.016951
1679932377340,1112365694271396,4.4290504,0.67905,8.97105
1679932377341,1112365696773319,4.38495,0.75105006,8.916
1679932377344,1112365699275473,4.3780503,0.70695,8.991
1679932377348,1112365701777627,4.3759503,0.67395,9.1060505
1679932377349,1112365704280088,4.407,0.78405005,9.0379505
1679932377352,1112365706782179,4.2439504,0.72900003,9.052951
1679932377354,1112365709284333,4.3180504,0.82005006,9.181951
1679932377357,1112365711786487,4.3500004,0.76995003,9.07005
1679932377359,1112365714288641,4.41195,0.79800004,9.1060505
1679932377361,1112365716790790,4.3500004,0.84405005,9.156
1679932377364,1112365719293021,4.42395,0.88500005,9.148951
1679932377367,1112365721795175,4.41405,0.846,9.26595
1679932377371,1112365724297329,4.4089503,0.91305006,9.288
1679932377373,1112365726799366,4.4689503,0.94200003,9.26595
1679932377376,1112365729301597,4.53405,0.846,9.192
1679932377379,1112365731803751,4.5700502,0.98295003,9.28995
1679932377381,1112365734305904,4.49805,0.93495005,9.12705
1679932377382,1112365736808058,4.5100503,0.95895004,9.208051
1679932377384,1112365739310203,4.5150003,0.91605,9.165
1679932377387,1112365741812357,4.5700502,0.97305006,9.25395
1679932377389,1112365744314511,4.5079503,0.95595,9.232051
1679932377392,1112365746816665,4.4809504,0.98805004,9.14595
1679932377394,1112365749318822,4.49805,0.85605,9.18
1679932377398,1112365751821207,4.4550004,1.00695,9.264001
1679932377399,1112365754323361,4.4380503,0.90405005,9.264001
1679932377401,1112365756825284,4.512,0.933,9.361951
1679932377405,1112365759327453,4.479,0.87495005,9.333
1679932377409,1112365761829838,4.48605,0.89895004,9.319051
1679932377410,1112365764331991,4.5750003,0.90105003,9.39105
1679932377412,1112365766834145,4.53195,0.91095006,9.40695
1679932377414,1112365769336299,4.47405,0.85605,9.27105
1679932377417,1112365771838457,4.563,0.92295,9.273001
1679932377419,1112365774340611,4.572,0.85605,9.217951
1679932377421,1112365776842765,4.596,0.84900004,9.21105
1679932377424,1112365779344995,4.584,0.84900004,9.25605
1679932377427,1112365781847145,4.72305,0.85395,9.156
1679932377429,1112365784349222,4.5700502,0.71895003,9.14595
1679932377432,1112365786851376,4.64895,0.78405005,9.151051
1679932377434,1112365789353607,4.60605,0.81000006,9.1390505
1679932377438,1112365791855746,4.6920004,0.76995003,9.132
1679932377439,1112365794357900,4.6750503,0.73905003,9.024
1679932377441,1112365796860053,4.65105,0.84405005,9.1060505
1679932377449,1112365799362188,4.6420503,0.79605,9.06
1679932377452,1112365801864342,4.6129503,0.74805003,9.10305
1679932377453,1112365804366496,4.6129503,0.80805004,9.06
1679932377455,1112365806868650,4.56495,0.84195006,9.13395
1679932377456,1112365809370804,4.584,0.78195006,9.217951
1679932377459,1112365811873178,4.5270004,0.67905,9.09795
1679932377460,1112365814375332,4.53195,0.76500005,9.055051
1679932377462,1112365816877486,4.47405,0.753,9.08895
1679932377467,1112365819379640,4.4380503,0.82005006,9.160951
1679932377469,1112365821881578,4.4929504,0.86295,9.016951
1679932377470,1112365824383732,4.5,0.88905007,8.964001
1679932377473,1112365826886193,4.3879504,0.786,9.003
1679932377476,1112365829388347,4.4359503,0.83205,9.031051
1679932377479,1112365831890424,4.38495,0.85605,8.91195
1679932377481,1112365834392578,4.314,0.85605,9.028951
1679932377483,1112365836894732,4.3230004,0.91305006,9.06495
1679932377485,1112365839396886,4.2319503,0.89205,9.010051
1679932377487,1112365841899130,4.30905,0.813,9.0720005
1679932377491,1112365844401284,4.3060503,0.82005006,9.12195
1679932377493,1112365846903438,4.25595,0.89205,9.153001
1679932377494,1112365849405592,4.242,0.80100006,9.13395
1679932377498,1112365851907746,4.275,0.86100006,9.165
1679932377500,1112365854409914,4.326,0.79800004,9.1060505
1679932377502,1112365856912068,4.3180504,0.94500005,9.10095
1679932377504,1112365859414221,4.32105,0.81495005,9.175051
1679932377507,1112365861916375,4.29405,0.87495005,9.220051
1679932377510,1112365864418505,4.3159504,0.97305006,9.08895
1679932377513,1112365866920659,4.2390003,0.93705004,9.283051
1679932377517,1112365869422813,4.23705,0.933,9.21105
1679932377519,1112365871924967,4.2730503,0.873,9.156
1679932377522,1112365874427332,4.24695,0.897,9.192
1679932377524,1112365876929486,4.2900004,0.882,9.232051
1679932377527,1112365879431640,4.2900004,0.837,9.1369505
1679932377529,1112365882072948,4.38495,0.99000007,9.06
1679932377531,1112365884435948,4.464,0.81795,9.1390505
1679932377532,1112365886938121,4.4500504,0.84405005,9.184951
1679932377535,1112365889440044,4.53195,0.87705004,9.043051
1679932377538,1112365891942505,4.57695,0.82005006,8.872951
1679932377539,1112365894444659,4.69395,0.88695,8.96895
1679932377543,1112365896946804,4.7179503,0.89400005,8.839951
1679932377545,1112365899448881,4.7899504,0.873,8.81805
1679932377548,1112365901951035,4.776,0.897,8.821051
1679932377550,1112365904453188,4.88595,0.91305006,8.82495
1679932377553,1112365906955419,4.9440002,0.95205003,8.887951
1679932377555,1112365909457568,4.8960004,0.90900004,8.895
1679932377559,1112365911959722,4.92705,0.78195006,9.012
1679932377560,1112365914461876,5.0010004,0.82995003,8.854051
1679932377562,1112365916964030,4.94805,0.87000006,8.923051
1679932377564,1112365919466165,4.9360504,0.777,9.09405
1679932377567,1112365921968549,4.88595,0.88905007,9.028951
1679932377569,1112365924470703,4.8190503,0.81000006,9.12195
1679932377572,1112365926972626,4.8019505,0.71505004,9.196951
1679932377574,1112365929474770,4.79505,0.70305,9.148951
1679932377577,1112365931977155,4.64895,0.68295,9.189
1679932377579,1112365934479308,4.66305,0.65205,9.11295
1679932377582,1112365936981231,4.6270504,0.67605,9.199051
1679932377585,1112365939483621,4.5529504,0.71205,9.175051
1679932377589,1112365941985775,4.6150503,0.669,9.201
1679932377590,1112365944487929,4.58895,0.66705,9.177
1679932377592,1112365946990083,4.51695,0.62805,9.232051
1679932377597,1112365949492232,4.4500504,0.74295,9.21105
1679932377601,1112365951994385,4.42605,0.70305,9.28005
1679932377603,1112365954496616,4.4880004,0.64995,9.1369505
1679932377605,1112365956998770,4.4599504,0.74295,9.153001
1679932377606,1112365959500924,4.47195,0.74295,9.024
1679932377607,1112365962003097,4.4380503,0.71505004,9.09405
1679932377609,1112365964505251,4.43295,0.78405005,9.108001
1679932377612,1112365967007327,4.4290504,0.78405005,9.10305
1679932377615,1112365969509481,4.42605,0.78195006,9.019051
1679932377617,1112365972011712,4.3780503,0.72405005,9.040951
1679932377619,1112365974513909,4.41195,0.64500004,9.12705
1679932377621,1112365977016063,4.3900504,0.72405005,9.06495
1679932377626,1112365979518217,4.44495,0.70005006,9.10095
1679932377629,1112365982020386,4.4380503,0.67605,9.043051
1679932377629,1112365984522539,4.38105,0.753,9.012
1679932377634,1112365987024924,4.45695,0.76500005,9.03405
1679932377636,1112365989527078,4.3710003,0.86295,9.048
1679932377638,1112365992238217,4.42605,0.77400005,9.016951
1679932377640,1112365994531371,4.29195,0.82005006,9.028951
1679932377642,1112365997033524,4.3039503,0.91095006,9.040951
1679932377645,1112365999535678,4.3639503,0.76500005,9.052951
1679932377648,1112366002037832,4.254,0.85395,9.043051
1679932377649,1112366004539972,4.24695,0.906,9.031051
1679932377652,1112366007042126,4.16505,0.88005006,8.928
1679932377655,1112366009544280,4.33005,0.92505,9.07005
1679932377657,1112366012046434,4.26795,0.85800004,9.06
1679932377659,1112366014548587,4.17705,0.86295,9.0379505
1679932377662,1112366017050712,4.28205,0.84405005,8.94495
1679932377665,1112366019552943,4.28205,0.90105003,8.967
1679932377667,1112366022055097,4.263,0.88695,9.10995
1679932377671,1112366024557251,4.32795,0.89400005,9.022051
1679932377673,1112366027059405,4.26105,0.90405005,8.99505
1679932377676,1112366029561558,4.359,0.89205,9.199051
1679932377678,1112366032063712,4.362,0.87705004,9.228001
1679932377680,1112366034565866,4.3159504,0.92805004,9.18
1679932377682,1112366037068035,4.314,0.90105003,9.12705
1679932377685,1112366039570189,4.3230004,0.84900004,9.192
1679932377687,1112366042072343,4.45695,0.837,9.228001
1679932377689,1112366044574727,4.35195,0.882,9.160951
1679932377692,1112366047076881,4.3660502,0.84405005,9.172951
1679932377695,1112366049579054,4.41405,0.81795,9.23505
1679932377698,1112366052081208,4.49595,0.80295,9.14595
1679932377700,1112366054583362,4.4380503,0.85800004,9.163051
1679932377702,1112366057085285,4.47405,0.837,9.10305
1679932377706,1112366059587645,4.551,0.83895004,9.225
1679932377710,1112366062089876,4.572,0.813,9.07695
1679932377711,1112366064592030,4.57905,0.73905003,9.1369505
1679932377713,1112366067094141,4.623,0.71895003,9.12495
1679932377715,1112366069596295,4.563,0.83400005,9.165
1679932377718,1112366072098449,4.68195,0.79800004,9.168
1679932377721,1112366074600602,4.6579504,0.73095006,9.10305
1679932377723,1112366077102848,4.65105,0.80100006,9.177
1679932377728,1112366079605002,4.70205,0.86805004,9.156
1679932377729,1112366082107156,4.7590504,0.82005006,9.192
1679932377731,1112366084609310,4.6150503,0.95205003,9.201
1679932377732,1112366087111464,4.7689505,0.96105003,9.27105
1679932377735,1112366089613598,4.69005,0.89205,9.31095
1679932377737,1112366092115751,4.704,0.92805004,9.345
1679932377739,1112366094617905,4.7970004,0.86505,9.37395
1679932377742,1112366097120059,4.75005,0.92805004,9.42195
1679932377749,1112366099622420,4.76595,1.0500001,9.4140005
1679932377751,1112366102124574,4.68195,0.94500005,9.405001
1679932377752,1112366104626497,4.6969504,0.90900004,9.28995
1679932377754,1112366107128650,4.66305,0.882,9.316051
1679932377756,1112366109631035,4.7260504,0.99705005,9.450001
1679932377758,1112366112133184,4.716,1.026,9.4459505
1679932377759,1112366114635338,4.69395,0.97305006,9.469951
1679932377762,1112366117137492,4.6920004,0.96795005,9.394951
1679932377772,1112366119639646,4.70895,0.96105003,9.382951
1679932377773,1112366122141799,4.69395,0.92505,9.474
1679932377773,1112366124643977,4.8310504,0.98295003,9.41205
1679932377773,1112366127146208,4.7470503,0.93495005,9.460051
1679932377775,1112366129648362,4.7899504,0.92100006,9.328051
1679932377777,1112366132150439,4.7730002,0.91605,9.40005
1679932377779,1112366134652593,4.6849504,0.99495006,9.457951
1679932377783,1112366137154722,4.7470503,0.92295,9.525001
1679932377786,1112366139656876,4.776,0.90900004,9.51
1679932377788,1112366142159107,4.8169503,1.0030501,9.45495
1679932377789,1112366144661252,4.6800003,0.98805004,9.502951
1679932377793,1112366147163406,4.65105,1.0030501,9.364051
1679932377795,1112366149665560,4.6200004,0.95895004,9.358951
1679932377797,1112366152167714,4.728,0.98805004,9.32295
1679932377799,1112366154669867,4.69005,0.91605,9.261001
1679932377801,1112366157172256,4.6990504,0.94005007,9.26595
1679932377805,1112366159674410,4.7970004,0.88500005,9.264001
1679932377807,1112366162176564,4.7850003,0.933,9.352051
1679932377809,1112366164678487,4.69005,0.92295,9.208051
1679932377812,1112366167180886,4.7470503,0.90405005,9.12195
1679932377815,1112366169683040,4.66995,0.94905007,9.06
1679932377817,1112366172184963,4.6150503,0.99495006,9.193951
1679932377821,1112366174687348,4.53405,0.9799501,9.160951
1679932377823,1112366177189516,4.59105,1.0189501,9.156
1679932377825,1112366179691670,4.5360003,0.96795005,9.1390505
1679932377828,1112366182193824,4.464,0.84900004,8.919001
1679932377829,1112366184695977,4.43295,0.92295,9.10095
1679932377832,1112366187198131,4.3500004,0.933,9.10095
1679932377836,1112366189700377,4.4089503,0.96105003,9.06705
1679932377838,1112366192202531,4.37295,0.97605,8.96895
1679932377839,1112366194704685,4.32105,0.86100006,8.98095
1679932377842,1112366197206839,4.35195,0.94200003,8.92605
1679932377849,1112366199708910,4.3759503,0.89895004,9.0070505
1679932377849,1112366202211064,4.362,0.88695,8.847
1679932377850,1112366204713218,4.3969502,0.91800004,8.86095
1679932377852,1112366207215680,4.39305,0.84405005,8.68605
1679932377856,1112366209717603,4.35195,0.91800004,8.83695
1679932377859,1112366212219776,4.38495,0.95400006,8.863951
1679932377863,1112366214721930,4.431,0.90105003,8.93295
1679932377863,1112366217224083,4.41405,0.88500005,8.967
1679932377866,1112366219726237,4.4430003,0.92295,9.06705
1679932377867,1112366222228622,4.4500504,0.85800004,8.93295
1679932377871,1112366224730752,4.54395,1.02795,9.10305
1679932377873,1112366227232906,4.4500504,0.99495006,9.15795
1679932377877,1112366229734829,4.431,0.906,9.193951
1679932377878,1112366232237213,4.42395,0.98505,9.240001
1679932377880,1112366234739367,4.39305,1.0309501,9.096001
1679932377882,1112366237241603,4.3660502,1.04295,9.0379505
1679932377885,1112366239743680,4.29705,0.89205,8.95005
1679932377888,1112366242245834,4.27995,0.96105003,9.141001
1679932377889,1112366244747988,4.22505,0.93705004,9.1699505
1679932377892,1112366247250125,4.22295,0.85605,9.07695
1679932377899,1112366249752279,4.254,0.873,9.205951
1679932377901,1112366254754433,4.24905,0.83400005,9.337951
1679932377902,1112366254886202,4.182,0.84405005,9.35505
1679932377903,1112366257258814,4.203,0.74100006,9.201
1679932377907,1112366259760968,4.182,0.80595005,9.364051
1679932377908,1112366262263121,4.203,0.83895004,9.328051
1679932377909,1112366264765275,4.2180004,0.79800004,9.402
1679932377913,1112366267267352,4.2390003,0.79800004,9.453
1679932377915,1112366269769621,4.23495,0.74295,9.54405
1679932377918,1112366272272006,4.3570504,0.882,9.41205
1679932377919,1112366274774159,4.2900004,0.80295,9.370951
1679932377923,1112366277276083,4.2780004,0.86805004,9.426001
1679932377925,1112366279778274,4.38495,0.82005006,9.514951
1679932377928,1112366282280428,4.33005,0.91605,9.5130005
1679932377929,1112366284782582,4.2990003,0.91800004,9.37905
1679932377934,1112366287284967,4.22505,0.91800004,9.43395
1679932377936,1112366289787107,4.3110003,0.91605,9.349951
1679932377938,1112366292289260,4.33995,0.906,9.438001
1679932377940,1112366294791414,4.3570504,0.89895004,9.333
1679932377942,1112366297293568,4.36905,0.99000007,9.382951
1679932377950,1112366299795693,4.28205,0.92805004,9.405001
1679932377951,1112366302297924,4.314,0.94500005,9.346951
1679932377952,1112366304800001,4.227,0.87495005,9.4140005
1679932377953,1112366307302155,4.335,0.98805004,9.264001
1679932377955,1112366309804308,4.33995,0.93495005,9.28995
1679932377958,1112366312306539,4.3380003,0.93705004,9.156
1679932377959,1112366314808693,4.37295,0.97305006,9.192
1679932377964,1112366317310847,4.29405,0.897,9.144
1679932377966,1112366319813001,4.29405,0.96105003,9.1390505
1679932377968,1112366322315145,4.26105,1.0030501,9.160951
1679932377973,1112366324817221,4.3500004,0.89895004,9.061951
1679932377974,1112366327319375,4.29405,0.90900004,8.99505
1679932377977,1112366329821606,4.12395,0.98805004,9.052951
1679932377978,1112366332323722,4.23705,0.94005007,8.952001
1679932377980,1112366334825876,4.254,0.86805004,8.916
1679932377982,1112366337328030,4.2709503,0.96795005,8.83695
1679932377985,1112366339830184,4.2010503,0.90105003,8.979
1679932377987,1112366342332337,4.2780004,0.88005006,8.979
1679932377989,1112366344834722,4.22295,0.90105003,9.031051
1679932377993,1112366347336876,4.22295,0.906,9.07905
1679932377995,1112366349839030,4.16295,0.93705004,9.120001
1679932377999,1112366352340953,4.15605,0.906,9.13395
1679932378000,1112366354843107,4.08705,0.92805004,9.003
1679932378002,1112366357345260,4.08705,0.88005006,8.99295
1679932378005,1112366359847645,4.16295,0.95400006,9.052951
1679932378009,1112366362349799,4.14405,0.93705004,9.117001
1679932378011,1112366364851938,4.07205,0.89205,9.049951
1679932378012,1112366367354092,4.14405,0.82695,9.13395
1679932378016,1112366369856246,4.1410503,0.80295,9.024
1679932378018,1112366372358399,4.10505,1.0020001,9.015
1679932378019,1112366374860553,4.2439504,0.88695,9.031051
1679932378022,1112366377362789,4.22295,0.90105003,9.09105
1679932378025,1112366379864943,4.28205,0.87000006,9.019051
1679932378027,1112366382367020,4.2660003,0.90405005,8.916
1679932378029,1112366384869251,4.302,0.96105003,9.012
1679932378033,1112366387371394,4.25595,0.97095007,9.03405
1679932378036,1112366389873548,4.32795,0.906,9.1390505
1679932378042,1112366392375702,4.30905,0.87495005,9.06705
1679932378044,1112366394877856,4.25595,0.873,9.0070505
1679932378045,1112366397380010,4.1599503,0.882,9.084001
1679932378050,1112366399882188,4.2010503,0.906,8.98095
1679932378051,1112366402384342,4.1839504,0.94695,9.175051
1679932378052,1112366404886495,4.14405,0.94005007,9.09405
