system_ts_ms, sensor_ts_ns, gyrX, gyrY, gyrZ
1680002215308,1182203660779529,-0.0053625,-0.0603625,-0.0506
1680002215308,1182203663281453,-4.125E-4,-0.0603625,-0.05555
1680002215310,1182203665783606,0.0026125,-0.0633875,-0.0625625
1680002215312,1182203668285991,-0.001375,-0.0614625,-0.0675125
1680002215315,1182203670787924,-0.0023375,-0.0554125,-0.0655875
1680002215317,1182203673290078,-4.125E-4,-0.0554125,-0.0675125
1680002215326,1182203675792232,-0.0023375,-0.051425,-0.069575
1680002215326,1182203678294309,-0.0053625,-0.0463375,-0.069575
1680002215327,1182203680796482,-4.125E-4,-0.0383625,-0.068475
1680002215328,1182203683298712,0.0026125,-0.0364375,-0.06655
1680002215330,1182203685800866,0.0026125,-0.0284625,-0.0655875
1680002215333,1182203688302943,0.0026125,-0.029424999,-0.0616
1680002215337,1182203690805111,0.004675,-0.02035,-0.05555
1680002215339,1182203693307265,0.0086624995,-0.0193875,-0.057475
1680002215340,1182203695809419,0.0056375,-0.02145,-0.052525
1680002215342,1182203698311342,0.0066,-0.02035,-0.0506
1680002215345,1182203700813736,0.0086624995,-0.018424999,-0.047575
1680002215347,1182203703315890,0.009625,-0.0154,-0.0435875
1680002215350,1182203705818044,0.0086624995,-0.0193875,-0.0424875
1680002215354,1182203708319967,0.009625,-0.0254375,-0.0385
1680002215355,1182203710822121,0.0116875,-0.0254375,-0.0396
1680002215358,1182203713324289,0.0105875,-0.029424999,-0.036575
1680002215360,1182203715826673,0.0116875,-0.0303875,-0.03355
1680002215363,1182203718328597,0.01265,-0.0353375,-0.0314875
1680002215367,1182203720830736,0.01265,-0.0353375,-0.0314875
1680002215369,1182203723332890,0.015675,-0.03135,-0.0325875
1680002215373,1182203725835044,0.015675,-0.0334125,-0.0314875
1680002215374,1182203728337121,0.014575,-0.0303875,-0.0265375
1680002215377,1182203730839372,0.015675,-0.0264,-0.0275
1680002215378,1182203733341526,0.015675,-0.0243375,-0.024475
1680002215380,1182203735843603,0.015675,-0.0224125,-0.025575
1680002215383,1182203738345756,0.0187,-0.0174625,-0.024475
1680002215389,1182203740847910,0.0196625,-0.012375,-0.02255
1680002215389,1182203743350073,0.0176,-0.00935,-0.0215875
1680002215390,1182203745851996,0.015675,-0.0064625,-0.0176
1680002215393,1182203748354381,0.0086624995,-0.0053625,-0.0155375
1680002215397,1182203750856535,0.004675,-0.0064625,-0.0125124995
1680002215400,1182203753358689,0.0026125,-0.001375,-0.0094875
1680002215401,1182203755860612,0.003575,5.5E-4,-0.0066
1680002215405,1182203758362766,0.00165,0.003575,-0.002475
1680002215407,1182203760864919,0.0026125,0.003575,0.0015125
1680002215409,1182203763367088,6.875E-4,0.00165,0.0044
1680002215412,1182203765869242,0.00165,0.0066,0.007425
1680002215413,1182203768371396,-4.125E-4,0.0105875,0.0064625
1680002215416,1182203770873473,-0.0023375,0.0155375,0.008525
1680002215418,1182203773375627,-0.0023375,0.020624999,0.0125124995
1680002215422,1182203775877776,-0.001375,0.02255,0.0154
1680002215427,1182203778379929,-0.0023375,0.0276375,0.0165
1680002215427,1182203780882083,-0.0023375,0.0325875,0.0174625
1680002215428,1182203783384237,-0.0023375,0.034649998,0.0174625
1680002215431,1182203785886372,-0.001375,0.0396,0.0165
1680002215433,1182203788388295,-4.125E-4,0.0435875,0.0165
1680002215439,1182203790890449,-0.0023375,0.042625,0.019524999
1680002215440,1182203793392603,-0.0044,0.04455,0.019524999
1680002215441,1182203795894977,0.0026125,0.047575,0.019524999
1680002215443,1182203798396900,-4.125E-4,0.045649998,0.0165
1680002215447,1182203800899054,-0.0023375,0.0396,0.0174625
1680002215450,1182203803401208,-0.0023375,0.0405625,0.019524999
1680002215452,1182203805903280,6.875E-4,0.0325875,0.0174625
1680002215457,1182203808405434,0.003575,0.0356125,0.0154
1680002215458,1182203810907665,0.00165,0.034649998,0.0144375
1680002215459,1182203813409819,6.875E-4,0.0265375,0.0144375
1680002215461,1182203815911895,0.00165,0.0185625,0.0144375
1680002215463,1182203818414030,-4.125E-4,0.0166375,0.0144375
1680002215466,1182203820916184,-0.0044,0.0166375,0.013475
1680002215468,1182203823418107,-0.0044,0.0105875,0.01045
1680002215472,1182203825920261,-0.006325,0.0056375,0.0154
1680002215473,1182203828422651,-0.0114124995,-4.125E-4,0.0125124995
1680002215476,1182203830924805,-0.0133375,-0.0023375,0.01045
1680002215479,1182203833426728,-0.0143,-0.0053625,0.013475
1680002215480,1182203835928882,-0.0154,-0.0053625,0.008525
1680002215483,1182203838431025,-0.0143,-0.0083875,0.0055
1680002215489,1182203840933179,-0.0133375,-0.0114124995,4.125E-4
1680002215490,1182203843435333,-0.0154,-0.0163625,-0.0015125
1680002215492,1182203845937487,-0.0163625,-0.018424999,-0.0055
1680002215494,1182203848439569,-0.0143,-0.02035,-0.0094875
1680002215497,1182203850941723,-0.012375,-0.0224125,-0.01155
1680002215499,1182203853443954,-0.0133375,-0.0224125,-0.0155375
1680002215501,1182203855946030,-0.0103124995,-0.0243375,-0.0204875
1680002215506,1182203858448184,-0.0083875,-0.0243375,-0.0204875
1680002215507,1182203860950304,-0.007425,-0.0264,-0.024475
1680002215508,1182203863452458,-0.0053625,-0.0254375,-0.0204875
1680002215510,1182203865954381,-0.007425,-0.0254375,-0.02255
1680002215513,1182203868456535,-0.0023375,-0.0264,-0.0275
1680002215516,1182203870958911,6.875E-4,-0.0264,-0.0265375
1680002215519,1182203873460834,6.875E-4,-0.0243375,-0.0265375
1680002215524,1182203875962987,6.875E-4,-0.02145,-0.025575
1680002215525,1182203878465141,0.0056375,-0.0224125,-0.0275
1680002215527,1182203880967290,0.0066,-0.0163625,-0.0325875
1680002215529,1182203883469367,0.004675,-0.0193875,-0.0325875
1680002215532,1182203885971598,0.004675,-0.0224125,-0.0314875
1680002215533,1182203888473752,0.0077,-0.0254375,-0.0314875
1680002215541,1182203890975829,0.0086624995,-0.0284625,-0.0295625
1680002215542,1182203893478012,0.0086624995,-0.0243375,-0.0286
1680002215542,1182203895980165,0.009625,-0.029424999,-0.0275
1680002215543,1182203898482319,0.0116875,-0.03135,-0.025575
1680002215546,1182203900984242,0.009625,-0.0303875,-0.0204875
1680002215548,1182203903486617,0.0056375,-0.0334125,-0.02255
1680002215550,1182203905988771,0.009625,-0.0353375,-0.0235125
1680002215555,1182203908490694,0.0086624995,-0.0383625,-0.02255
1680002215556,1182203910992848,0.0066,-0.034375,-0.0204875
1680002215558,1182203913495002,0.009625,-0.034375,-0.0176
1680002215562,1182203915997160,0.009625,-0.0413875,-0.0155375
1680002215563,1182203918499314,0.004675,-0.0413875,-0.0105875
1680002215568,1182203921001468,0.0056375,-0.0374,-0.0185625
1680002215569,1182203923503622,0.004675,-0.0374,-0.0125124995
1680002215574,1182203926005776,0.0026125,-0.0353375,-0.008525
1680002215575,1182203928507853,0.0086624995,-0.0353375,-0.0066
1680002215576,1182203931010007,0.0066,-0.03135,-0.0055
1680002215579,1182203933512246,0.004675,-0.032449998,-0.003575
1680002215581,1182203936014400,0.003575,-0.0303875,0.0015125
1680002215583,1182203938516477,0.00165,-0.0264,4.125E-4
1680002215590,1182203941018631,0.0026125,-0.02145,0.0055
1680002215590,1182203943520785,-0.001375,-0.0193875,0.007425
1680002215591,1182203946022944,-0.0053625,-0.0163625,0.0094875
1680002215593,1182203948524867,-0.007425,-0.0114124995,0.013475
1680002215596,1182203951027251,-0.0103124995,-0.007425,0.019524999
1680002215600,1182203953529405,-0.0114124995,-0.0064625,0.0174625
1680002215601,1182203956031577,-0.018424999,-0.0064625,0.019524999
1680002215607,1182203958533500,-0.02035,-0.0064625,0.019524999
1680002215609,1182203961035654,-0.0224125,-0.0064625,0.019524999
1680002215610,1182203963537808,-0.0243375,-0.0053625,0.024475
1680002215611,1182203966039962,-0.029424999,-0.0034375,0.0264
1680002215613,1182203968542116,-0.0374,-4.125E-4,0.0224125
1680002215616,1182203971044269,-0.039325,0.00165,0.024475
1680002215618,1182203973546423,-0.045375,0.0026125,0.0284625
1680002215623,1182203976048500,-0.051425,0.003575,0.0284625
1680002215624,1182203978550650,-0.05335,-4.125E-4,0.029424999
1680002215626,1182203981052804,-0.05335,0.0056375,0.0314875
1680002215629,1182203983554958,-0.0573375,0.0105875,0.0334125
1680002215631,1182203986057112,-0.056375,0.009625,0.0374
1680002215633,1182203988559285,-0.061325,0.0066,0.041525
1680002215640,1182203991061208,-0.0594,0.0105875,0.040425
1680002215642,1182203993563361,-0.062425,0.0166375,0.040425
1680002215643,1182203996065515,-0.06435,0.0185625,0.0424875
1680002215644,1182203998567900,-0.0633875,0.0215875,0.0455125
1680002215648,1182204001069799,-0.062425,0.020624999,0.0455125
1680002215650,1182204003571953,-0.062425,0.0246125,0.046475
1680002215651,1182204006074107,-0.062425,0.0276375,0.0444125
1680002215656,1182204008576261,-0.062425,0.02365,0.0455125
1680002215657,1182204011078323,-0.0594,0.0265375,0.0455125
1680002215659,1182204013580477,-0.0583,0.0246125,0.0455125
1680002215661,1182204016082708,-0.0603625,0.0306625,0.0424875
1680002215663,1182204018584785,-0.0573375,0.0276375,0.041525
1680002215666,1182204021086920,-0.0554125,0.0246125,0.0424875
1680002215668,1182204023589074,-0.05335,0.0286,0.0374
1680002215673,1182204026090997,-0.050325,0.0246125,0.0374
1680002215675,1182204028593179,-0.0484,0.0176,0.0385
1680002215677,1182204031095563,-0.0463375,0.0176,0.0374
1680002215679,1182204033597717,-0.0433125,0.014575,0.0385
1680002215681,1182204036099640,-0.039325,0.0166375,0.0385
1680002215683,1182204038601794,-0.04235,0.01155,0.0385
1680002215691,1182204041103958,-0.039325,0.00165,0.0374
1680002215693,1182204043606035,-0.0374,-0.0034375,0.0385
1680002215694,1182204046108266,-0.034375,-0.0044,0.0385
1680002215695,1182204048610420,-0.0334125,-0.001375,0.0364375
1680002215697,1182204051112563,-0.0264,-0.007425,0.0334125
1680002215699,1182204053614640,-0.0264,-0.007425,0.0314875
1680002215700,1182204056116794,-0.023375,-0.0064625,0.0314875
1680002215703,1182204058618948,-0.023375,-0.0064625,0.0275
1680002215706,1182204061120853,-0.0193875,-0.0064625,0.0314875
1680002215708,1182204063623238,-0.017324999,-0.0083875,0.0264
1680002215712,1182204066125392,-0.0133375,-0.007425,0.0224125
1680002215714,1182204068627545,-0.0103124995,-0.01045,0.02145
1680002215716,1182204071129457,-0.0083875,-0.0114124995,0.019524999
1680002215719,1182204073631611,-0.0083875,-0.0154,0.0144375
1680002215721,1182204076133765,-0.0103124995,-0.0144375,0.0114124995
1680002215723,1182204078636150,-0.00935,-0.0154,0.0114124995
1680002215726,1182204081138083,-0.0133375,-0.0174625,0.0125124995
1680002215729,1182204083640237,-0.018424999,-0.0193875,0.01045
1680002215731,1182204086142391,-0.018424999,-0.0174625,0.007425
1680002215733,1182204088644544,-0.0154,-0.0174625,0.0064625
1680002215736,1182204091146698,-0.0163625,-0.0174625,0.0044
1680002215738,1182204093648842,-0.0163625,-0.0144375,0.0055
1680002215740,1182204096150919,-0.0133375,-0.0144375,0.0034375
1680002215745,1182204098653073,-0.0103124995,-0.012375,4.125E-4
1680002215746,1182204101155227,-0.0053625,-0.00935,-5.5E-4
1680002215749,1182204103657362,-4.125E-4,-0.00935,-0.002475
1680002215751,1182204106159515,0.00165,-0.00935,-0.0066
1680002215753,1182204108661669,0.003575,-0.007425,-0.008525
1680002215756,1182204111163823,0.0077,-0.0044,-0.0105875
1680002215758,1182204113665977,0.0086624995,0.0026125,-0.0125124995
1680002215761,1182204116167895,0.0105875,0.003575,-0.0176
1680002215764,1182204118670049,0.01265,0.0066,-0.019524999
1680002215768,1182204121172434,0.014575,0.01265,-0.0235125
1680002215769,1182204123674357,0.01265,0.0155375,-0.0235125
1680002215771,1182204126176511,0.01265,0.0215875,-0.024475
1680002215773,1182204128678654,0.01265,0.0196625,-0.0275
1680002215776,1182204131180808,0.01265,0.020624999,-0.0295625
1680002215778,1182204133682885,0.01265,0.0166375,-0.0295625
1680002215781,1182204136185063,0.014575,0.0196625,-0.0314875
1680002215784,1182204138687294,0.014575,0.0176,-0.035475
1680002215787,1182204141189448,0.01265,0.0105875,-0.0345125
1680002215789,1182204143691525,0.009625,0.0045375,-0.0314875
1680002215791,1182204146193678,0.0066,0.00165,-0.0325875
1680002215793,1182204148695847,0.004675,-0.001375,-0.0375375
1680002215796,1182204151198001,0.004675,-0.012375,-0.036575
1680002215799,1182204153700155,6.875E-4,-0.0174625,-0.0345125
1680002215801,1182204156202318,-0.0023375,-0.02035,-0.0345125
1680002215804,1182204158704472,-0.001375,-0.0264,-0.0345125
1680002215807,1182204161206626,-0.007425,-0.03135,-0.0345125
1680002215811,1182204163708549,-0.006325,-0.0353375,-0.035475
1680002215812,1182204166210722,-0.006325,-0.0374,-0.03355
1680002215813,1182204168713107,-0.007425,-0.043449998,-0.0325875
1680002215817,1182204171215030,-0.0114124995,-0.0383625,-0.0295625
1680002215818,1182204173717184,-0.012375,-0.0394625,-0.0314875
1680002215821,1182204176219338,-0.012375,-0.0413875,-0.0275
1680002215825,1182204178721506,-0.0133375,-0.0394625,-0.0265375
1680002215829,1182204181223583,-0.0154,-0.0413875,-0.0265375
1680002215830,1182204183725737,-0.0163625,-0.0374,-0.025575
1680002215831,1182204186227967,-0.0163625,-0.034375,-0.0235125
1680002215833,1182204188730121,-0.0193875,-0.0353375,-0.0204875
1680002215836,1182204191232198,-0.0213125,-0.03135,-0.0185625
1680002215838,1182204193734352,-0.023375,-0.0264,-0.0176
1680002215840,1182204196236506,-0.0273625,-0.0224125,-0.0176
1680002215844,1182204198738429,-0.0254375,-0.02035,-0.0185625
1680002215847,1182204201240818,-0.0273625,-0.0193875,-0.0176
1680002215849,1182204203742972,-0.034375,-0.018424999,-0.0155375
1680002215852,1182204206244895,-0.0374,-0.02145,-0.0155375
1680002215853,1182204208747049,-0.0433125,-0.0224125,-0.0155375
1680002215856,1182204211249212,-0.0474375,-0.0193875,-0.0155375
1680002215858,1182204213751366,-0.051425,-0.02145,-0.0165
1680002215863,1182204216253443,-0.0594,-0.0224125,-0.0155375
1680002215864,1182204218755689,-0.0633875,-0.0303875,-0.014575
1680002215867,1182204221257843,-0.0713625,-0.0394625,-0.0125124995
1680002215868,1182204223759919,-0.07535,-0.0444125,-0.01155
1680002215871,1182204226262073,-0.078375,-0.0463375,-0.0094875
1680002215874,1182204228764227,-0.08635,-0.0444125,-0.0105875
1680002215876,1182204231266395,-0.091437496,-0.051425,-0.0105875
1680002215879,1182204233768549,-0.091437496,-0.05335,-0.0094875
1680002215881,1182204236270703,-0.091437496,-0.0573375,-0.0125124995
1680002215883,1182204238772857,-0.091437496,-0.0573375,-0.0075625
1680002215888,1182204241274794,-0.0933625,-0.0523875,-0.002475
1680002215889,1182204243776948,-0.0924,-0.0474375,-0.002475
1680002215891,1182204246279101,-0.0933625,-0.04235,-0.0015125
1680002215894,1182204248781227,-0.095425,-0.0353375,4.125E-4
1680002215897,1182204251283381,-0.0963875,-0.0264,0.002475
1680002215900,1182204253785535,-0.09735,-0.0193875,0.0034375
1680002215902,1182204256287689,-0.0933625,-0.0064625,0.0064625
1680002215905,1182204258789794,-0.0903375,0.0056375,0.0094875
1680002215907,1182204261291948,-0.0884125,0.009625,0.01045
1680002215909,1182204263794101,-0.08635,0.02255,0.0165
1680002215912,1182204266296332,-0.078375,0.0276375,0.0224125
1680002215913,1182204268798409,-0.0694375,0.0295625,0.024475
1680002215917,1182204271300563,-0.0664125,0.0325875,0.030524999
1680002215919,1182204273802717,-0.06435,0.031625,0.0364375
1680002215921,1182204276304871,-0.0603625,0.0286,0.0394625
1680002215924,1182204278806794,-0.056375,0.0276375,0.0474375
1680002215928,1182204281309198,-0.0554125,0.0276375,0.0495
1680002215932,1182204283811352,-0.05335,0.0276375,0.0554125
1680002215937,1182204286313275,-0.0493625,0.0215875,0.0554125
1680002215937,1182204288815429,-0.0463375,0.0196625,0.0554125
1680002215937,1182204291317587,-0.04235,0.0215875,0.0584375
1680002215939,1182204293819741,-0.0383625,0.0265375,0.0584375
1680002215941,1182204296321818,-0.0334125,0.0276375,0.057475
1680002215943,1182204298824049,-0.03135,0.0306625,0.0565125
1680002215946,1182204301326202,-0.029424999,0.031625,0.0534875
1680002215948,1182204303828351,-0.0273625,0.0405625,0.054449998
1680002215952,1182204306330428,-0.023375,0.045649998,0.052525
1680002215953,1182204308832582,-0.017324999,0.04455,0.0484
1680002215956,1182204311334736,-0.0154,0.042625,0.0484
1680002215958,1182204313836977,-0.0144375,0.045649998,0.0424875
1680002215962,1182204316339054,-0.0133375,0.045649998,0.0345125
1680002215964,1182204318841207,-0.0103124995,0.0405625,0.030524999
1680002215968,1182204321343361,-0.0053625,0.0405625,0.0275
1680002215969,1182204323845505,-0.0053625,0.0405625,0.0235125
1680002215971,1182204326347428,-0.0023375,0.0375375,0.0165
1680002215975,1182204328849582,0.00165,0.0306625,0.0094875
1680002215978,1182204331351967,-4.125E-4,0.02365,0.0064625
1680002215979,1182204333853876,0.00165,0.0196625,-5.5E-4
1680002215981,1182204336356030,0.004675,0.0155375,-0.0066
1680002215984,1182204338858107,0.003575,0.009625,-0.008525
1680002215986,1182204341360337,0.003575,0.00165,-0.014575
1680002215989,1182204343862414,0.0086624995,-0.0064625,-0.0176
1680002215992,1182204346364545,0.0075625,-0.0154,-0.0204875
1680002215994,1182204348866699,0.0056375,-0.0193875,-0.024475
1680002215997,1182204351368853,0.0075625,-0.0264,-0.0265375
1680002215999,1182204353870776,0.0066,-0.0353375,-0.0295625
1680002216001,1182204356373161,0.0066,-0.0394625,-0.035475
1680002216004,1182204358875309,0.009625,-0.0444125,-0.0345125
1680002216007,1182204361377463,0.009625,-0.0444125,-0.0385
1680002216009,1182204363879386,0.0116875,-0.0444125,-0.0424875
1680002216012,1182204366381540,0.0086624995,-0.0504625,-0.0405625
1680002216014,1182204368883694,0.0086624995,-0.0554125,-0.04455
1680002216016,1182204371386079,0.0066,-0.0523875,-0.0455125
1680002216018,1182204373888002,0.003575,-0.0554125,-0.0515625
1680002216021,1182204376390156,0.00165,-0.0573375,-0.0506
1680002216024,1182204378892309,-4.125E-4,-0.0584375,-0.0455125
1680002216028,1182204381394434,-0.001375,-0.0573375,-0.04455
1680002216029,1182204383896511,-0.0053625,-0.0554125,-0.04455
1680002216031,1182204386398665,-0.006325,-0.054449998,-0.0424875
1680002216034,1182204388900896,-0.0083875,-0.0554125,-0.0405625
1680002216036,1182204391402944,-0.0083875,-0.05335,-0.0396
1680002216038,1182204393905098,-0.0083875,-0.051425,-0.0385
1680002216041,1182204396407251,-0.0103124995,-0.051425,-0.0405625
1680002216045,1182204398909362,-0.012375,-0.0493625,-0.036575
1680002216047,1182204401411285,-0.0163625,-0.0463375,-0.0295625
1680002216050,1182204403913670,-0.0163625,-0.0394625,-0.0295625
1680002216052,1182204406415824,-0.0163625,-0.0383625,-0.0275
1680002216054,1182204408917978,-0.018424999,-0.0374,-0.0235125
1680002216057,1182204411419881,-0.0193875,-0.03135,-0.02255
1680002216058,1182204413922035,-0.0224125,-0.0254375,-0.0204875
1680002216061,1182204416424189,-0.023375,-0.0224125,-0.014575
1680002216063,1182204418926342,-0.0273625,-0.0144375,-0.008525
1680002216066,1182204421428515,-0.0254375,-0.0083875,-0.0055
1680002216069,1182204423930669,-0.0303875,-0.0064625,-0.0015125
1680002216071,1182204426432823,-0.03135,-0.0023375,0.002475
1680002216074,1182204428934977,-0.0323125,0.00165,0.007425
1680002216077,1182204431437025,-0.0323125,0.009625,0.008525
1680002216078,1182204433939179,-0.0364375,0.0105875,0.0114124995
1680002216081,1182204436441409,-0.039325,0.01155,0.0144375
1680002216084,1182204438943486,-0.0413875,0.014575,0.0154
1680002216089,1182204441445611,-0.0433125,0.013612499,0.0224125
1680002216090,1182204443947765,-0.0433125,0.014575,0.0224125
1680002216092,1182204446449919,-0.0433125,0.0176,0.0264
1680002216095,1182204448951842,-0.0433125,0.0185625,0.030524999
1680002216098,1182204451454227,-0.0463375,0.0176,0.0314875
1680002216100,1182204453956371,-0.0444125,0.02255,0.0284625
1680002216102,1182204456458294,-0.0444125,0.0215875,0.0314875
1680002216103,1182204458960448,-0.0433125,0.0185625,0.0334125
1680002216106,1182204461462602,-0.0413875,0.020624999,0.0334125
1680002216108,1182204463964756,-0.0374,0.0265375,0.0334125
1680002216114,1182204466466818,-0.0374,0.0295625,0.0334125
1680002216114,1182204468969049,-0.0334125,0.03355,0.0314875
1680002216116,1182204471471203,-0.0303875,0.0325875,0.030524999
1680002216119,1182204473973356,-0.0254375,0.0396,0.0314875
1680002216121,1182204476475433,-0.023375,0.0435875,0.029424999
1680002216125,1182204478977577,-0.0224125,0.047575,0.0275
1680002216128,1182204481479731,-0.02035,0.0515625,0.0264
1680002216130,1182204483981885,-0.0163625,0.0506,0.0275
1680002216132,1182204486484006,-0.0133375,0.0466125,0.0224125
1680002216134,1182204488986160,-0.0144375,0.0466125,0.0224125
1680002216136,1182204491488083,-0.0144375,0.0466125,0.02145
1680002216138,1182204493990237,-0.012375,0.04455,0.0144375
1680002216141,1182204496492390,-0.012375,0.04455,0.0144375
1680002216145,1182204498994539,-0.012375,0.0386375,0.0144375
1680002216146,1182204501496924,-0.0083875,0.0375375,0.01045
1680002216149,1182204503998847,-0.0083875,0.0286,0.007425
1680002216151,1182204506501001,-0.006325,0.020624999,0.007425
1680002216153,1182204509003155,-0.0044,0.01265,0.0044
1680002216156,1182204511505232,-0.006325,0.0105875,-5.5E-4
1680002216159,1182204514007385,-0.006325,0.003575,-0.003575
1680002216162,1182204516509616,-0.007425,-0.0064625,-0.0066
1680002216164,1182204519011779,-0.0023375,-0.0163625,-0.0094875
1680002216168,1182204521513856,-0.0023375,-0.0224125,-0.0094875
1680002216169,1182204524016010,-0.0023375,-0.0284625,-0.0125124995
1680002216171,1182204526518164,-0.001375,-0.0364375,-0.0155375
1680002216174,1182204529020087,-0.0023375,-0.0444125,-0.0185625
1680002216176,1182204531522256,-0.0053625,-0.054449998,-0.019524999
1680002216179,1182204534024640,-0.0023375,-0.0603625,-0.0204875
1680002216181,1182204536526563,-0.0023375,-0.067375,-0.0204875
1680002216184,1182204539028717,-0.0023375,-0.07645,-0.0185625
1680002216187,1182204541530876,-0.0023375,-0.0774125,-0.0215875
1680002216189,1182204544033030,-0.007425,-0.084425,-0.0215875
1680002216191,1182204546535107,-0.0083875,-0.08635,-0.0185625
1680002216193,1182204549037338,-0.0103124995,-0.095425,-0.019524999
1680002216196,1182204551539495,-0.012375,-0.095425,-0.0176
1680002216200,1182204554041572,-0.0133375,-0.100375,-0.019524999
1680002216201,1182204556543726,-0.0144375,-0.1043625,-0.01155
1680002216203,1182204559045880,-0.02035,-0.1043625,-0.0105875
1680002216207,1182204561548054,-0.0193875,-0.1043625,-0.0075625
1680002216209,1182204564050208,-0.02035,-0.1054625,-0.003575
1680002216211,1182204566552362,-0.018424999,-0.1034,-0.002475
1680002216214,1182204569054516,-0.02035,-0.1034,4.125E-4
1680002216217,1182204571556702,-0.0254375,-0.1034,0.0044
1680002216219,1182204574058625,-0.0273625,-0.1013375,0.0044
1680002216221,1182204576560779,-0.028324999,-0.095425,0.007425
1680002216224,1182204579062933,-0.0323125,-0.091437496,0.0094875
1680002216227,1182204581565338,-0.0303875,-0.0853875,0.01045
1680002216229,1182204584067261,-0.0303875,-0.0793375,0.0114124995
1680002216232,1182204586569415,-0.028324999,-0.0724625,0.0114124995
1680002216234,1182204589071492,-0.028324999,-0.06435,0.0114124995
1680002216238,1182204591573737,-0.0264,-0.0554125,0.0125124995
1680002216239,1182204594075891,-0.0243375,-0.0474375,0.0125124995
1680002216241,1182204596578045,-0.0213125,-0.0383625,0.013475
1680002216244,1182204599080122,-0.02035,-0.029424999,0.0125124995
1680002216247,1182204601582276,-0.017324999,-0.02035,0.0114124995
1680002216249,1182204604084444,-0.0144375,-0.0154,0.01045
1680002216252,1182204606586598,-0.0133375,-0.01045,0.0094875
1680002216254,1182204609088751,-0.012375,-0.0044,0.008525
1680002216257,1182204611590905,-0.00935,0.00165,0.007425
1680002216258,1182204614093059,-0.0133375,0.0066,0.0034375
1680002216261,1182204616595021,-0.0144375,0.01265,0.002475
1680002216264,1182204619097175,-0.0133375,0.0105875,0.002475
1680002216266,1182204621599329,-0.0154,0.01155,-5.5E-4
1680002216269,1182204624101718,-0.0133375,0.009625,-0.0045375
1680002216272,1182204626603641,-0.0193875,0.0045375,-0.002475
1680002216275,1182204629105795,-0.0193875,-4.125E-4,-0.002475
1680002216278,1182204631607948,-0.0254375,-0.007425,-0.003575
1680002216279,1182204634110107,-0.029424999,-0.00935,-5.5E-4
1680002216281,1182204636612184,-0.03135,-0.0163625,4.125E-4
1680002216283,1182204639114415,-0.034375,-0.0254375,0.0055
1680002216287,1182204641616569,-0.0383625,-0.0334125,0.007425
1680002216289,1182204644118723,-0.0463375,-0.0394625,0.0094875
1680002216291,1182204646620810,-0.054449998,-0.0474375,0.0114124995
1680002216294,1182204649122963,-0.0573375,-0.051425,0.0125124995
1680002216296,1182204651625117,-0.0603625,-0.0493625,0.013475
1680002216299,1182204654127271,-0.0633875,-0.051425,0.0165
1680002216301,1182204656629439,-0.06545,-0.0474375,0.0154
1680002216303,1182204659131593,-0.0633875,-0.043449998,0.0165
1680002216307,1182204661633747,-0.0664125,-0.0383625,0.0174625
1680002216309,1182204664135670,-0.0694375,-0.0303875,0.0174625
1680002216313,1182204666637844,-0.067375,-0.0243375,0.0204875
1680002216314,1182204669139997,-0.0664125,-0.0174625,0.0204875
1680002216317,1182204671642382,-0.0664125,-0.0114124995,0.019524999
1680002216320,1182204674144305,-0.067375,-0.0034375,0.019524999
1680002216321,1182204676646459,-0.06545,0.0026125,0.02145
1680002216324,1182204679148622,-0.062425,0.009625,0.0224125
1680002216328,1182204681650776,-0.0603625,0.013612499,0.0235125
1680002216329,1182204684152853,-0.056375,0.013612499,0.0235125
1680002216331,1182204686655083,-0.0573375,0.0155375,0.0235125
1680002216334,1182204689157232,-0.056375,0.020624999,0.0254375
1680002216337,1182204691659386,-0.051425,0.020624999,0.029424999
1680002216339,1182204694161463,-0.05335,0.0176,0.0264
1680002216341,1182204696663617,-0.050325,0.0166375,0.029424999
1680002216345,1182204699165757,-0.0484,0.0155375,0.0284625
1680002216347,1182204701667911,-0.043449998,0.013612499,0.0254375
1680002216350,1182204704170064,-0.0383625,0.0075625,0.0264
1680002216351,1182204706672218,-0.0374,0.0075625,0.024475
1680002216353,1182204709174372,-0.034375,0.00165,0.0264
1680002216356,1182204711676290,-0.029424999,-0.0023375,0.0275
1680002216359,1182204714178444,-0.023375,-0.0044,0.0264
1680002216361,1182204716680598,-0.02145,-0.0053625,0.0235125
1680002216363,1182204719182983,-0.0154,-0.00935,0.02145
1680002216367,1182204721684925,-0.0114124995,-0.0133375,0.0224125
1680002216369,1182204724187079,-0.006325,-0.012375,0.02145
1680002216371,1182204726689232,-0.0053625,-0.0154,0.02145
1680002216373,1182204729191309,5.5E-4,-0.02035,0.019524999
1680002216376,1182204731693468,5.5E-4,-0.02145,0.0224125
1680002216379,1182204734195622,5.5E-4,-0.0193875,0.0264
1680002216381,1182204736697853,-0.001375,-0.0243375,0.0264
1680002216384,1182204739199930,-0.0083875,-0.0273625,0.030524999
1680002216388,1182204741702098,-0.0114124995,-0.029424999,0.030524999
1680002216389,1182204744204251,-0.0154,-0.0284625,0.032449998
1680002216391,1182204746706174,-0.02035,-0.0284625,0.0345125
1680002216394,1182204749208328,-0.02145,-0.03135,0.0364375
1680002216397,1182204751710723,-0.02145,-0.034375,0.0345125
1680002216400,1182204754212877,-0.02145,-0.032449998,0.0374
1680002216402,1182204756714800,-0.02145,-0.0273625,0.0374
1680002216404,1182204759216954,-0.0154,-0.03135,0.0364375
1680002216408,1182204761719069,-0.0133375,-0.0334125,0.032449998
1680002216409,1182204764221146,-0.0154,-0.0264,0.0284625
1680002216412,1182204766723376,-0.0114124995,-0.0243375,0.0254375
1680002216414,1182204769225530,-0.0053625,-0.0193875,0.02145
1680002216416,1182204771727684,-0.0044,-0.0154,0.0154
1680002216419,1182204774229742,5.5E-4,-0.0114124995,0.0094875
1680002216421,1182204776731896,0.003575,-0.0034375,0.0034375
1680002216425,1182204779234050,0.0056375,-4.125E-4,-0.0045375
1680002216428,1182204781735973,0.01155,-0.0023375,-0.0125124995
1680002216429,1182204784238367,0.009625,5.5E-4,-0.0176
1680002216432,1182204786740521,0.0066,-0.001375,-0.0235125
1680002216434,1182204789242675,0.0066,-0.001375,-0.0314875
1680002216437,1182204791744598,0.0105875,-0.0023375,-0.036575
1680002216439,1182204794246752,0.0075625,-0.0034375,-0.0405625
1680002216442,1182204796748896,0.0066,-0.0083875,-0.0455125
1680002216445,1182204799251280,0.014575,-0.018424999,-0.0515625
1680002216448,1182204801753204,0.014575,-0.0224125,-0.0534875
1680002216449,1182204804255357,0.0086624995,-0.0303875,-0.05555
1680002216451,1182204806757525,0.01155,-0.043449998,-0.058575
1680002216454,1182204809259602,0.009625,-0.0573375,-0.057475
1680002216457,1182204811761756,0.00165,-0.0683375,-0.0534875
1680002216459,1182204814263910,0.0026125,-0.0774125,-0.0534875
1680002216462,1182204816766141,5.5E-4,-0.0903375,-0.0506
1680002216464,1182204819268218,-0.006325,-0.1013375,-0.047575
1680002216467,1182204821770371,-0.007425,-0.1123375,-0.0485375
1680002216469,1182204824272525,-0.0083875,-0.12045,-0.0424875
1680002216471,1182204826774448,-0.0114124995,-0.124437496,-0.0396
1680002216474,1182204829276602,-0.0133375,-0.13035,-0.03355
1680002216476,1182204831778987,-0.0144375,-0.1403875,-0.0314875
1680002216479,1182204834281141,-0.0144375,-0.1324125,-0.0295625
1680002216482,1182204836783064,-0.0193875,-0.13035,-0.024475
1680002216483,1182204839285204,-0.02145,-0.1274625,-0.02255
1680002216487,1182204841787588,-0.02145,-0.122375,-0.0185625
1680002216489,1182204844289742,-0.023375,-0.1144,-0.01155
1680002216492,1182204846791665,-0.0254375,-0.102437496,-0.01155
1680002216495,1182204849293824,-0.0243375,-0.0903375,-0.008525
1680002216497,1182204851795978,-0.0224125,-0.078375,-0.0075625
1680002216501,1182204854298055,-0.02035,-0.06545,-0.0055
1680002216503,1182204856800209,-0.0193875,-0.0463375,-0.003575
1680002216505,1182204859302467,-0.0193875,-0.034375,-0.003575
1680002216508,1182204861804621,-0.0163625,-0.0243375,-0.003575
1680002216509,1182204864306698,-0.017324999,-0.00935,-0.0015125
1680002216512,1182204866808852,-0.0154,0.003575,4.125E-4
1680002216514,1182204869311006,-0.0144375,0.0176,-0.002475
1680002216517,1182204871812939,-0.0133375,0.0276375,0.0015125
1680002216519,1182204874315324,-0.0154,0.0375375,4.125E-4
1680002216521,1182204876817477,-0.0133375,0.045649998,0.002475
1680002216524,1182204879319631,-0.0144375,0.0506,0.0055
1680002216528,1182204881821549,-0.0133375,0.056649998,0.0064625
1680002216529,1182204884323703,-0.0133375,0.05555,0.002475
1680002216532,1182204886825857,-0.0133375,0.0545875,0.0044
1680002216534,1182204889328011,-0.017324999,0.0545875,0.0094875
1680002216538,1182204891830160,-0.0163625,0.053625,0.007425
1680002216540,1182204894332314,-0.0163625,0.0515625,0.008525
1680002216541,1182204896834468,-0.018424999,0.04455,0.0094875
1680002216545,1182204899336544,-0.0193875,0.042625,0.0114124995
1680002216547,1182204901838698,-0.0163625,0.0396,0.0114124995
1680002216549,1182204904340843,-0.018424999,0.0306625,0.013475
1680002216552,1182204906842997,-0.02035,0.02365,0.0154
1680002216554,1182204909345151,-0.02145,0.0166375,0.0174625
1680002216562,1182204911847305,-0.0264,0.0045375,0.0224125
1680002216562,1182204914349435,-0.0303875,-0.001375,0.0224125
1680002216562,1182204916851358,-0.0334125,-0.0064625,0.024475
1680002216564,1182204919353512,-0.0374,-0.012375,0.0254375
1680002216567,1182204921855896,-0.0374,-0.018424999,0.0275
1680002216569,1182204924357799,-0.040425,-0.02035,0.030524999
1680002216571,1182204926859953,-0.04235,-0.0254375,0.032449998
1680002216575,1182204929362107,-0.040425,-0.03135,0.032449998
1680002216578,1182204931864261,-0.040425,-0.0334125,0.0334125
1680002216579,1182204934366347,-0.040425,-0.0353375,0.0374
1680002216581,1182204936868501,-0.039325,-0.0303875,0.0385
1680002216584,1182204939370731,-0.034375,-0.029424999,0.0374
1680002216587,1182204941872808,-0.0334125,-0.02145,0.0364375
1680002216590,1182204944374967,-0.029424999,-0.02035,0.0334125
1680002216592,1182204946877121,-0.0273625,-0.0163625,0.0314875
1680002216595,1182204949379275,-0.02035,-0.0114124995,0.0264
1680002216597,1182204951881198,-0.0193875,-0.0044,0.02145
1680002216599,1182204954383583,-0.018424999,5.5E-4,0.02145
1680002216602,1182204956885712,-0.0163625,0.0066,0.0144375
1680002216604,1182204959387866,-0.0144375,0.009625,0.01045
1680002216607,1182204961889789,-0.0144375,0.014575,0.007425
1680002216609,1182204964391943,-0.0144375,0.0185625,0.0055
1680002216612,1182204966894092,-0.0114124995,0.0196625,0.0034375
1680002216614,1182204969396246,-0.012375,0.0176,-0.002475
1680002216617,1182204971898400,-0.0133375,0.0166375,-0.002475
1680002216619,1182204974400554,-0.0144375,0.0166375,-0.0045375
1680002216622,1182204976902707,-0.0154,0.009625,-0.0055
1680002216624,1182204979404856,-0.0154,0.0066,-0.0055
1680002216627,1182204981906933,-0.018424999,0.0026125,-0.0075625
1680002216628,1182204984409087,-0.023375,-0.0023375,-0.0066
1680002216631,1182204986911318,-0.02035,-0.012375,-0.008525
1680002216634,1182204989413381,-0.02145,-0.0193875,-0.0094875
1680002216636,1182204991915535,-0.023375,-0.0273625,-0.0155375
1680002216639,1182204994417688,-0.0224125,-0.0334125,-0.0155375
1680002216641,1182204996919842,-0.0243375,-0.0413875,-0.0176
1680002216645,1182204999421770,-0.0243375,-0.0493625,-0.019524999
1680002216648,1182205001924155,-0.023375,-0.0554125,-0.019524999
1680002216651,1182205004426309,-0.0243375,-0.0584375,-0.0215875
1680002216652,1182205006928463,-0.0264,-0.0633875,-0.024475
1680002216654,1182205009430381,-0.0243375,-0.0614625,-0.02255
1680002216657,1182205011932535,-0.023375,-0.0573375,-0.024475
1680002216659,1182205014434689,-0.02145,-0.0554125,-0.0286
1680002216662,1182205016936842,-0.018424999,-0.0493625,-0.024475
1680002216664,1182205019438996,-0.018424999,-0.043449998,-0.0275
1680002216667,1182205021941135,-0.0154,-0.0374,-0.0286
1680002216669,1182205024443289,-0.0114124995,-0.029424999,-0.0265375
1680002216671,1182205026945443,-0.00935,-0.02035,-0.0265375
1680002216674,1182205029447520,-0.007425,-0.018424999,-0.0235125
1680002216677,1182205031949660,-0.0053625,-0.0114124995,-0.0215875
1680002216679,1182205034451890,-0.006325,-0.012375,-0.0185625
1680002216682,1182205036954044,-0.006325,-0.0044,-0.019524999
1680002216684,1182205039456121,-0.0023375,-0.0034375,-0.0165
1680002216689,1182205041958294,-0.0023375,-0.0034375,-0.014575
1680002216691,1182205044460448,-0.007425,-0.0044,-0.01155
1680002216692,1182205046962371,-0.007425,-0.0053625,-0.008525
1680002216696,1182205049464525,-0.01045,-0.01045,-0.0055
1680002216698,1182205051966909,-0.01045,-0.007425,-0.002475
1680002216700,1182205054469063,-0.0133375,-0.007425,-0.002475
1680002216702,1182205056970986,-0.0154,-0.00935,-5.5E-4
1680002216704,1182205059473140,-0.0163625,-0.012375,4.125E-4
1680002216707,1182205061975285,-0.02145,-0.0083875,4.125E-4
1680002216712,1182205064477439,-0.02145,-0.0083875,0.0015125
1680002216713,1182205066979593,-0.017324999,-0.007425,0.0015125
1680002216714,1182205069481747,-0.017324999,-0.007425,0.0015125
1680002216717,1182205071983909,-0.0193875,-0.0083875,0.0044
1680002216719,1182205074486063,-0.018424999,-0.0053625,0.0044
1680002216722,1182205076988140,-0.018424999,-0.0053625,0.0034375
1680002216725,1182205079490294,-0.018424999,-0.007425,0.0044
1680002216728,1182205081992530,-0.0193875,-0.00935,0.0055
1680002216731,1182205084494684,-0.0193875,-0.0114124995,0.007425
1680002216732,1182205086996761,-0.0193875,-0.0144375,0.008525
1680002216734,1182205089498914,-0.02035,-0.0163625,0.0055
1680002216737,1182205092000838,-0.02145,-0.0163625,0.008525
1680002216739,1182205094503212,-0.018424999,-0.0163625,0.0125124995
1680002216741,1182205097005366,-0.0193875,-0.018424999,0.019524999
1680002216745,1182205099507289,-0.02035,-0.0163625,0.019524999
1680002216747,1182205102009443,-0.023375,-0.0193875,0.0235125
1680002216750,1182205104511602,-0.023375,-0.02035,0.0264
1680002216751,1182205107013756,-0.023375,-0.0193875,0.0275
1680002216754,1182205109515910,-0.0243375,-0.0193875,0.0254375
1680002216757,1182205112018063,-0.023375,-0.0154,0.0254375
1680002216762,1182205114520222,-0.0254375,-0.012375,0.0264
1680002216763,1182205117022376,-0.0254375,-0.00935,0.0235125
1680002216765,1182205119524453,-0.0224125,-0.0053625,0.02145
1680002216768,1182205122026607,-0.02035,-4.125E-4,0.0235125
1680002216770,1182205124528847,-0.0193875,0.003575,0.0204875
1680002216773,1182205127031000,-0.018424999,0.0075625,0.0125124995
1680002216774,1182205129533077,-0.0224125,0.009625,0.0114124995
1680002216779,1182205132035231,-0.0224125,0.01155,0.0144375
1680002216779,1182205134537385,-0.02145,0.0166375,0.0125124995
1680002216782,1182205137039559,-0.0224125,0.014575,0.01045
1680002216784,1182205139541482,-0.02035,0.0196625,0.007425
1680002216787,1182205142043867,-0.02035,0.0196625,0.0055
1680002216790,1182205144546021,-0.0163625,0.0155375,0.0055
1680002216792,1182205147047939,-0.0144375,0.0155375,0.0044
1680002216794,1182205149550092,-0.0144375,0.01265,0.0015125
1680002216797,1182205152052246,-0.018424999,0.01155,-5.5E-4
1680002216801,1182205154554400,-0.0154,0.00165,-0.002475
1680002216802,1182205157056568,-0.0114124995,-0.001375,-0.0045375
1680002216804,1182205159558722,-0.0114124995,-0.0053625,-0.0066
1680002216808,1182205162060876,-0.00935,-0.0083875,-0.0055
1680002216809,1182205164563030,-0.00935,-0.012375,-0.008525
1680002216812,1182205167065106,-0.006325,-0.0144375,-0.01155
1680002216814,1182205169567226,-0.0044,-0.018424999,-0.0125124995
1680002216816,1182205172069380,-0.001375,-0.02145,-0.014575
1680002216819,1182205174571611,-4.125E-4,-0.0243375,-0.0094875
1680002216822,1182205177073688,-0.001375,-0.0273625,-0.008525
1680002216824,1182205179575842,0.00165,-0.0334125,-0.0094875
1680002216828,1182205182078001,0.003575,-0.0364375,-0.0075625
1680002216829,1182205184579924,0.0056375,-0.0413875,-0.0075625
1680002216832,1182205187082078,0.0066,-0.043449998,-0.0055
1680002216834,1182205189584462,0.004675,-0.0504625,-0.0075625
1680002216838,1182205192086635,0.003575,-0.0594,-0.01155
1680002216840,1182205194588558,0.0056375,-0.0603625,-0.0075625
1680002216841,1182205197090712,0.0056375,-0.062425,-0.0055
1680002216844,1182205199592866,0.003575,-0.067375,-0.0105875
1680002216848,1182205202095011,-4.125E-4,-0.0683375,-0.0094875
1680002216849,1182205204597164,-0.001375,-0.0664125,-0.0105875
1680002216852,1182205207099318,-0.0044,-0.0594,-0.01155
1680002216854,1182205209601472,-0.0044,-0.0554125,-0.0105875
1680002216857,1182205212103520,-0.0044,-0.051425,-0.01155
1680002216859,1182205214605674,-0.0083875,-0.0413875,-0.0105875
1680002216862,1182205217107828,-0.006325,-0.0334125,-0.0094875
1680002216864,1182205219609982,-0.006325,-0.0264,-0.0066
1680002216867,1182205222112126,-0.007425,-0.02145,-0.0105875
1680002216869,1182205224614279,-0.006325,-0.0163625,-0.0094875
1680002216873,1182205227116433,-0.0044,-0.00935,-0.0066
1680002216876,1182205229618597,-4.125E-4,-0.0114124995,-0.0094875
1680002216878,1182205232120520,6.875E-4,-0.01045,-0.0094875
1680002216880,1182205234622674,-4.125E-4,-0.0044,-0.0045375
1680002216882,1182205237125059,6.875E-4,-0.0083875,-0.0066
1680002216884,1182205239627213,-4.125E-4,-0.0023375,-0.01155
1680002216888,1182205242129141,-4.125E-4,5.5E-4,-0.0094875
1680002216889,1182205244631294,0.003575,-4.125E-4,-0.008525
1680002216892,1182205247133448,0.003575,-0.001375,-0.0094875
1680002216894,1182205249635525,0.00165,-4.125E-4,-0.008525
1680002216897,1182205252137669,0.003575,0.00165,-0.008525
1680002216900,1182205254639900,0.0075625,0.0026125,-0.008525
1680002216903,1182205257141977,0.01265,-0.001375,-0.0075625
1680002216904,1182205259644131,0.0086624995,-0.0034375,-0.0055
1680002216908,1182205262146289,0.0075625,-0.007425,-0.003575
1680002216909,1182205264648443,0.0105875,-0.0064625,-0.002475
1680002216915,1182205267150366,0.0086624995,-0.0064625,-0.0015125
1680002216916,1182205269652751,0.009625,-0.01045,-0.0015125
1680002216918,1182205272154905,0.0166375,-0.012375,-5.5E-4
1680002216920,1182205274657059,0.0166375,-0.0114124995,-0.0015125
1680002216922,1182205277158982,0.014575,-0.0114124995,-5.5E-4
1680002216924,1182205279661136,0.015675,-0.01045,-0.0015125
1680002216929,1182205282163266,0.015675,-0.0133375,-0.002475
1680002216931,1182205284665419,0.009625,-0.0144375,4.125E-4
1680002216932,1182205287167573,0.0116875,-0.0144375,-5.5E-4
1680002216934,1182205289669727,0.0116875,-0.0144375,-5.5E-4
1680002216937,1182205292171881,0.009625,-0.0154,-5.5E-4
1680002216940,1182205294673929,0.0066,-0.0154,-5.5E-4
1680002216941,1182205297176083,0.0056375,-0.0154,0.002475
1680002216945,1182205299678237,0.0056375,-0.01045,-5.5E-4
1680002216947,1182205302180467,0.003575,-0.00935,-0.0015125
1680002216951,1182205304682544,0.004675,-0.0163625,-0.0015125
1680002216952,1182205307184698,-4.125E-4,-0.0154,-0.0015125
1680002216954,1182205309686852,-4.125E-4,-0.0193875,-0.0015125
1680002216957,1182205312188775,-0.001375,-0.02035,-0.003575
1680002216960,1182205314690929,-0.0053625,-0.0174625,-0.0045375
1680002216962,1182205317193309,-0.0023375,-0.0144375,-0.0045375
1680002216965,1182205319695462,-0.0053625,-0.0144375,-0.0045375
1680002216968,1182205322197385,-0.00935,-0.0174625,-0.003575
1680002216970,1182205324699539,-0.0083875,-0.02035,-0.0055
1680002216972,1182205327201688,-0.00935,-0.02035,-0.0015125
1680002216974,1182205329703765,-0.012375,-0.02035,4.125E-4
1680002216979,1182205332205919,-0.0133375,-0.0224125,-5.5E-4
1680002216980,1182205334708150,-0.0154,-0.0254375,0.0015125
1680002216982,1182205337210338,-0.02035,-0.0273625,0.0044
1680002216984,1182205339712415,-0.0193875,-0.0303875,0.0034375
1680002216990,1182205342214568,-0.0193875,-0.0334125,0.0055
1680002216991,1182205344716799,-0.02035,-0.0364375,0.0064625
1680002216992,1182205347218953,-0.02035,-0.0383625,0.0064625
1680002216996,1182205349721039,-0.0213125,-0.0394625,0.0044
1680002216997,1182205352223193,-0.0224125,-0.0413875,0.0044
1680002216999,1182205354725347,-0.02035,-0.0413875,0.0064625
1680002217002,1182205357227270,-0.018424999,-0.043449998,0.002475
1680002217004,1182205359729640,-0.02035,-0.0444125,0.0044
1680002217008,1182205362231794,-0.0213125,-0.0444125,0.0064625
1680002217009,1182205364733948,-0.0224125,-0.043449998,0.0055
1680002217012,1182205367235871,-0.0243375,-0.043449998,0.0055
1680002217014,1182205369738039,-0.0254375,-0.0474375,0.0064625
1680002217017,1182205372240193,-0.0264,-0.045375,0.002475
1680002217019,1182205374742270,-0.0243375,-0.04235,0.0034375
1680002217022,1182205377244501,-0.0243375,-0.04235,0.008525
1680002217026,1182205379746654,-0.0264,-0.0444125,0.007425
1680002217029,1182205382248808,-0.0273625,-0.0394625,0.008525
1680002217030,1182205384750885,-0.0243375,-0.043449998,0.01045
1680002217032,1182205387253039,-0.0254375,-0.0394625,0.0055
1680002217035,1182205389755193,-0.0254375,-0.0334125,0.0055
1680002217037,1182205392257453,-0.0243375,-0.029424999,0.0064625
1680002217039,1182205394759530,-0.0254375,-0.032449998,0.0064625
1680002217042,1182205397261683,-0.0243375,-0.034375,0.0044
1680002217045,1182205399763837,-0.0254375,-0.0273625,0.0055
1680002217048,1182205402265741,-0.0264,-0.02035,0.007425
1680002217050,1182205404767895,-0.0264,-0.0224125,0.0044
1680002217052,1182205407270280,-0.03135,-0.02145,0.0044
1680002217054,1182205409772434,-0.0334125,-0.0174625,0.008525
1680002217057,1182205412274357,-0.029424999,-0.0174625,0.0064625
1680002217060,1182205414776492,-0.03135,-0.0163625,0.0044
1680002217063,1182205417278645,-0.0303875,-0.012375,0.008525
1680002217065,1182205419780799,-0.029424999,-0.0083875,0.0055
1680002217068,1182205422282876,-0.0264,-0.0083875,0.007425
1680002217069,1182205424785116,-0.0273625,-0.0023375,0.01045
1680002217072,1182205427287270,-0.028324999,5.5E-4,0.0094875
1680002217075,1182205429789347,-0.0243375,0.00165,0.0094875
1680002217077,1182205432291501,-0.023375,0.003575,0.0125124995
1680002217079,1182205434793675,-0.0224125,0.0075625,0.013475
1680002217082,1182205437295828,-0.0213125,0.0066,0.0144375
1680002217084,1182205439797982,-0.0213125,0.009625,0.0154
1680002217088,1182205442300136,-0.017324999,0.009625,0.0174625
1680002217090,1182205444802300,-0.0154,0.00165,0.0224125
1680002217092,1182205447304223,-0.0193875,0.00165,0.0235125
1680002217095,1182205449806377,-0.02035,0.00165,0.024475
1680002217098,1182205452308531,-0.0163625,0.00165,0.024475
1680002217101,1182205454810704,-0.0154,-0.0053625,0.0275
1680002217103,1182205457312857,-0.0144375,-0.01045,0.0284625
1680002217106,1182205459815011,-0.012375,-0.0083875,0.029424999
1680002217108,1182205462317165,-0.0114124995,-0.01045,0.029424999
1680002217110,1182205464819319,-0.012375,-0.01045,0.030524999
1680002217112,1182205467321415,-0.0114124995,-0.00935,0.030524999
1680002217114,1182205469823569,-0.0083875,-0.0133375,0.0345125
1680002217117,1182205472325800,-0.007425,-0.012375,0.0345125
1680002217119,1182205474827876,-0.00935,-0.01045,0.0374
1680002217122,1182205477330025,-0.0083875,-0.01045,0.041525
1680002217124,1182205479832179,-0.0023375,-0.0044,0.040425
1680002217128,1182205482334333,-4.125E-4,-0.0044,0.0424875
1680002217130,1182205484836256,0.0026125,-4.125E-4,0.043449998
1680002217132,1182205487338425,0.003575,-0.001375,0.0444125
1680002217135,1182205489840810,0.004675,-4.125E-4,0.0455125
1680002217139,1182205492342963,0.009625,-0.0034375,0.0455125
1680002217140,1182205494844886,0.0086624995,-4.125E-4,0.046475
1680002217142,1182205497347040,0.0056375,-0.0023375,0.0444125
1680002217144,1182205499849194,0.0116875,-0.0044,0.041525
1680002217147,1182205502351271,0.0086624995,-0.0083875,0.043449998
1680002217150,1182205504853502,0.0056375,-0.01045,0.0394625
1680002217152,1182205507355656,0.0086624995,-0.00935,0.0374
1680002217154,1182205509857819,0.0066,-0.0114124995,0.0334125
1680002217157,1182205512359896,0.0075625,-0.0144375,0.030524999
1680002217160,1182205514862049,0.0066,-0.02035,0.0264
1680002217162,1182205517364203,0.0026125,-0.0243375,0.0254375
1680002217165,1182205519866430,0.0026125,-0.0264,0.0224125
1680002217168,1182205522368507,0.004675,-0.0264,0.0204875
1680002217170,1182205524870661,0.0075625,-0.0273625,0.0144375
1680002217172,1182205527372815,0.0056375,-0.0303875,0.01045
1680002217176,1182205529874728,0.0056375,-0.03135,0.008525
1680002217178,1182205532376882,0.004675,-0.029424999,0.0044
1680002217181,1182205534879035,0.0056375,-0.0334125,4.125E-4
1680002217185,1182205537381420,0.0056375,-0.0364375,-0.0015125
1680002217186,1182205539883343,0.0026125,-0.0303875,-0.0055
1680002217187,1182205542385478,0.004675,-0.0303875,-0.0094875
1680002217189,1182205544887632,0.004675,-0.0284625,-0.01155
1680002217191,1182205547389786,0.003575,-0.0273625,-0.01155
1680002217195,1182205549891863,0.003575,-0.0243375,-0.0155375
1680002217197,1182205552394088,6.875E-4,-0.0254375,-0.0204875
1680002217199,1182205554896242,6.875E-4,-0.0273625,-0.0215875
1680002217202,1182205557398396,6.875E-4,-0.029424999,-0.0215875
1680002217204,1182205559900473,-0.0053625,-0.029424999,-0.0235125
1680002217208,1182205562402617,-0.0083875,-0.03135,-0.025575
1680002217214,1182205564904771,-0.007425,-0.0374,-0.0286
1680002217215,1182205567406925,-0.00935,-0.0413875,-0.0314875
1680002217215,1182205569909078,-0.012375,-0.04235,-0.03355
1680002217217,1182205572411261,-0.0144375,-0.0463375,-0.0345125
1680002217219,1182205574913415,-0.0163625,-0.05335,-0.0345125
1680002217221,1182205577415569,-0.0144375,-0.062425,-0.03355
1680002217224,1182205579917492,-0.0154,-0.06435,-0.03355
1680002217227,1182205582419646,-0.0193875,-0.06435,-0.0325875
1680002217229,1182205584922036,-0.0193875,-0.0704,-0.0325875
1680002217232,1182205587423959,-0.017324999,-0.0704,-0.03355
1680002217234,1182205589926112,-0.0154,-0.07535,-0.0295625
1680002217237,1182205592428189,-0.0154,-0.07535,-0.0295625
1680002217240,1182205594930425,-0.0133375,-0.0724625,-0.0265375
1680002217242,1182205597432579,-0.00935,-0.078375,-0.025575
1680002217244,1182205599934733,-0.00935,-0.0704,-0.0215875
1680002217248,1182205602436810,-0.0083875,-0.0704,-0.019524999
1680002217251,1182205604938959,-4.125E-4,-0.067375,-0.0165
1680002217253,1182205607441113,0.0026125,-0.062425,-0.0125124995
1680002217255,1182205609943266,0.004675,-0.0573375,-0.008525
1680002217257,1182205612445420,0.0056375,-0.045375,-0.0055
1680002217260,1182205614947574,0.0086624995,-0.0353375,-0.0015125
1680002217262,1182205617449713,0.0086624995,-0.029424999,4.125E-4
1680002217264,1182205619951867,0.0105875,-0.018424999,4.125E-4
1680002217267,1182205622453790,0.014575,-0.007425,0.0015125
1680002217270,1182205624955944,0.0116875,0.00165,0.0034375
1680002217272,1182205627458338,0.009625,0.01155,0.0055
1680002217274,1182205629960492,0.01265,0.020624999,0.0055
1680002217277,1182205632462415,0.0116875,0.0246125,0.0064625
1680002217280,1182205634964569,0.0116875,0.031625,0.007425
1680002217282,1182205637466723,0.014575,0.036575,0.007425
1680002217284,1182205639968795,0.014575,0.04455,0.0064625
1680002217289,1182205642471026,0.01265,0.0496375,0.007425
1680002217291,1182205644973180,0.0155375,0.0526625,0.0094875
1680002217293,1182205647475338,0.0166375,0.05555,0.0094875
1680002217296,1182205649977415,0.0155375,0.0606375,0.0064625
1680002217298,1182205652479569,0.0176,0.0625625,0.0064625
1680002217300,1182205654981723,0.0176,0.0606375,0.008525
1680002217302,1182205657483877,0.020624999,0.0576125,0.008525
1680002217305,1182205659986045,0.0215875,0.0576125,0.007425
1680002217308,1182205662488199,0.0215875,0.0576125,0.0064625
1680002217309,1182205664990352,0.02255,0.0515625,0.0055
1680002217312,1182205667492506,0.0246125,0.04455,0.0044
1680002217314,1182205669994420,0.02365,0.0435875,0.0064625
1680002217319,1182205672496574,0.020624999,0.036575,0.0064625
1680002217320,1182205674998959,0.0215875,0.0265375,0.0064625
1680002217322,1182205677501113,0.0215875,0.0196625,0.0034375
1680002217326,1182205680003026,0.020624999,0.013612499,0.0034375
1680002217329,1182205682505180,0.0215875,0.009625,0.0034375
1680002217331,1182205685007333,0.0185625,-0.001375,0.002475
1680002217333,1182205687509410,0.0166375,-0.0083875,4.125E-4
1680002217335,1182205690011564,0.014575,-0.0133375,-0.0015125
1680002217338,1182205692513790,0.0086624995,-0.02145,0.0015125
1680002217340,1182205695015944,0.0075625,-0.0334125,4.125E-4
1680002217342,1182205697518021,0.0066,-0.0394625,-5.5E-4
1680002217344,1182205700020175,0.003575,-0.04235,-0.002475
1680002217347,1182205702522344,-4.125E-4,-0.0484,-0.003575
1680002217350,1182205705024497,-0.0053625,-0.054449998,-0.0055
1680002217352,1182205707526651,-0.007425,-0.0594,-0.0075625
1680002217355,1182205710028805,-0.0064625,-0.062425,-0.008525
1680002217357,1182205712530963,-0.0083875,-0.0664125,-0.0094875
1680002217360,1182205715033117,-0.0114124995,-0.0694375,-0.0155375
1680002217364,1182205717535040,-0.0114124995,-0.0683375,-0.0165
1680002217367,1182205720037194,-0.0144375,-0.0683375,-0.014575
1680002217369,1182205722539607,-0.0193875,-0.0713625,-0.0165
1680002217371,1182205725041761,-0.0193875,-0.0694375,-0.0176
1680002217372,1182205727543684,-0.02145,-0.067375,-0.0176
1680002217374,1182205730045838,-0.0254375,-0.06545,-0.019524999
1680002217377,1182205732547992,-0.0284625,-0.06545,-0.0215875
1680002217380,1182205735050127,-0.03135,-0.0633875,-0.0215875
1680002217382,1182205737552204,-0.0364375,-0.0584375,-0.0204875
1680002217384,1182205740054435,-0.0383625,-0.0523875,-0.02255
1680002217387,1182205742556588,-0.0364375,-0.0484,-0.0215875
1680002217389,1182205745058742,-0.040425,-0.043449998,-0.0215875
1680002217392,1182205747560824,-0.0383625,-0.034375,-0.0204875
1680002217396,1182205750062978,-0.0374,-0.0273625,-0.02255
1680002217398,1182205752565132,-0.0334125,-0.0163625,-0.0215875
1680002217401,1182205755067300,-0.0303875,-0.0083875,-0.0215875
1680002217403,1182205757569454,-0.03135,-4.125E-4,-0.0204875
1680002217405,1182205760071607,-0.0284625,0.01155,-0.0204875
1680002217408,1182205762573761,-0.0254375,0.0185625,-0.0215875
1680002217409,1182205765075684,-0.023375,0.0265375,-0.0215875
1680002217412,1182205767577838,-0.02035,0.0375375,-0.02255
1680002217415,1182205770079992,-0.0174625,0.045649998,-0.0204875
1680002217417,1182205772582377,-0.0174625,0.05555,-0.024475
1680002217420,1182205775084300,-0.0154,0.0636625,-0.02255
1680002217422,1182205777586468,-0.0154,0.06655,-0.0235125
1680002217425,1182205780088621,-0.0174625,0.069575,-0.025575
1680002217429,1182205782590698,-0.0154,0.069575,-0.0275
1680002217430,1182205785092852,-0.0133375,0.069575,-0.0286
1680002217432,1182205787595093,-0.0133375,0.0686125,-0.025575
1680002217436,1182205790097247,-0.012375,0.064625,-0.02255
1680002217439,1182205792599324,-0.00935,0.0576125,-0.0235125
1680002217440,1182205795101478,-0.0083875,0.053625,-0.0235125
1680002217442,1182205797603632,-0.0044,0.0496375,-0.0235125
1680002217446,1182205800105785,-0.0053625,0.0386375,-0.0235125
1680002217449,1182205802607708,-0.0023375,0.0306625,-0.0235125
1680002217450,1182205805110093,-4.125E-4,0.02365,-0.02255
1680002217452,1182205807612247,5.5E-4,0.0166375,-0.02255
1680002217456,1182205810114401,-4.125E-4,0.003575,-0.024475
1680002217457,1182205812616324,0.00165,-0.0023375,-0.0235125
1680002217460,1182205815118478,0.003575,-0.0064625,-0.0185625
1680002217463,1182205817620617,0.0075625,-0.0133375,-0.0215875
1680002217466,1182205820122770,0.0075625,-0.0193875,-0.0215875
1680002217467,1182205822624924,0.0105875,-0.02145,-0.02255
1680002217469,1182205825127078,0.009625,-0.0243375,-0.0176
1680002217472,1182205827629155,0.0066,-0.0303875,-0.019524999
1680002217477,1182205830131295,0.0075625,-0.0334125,-0.019524999
1680002217479,1182205832633449,0.009625,-0.0353375,-0.0155375
1680002217480,1182205835135680,0.009625,-0.0364375,-0.01155
1680002217482,1182205837637756,0.009625,-0.0374,-0.01155
1680002217486,1182205840139934,0.0075625,-0.04235,-0.0125124995
1680002217488,1182205842641857,0.0075625,-0.0484,-0.01155
1680002217490,1182205845144242,0.0056375,-0.0474375,-0.0075625
1680002217492,1182205847646396,0.0066,-0.0504625,-0.002475
1680002217496,1182205850148550,0.0056375,-0.0493625,-0.0015125
1680002217498,1182205852650473,0.0045375,-0.051425,-0.002475
1680002217500,1182205855152627,0.003575,-0.054449998,-0.002475
1680002217502,1182205857654781,0.003575,-0.054449998,-5.5E-4
1680002217506,1182205860156857,5.5E-4,-0.05335,4.125E-4
1680002217507,1182205862659088,-0.0023375,-0.054449998,0.0034375
1680002217510,1182205865161242,-0.0064625,-0.0504625,0.0034375
1680002217514,1182205867663396,-0.007425,-0.0484,4.125E-4
1680002217517,1182205870165478,-0.00935,-0.0523875,0.002475
1680002217518,1182205872667632,-0.0133375,-0.051425,0.002475
1680002217520,1182205875169786,-0.0154,-0.051425,0.0034375
1680002217522,1182205877672016,-0.0154,-0.0474375,0.007425
1680002217526,1182205880174107,-0.018424999,-0.0444125,0.01045
1680002217528,1182205882676261,-0.0193875,-0.0394625,0.0064625
1680002217530,1182205885178415,-0.0193875,-0.0353375,0.0044
1680002217532,1182205887680569,-0.0163625,-0.03135,0.007425
1680002217535,1182205890182492,-0.018424999,-0.0243375,0.0094875
1680002217537,1182205892684617,-0.0174625,-0.018424999,0.007425
1680002217540,1182205895187001,-0.0163625,-0.012375,0.007425
1680002217542,1182205897689155,-0.0144375,-0.007425,0.01045
1680002217545,1182205900191078,-0.0154,-0.0023375,0.0044
1680002217547,1182205902693232,-0.0144375,0.00165,0.0044
1680002217551,1182205905195386,-0.012375,5.5E-4,0.008525
1680002217553,1182205907697463,-0.0144375,0.0026125,0.007425
1680002217556,1182205910199694,-0.012375,0.003575,0.0064625
1680002217557,1182205912701824,-0.012375,0.00165,0.007425
1680002217559,1182205915203977,-0.018424999,0.00165,0.01045
1680002217562,1182205917706054,-0.0224125,-0.0023375,0.0094875
1680002217567,1182205920208208,-0.0254375,-0.0044,0.0114124995
1680002217568,1182205922710329,-0.0273625,-0.0053625,0.01045
1680002217570,1182205925212483,-0.029424999,-0.0083875,0.0114124995
1680002217572,1182205927714637,-0.029424999,-0.0114124995,0.0125124995
1680002217576,1182205930216791,-0.0303875,-0.01045,0.0144375
1680002217579,1182205932718944,-0.03135,-0.0133375,0.0154
1680002217580,1182205935221112,-0.032449998,-0.0163625,0.019524999
1680002217583,1182205937723035,-0.034375,-0.02035,0.02145
1680002217586,1182205940225189,-0.0364375,-0.0243375,0.0235125
1680002217589,1182205942727574,-0.0364375,-0.0264,0.024475
1680002217593,1182205945229684,-0.034375,-0.0273625,0.0254375
1680002217593,1182205947731607,-0.0364375,-0.02035,0.0254375
1680002217596,1182205950233761,-0.034375,-0.02145,0.0235125
1680002217598,1182205952735915,-0.0334125,-0.0193875,0.024475
1680002217600,1182205955237991,-0.0303875,-0.0193875,0.02145
1680002217603,1182205957740217,-0.032449998,-0.0174625,0.0204875
1680002217607,1182205960242371,-0.0334125,-0.0114124995,0.02145
1680002217608,1182205962744525,-0.029424999,-0.0053625,0.019524999
1680002217610,1182205965246602,-0.0273625,-0.0023375,0.0174625
1680002217612,1182205967748775,-0.0303875,5.5E-4,0.0165
1680002217616,1182205970250929,-0.03135,0.0026125,0.0174625
1680002217617,1182205972752852,-0.03135,0.009625,0.0154
1680002217620,1182205975255236,-0.032449998,0.014575,0.0114124995
1680002217622,1182205977757390,-0.032449998,0.0176,0.0125124995
1680002217629,1182205980259573,-0.032449998,0.0196625,0.0125124995
1680002217629,1182205982761496,-0.0334125,0.020624999,0.0114124995
1680002217631,1182205985263650,-0.0334125,0.0196625,0.0094875
1680002217632,1182205987765804,-0.0374,0.0246125,0.013475
1680002217636,1182205990268207,-0.0394625,0.0246125,0.0114124995
1680002217637,1182205992770130,-0.040425,0.020624999,0.01045
1680002217640,1182205995272284,-0.043449998,0.020624999,0.0064625
1680002217642,1182205997774438,-0.04235,0.0196625,0.0064625
1680002217647,1182206000276525,-0.043449998,0.0155375,0.007425
1680002217649,1182206002778679,-0.0484,0.013612499,0.007425
1680002217650,1182206005280833,-0.045375,0.0155375,0.008525
1680002217652,1182206007782987,-0.045375,0.009625,0.0055
1680002217656,1182206010285126,-0.045375,0.003575,0.0064625
1680002217657,1182206012787280,-0.0463375,0.0056375,0.002475
1680002217660,1182206015289434,-0.0484,0.00165,0.0015125
1680002217663,1182206017791588,-0.0474375,5.5E-4,-5.5E-4
1680002217666,1182206020293525,-0.0463375,-4.125E-4,-0.003575
1680002217668,1182206022795910,-0.0493625,-0.007425,-0.0055
1680002217670,1182206025298064,-0.0504625,-0.0114124995,-0.0055
1680002217673,1182206027799987,-0.0463375,-0.0133375,-0.008525
1680002217676,1182206030302141,-0.0474375,-0.0174625,-0.0105875
1680002217678,1182206032804294,-0.0493625,-0.018424999,-0.01155
1680002217681,1182206035306448,-0.0463375,-0.02035,-0.0165
1680002217683,1182206037808602,-0.045375,-0.0243375,-0.0176
1680002217687,1182206040310741,-0.0444125,-0.0284625,-0.019524999
1680002217689,1182206042812895,-0.045375,-0.034375,-0.0215875
1680002217691,1182206045315049,-0.045375,-0.032449998,-0.0204875
1680002217693,1182206047817126,-0.045375,-0.032449998,-0.0185625
1680002217696,1182206050319279,-0.0474375,-0.0374,-0.019524999
1680002217699,1182206052821429,-0.043449998,-0.0413875,-0.0185625
1680002217702,1182206055323583,-0.043449998,-0.0394625,-0.0155375
1680002217705,1182206057825737,-0.043449998,-0.0394625,-0.0176
1680002217709,1182206060327886,-0.0383625,-0.0444125,-0.0176
1680002217710,1182206062830040,-0.0394625,-0.043449998,-0.014575
1680002217711,1182206065331963,-0.0374,-0.043449998,-0.0165
1680002217713,1182206067834117,-0.0374,-0.0444125,-0.0155375
1680002217716,1182206070336501,-0.0374,-0.0463375,-0.01155
1680002217719,1182206072838424,-0.0374,-0.0493625,-0.014575
1680002217720,1182206075340578,-0.0383625,-0.0474375,-0.0125124995
1680002217723,1182206077842732,-0.040425,-0.0463375,-0.0105875
1680002217727,1182206080344886,-0.0383625,-0.04235,-0.008525
1680002217729,1182206082847044,-0.0394625,-0.043449998,-0.0055
1680002217731,1182206085349121,-0.0383625,-0.043449998,-0.0075625
1680002217733,1182206087851351,-0.0394625,-0.0394625,-0.0066
1680002217736,1182206090353505,-0.0374,-0.0364375,-5.5E-4
1680002217739,1182206092855602,-0.0374,-0.03135,0.002475
1680002217741,1182206095357756,-0.0383625,-0.03135,0.0015125
1680002217743,1182206097859987,-0.0394625,-0.0303875,0.0015125
1680002217746,1182206100362064,-0.034375,-0.0243375,0.0044
1680002217748,1182206102864218,-0.03135,-0.02035,0.0055
1680002217751,1182206105366361,-0.0334125,-0.0174625,0.008525
1680002217753,1182206107868515,-0.029424999,-0.01045,0.0125124995
1680002217756,1182206110370669,-0.029424999,-0.007425,0.0094875
1680002217758,1182206112872823,-0.023375,-0.0064625,0.008525
1680002217761,1182206115374986,-0.02035,-0.0034375,0.0114124995
1680002217763,1182206117877140,-0.023375,-0.0023375,0.008525
1680002217767,1182206120379063,-0.0193875,0.00165,0.01045
1680002217769,1182206122881217,-0.0163625,0.0026125,0.0125124995
1680002217771,1182206125383386,-0.0163625,-0.001375,0.0125124995
1680002217773,1182206127885539,-0.0144375,-0.0064625,0.013475
1680002217779,1182206130387693,-0.0133375,-0.0133375,0.0154
1680002217780,1182206132889847,-0.0133375,-0.01045,0.0144375
1680002217781,1182206135392001,-0.01045,-0.00935,0.0154
1680002217783,1182206137894078,-0.0133375,-0.00935,0.0165
1680002217787,1182206140396232,-0.012375,-0.007425,0.019524999
1680002217788,1182206142898386,-0.00935,-0.0083875,0.0204875
1680002217790,1182206145400539,-0.0154,-0.0083875,0.0204875
1680002217793,1182206147902678,-0.012375,-0.0083875,0.0224125
1680002217797,1182206150404832,-0.00935,-0.012375,0.0254375
1680002217799,1182206152906986,-0.00935,-0.0133375,0.0264
1680002217801,1182206155409140,-0.0103124995,-0.0154,0.0254375
1680002217804,1182206157911073,-0.0103124995,-0.0163625,0.0254375
1680002217809,1182206160413458,-0.0103124995,-0.0144375,0.0264
1680002217819,1182206162915611,-0.0114124995,-0.0163625,0.0235125
1680002217820,1182206165417534,-0.012375,-0.0163625,0.0224125
1680002217820,1182206167919693,-0.0114124995,-0.0193875,0.02145
1680002217820,1182206170421847,-0.0133375,-0.0224125,0.0204875
1680002217820,1182206172923924,-0.0154,-0.02035,0.0174625
1680002217820,1182206175426155,-0.018424999,-0.02145,0.0144375
1680002217823,1182206177928309,-0.018424999,-0.0254375,0.0094875
1680002217826,1182206180430482,-0.0224125,-0.0284625,0.008525
1680002217827,1182206182932635,-0.023375,-0.0284625,0.007425
1680002217830,1182206185434712,-0.0243375,-0.0334125,0.0044
1680002217832,1182206187936866,-0.023375,-0.03135,0.002475
1680002217836,1182206190439005,-0.0243375,-0.032449998,4.125E-4
1680002217838,1182206192941159,-0.0243375,-0.0413875,-0.0015125
1680002217840,1182206195443313,-0.0264,-0.045375,-0.0045375
1680002217843,1182206197945467,-0.0254375,-0.0463375,-0.008525
1680002217847,1182206200447620,-0.0303875,-0.0504625,-0.0066
1680002217849,1182206202949544,-0.03135,-0.0504625,-0.008525
1680002217852,1182206205451697,-0.0323125,-0.051425,-0.01155
1680002217854,1182206207953851,-0.034375,-0.0554125,-0.01155
1680002217857,1182206210456246,-0.0334125,-0.0603625,-0.0125124995
1680002217858,1182206212958169,-0.0323125,-0.0614625,-0.014575
1680002217860,1182206215460323,-0.0364375,-0.0614625,-0.014575
1680002217863,1182206217962477,-0.0334125,-0.0603625,-0.014575
1680002217866,1182206220464554,-0.0323125,-0.0584375,-0.0155375
1680002217868,1182206222966693,-0.03135,-0.0633875,-0.0185625
1680002217870,1182206225468924,-0.0303875,-0.0614625,-0.0185625
1680002217873,1182206227971078,-0.028324999,-0.054449998,-0.0185625
1680002217877,1182206230473155,-0.0243375,-0.0594,-0.019524999
1680002217880,1182206232975333,-0.017324999,-0.0594,-0.0204875
1680002217880,1182206235477487,-0.0224125,-0.0554125,-0.0204875
1680002217883,1182206237979410,-0.02035,-0.0584375,-0.0185625
1680002217887,1182206240481794,-0.0154,-0.0554125,-0.019524999
1680002217890,1182206242983957,-0.0144375,-0.0573375,-0.0204875
1680002217892,1182206245486111,-0.0133375,-0.054449998,-0.0165
1680002217895,1182206247988034,-0.0133375,-0.054449998,-0.0176
1680002217897,1182206250490188,-0.00935,-0.0554125,-0.0176
1680002217900,1182206252992342,-0.006325,-0.05335,-0.0105875
1680002217901,1182206255494482,-0.006325,-0.0523875,-0.0066
1680002217904,1182206257996636,-0.006325,-0.0504625,-0.0045375
1680002217907,1182206260498789,-0.0044,-0.0474375,-0.002475
1680002217909,1182206263000943,-0.007425,-0.0413875,-0.002475
1680002217911,1182206265503087,-0.0044,-0.0413875,0.0055
1680002217913,1182206268005164,-0.0053625,-0.0353375,0.0064625
1680002217918,1182206270507318,-4.125E-4,-0.0284625,0.0094875
1680002217918,1182206273009549,0.00165,-0.0174625,0.0114124995
1680002217920,1182206275511703,6.875E-4,-0.0144375,0.0154
1680002217923,1182206278013761,0.00165,-0.007425,0.0174625
1680002217930,1182206280515914,0.00165,0.0026125,0.02145
1680002217931,1182206283018068,0.0026125,0.003575,0.0235125
1680002217932,1182206285520242,0.0056375,0.014575,0.0235125
1680002217934,1182206288022165,0.0105875,0.0215875,0.0275
1680002217937,1182206290524550,0.0116875,0.0306625,0.029424999
1680002217939,1182206293026704,0.0116875,0.0375375,0.030524999
1680002217940,1182206295528627,0.0166375,0.0405625,0.0284625
1680002217943,1182206298030762,0.0166375,0.04455,0.0314875
1680002217946,1182206300532915,0.0185625,0.0526625,0.0345125
1680002217948,1182206303035069,0.0196625,0.0506,0.0345125
1680002217950,1182206305537223,0.020624999,0.0506,0.0364375
1680002217953,1182206308039348,0.02365,0.05555,0.0374
1680002217958,1182206310541502,0.0226875,0.0545875,0.0345125
1680002217961,1182206313043656,0.02365,0.0545875,0.0345125
1680002217961,1182206315545733,0.0226875,0.0576125,0.0345125
1680002217964,1182206318047891,0.0226875,0.0576125,0.0314875
1680002217967,1182206320550045,0.0215875,0.056649998,0.030524999
1680002217969,1182206323052276,0.0215875,0.0545875,0.0275
1680002217972,1182206325554353,0.0215875,0.053625,0.0254375
1680002217973,1182206328056507,0.0196625,0.0506,0.0224125
1680002217976,1182206330558642,0.0176,0.0485375,0.0204875
1680002217978,1182206333060796,0.0176,0.045649998,0.0224125
1680002217980,1182206335562719,0.0176,0.0386375,0.0165
1680002217982,1182206338065103,0.0166375,0.0356125,0.0094875
1680002217986,1182206340567209,0.014575,0.0386375,0.008525
1680002217988,1182206343069132,0.015675,0.031625,0.007425
1680002217991,1182206345571286,0.0116875,0.0196625,4.125E-4
1680002217993,1182206348073671,0.01265,0.0185625,-0.0015125
1680002217996,1182206350575589,0.01265,0.0166375,-0.003575
1680002217998,1182206353077743,0.0105875,0.01265,-0.0066
1680002218001,1182206355579896,0.009625,0.0066,-0.0094875
1680002218004,1182206358082050,0.0086624995,0.0066,-0.0155375
1680002218007,1182206360584189,0.0066,0.003575,-0.0176
1680002218009,1182206363086343,0.004675,-0.0034375,-0.0204875
1680002218012,1182206365588497,0.003575,-0.001375,-0.0235125
1680002218013,1182206368090651,0.004675,-0.0053625,-0.02255
1680002218016,1182206370592728,0.003575,-0.0114124995,-0.025575
1680002218018,1182206373094868,6.875E-4,-0.0144375,-0.0265375
1680002218020,1182206375597021,-4.125E-4,-0.0133375,-0.0295625
1680002218023,1182206378098944,-0.0023375,-0.0174625,-0.0325875
1680002218026,1182206380601329,-4.125E-4,-0.02035,-0.0325875
1680002218029,1182206383103473,6.875E-4,-0.018424999,-0.0325875
1680002218031,1182206385605627,-0.0044,-0.0224125,-0.0345125
1680002218035,1182206388107550,-0.00935,-0.0254375,-0.0325875
1680002218037,1182206390609704,-0.0103124995,-0.0243375,-0.03355
1680002218040,1182206393111877,-0.012375,-0.0264,-0.0314875
1680002218042,1182206395614261,-0.0133375,-0.029424999,-0.035475
1680002218043,1182206398116184,-0.0144375,-0.0353375,-0.035475
1680002218048,1182206400618338,-0.0163625,-0.032449998,-0.0345125
1680002218049,1182206403120492,-0.017324999,-0.0334125,-0.0345125
1680002218051,1182206405622569,-0.0193875,-0.0303875,-0.036575
1680002218053,1182206408124723,-0.0224125,-0.029424999,-0.0345125
1680002218056,1182206410626877,-0.023375,-0.0273625,-0.03355
1680002218058,1182206413129107,-0.0254375,-0.0264,-0.0314875
1680002218060,1182206415631189,-0.0264,-0.029424999,-0.0325875
1680002218063,1182206418133343,-0.0254375,-0.0353375,-0.0295625
1680002218066,1182206420635497,-0.028324999,-0.0353375,-0.0314875
1680002218068,1182206423137651,-0.0273625,-0.034375,-0.0295625
1680002218070,1182206425639574,-0.028324999,-0.0334125,-0.0295625
1680002218073,1182206428141978,-0.0273625,-0.0303875,-0.0275
1680002218078,1182206430644131,-0.0254375,-0.03135,-0.02255
1680002218080,1182206433146285,-0.0273625,-0.0273625,-0.0215875
1680002218082,1182206435648218,-0.0254375,-0.0284625,-0.024475
1680002218084,1182206438150372,-0.0264,-0.0284625,-0.019524999
1680002218088,1182206440652526,-0.0264,-0.0284625,-0.0155375
1680002218090,1182206443154603,-0.0264,-0.0273625,-0.0125124995
1680002218091,1182206445656834,-0.0254375,-0.0264,-0.0125124995
1680002218093,1182206448158988,-0.0213125,-0.0284625,-0.0105875
1680002218096,1182206450661141,-0.023375,-0.0224125,-0.0066
1680002218099,1182206453163218,-0.017324999,-0.02035,-0.0015125
1680002218101,1182206455665372,-0.0154,-0.0193875,0.0015125
1680002218105,1182206458167526,-0.0144375,-0.0174625,0.0034375
1680002218107,1182206460669757,-0.012375,-0.0174625,0.0094875
1680002218108,1182206463171834,-0.0144375,-0.0133375,0.013475
1680002218111,1182206465673988,-0.012375,-0.0144375,0.0154
1680002218114,1182206468176137,-0.0103124995,-0.0163625,0.0174625
1680002218117,1182206470678290,-0.00935,-0.00935,0.0224125
1680002218119,1182206473180213,-0.00935,-0.0064625,0.024475
1680002218121,1182206475682598,-0.0114124995,-0.0053625,0.029424999
1680002218123,1182206478184752,-0.0083875,-0.001375,0.0345125
1680002218127,1182206480686675,-0.0083875,-0.001375,0.0394625
1680002218129,1182206483188829,-0.0083875,5.5E-4,0.040425
1680002218131,1182206485690983,-0.0103124995,0.0056375,0.041525
1680002218133,1182206488193137,-0.006325,0.003575,0.0424875
1680002218136,1182206490695208,-0.007425,0.009625,0.043449998
1680002218138,1182206493197439,-0.0103124995,0.0166375,0.0444125
1680002218140,1182206495699593,-0.00935,0.013612499,0.046475
1680002218143,1182206498201747,-0.0103124995,0.013612499,0.0455125
1680002218146,1182206500703829,-0.0083875,0.0176,0.0455125
1680002218149,1182206503205983,-0.00935,0.013612499,0.0455125
1680002218152,1182206505708137,-0.0114124995,0.013612499,0.046475
1680002218154,1182206508210367,-0.012375,0.020624999,0.046475
1680002218156,1182206510712463,-0.0144375,0.020624999,0.043449998
1680002218158,1182206513214617,-0.0133375,0.0196625,0.041525
1680002218161,1182206515716771,-0.0133375,0.020624999,0.0424875
1680002218163,1182206518218694,-0.012375,0.0176,0.0385
1680002218168,1182206520720834,-0.0133375,0.0155375,0.0385
1680002218169,1182206523222988,-0.0133375,0.0185625,0.0364375
1680002218172,1182206525725372,-0.0163625,0.0185625,0.030524999
1680002218173,1182206528227296,-0.0163625,0.014575,0.0264
1680002218177,1182206530729449,-0.0154,0.013612499,0.0275
1680002218178,1182206533231602,-0.0133375,0.01265,0.0224125
1680002218180,1182206535733756,-0.0154,0.0075625,0.0165
1680002218183,1182206538235833,-0.0144375,0.0026125,0.0174625
1680002218186,1182206540738064,-0.0163625,-4.125E-4,0.013475
1680002218191,1182206543240228,-0.0163625,-4.125E-4,0.01045
1680002218192,1182206545742305,-0.0154,-0.0034375,0.0064625
1680002218193,1182206548244458,-0.017324999,-0.0053625,0.007425
1680002218196,1182206550746612,-0.018424999,-0.0053625,0.0055
1680002218198,1182206553248766,-0.0224125,-0.00935,0.0055
1680002218200,1182206555750997,-0.0213125,-0.0114124995,0.0044
1680002218203,1182206558253074,-0.0193875,-0.0174625,0.002475
1680002218207,1182206560755228,-0.0213125,-0.02145,0.002475
1680002218209,1182206563257382,-0.023375,-0.02145,0.002475
1680002218212,1182206565759295,-0.0224125,-0.0254375,0.002475
1680002218213,1182206568261448,-0.023375,-0.0224125,0.0044
1680002218217,1182206570763602,-0.023375,-0.0273625,0.0015125
1680002218219,1182206573265987,-0.0243375,-0.0284625,4.125E-4
1680002218221,1182206575767910,-0.0243375,-0.03135,4.125E-4
1680002218223,1182206578270064,-0.0254375,-0.032449998,0.0015125
1680002218229,1182206580772218,-0.0273625,-0.034375,4.125E-4
1680002218230,1182206583274372,-0.0254375,-0.0334125,4.125E-4
1680002218231,1182206585776439,-0.0273625,-0.0334125,-0.0015125
1680002218233,1182206588278670,-0.0243375,-0.034375,-5.5E-4
1680002218237,1182206590780824,-0.0264,-0.032449998,-0.002475
1680002218238,1182206593282901,-0.0264,-0.032449998,-0.0015125
1680002218241,1182206595785055,-0.028324999,-0.0364375,-5.5E-4
1680002218243,1182206598287267,-0.0273625,-0.034375,-0.003575
1680002218247,1182206600789421,-0.0264,-0.03135,-0.0045375
1680002218249,1182206603291497,-0.0264,-0.03135,-0.003575
1680002218251,1182206605793651,-0.0254375,-0.0284625,-0.0045375
1680002218254,1182206608295814,-0.028324999,-0.0284625,-0.0045375
1680002218257,1182206610797968,-0.0264,-0.0273625,-0.003575
1680002218258,1182206613299891,-0.0193875,-0.0254375,-0.0045375
1680002218261,1182206615802276,-0.023375,-0.02035,-0.0055
1680002218264,1182206618304425,-0.0264,-0.02145,-0.0075625
1680002218267,1182206620806348,-0.0254375,-0.0243375,-0.0045375
1680002218268,1182206623308501,-0.0273625,-0.02145,-0.008525
1680002218270,1182206625810655,-0.0243375,-0.018424999,-0.008525
1680002218273,1182206628312809,-0.0224125,-0.0163625,-0.0094875
1680002218276,1182206630814963,-0.023375,-0.0154,-0.01155
1680002218278,1182206633317117,-0.0243375,-0.01045,-0.01155
1680002218280,1182206635819271,-0.023375,-0.01045,-0.0094875
1680002218283,1182206638321425,-0.017324999,-0.0083875,-0.01155
1680002218287,1182206640823536,-0.017324999,-0.0053625,-0.01155
1680002218289,1182206643325689,-0.0133375,-0.001375,-0.0094875
1680002218291,1182206645827843,-0.0114124995,0.0026125,-0.01155
1680002218293,1182206648330074,-0.012375,0.003575,-0.01155
1680002218297,1182206650832165,-0.0083875,0.0066,-0.0105875
1680002218298,1182206653334319,-0.007425,0.0075625,-0.008525
1680002218302,1182206655836473,-0.0053625,0.003575,-0.008525
1680002218304,1182206658338396,-0.0023375,5.5E-4,-0.008525
1680002218307,1182206660840570,5.5E-4,5.5E-4,-0.0066
1680002218308,1182206663342954,-4.125E-4,5.5E-4,-0.0055
1680002218310,1182206665845108,0.004675,0.0045375,-0.0075625
1680002218313,1182206668347031,0.0075625,0.00165,-0.0015125
1680002218316,1182206670849180,0.0075625,-4.125E-4,-0.0015125
1680002218319,1182206673351334,0.0086624995,-4.125E-4,-0.0015125
1680002218321,1182206675853488,0.0075625,-0.001375,4.125E-4
1680002218323,1182206678355642,0.0105875,-0.0023375,0.0015125
1680002218327,1182206680857790,0.015675,-0.0053625,4.125E-4
1680002218329,1182206683359944,0.014575,-0.0034375,0.002475
1680002218331,1182206685862021,0.0166375,-0.0053625,0.0064625
1680002218333,1182206688364175,0.014575,-0.0064625,0.007425
1680002218336,1182206690866329,0.015675,-0.0064625,0.0094875
1680002218339,1182206693368483,0.0176,-0.0053625,0.01045
1680002218341,1182206695870637,0.015675,-0.001375,0.013475
1680002218345,1182206698372790,0.014575,-0.0044,0.0174625
1680002218346,1182206700874944,0.01155,-0.0023375,0.0165
1680002218348,1182206703377098,0.01155,-0.0023375,0.0174625
1680002218350,1182206705879271,0.0166375,-0.0023375,0.0204875
1680002218353,1182206708381194,0.015675,-4.125E-4,0.019524999
1680002218356,1182206710883579,0.009625,5.5E-4,0.019524999
1680002218358,1182206713385502,0.0086624995,-0.0023375,0.0174625
1680002218361,1182206715887646,0.0105875,-0.0023375,0.019524999
1680002218363,1182206718389799,0.0075625,0.00165,0.0235125
1680002218367,1182206720891953,0.009625,5.5E-4,0.02145
1680002218368,1182206723394030,0.0086624995,-4.125E-4,0.019524999
1680002218370,1182206725896184,0.004675,5.5E-4,0.019524999
1680002218373,1182206728398415,0.0026125,5.5E-4,0.0165
1680002218379,1182206730900569,5.5E-4,5.5E-4,0.0154
1680002218380,1182206733402646,0.003575,0.003575,0.013475
1680002218381,1182206735904791,0.00165,0.003575,0.0125124995
1680002218383,1182206738406944,-4.125E-4,0.0026125,0.0094875
1680002218386,1182206740909098,-0.0044,0.00165,0.01045
1680002218388,1182206743411252,-0.007425,0.00165,0.0064625
1680002218391,1182206745913406,-0.007425,0.0026125,0.0055
1680002218393,1182206748415545,-0.00935,-0.001375,0.0034375
1680002218397,1182206750917699,-0.00935,-0.0034375,0.0044
1680002218399,1182206753419622,-0.012375,-0.0034375,-0.0015125
1680002218401,1182206755921776,-0.0144375,-0.0064625,-0.003575
1680002218403,1182206758424165,-0.0144375,-0.0044,-0.003575
1680002218409,1182206760926088,-0.0154,-0.0053625,-0.0075625
1680002218410,1182206763428242,-0.0193875,-0.0023375,-0.0055
1680002218411,1182206765930396,-0.0154,-0.00935,-0.008525
1680002218415,1182206768432564,-0.0154,-0.0114124995,-0.0105875
1680002218417,1182206770934641,-0.0163625,-0.007425,-0.01155
1680002218419,1182206773436795,-0.0163625,-0.007425,-0.0105875
1680002218421,1182206775939025,-0.0154,-0.012375,-0.0094875
1680002218423,1182206778441179,-0.0163625,-0.012375,-0.0094875
1680002218427,1182206780943247,-0.017324999,-0.00935,-0.0105875
1680002218430,1182206783445401,-0.0163625,-0.0064625,-0.0125124995
1680002218432,1182206785947555,-0.017324999,-0.00935,-0.0105875
1680002218442,1182206788449709,-0.0193875,-0.0154,-0.0066
1680002218443,1182206790951867,-0.0163625,-0.0133375,-0.0075625
1680002218443,1182206793454020,-0.0154,-0.0144375,-0.008525
1680002218443,1182206795956174,-0.017324999,-0.0114124995,-0.0045375
1680002218444,1182206798458328,-0.018424999,-0.0144375,-0.0015125
1680002218448,1182206800960236,-0.017324999,-0.0154,-0.003575
1680002218449,1182206803462390,-0.017324999,-0.0133375,-0.002475
1680002218452,1182206805964544,-0.0163625,-0.0144375,-0.002475
1680002218454,1182206808466698,-0.0163625,-0.0163625,-0.0045375
1680002218457,1182206810968852,-0.018424999,-0.0144375,-0.002475
1680002218459,1182206813470971,-0.018424999,-0.0163625,-0.003575
1680002218460,1182206815973125,-0.02145,-0.0193875,-0.0045375
1680002218463,1182206818475202,-0.018424999,-0.0144375,-0.003575
1680002218467,1182206820977356,-0.0163625,-0.0133375,-0.0055
1680002218468,1182206823479573,-0.0193875,-0.02035,-0.0075625
1680002218471,1182206825981727,-0.0193875,-0.018424999,-0.0066
1680002218473,1182206828483804,-0.018424999,-0.0193875,-0.0055
1680002218476,1182206830985958,-0.0193875,-0.0154,-0.0075625
1680002218479,1182206833488092,-0.0224125,-0.0174625,-0.0075625
1680002218481,1182206835990246,-0.02035,-0.018424999,-0.0055
1680002218483,1182206838492169,-0.02035,-0.02145,-0.0075625
1680002218488,1182206840994554,-0.0224125,-0.0193875,-0.0105875
1680002218491,1182206843496698,-0.018424999,-0.0193875,-0.0094875
1680002218493,1182206845998621,-0.018424999,-0.02145,-0.0075625
1680002218496,1182206848500775,-0.017324999,-0.018424999,-0.0094875
1680002218499,1182206851003159,-0.0154,-0.018424999,-0.0105875
1680002218500,1182206853505332,-0.0133375,-0.0174625,-0.0125124995
1680002218502,1182206856082025,-0.012375,-0.0154,-0.0105875
1680002218504,1182206858509409,-0.0114124995,-0.0114124995,-0.014575
1680002218507,1182206861011563,-0.01045,-0.01045,-0.0155375
1680002218509,1182206863513717,-0.0023375,-0.0114124995,-0.0165
1680002218512,1182206866015862,-4.125E-4,-0.0114124995,-0.019524999
1680002218513,1182206868518016,0.00165,-0.0114124995,-0.019524999
1680002218517,1182206871020169,-4.125E-4,-0.01045,-0.0155375
1680002218519,1182206873522246,-0.001375,-0.0133375,-0.014575
1680002218521,1182206876024400,5.5E-4,-0.01045,-0.01155
1680002218525,1182206878526549,5.5E-4,-0.0114124995,-0.0105875
1680002218531,1182206881028780,0.004675,-0.0144375,-0.0094875
1680002218532,1182206883530857,0.0066,-0.018424999,-0.0066
1680002218533,1182206886033011,0.0075625,-0.02145,-0.0075625
1680002218534,1182206888535164,0.0086624995,-0.02035,-0.0015125
1680002218537,1182206891037318,0.0066,-0.018424999,-0.0015125
1680002218539,1182206893539241,0.0075625,-0.0193875,-0.0015125
1680002218541,1182206896041395,0.009625,-0.02035,-0.003575
1680002218546,1182206898543751,0.0086624995,-0.02145,-0.0045375
1680002218548,1182206901045905,0.0086624995,-0.0163625,-0.003575
1680002218549,1182206903547828,0.0066,-0.0174625,-0.002475
1680002218551,1182206906049982,0.009625,-0.0154,0.0015125
1680002218553,1182206908552135,0.009625,-0.0133375,-0.0015125
1680002218558,1182206911054294,0.0075625,-0.0114124995,-0.002475
1680002218559,1182206913556448,0.0075625,-0.00935,0.0015125
1680002218562,1182206916058602,0.0075625,-0.0053625,4.125E-4
1680002218564,1182206918560756,0.0066,-0.0044,0.0015125
1680002218568,1182206921062847,0.0066,0.00165,0.002475
1680002218570,1182206923565001,0.004675,0.003575,0.002475
1680002218572,1182206926067155,0.003575,0.0026125,0.0044
1680002218574,1182206928569308,0.003575,0.0056375,0.002475
1680002218577,1182206931071452,0.00165,0.009625,0.0044
1680002218580,1182206933573606,-0.0053625,0.01265,0.007425
1680002218581,1182206936075760,-0.0044,0.0155375,0.0055
1680002218584,1182206938577683,-0.0044,0.013612499,0.0044
1680002218587,1182206941079833,-0.0053625,0.0155375,0.0055
1680002218588,1182206943581987,-0.0133375,0.0185625,0.0064625
1680002218591,1182206946084371,-0.0133375,0.0176,0.0034375
1680002218593,1182206948586294,-0.0133375,0.0196625,0.0034375
1680002218597,1182206951088433,-0.018424999,0.020624999,0.0064625
1680002218600,1182206953590587,-0.018424999,0.020624999,0.0055
1680002218602,1182206956092741,-0.018424999,0.020624999,0.002475
1680002218604,1182206958594818,-0.02145,0.0196625,0.0034375
1680002218608,1182206961096967,-0.023375,0.0196625,0.0034375
1680002218610,1182206963599198,-0.0224125,0.02255,0.0015125
1680002218613,1182206966101351,-0.02145,0.0295625,-0.0015125
1680002218615,1182206968603428,-0.023375,0.0286,-0.0015125
1680002218617,1182206971105582,-0.0254375,0.0265375,-0.003575
1680002218619,1182206973607747,-0.023375,0.0246125,-0.002475
1680002218621,1182206976109901,-0.02145,0.02365,-5.5E-4
1680002218623,1182206978612055,-0.023375,0.02255,-5.5E-4
1680002218627,1182206981114209,-0.02035,0.0246125,4.125E-4
1680002218629,1182206983616362,-0.02035,0.020624999,0.002475
1680002218631,1182206986118315,-0.0193875,0.020624999,0.002475
1680002218633,1182206988620468,-0.02145,0.0155375,0.002475
1680002218637,1182206991122622,-0.0193875,0.014575,0.0034375
1680002218640,1182206993625021,-0.0193875,0.0105875,0.0064625
1680002218641,1182206996126944,-0.0243375,0.0056375,0.0064625
1680002218643,1182206998629098,-0.0264,0.0026125,0.007425
1680002218647,1182207001131252,-0.023375,0.0045375,0.007425
1680002218649,1182207003633405,-0.0243375,0.0045375,0.0114124995
1680002218651,1182207006135559,-0.0254375,0.003575,0.0125124995
1680002218653,1182207008637636,-0.023375,5.5E-4,0.0114124995
1680002218657,1182207011139867,-0.0224125,0.0026125,0.0144375
1680002218659,1182207013642021,-0.0193875,0.0026125,0.013475
1680002218663,1182207016144098,-0.0193875,-4.125E-4,0.013475
1680002218664,1182207018646252,-0.018424999,5.5E-4,0.0174625
1680002218666,1182207021148406,-0.02145,0.0026125,0.0144375
1680002218668,1182207023650329,-0.0193875,5.5E-4,0.0154
1680002218671,1182207026152699,-0.02035,0.00165,0.0144375
1680002218673,1182207028654853,-0.023375,0.00165,0.0144375
1680002218677,1182207031157007,-0.02035,-4.125E-4,0.0125124995
1680002218679,1182207033658930,-0.017324999,5.5E-4,0.01045
1680002218681,1182207036161093,-0.0163625,0.0026125,0.008525
1680002218683,1182207038663247,-0.0154,0.0026125,0.007425
1680002218688,1182207041165401,-0.0114124995,0.003575,0.007425
1680002218689,1182207043667554,-0.007425,0.003575,0.0015125
1680002218691,1182207046169708,-0.006325,-0.001375,-0.003575
1680002218695,1182207048671862,-0.0044,-0.001375,-0.0066
1680002218697,1182207051174016,-0.0044,-0.0044,-0.0105875
1680002218699,1182207053676093,-0.0023375,-0.01045,-0.014575
1680002218701,1182207056178276,-0.001375,-0.0133375,-0.0176
1680002218704,1182207058680507,5.5E-4,-0.0154,-0.0204875
1680002218709,1182207061182583,0.00165,-0.0163625,-0.02255
1680002218712,1182207063684737,0.004675,-0.0224125,-0.025575
1680002218713,1182207066186891,0.0056375,-0.0243375,-0.0275
1680002218715,1182207068689083,0.0075625,-0.0264,-0.0314875
1680002218718,1182207071191237,0.0086624995,-0.029424999,-0.0325875
1680002218720,1182207073693391,0.0105875,-0.0303875,-0.0345125
1680002218722,1182207076195545,0.009625,-0.032449998,-0.0345125
1680002218724,1182207078697698,0.014575,-0.0353375,-0.03355
1680002218728,1182207081199617,0.0166375,-0.0383625,-0.0345125
1680002218730,1182207083701770,0.02255,-0.0353375,-0.036575
1680002218731,1182207086203924,0.0215875,-0.0374,-0.035475
1680002218734,1182207088706078,0.020624999,-0.0364375,-0.035475
1680002218737,1182207091208218,0.0276375,-0.0364375,-0.03355
1680002218739,1182207093710372,0.0306625,-0.0303875,-0.035475
1680002218741,1182207096212526,0.026675,-0.0273625,-0.03355
1680002218744,1182207098714679,0.0325875,-0.0264,-0.0345125
1680002218747,1182207101216862,0.031625,-0.029424999,-0.0325875
1680002218749,1182207103719016,0.0356125,-0.0273625,-0.0295625
1680002218753,1182207106221170,0.0356125,-0.0224125,-0.0286
1680002218755,1182207108723247,0.0356125,-0.0193875,-0.0286
1680002218757,1182207111225406,0.036575,-0.0174625,-0.0265375
1680002218759,1182207113727560,0.036575,-0.0154,-0.024475
1680002218762,1182207116229790,0.0386375,-0.0144375,-0.024475
1680002218764,1182207118731867,0.0386375,-0.012375,-0.0215875
1680002218768,1182207121234034,0.037675,-0.0144375,-0.0165
1680002218770,1182207123736188,0.037675,-0.01045,-0.0155375
1680002218772,1182207126238342,0.036575,-0.0114124995,-0.014575
1680002218774,1182207128740265,0.036575,-0.01045,-0.008525
1680002218777,1182207131242419,0.0356125,-0.012375,-0.0045375
1680002218779,1182207133744798,0.036575,-0.0114124995,-0.0055
1680002218782,1182207136246952,0.031625,-0.0154,-0.0015125
1680002218785,1182207138748875,0.0306625,-0.012375,0.0015125
1680002218787,1182207141251029,0.0276375,-0.0144375,4.125E-4
1680002218790,1182207143753189,0.0246125,-0.0174625,0.0034375
1680002218792,1182207146255343,0.0246125,-0.0193875,0.0034375
1680002218795,1182207148757497,0.0265375,-0.02145,0.008525
1680002218797,1182207151259651,0.0235125,-0.013475,0.008525
1680002218799,1182207153761805,0.0215875,-0.0144375,0.007425
1680002218801,1182207156263857,0.02255,-0.013475,0.01045
1680002218804,1182207158766011,0.0235125,-0.01045,0.0125124995
1680002218807,1182207161268165,0.025575,-0.0083875,0.0125124995
1680002218809,1182207163770319,0.030524999,-0.0044,0.0144375
1680002218812,1182207166272454,0.0325875,0.00165,0.0154
1680002218814,1182207168774608,0.03355,0.0056375,0.0204875
1680002218817,1182207171276762,0.036575,0.0066,0.0235125
1680002218818,1182207173778915,0.0405625,0.0075625,0.0235125
1680002218821,1182207176280844,0.041525,0.0155375,0.0254375
1680002218824,1182207178782997,0.0506,0.0176,0.0284625
1680002218828,1182207181285382,0.047575,0.0185625,0.032449998
1680002218829,1182207183787305,0.04455,0.02255,0.0334125
1680002218831,1182207186289483,0.0485375,0.02365,0.0364375
1680002218833,1182207188791637,0.047575,0.0246125,0.0424875
1680002218836,1182207191293791,0.042625,0.0276375,0.0424875
1680002218839,1182207193795868,0.036575,0.0246125,0.0455125
1680002218841,1182207196298098,0.0386375,0.0286,0.0474375
1680002218844,1182207198800251,0.0386375,0.0276375,0.0504625
1680002218847,1182207201302405,0.0375375,0.020624999,0.057475
1680002218849,1182207203804559,0.0396,0.019524999,0.063525
1680002218851,1182207206306636,0.036575,0.020624999,0.0715
1680002218855,1182207208808781,0.0396,0.0246125,0.0754875
1680002218857,1182207211310935,0.0386375,0.0295625,0.0774125
1680002218859,1182207213813088,0.0386375,0.03355,0.0754875
1680002218862,1182207216315242,0.041525,0.036575,0.074525
1680002218865,1182207218817396,0.0435875,0.045649998,0.073425
1680002218867,1182207221319550,0.047575,0.0545875,0.0724625
1680002218871,1182207223821473,0.04455,0.0576125,0.0694375
1680002218873,1182207226323627,0.0455125,0.0606375,0.06545
1680002218875,1182207228826011,0.0435875,0.0625625,0.0614625
1680002218879,1182207231328131,0.0455125,0.0686125,0.054449998
1680002218880,1182207233830054,0.0435875,0.06655,0.0504625
1680002218882,1182207236332208,0.042625,0.064625,0.0455125
1680002218884,1182207238834362,0.0405625,0.063525,0.0394625
1680002218888,1182207241336521,0.042625,0.0625625,0.032449998
1680002218889,1182207243838598,0.04455,0.0545875,0.0275
1680002218891,1182207246340829,0.0455125,0.0485375,0.0204875
1680002218895,1182207248842983,0.0396,0.0396,0.0125124995
1680002218897,1182207251345088,0.0396,0.03355,0.0094875
1680002218900,1182207253847242,0.0375375,0.0215875,4.125E-4
1680002218903,1182207256349396,0.0386375,0.01155,-0.0055
1680002218905,1182207258851550,0.03355,0.0026125,-0.01155
1680002218909,1182207261353704,0.0345125,-0.0053625,-0.0204875
1680002218910,1182207263855858,0.031625,-0.012375,-0.025575
1680002218911,1182207266358012,0.0286,-0.0254375,-0.03355
1680002218914,1182207268860165,0.0276375,-0.035475,-0.0385
1680002218917,1182207271362060,0.025575,-0.04235,-0.041525
1680002218919,1182207273864213,0.0246125,-0.05335,-0.0455125
1680002218921,1182207276366367,0.0265375,-0.057475,-0.0506
1680002218924,1182207278868752,0.0246125,-0.062425,-0.052525
1680002218928,1182207281370694,0.0215875,-0.068475,-0.05555
1680002218929,1182207283872848,0.0215875,-0.0713625,-0.0605
1680002218931,1182207286375002,0.020624999,-0.0713625,-0.0644875
1680002218934,1182207288877079,0.0185625,-0.0713625,-0.0675125
1680002218937,1182207291379232,0.0215875,-0.0713625,-0.068475
1680002218940,1182207293881459,0.0215875,-0.0713625,-0.069575
1680002218942,1182207296383613,0.0185625,-0.06545,-0.06655
1680002218944,1182207298885767,0.020624999,-0.0633875,-0.06655
1680002218947,1182207301387844,0.0215875,-0.0554125,-0.0616
1680002218949,1182207303889998,0.0215875,-0.051425,-0.0605
1680002218951,1182207306392190,0.019524999,-0.0474375,-0.058575
1680002218953,1182207308894343,0.020624999,-0.0394625,-0.0545875
1680002218956,1182207311396497,0.0246125,-0.034375,-0.052525
1680002218959,1182207313898651,0.0235125,-0.0254375,-0.0495
1680002218961,1182207316400805,0.02255,-0.0174625,-0.04455
1680002218964,1182207318902679,0.025575,-0.0174625,-0.041525
1680002218967,1182207321404833,0.0265375,-0.00935,-0.0345125
1680002218970,1182207323906987,0.025575,-0.0053625,-0.035475
1680002218971,1182207326409371,0.025575,0.00165,-0.0325875
1680002218974,1182207328911323,0.0276375,0.0066,-0.024475
1680002218978,1182207331413477,0.030524999,0.0075625,-0.0204875
1680002218980,1182207333915631,0.031625,0.01265,-0.0176
1680002218981,1182207336417708,0.031625,0.01265,-0.0125124995
1680002218984,1182207338919881,0.0276375,0.014575,-0.0094875
1680002218987,1182207341422112,0.030524999,0.0166375,-0.0055
1680002218989,1182207343924189,0.031625,0.0215875,-0.003575
1680002218992,1182207346426342,0.030524999,0.0215875,-0.002475
1680002218996,1182207348928261,0.03355,0.0265375,4.125E-4
1680002218997,1182207351430645,0.03355,0.0295625,0.0044
1680002218999,1182207353932799,0.0325875,0.03355,0.0034375
1680002219002,1182207356434953,0.03355,0.042625,0.0034375
1680002219004,1182207358936833,0.0325875,0.045649998,0.0044
1680002219007,1182207361438987,0.03355,0.0466125,0.0034375
1680002219009,1182207363941141,0.0356125,0.052525,0.0055
1680002219012,1182207366443294,0.036575,0.0595375,0.008525
1680002219015,1182207368945453,0.03355,0.0616,0.01045
1680002219017,1182207371447607,0.0325875,0.0606375,0.0154
1680002219019,1182207373949761,0.031625,0.064625,0.0125124995
1680002219021,1182207376451838,0.0286,0.06655,0.0144375
1680002219023,1182207378953992,0.0246125,0.06655,0.0144375
1680002219027,1182207381456155,0.0215875,0.06765,0.0165
1680002219029,1182207383958385,0.0166375,0.0655875,0.0165
1680002219031,1182207386460462,0.0105875,0.0606375,0.019524999
1680002219035,1182207388962616,0.0066,0.0595375,0.0114124995
1680002219036,1182207391464765,0.0015125,0.056649998,0.013475
1680002219039,1182207393966919,-0.0044,0.0515625,0.013475
1680002219041,1182207396468842,-0.007425,0.0466125,0.0114124995
1680002219044,1182207398970996,-0.0114124995,0.0386375,0.0094875
1680002219047,1182207401473400,-0.0144375,0.0356125,0.008525
1680002219049,1182207403975553,-0.018424999,0.0325875,0.0055
1680002219053,1182207406477476,-0.0163625,0.0246125,0.002475
1680002219054,1182207408979630,-0.0193875,0.019524999,0.002475
1680002219060,1182207411481784,-0.023375,0.0166375,-5.5E-4
1680002219066,1182207413983938,-0.0303875,0.014575,-0.002475
1680002219066,1182207416486092,-0.0264,0.0105875,-0.003575
1680002219066,1182207418988246,-0.0273625,0.0066,-0.0066
1680002219067,1182207421490391,-0.032449998,0.009625,-0.0075625
1680002219069,1182207423992544,-0.032449998,0.0056375,-0.0094875
1680002219071,1182207426494621,-0.0334125,0.0045375,-0.008525
1680002219074,1182207428996775,-0.040425,0.0045375,-0.0105875
1680002219077,1182207431499015,-0.0383625,0.003575,-0.0105875
1680002219080,1182207434001169,-0.032449998,0.003575,-0.01155
1680002219081,1182207436503246,-0.0383625,0.00165,-0.0094875
1680002219084,1182207439005400,-0.040425,0.00165,-0.01155
1680002219087,1182207441507563,-0.0394625,-0.002475,-0.014575
1680002219090,1182207444009487,-0.0383625,-0.0044,-0.0094875
1680002219092,1182207446511640,-0.0374,-0.0044,-0.0066
1680002219096,1182207449014025,-0.0383625,-0.0034375,-0.008525
1680002219098,1182207451516150,-0.034375,-0.0053625,-0.0066
1680002219101,1182207454018073,-0.0334125,-0.01045,-0.008525
1680002219102,1182207456520227,-0.0334125,-0.0083875,-0.003575
1680002219104,1182207459022381,-0.0314875,-0.00935,-0.003575
1680002219107,1182207461524534,-0.0314875,-0.00935,0.0015125
1680002219109,1182207464026693,-0.032449998,-0.00935,0.0034375
1680002219112,1182207466528847,-0.0284625,-0.0083875,-5.5E-4
1680002219115,1182207469031001,-0.0254375,-0.013475,0.0015125
1680002219117,1182207471533155,-0.0224125,-0.0114124995,0.0044
1680002219119,1182207474035232,-0.02145,-0.01045,0.0034375
1680002219121,1182207476537357,-0.0204875,-0.012375,0.007425
1680002219124,1182207479039511,-0.0174625,-0.01045,0.0064625
1680002219128,1182207481541741,-0.0154,-0.01045,0.0114124995
1680002219130,1182207484043818,-0.0144375,-0.012375,0.0125124995
1680002219132,1182207486546021,-0.013475,-0.01045,0.0144375
1680002219134,1182207489048175,-0.01045,-0.0083875,0.0154
1680002219137,1182207491550098,-0.012375,-0.007425,0.0154
1680002219139,1182207494052252,-0.0094875,-0.00935,0.0165
1680002219141,1182207496554637,-0.0053625,-0.007425,0.0204875
1680002219146,1182207499056761,-4.125E-4,-0.0064625,0.02145
1680002219147,1182207501558684,-0.001375,-0.0053625,0.0204875
1680002219149,1182207504060838,-0.002475,-0.001375,0.02145
1680002219151,1182207506562992,0.003575,0.0026125,0.0224125
1680002219153,1182207509065146,0.0056375,0.0056375,0.02145
1680002219157,1182207511567300,0.0066,0.0045375,0.02145
1680002219159,1182207514069454,0.0056375,0.00165,0.0224125
1680002219162,1182207516571608,0.0075625,0.0026125,0.024475
1680002219165,1182207519073756,0.008525,5.5E-4,0.0224125
1680002219168,1182207521575833,0.01155,-4.125E-4,0.019524999
1680002219170,1182207524077987,0.01155,0.0026125,0.0174625
1680002219172,1182207526580141,0.009625,-4.125E-4,0.02145
1680002219173,1182207529082372,0.01155,-0.0044,0.0204875
1680002219176,1182207531584473,0.0105875,-0.007425,0.0144375
1680002219179,1182207534086627,0.01155,-0.0053625,0.0154
1680002219181,1182207536588780,0.0105875,-0.0083875,0.01045
1680002219184,1182207539090704,0.0075625,-0.00935,0.01045
1680002219187,1182207541592852,0.0066,-0.012375,0.0144375
1680002219189,1182207544095237,0.0056375,-0.0114124995,0.013475
1680002219191,1182207546597391,0.0045375,-0.01045,0.0114124995
1680002219195,1182207549099314,0.0015125,-0.012375,0.0094875
1680002219197,1182207551601468,0.0015125,-0.012375,0.008525
1680002219199,1182207554103622,0.0026125,-0.00935,0.007425
1680002219203,1182207556605775,0.0026125,-0.01045,0.007425
1680002219204,1182207559107852,-0.001375,-0.0114124995,0.0064625
1680002219209,1182207561610088,-0.001375,-0.013475,0.0064625
1680002219212,1182207564112242,-0.0064625,-0.013475,0.007425
1680002219213,1182207566614396,-0.002475,-0.00935,0.0034375
1680002219214,1182207569116473,-0.007425,-0.01045,0.002475
1680002219217,1182207571618622,-0.0083875,-0.013475,0.002475
1680002219219,1182207574120776,-0.0083875,-0.0083875,0.0015125
1680002219221,1182207576623006,-0.0083875,-0.007425,-5.5E-4
1680002219224,1182207579125083,-0.0094875,-0.0064625,-5.5E-4
1680002219227,1182207581627232,-0.01045,-0.0053625,4.125E-4
1680002219229,1182207584129386,-0.013475,-0.0034375,-5.5E-4
1680002219231,1182207586631540,-0.013475,-0.0044,0.0015125
1680002219234,1182207589133463,-0.012375,-0.0034375,0.002475
1680002219236,1182207591635847,-0.012375,-0.0044,0.002475
1680002219240,1182207594137972,-0.0114124995,-0.0053625,0.0034375
1680002219242,1182207596639895,-0.013475,-0.002475,0.007425
1680002219245,1182207599142049,-0.013475,-0.0034375,0.0094875
1680002219248,1182207601644126,-0.0144375,-0.0044,0.0125124995
1680002219249,1182207604146357,-0.0144375,-0.0083875,0.0165
1680002219251,1182207606648502,-0.0144375,-0.00935,0.019524999
1680002219254,1182207609150656,-0.012375,-0.0064625,0.019524999
1680002219257,1182207611652733,-0.013475,-0.0083875,0.02145
1680002219259,1182207614154886,-0.0154,-0.01045,0.0254375
1680002219263,1182207616657025,-0.013475,-0.0114124995,0.0275
1680002219264,1182207619159256,-0.0144375,-0.007425,0.0264
1680002219267,1182207621661333,-0.0144375,-0.007425,0.0284625
1680002219269,1182207624163487,-0.01045,-0.0083875,0.029424999
1680002219272,1182207626665636,-0.0144375,-0.0034375,0.0284625
1680002219274,1182207629167790,-0.0144375,-4.125E-4,0.030524999
1680002219278,1182207631669713,-0.0094875,5.5E-4,0.0314875
1680002219280,1182207634172097,-0.01045,0.0026125,0.0314875
1680002219281,1182207636674251,-0.0083875,0.0026125,0.0284625
1680002219284,1182207639176405,-0.0083875,0.0045375,0.0275
1680002219288,1182207641678328,-0.0094875,0.0045375,0.0264
1680002219289,1182207644180482,-0.0064625,0.0026125,0.0264
1680002219291,1182207646682636,-0.0064625,0.0066,0.024475
1680002219295,1182207649184728,-0.0044,0.0056375,0.0254375
1680002219297,1182207651686958,-0.002475,0.0045375,0.0254375
1680002219299,1182207654189112,-0.0053625,5.5E-4,0.0254375
1680002219301,1182207656691266,-0.001375,5.5E-4,0.02145
1680002219304,1182207659193338,5.5E-4,5.5E-4,0.0174625
1680002219307,1182207661695492,0.003575,-4.125E-4,0.0174625
1680002219309,1182207664197646,0.0045375,-4.125E-4,0.0224125
1680002219312,1182207666699877,0.0045375,-0.0044,0.0144375
1680002219316,1182207669201964,0.0045375,-0.002475,0.0114124995
1680002219318,1182207671704117,0.0026125,-4.125E-4,0.013475
1680002219320,1182207674206271,0.0045375,-4.125E-4,0.013475
1680002219323,1182207676708425,0.0045375,-0.001375,0.013475
1680002219324,1182207679210357,0.0045375,0.0026125,0.0114124995
1680002219329,1182207681712511,0.003575,0.0045375,0.01045
1680002219331,1182207684214896,0.0045375,0.0056375,0.002475
1680002219332,1182207686717049,0.0045375,0.01155,0.0044
1680002219334,1182207689218988,0.0056375,0.01155,0.002475
1680002219337,1182207691721141,0.0066,0.014575,-5.5E-4
1680002219339,1182207694223295,0.008525,0.0155375,-0.002475
1680002219341,1182207696725372,0.0066,0.0166375,-0.0066
1680002219345,1182207699227593,0.0045375,0.019524999,-0.0105875
1680002219347,1182207701729747,0.0105875,0.0155375,-0.0125124995
1680002219349,1182207704231901,0.0075625,0.013612499,-0.0155375
1680002219353,1182207706733978,0.008525,0.01265,-0.0185625
1680002219355,1182207709236141,0.0075625,0.013612499,-0.0165
1680002219357,1182207711738295,0.0056375,0.0075625,-0.0176
1680002219359,1182207714240526,0.0045375,0.0045375,-0.02255
1680002219361,1182207716742603,0.0056375,-0.002475,-0.0215875
1680002219364,1182207719244757,0.0075625,-0.0053625,-0.0235125
1680002219368,1182207721746896,0.0045375,-0.0064625,-0.025575
1680002219370,1182207724249050,0.003575,-0.0154,-0.0235125
1680002219372,1182207726750973,5.5E-4,-0.018424999,-0.025575
1680002219375,1182207729253127,0.0026125,-0.0174625,-0.0275
1680002219379,1182207731755502,0.0026125,-0.0254375,-0.024475
1680002219380,1182207734257656,0.00165,-0.0273625,-0.025575
1680002219382,1182207736759579,0.00165,-0.032449998,-0.0265375
1680002219384,1182207739261733,0.00165,-0.035475,-0.025575
1680002219387,1182207741763906,-0.001375,-0.03135,-0.024475
1680002219391,1182207744266060,-0.002475,-0.032449998,-0.02255
1680002219392,1182207746768213,-0.0044,-0.032449998,-0.02255
1680002219396,1182207749270367,-0.002475,-0.03135,-0.0185625
1680002219399,1182207751772511,-0.0053625,-0.0334125,-0.0176
1680002219401,1182207754274665,-0.007425,-0.0254375,-0.0165
1680002219402,1182207756776742,-0.007425,-0.018424999,-0.014575
1680002219404,1182207759278896,-0.0064625,-0.02035,-0.0105875
1680002219408,1182207761781060,-0.0114124995,-0.0193875,-0.01155
1680002219410,1182207764283214,-0.01045,-0.0174625,-0.0075625
1680002219412,1182207766785367,-0.0083875,-0.0144375,-0.002475
1680002219414,1182207769287521,-0.01045,-0.01045,-0.0015125
1680002219417,1182207771789675,-0.01045,-0.007425,4.125E-4
1680002219419,1182207774291608,-0.00935,-0.0064625,0.002475
1680002219421,1182207776793762,-0.012375,-0.0053625,0.0044
1680002219424,1182207779296147,-0.0154,-0.001375,0.0064625
1680002219429,1182207781798314,-0.0154,0.003575,0.008525
1680002219431,1182207784300238,-0.0144375,0.0075625,0.01045
1680002219432,1182207786802391,-0.0154,0.01155,0.0154
1680002219434,1182207789304545,-0.0144375,0.0166375,0.0154
1680002219437,1182207791806699,-0.0144375,0.019524999,0.0174625
1680002219439,1182207794308776,-0.0163625,0.0176,0.019524999
1680002219442,1182207796811021,-0.0154,0.0215875,0.02145
1680002219446,1182207799313175,-0.0144375,0.0295625,0.02145
1680002219448,1182207801815329,-0.0163625,0.030524999,0.02145
1680002219450,1182207804317405,-0.0144375,0.031625,0.0235125
1680002219451,1182207806819559,-0.0154,0.03355,0.0254375
1680002219454,1182207809321713,-0.0163625,0.0375375,0.0254375
1680002219457,1182207811823867,-0.018424999,0.0386375,0.0264
1680002219459,1182207814326021,-0.0154,0.0386375,0.0264
1680002219463,1182207816828175,-0.0163625,0.0396,0.0284625
1680002219465,1182207819330315,-0.013475,0.0386375,0.0254375
1680002219468,1182207821832238,-0.0144375,0.0386375,0.0235125
1680002219470,1182207824334392,-0.0174625,0.0396,0.0254375
1680002219472,1182207826836776,-0.0163625,0.0386375,0.0254375
1680002219475,1182207829338935,-0.0154,0.0396,0.0284625
1680002219477,1182207831840858,-0.018424999,0.03355,0.0264
1680002219480,1182207834343012,-0.0154,0.0295625,0.0254375
1680002219482,1182207836845166,-0.0163625,0.0276375,0.024475
1680002219486,1182207839347310,-0.0163625,0.0265375,0.0224125
1680002219488,1182207841849387,-0.0163625,0.020624999,0.019524999
1680002219490,1182207844351617,-0.0154,0.0176,0.0174625
1680002219492,1182207846853694,-0.0144375,0.0155375,0.0174625
1680002219496,1182207849355815,-0.012375,0.013612499,0.0165
1680002219499,1182207851857969,-0.0144375,0.01155,0.0144375
1680002219501,1182207854360123,-0.018424999,0.0045375,0.0125124995
1680002219504,1182207856862277,-0.0154,0.003575,0.01045
1680002219507,1182207859364421,-0.0114124995,5.5E-4,0.0094875
1680002219508,1182207861866344,-0.00935,5.5E-4,0.008525
1680002219512,1182207864368497,-0.0114124995,-0.001375,0.007425
1680002219514,1182207866870651,-0.007425,-0.0083875,0.002475
1680002219515,1182207869373036,-0.0044,-0.01045,0.0015125
1680002219517,1182207871874969,-0.002475,-0.0154,4.125E-4
1680002219520,1182207874377123,5.5E-4,-0.0193875,-0.0015125
1680002219522,1182207876879277,5.5E-4,-0.024475,-0.002475
1680002219525,1182207879381354,-0.001375,-0.03135,-0.0045375
1680002219529,1182207881883526,-0.002475,-0.034375,-0.008525
1680002219531,1182207884385680,-4.125E-4,-0.0374,-0.0105875
1680002219532,1182207886887911,-4.125E-4,-0.0413875,-0.014575
1680002219534,1182207889389988,5.5E-4,-0.0394625,-0.014575
1680002219537,1182207891892142,-0.002475,-0.04235,-0.0155375
1680002219541,1182207894394296,-4.125E-4,-0.0374,-0.0155375
1680002219542,1182207896896450,-0.002475,-0.0334125,-0.0165
1680002219545,1182207899398373,5.5E-4,-0.035475,-0.0185625
1680002219547,1182207901900757,-0.001375,-0.0413875,-0.0215875
1680002219549,1182207904402911,-0.001375,-0.035475,-0.0204875
1680002219552,1182207906905074,-0.0053625,-0.0364375,-0.02255
1680002219554,1182207909406997,-0.0053625,-0.0374,-0.019524999
1680002219557,1182207911909151,-0.002475,-0.0394625,-0.0215875
1680002219559,1182207914411305,-0.0053625,-0.0374,-0.0215875
1680002219562,1182207916913440,-0.0053625,-0.034375,-0.019524999
1680002219564,1182207919415594,-0.002475,-0.03135,-0.0176
1680002219568,1182207921917747,-0.0044,-0.032449998,-0.0204875
1680002219569,1182207924419901,-0.0053625,-0.0273625,-0.0176
1680002219571,1182207926922084,-0.0083875,-0.029424999,-0.0155375
1680002219574,1182207929424161,-0.0064625,-0.0264,-0.0155375
1680002219578,1182207931926315,-0.00935,-0.0224125,-0.0165
1680002219580,1182207934428546,-0.01045,-0.0254375,-0.014575
1680002219582,1182207936930642,-0.01045,-0.02035,-0.0125124995
1680002219584,1182207939432795,-0.01045,-0.0163625,-0.0125124995
1680002219587,1182207941934949,-0.007425,-0.0154,-0.0155375
1680002219589,1182207944437103,-0.0044,-0.018424999,-0.0105875
1680002219592,1182207946939026,-0.002475,-0.012375,-0.0066
1680002219594,1182207949441411,-0.0044,-0.0083875,-0.0094875
1680002219597,1182207951943565,-0.001375,-0.0064625,-0.008525
1680002219599,1182207954445719,-0.002475,-0.0044,-0.0075625
1680002219601,1182207956947642,-4.125E-4,5.5E-4,-0.0045375
1680002219604,1182207959449809,0.00165,0.0026125,-0.0045375
1680002219608,1182207961951963,0.003575,0.0045375,-0.0015125
1680002219610,1182207964454117,0.00165,0.0066,-0.0015125
1680002219612,1182207966956271,0.00165,0.0056375,-0.0015125
1680002219616,1182207969458440,0.0026125,0.00165,-5.5E-4
1680002219619,1182207971960594,-4.125E-4,5.5E-4,4.125E-4
1680002219620,1182207974462748,-4.125E-4,5.5E-4,4.125E-4
1680002219622,1182207976964824,-0.001375,-0.002475,0.002475
1680002219624,1182207979466963,-0.002475,-0.0083875,4.125E-4
1680002219627,1182207981969194,-0.002475,-0.0114124995,4.125E-4
1680002219630,1182207984471271,-4.125E-4,-0.0144375,-5.5E-4
1680002219632,1182207986973425,0.00165,-0.0163625,0.002475
1680002219635,1182207989475608,5.5E-4,-0.0163625,0.0015125
1680002219637,1182207991977762,-4.125E-4,-0.018424999,4.125E-4
1680002219639,1182207994479685,-0.002475,-0.02145,-5.5E-4
1680002219642,1182207996981839,-0.002475,-0.024475,-0.003575
1680002219646,1182207999484233,-0.0064625,-0.02145,-0.003575
1680002219648,1182208001986387,-0.001375,-0.02145,-0.0045375
1680002219650,1182208004488310,-0.001375,-0.02145,-0.0055
1680002219653,1182208006990464,-4.125E-4,-0.0224125,-0.008525
1680002219656,1182208009492618,-4.125E-4,-0.0264,-0.0094875
1680002219657,1182208011994772,5.5E-4,-0.0254375,-0.0105875
1680002219660,1182208014496926,0.003575,-0.02035,-0.0105875
1680002219662,1182208016999079,0.003575,-0.02145,-0.01155
1680002219664,1182208019501233,0.003575,-0.024475,-0.0125124995
1680002219667,1182208022003391,0.003575,-0.0193875,-0.01155
1680002219669,1182208024505468,0.0056375,-0.0224125,-0.01155
1680002219672,1182208027007622,0.0066,-0.02145,-0.014575
1680002219674,1182208029509853,0.0075625,-0.02145,-0.01155
1680002219677,1182208032011930,0.008525,-0.02145,-0.0125124995
1680002219679,1182208034514083,0.0066,-0.0193875,-0.014575
1680002219686,1182208037016237,0.0075625,-0.0174625,-0.01155
1680002219693,1182208039518391,0.0045375,-0.018424999,-0.0105875
1680002219694,1182208042020324,5.5E-4,-0.0174625,-0.008525
1680002219694,1182208044522478,0.0066,-0.0144375,-0.0094875
1680002219694,1182208047024863,0.0075625,-0.0154,-0.0066
1680002219697,1182208049527017,0.0056375,-0.0144375,-0.0045375
1680002219699,1182208052028925,0.0045375,-0.012375,-0.003575
1680002219700,1182208054531078,0.0056375,-0.013475,-5.5E-4
1680002219702,1182208057033232,0.0066,-0.0193875,0.002475
1680002219704,1182208059535386,0.0045375,-0.018424999,0.0044
1680002219707,1182208062037540,0.0026125,-0.02035,0.0064625
1680002219709,1182208064539704,0.0045375,-0.02145,0.0094875
1680002219713,1182208067041858,5.5E-4,-0.02145,0.0125124995
1680002219715,1182208069544012,5.5E-4,-0.024475,0.013475
1680002219718,1182208072046088,-4.125E-4,-0.0254375,0.0154
1680002219719,1182208074548228,-0.001375,-0.024475,0.0144375
1680002219722,1182208077050382,-0.002475,-0.02145,0.019524999
1680002219725,1182208079552536,-0.002475,-0.0224125,0.0204875
1680002219729,1182208082054690,-0.002475,-0.0224125,0.019524999
1680002219731,1182208084556834,-0.001375,-0.02145,0.02145
1680002219733,1182208087058988,-0.002475,-0.02035,0.0235125
1680002219735,1182208089560911,-0.002475,-0.013475,0.0204875
1680002219738,1182208092063065,5.5E-4,-0.0163625,0.0224125
1680002219740,1182208094565449,-4.125E-4,-0.01045,0.0224125
1680002219742,1182208097067338,5.5E-4,-0.01045,0.02145
1680002219746,1182208099569492,0.0056375,-0.007425,0.02145
1680002219748,1182208102071646,0.0056375,-0.001375,0.0174625
1680002219749,1182208104573800,0.008525,0.003575,0.0174625
1680002219752,1182208107075935,0.009625,0.003575,0.0154
1680002219754,1182208109578089,0.0155375,0.009625,0.013475
1680002219757,1182208112080242,0.019524999,0.01265,0.0144375
1680002219761,1182208114582319,0.02255,0.01265,0.0204875
1680002219765,1182208117084473,0.0246125,0.014575,0.02145
1680002219766,1182208119586627,0.02255,0.0155375,0.0174625
1680002219769,1182208122088858,0.020624999,0.01155,0.0174625
1680002219771,1182208124590935,0.020624999,0.01265,0.0174625
1680002219773,1182208127093079,0.020624999,0.0075625,0.0224125
1680002219777,1182208129595232,0.020624999,0.003575,0.0224125
1680002219779,1182208132097386,0.020624999,-0.002475,0.0224125
1680002219780,1182208134599309,0.019524999,-0.002475,0.0224125
1680002219782,1182208137101694,0.02255,-0.002475,0.0254375
1680002219784,1182208139603839,0.0265375,-0.00935,0.024475
1680002219787,1182208142105762,0.025575,-0.0144375,0.0254375
1680002219789,1182208144607916,0.025575,-0.013475,0.024475
1680002219794,1182208147110070,0.026675,-0.0154,0.02145
1680002219796,1182208149612237,0.0306625,-0.0133375,0.019524999
1680002219798,1182208152114622,0.025575,-0.0163625,0.0174625
1680002219800,1182208154616545,0.02365,-0.0174625,0.0154
1680002219803,1182208157118699,0.0215875,-0.02145,0.0144375
1680002219807,1182208159620800,0.0185625,-0.02035,0.01045
1680002219810,1182208162122877,0.02255,-0.02035,0.0055
1680002219811,1182208164625031,0.0196625,-0.02145,0.0064625
1680002219813,1182208167127184,0.014575,-0.02035,0.0034375
1680002219815,1182208169629415,0.015675,-0.0174625,-0.002475
1680002219817,1182208172131462,0.0166375,-0.0154,-0.0066
1680002219819,1182208174633616,0.01265,-0.012375,-0.0075625
1680002219822,1182208177135770,0.01265,-0.0114124995,-0.0105875
1680002219824,1182208179637924,0.01155,-0.0083875,-0.01155
1680002219828,1182208182139843,0.0105875,-0.0053625,-0.0204875
1680002219829,1182208184642227,0.0075625,-0.0064625,-0.025575
1680002219832,1182208187144381,0.0066,-0.0044,-0.0286
1680002219835,1182208189646535,0.004675,-0.0044,-0.03355
1680002219837,1182208192148486,0.00165,-4.125E-4,-0.0385
1680002219840,1182208194650640,-0.006325,0.00165,-0.0405625
1680002219842,1182208197152794,-0.0083875,0.0045375,-0.041525
1680002219846,1182208199654871,-0.0133375,0.0056375,-0.0455125
1680002219849,1182208202157078,-0.018424999,0.01265,-0.0495
1680002219850,1182208204659231,-0.02145,0.0166375,-0.0506
1680002219852,1182208207161385,-0.028324999,0.014575,-0.0515625
1680002219855,1182208209663462,-0.03135,0.014575,-0.052525
1680002219857,1182208212165616,-0.0364375,0.0166375,-0.0534875
1680002219859,1182208214667756,-0.04235,0.0166375,-0.0515625
1680002219863,1182208217169987,-0.0463375,0.014575,-0.052525
1680002219864,1182208219672064,-0.0484,0.01155,-0.0506
1680002219867,1182208222174218,-0.054449998,0.0075625,-0.047575
1680002219869,1182208224676380,-0.05335,0.0066,-0.0485375
1680002219872,1182208227178534,-0.051425,0.0026125,-0.0485375
1680002219875,1182208229680457,-0.056375,0.003575,-0.047575
1680002219879,1182208232182611,-0.0554125,0.003575,-0.047575
1680002219881,1182208234685016,-0.054449998,0.0026125,-0.0455125
1680002219883,1182208237187170,-0.051425,-4.125E-4,-0.04455
1680002219884,1182208239689093,-0.051425,-0.0044,-0.0424875
1680002219888,1182208242191247,-0.051425,-0.0034375,-0.041525
1680002219890,1182208244693400,-0.0484,-0.0023375,-0.0385
1680002219892,1182208247195491,-0.0463375,-0.0034375,-0.0375375
1680002219895,1182208249697722,-0.043449998,-0.00935,-0.0385
1680002219898,1182208252199876,-0.0444125,-0.00935,-0.036575
1680002219900,1182208254702030,-0.0474375,-0.0064625,-0.0345125
1680002219902,1182208257204121,-0.0463375,-0.00935,-0.0295625
1680002219904,1182208259706275,-0.0413875,-0.01045,-0.0275
1680002219908,1182208262208428,-0.040425,-0.0034375,-0.024475
1680002219910,1182208264710659,-0.0383625,-0.0044,-0.02255
1680002219912,1182208267212765,-0.0383625,-0.0023375,-0.0185625
1680002219916,1182208269714919,-0.0383625,-0.001375,-0.0155375
1680002219919,1182208272217073,-0.034375,-0.001375,-0.0094875
1680002219920,1182208274719227,-0.0303875,-0.001375,-0.0066
1680002219923,1182208277221165,-0.032449998,-0.0023375,-0.0055
1680002219924,1182208279723319,-0.034375,-4.125E-4,-5.5E-4
1680002219931,1182208282225703,-0.0374,0.003575,0.0034375
1680002219933,1182208284727857,-0.034375,-4.125E-4,0.0015125
1680002219934,1182208287229780,-0.034375,0.003575,0.0015125
1680002219935,1182208289731938,-0.0334125,0.0026125,0.0034375
1680002219937,1182208292234092,-0.0303875,0.0056375,0.0044
1680002219939,1182208294736246,-0.0303875,0.003575,0.0064625
1680002219942,1182208297238400,-0.032449998,0.01155,0.0044
1680002219945,1182208299740539,-0.03135,0.014575,0.008525
1680002219948,1182208302242693,-0.032449998,0.0155375,0.0094875
1680002219950,1182208304744770,-0.0273625,0.0196625,0.0094875
1680002219954,1182208307246924,-0.0264,0.02365,0.0094875
1680002219956,1182208309749059,-0.0264,0.03355,0.01045
1680002219958,1182208312251213,-0.0254375,0.0306625,0.01045
1680002219959,1182208314753367,-0.0264,0.03355,0.0114124995
1680002219967,1182208317255521,-0.023375,0.0375375,0.0125124995
1680002219968,1182208319757674,-0.02145,0.0435875,0.013475
1680002219969,1182208322259828,-0.02035,0.0435875,0.0144375
1680002219971,1182208324761751,-0.0193875,0.0435875,0.0165
1680002219972,1182208327263905,-0.0163625,0.0396,0.0174625
1680002219975,1182208329766290,-0.0133375,0.0405625,0.0144375
1680002219977,1182208332268472,-0.0083875,0.0405625,0.019524999
1680002219980,1182208334770395,-0.007425,0.0396,0.0204875
1680002219983,1182208337272549,-0.007425,0.0375375,0.02145
1680002219985,1182208339774702,-0.006325,0.036575,0.0174625
1680002219987,1182208342276881,-0.001375,0.03355,0.0174625
1680002219991,1182208344779035,0.00165,0.0295625,0.0204875
1680002219992,1182208347281189,0.003575,0.0265375,0.0165
1680002219995,1182208349783266,0.0056375,0.0196625,0.013475
1680002219997,1182208352285440,0.0075625,0.014575,0.013475
1680002220000,1182208354787671,0.009625,0.0155375,0.0144375
1680002220002,1182208357289824,0.009625,0.009625,0.0165
1680002220005,1182208359791901,0.01155,5.5E-4,0.0144375
1680002220013,1182208362294050,0.0086624995,-4.125E-4,0.0144375
1680002220013,1182208364796204,0.01265,-0.007425,0.0125124995
1680002220014,1182208367298358,0.01155,-0.00935,0.0094875
1680002220015,1182208369800281,0.0086624995,-0.0163625,0.01045
1680002220017,1182208372302666,0.009625,-0.02035,0.0094875
1680002220020,1182208374804838,0.0066,-0.0243375,0.0055
1680002220022,1182208377306762,0.004675,-0.0284625,0.0044
1680002220024,1182208379808915,0.00165,-0.0303875,0.0015125
1680002220028,1182208382311069,0.004675,-0.032449998,-5.5E-4
1680002220030,1182208384813218,-0.001375,-0.0353375,-0.0015125
1680002220032,1182208387315372,-0.006325,-0.0383625,-0.008525
1680002220034,1182208389817526,-0.007425,-0.032449998,-0.0075625
1680002220037,1182208392319680,-0.0083875,-0.0353375,-0.0045375
1680002220040,1182208394821833,-0.0133375,-0.0394625,-0.0105875
1680002220042,1182208397323901,-0.0114124995,-0.0353375,-0.0094875
1680002220045,1182208399826055,-0.012375,-0.0374,-0.0105875
1680002220049,1182208402328209,-0.0154,-0.0353375,-0.0125124995
1680002220050,1182208404830440,-0.0154,-0.0334125,-0.0105875
1680002220052,1182208407332507,-0.0154,-0.0334125,-0.008525
1680002220055,1182208409834661,-0.0163625,-0.029424999,-0.008525
1680002220057,1182208412336815,-0.0154,-0.0273625,-0.0094875
1680002220060,1182208414838968,-0.0154,-0.0243375,-0.0075625
1680002220062,1182208417340886,-0.0154,-0.0193875,-0.0055
1680002220066,1182208419843271,-0.0144375,-0.0163625,-0.0075625
1680002220069,1182208422345425,-0.0193875,-0.0163625,-0.0094875
1680002220070,1182208424847348,-0.0193875,-0.00935,-0.0045375
1680002220073,1182208427349516,-0.017324999,-0.0023375,-0.0075625
1680002220074,1182208429851670,-0.018424999,-0.0023375,-0.0105875
1680002220077,1182208432353824,-0.017324999,0.00165,-0.0066
1680002220079,1182208434855901,-0.0144375,0.0026125,-0.0055
1680002220082,1182208437358131,-0.0154,0.0105875,-0.0125124995
1680002220085,1182208439860261,-0.0163625,0.0066,-0.008525
1680002220088,1182208442362415,-0.017324999,0.0075625,-0.0094875
1680002220090,1182208444864492,-0.0163625,0.01155,-0.0075625
1680002220092,1182208447366646,-0.0193875,0.0105875,-0.0075625
1680002220095,1182208449868819,-0.018424999,0.014575,-0.0094875
1680002220098,1182208452371049,-0.017324999,0.01265,-0.0094875
1680002220100,1182208454873126,-0.017324999,0.0066,-0.0094875
1680002220103,1182208457375280,-0.0144375,0.0066,-0.01155
1680002220106,1182208459877430,-0.0163625,0.009625,-0.01155
1680002220108,1182208462379584,-0.02145,0.0045375,-0.0155375
1680002220109,1182208464881507,-0.02035,0.0066,-0.0155375
1680002220114,1182208467383892,-0.0193875,0.0045375,-0.0155375
1680002220115,1182208469886045,-0.017324999,-0.001375,-0.0125124995
1680002220117,1182208472387978,-0.02145,-0.0023375,-0.0125124995
1680002220119,1182208474890131,-0.0224125,-4.125E-4,-0.01155
1680002220122,1182208477392285,-0.0243375,-0.0034375,-0.0066
1680002220124,1182208479894439,-0.02145,-0.0044,-0.0105875
1680002220130,1182208482396516,-0.0193875,-0.00935,-0.0094875
1680002220131,1182208484898747,-0.023375,-0.00935,-0.0055
1680002220132,1182208487400901,-0.0264,-0.012375,-0.0066
1680002220135,1182208489903054,-0.0264,-0.0114124995,-0.0066
1680002220138,1182208492405131,-0.0264,-0.0133375,-0.003575
1680002220140,1182208494907290,-0.0273625,-0.0174625,-0.003575
1680002220143,1182208497409444,-0.0273625,-0.0154,-0.002475
1680002220145,1182208499911598,-0.029424999,-0.0133375,-0.0045375
1680002220147,1182208502413752,-0.0273625,-0.012375,-0.002475
1680002220149,1182208504915906,-0.0264,-0.00935,-5.5E-4
1680002220152,1182208507418074,-0.0243375,-0.0044,-0.0015125
1680002220154,1182208509920227,-0.0254375,0.0026125,4.125E-4
1680002220157,1182208512422150,-0.0224125,0.0066,-5.5E-4
1680002220159,1182208514924304,-0.0243375,0.01155,4.125E-4
1680002220162,1182208517426679,-0.0273625,0.0155375,4.125E-4
1680002220164,1182208519928602,-0.0273625,0.0166375,0.002475
1680002220168,1182208522430756,-0.0254375,0.0155375,0.0064625
1680002220170,1182208524932910,-0.028324999,0.0155375,0.0094875
1680002220172,1182208527435049,-0.0303875,0.013612499,0.013475
1680002220174,1182208529937126,-0.028324999,0.0105875,0.0154
1680002220179,1182208532439356,-0.028324999,0.009625,0.0204875
1680002220180,1182208534941510,-0.0273625,0.0045375,0.0235125
1680002220182,1182208537443660,-0.0264,0.0026125,0.024475
1680002220185,1182208539945737,-0.0243375,0.003575,0.0224125
1680002220187,1182208542447891,-0.0224125,0.0026125,0.0264
1680002220190,1182208544950045,-0.023375,5.5E-4,0.0275
1680002220192,1182208547452275,-0.02145,5.5E-4,0.024475
1680002220196,1182208549954352,-0.0224125,0.00165,0.0254375
1680002220198,1182208552456506,-0.018424999,-4.125E-4,0.024475
1680002220200,1182208554958660,-0.018424999,-0.001375,0.0235125
1680002220202,1182208557460583,-0.0144375,5.5E-4,0.0254375
1680002220205,1182208559962751,-0.0114124995,0.0066,0.0264
1680002220208,1182208562464905,-0.01045,0.0066,0.0235125
1680002220210,1182208564967289,-0.0083875,0.01265,0.0204875
1680002220212,1182208567469213,-0.007425,0.0155375,0.0204875
1680002220216,1182208569971361,-0.006325,0.0155375,0.0174625
1680002220219,1182208572473515,0.0026125,0.0155375,0.013475
1680002220220,1182208574975592,0.004675,0.0196625,0.0125124995
1680002220222,1182208577477746,0.004675,0.0215875,0.0114124995
1680002220225,1182208579979982,0.0075625,0.0215875,0.01045
1680002220229,1182208582482136,0.0086624995,0.02255,0.007425
