system_ts_ms, sensor_ts_ns, accX, accY, accZ
1680002215307,1182203660779529,6.07905,2.8489501,8.422951
1680002215308,1182203663281453,5.9419503,2.9200501,8.45895
1680002215310,1182203665783606,6.09105,3.07095,8.413051
1680002215312,1182203668285991,6.0139503,2.937,8.48505
1680002215315,1182203670787924,6.0139503,2.97495,8.59095
1680002215317,1182203673290078,6.0070505,2.9280002,8.46105
1680002215326,1182203675792232,6.0690002,2.9539502,8.530951
1680002215326,1182203678294309,6.0090003,2.9920502,8.44005
1680002215327,1182203680796482,6.0280504,2.9350502,8.410951
1680002215328,1182203683298712,5.9950504,2.8960502,8.466001
1680002215330,1182203685800866,6.024,2.8960502,8.413051
1680002215332,1182203688302943,6.0259504,2.8530002,8.3890505
1680002215337,1182203690805111,6.0720005,2.7859502,8.302951
1680002215339,1182203693307265,6.1270504,2.8630502,8.425051
1680002215340,1182203695809419,6.16305,2.8579502,8.23095
1680002215342,1182203698311342,6.057,2.8290002,8.227051
1680002215345,1182203700813736,6.22695,2.8150501,8.191051
1680002215347,1182203703315890,6.1270504,2.7960002,8.149051
1680002215350,1182203705818044,6.0739503,2.832,8.257951
1680002215354,1182203708319967,6.16695,2.76195,8.17905
1680002215355,1182203710822121,6.21495,2.8459501,8.023951
1680002215357,1182203713324289,6.1410003,2.74305,8.0119505
1680002215360,1182203715826673,6.1050005,2.841,8.028001
1680002215362,1182203718328597,6.1459503,2.7550502,8.01
1680002215367,1182203720830736,6.1770005,2.79795,8.0119505
1680002215368,1182203723332890,6.19605,2.841,8.017051
1680002215373,1182203725835044,6.1699505,2.88,7.8289504
1680002215374,1182203728337121,6.1770005,2.7960002,7.8619504
1680002215376,1182203730839352,6.13395,2.83395,7.77405
1680002215378,1182203733341526,6.2320504,2.80095,7.7070003
1680002215380,1182203735843603,6.1530004,2.8579502,7.7860503
1680002215383,1182203738345756,6.1050005,2.9179502,7.6129503
1680002215389,1182203740847910,6.14295,3.00195,7.5390005
1680002215389,1182203743350073,6.1309505,2.9659503,7.46295
1680002215390,1182203745851996,6.12405,2.9250002,7.6210504
1680002215393,1182203748354381,6.1459503,2.8870502,7.48605
1680002215397,1182203750856535,6.10305,2.9560502,7.5540004
1680002215400,1182203753358689,6.0690002,2.9659503,7.5060005
1680002215401,1182203755860612,6.11205,2.8890002,7.5940504
1680002215405,1182203758362766,6.05205,2.9179502,7.5870004
1680002215407,1182203760864919,5.9950504,3.0670502,7.5679502
1680002215408,1182203763367088,6.05205,2.904,7.6039505
1680002215411,1182203765869242,6.024,2.9280002,7.5850506
1680002215413,1182203768371396,6.0090003,2.937,7.52505
1680002215416,1182203770873473,6.0139503,2.98305,7.5030003
1680002215418,1182203773375627,6.01905,3.009,7.5439506
1680002215422,1182203775877776,5.94,2.9230502,7.4550004
1680002215426,1182203778379929,5.9610004,2.9659503,7.5130506
1680002215427,1182203780882083,5.8780503,2.8530002,7.458
1680002215428,1182203783384237,5.8560004,2.904,7.4940004
1680002215431,1182203785886372,5.7960005,2.9659503,7.5990005
1680002215433,1182203788388295,5.727,2.9659503,7.563
1680002215439,1182203790890449,5.5810504,2.877,7.5390005
1680002215439,1182203793392603,5.5950003,2.9680502,7.6780505
1680002215440,1182203795894987,5.6280003,2.9680502,7.5919504
1680002215443,1182203798396900,5.5519505,2.79795,7.7910004
1680002215446,1182203800899054,5.5519505,2.8960502,7.73295
1680002215450,1182203803401208,5.51595,2.7859502,7.695
1680002215451,1182203805903280,5.44605,2.7580502,7.6969504
1680002215457,1182203808405434,5.4900002,2.805,7.7040005
1680002215458,1182203810907665,5.478,2.80305,7.7520003
1680002215459,1182203813409819,5.5020003,2.7480001,7.6470003
1680002215461,1182203815911895,5.51595,2.7889502,7.7520003
1680002215463,1182203818414030,5.5090504,2.73405,7.7550006
1680002215466,1182203820916184,5.4420004,2.7460501,7.8120003
1680002215468,1182203823418107,5.5540504,2.7889502,7.8360004
1680002215472,1182203825920261,5.6569505,2.76195,8.02095
1680002215473,1182203828422646,5.6719503,2.77905,7.9510503
1680002215476,1182203830924805,5.70795,2.6830502,8.0449505
1680002215478,1182203833426728,5.6599503,2.7600002,7.9849505
1680002215480,1182203835928882,5.7720003,2.7480001,8.02305
1680002215483,1182203838431035,5.7670503,2.76705,8.17395
1680002215489,1182203840933179,5.664,2.8840501,8.260051
1680002215490,1182203843435333,5.70795,2.8819501,8.145
1680002215491,1182203845937487,5.787,2.8630502,8.33205
1680002215494,1182203848439569,5.7390003,2.9350502,8.368051
1680002215497,1182203850941723,5.6980505,2.7889502,8.35095
1680002215499,1182203853443954,5.6260505,2.8150501,8.33205
1680002215501,1182203855946030,5.7460504,2.88,8.425051
1680002215506,1182203858448184,5.72205,2.87295,8.41605
1680002215506,1182203860950304,5.6260505,2.844,8.47995
1680002215508,1182203863452458,5.64795,2.841,8.454
1680002215510,1182203865954381,5.6329503,2.7840002,8.490001
1680002215513,1182203868456535,5.61705,2.8249502,8.398951
1680002215515,1182203870958911,5.6280003,2.8920002,8.380051
1680002215518,1182203873460834,5.664,2.877,8.51595
1680002215524,1182203875962987,5.65005,2.8990502,8.380051
1680002215525,1182203878465141,5.82,2.868,8.406
1680002215527,1182203880967290,5.748,2.868,8.47605
1680002215529,1182203883469367,5.7169504,2.94405,8.349
1680002215531,1182203885971598,5.775,2.88,8.41605
1680002215533,1182203888473752,5.8060503,2.9989502,8.361
1680002215540,1182203890975829,5.8390503,2.9659503,8.253
1680002215542,1182203893478012,5.7840004,2.9850001,8.301001
1680002215542,1182203895980165,5.8609505,3.00195,8.274
1680002215543,1182203898482319,5.9329505,3.081,8.241
1680002215546,1182203900984242,5.81295,3.0640502,8.18595
1680002215548,1182203903486617,5.95695,3.1980002,8.149051
1680002215550,1182203905988771,5.964,3.1050003,8.19495
1680002215555,1182203908490694,5.9830503,3.1219501,8.236051
1680002215556,1182203910992848,5.997,3.0900002,8.112
1680002215557,1182203913495002,5.9370003,3.1020002,7.977
1680002215562,1182203915997160,6.0360003,3.0349503,8.064
1680002215563,1182203918499314,6.0760503,3.0670502,8.03505
1680002215567,1182203921001468,6.06195,3.081,7.9099503
1680002215569,1182203923503622,6.0930004,3.0229502,7.93695
1680002215574,1182203926005776,6.045,3.01605,7.7449503
1680002215575,1182203928507853,6.09105,2.9899502,7.8510003
1680002215576,1182203931010007,6.0880504,2.90595,7.7809505
1680002215578,1182203933512237,6.0550504,3.0040503,7.5750003
1680002215580,1182203936014400,6.1909504,2.94705,7.6330504
1680002215583,1182203938516477,6.1390505,2.9160001,7.5340505
1680002215589,1182203941018631,6.1410003,2.913,7.49595
1680002215590,1182203943520785,6.096,2.8840501,7.5540004
1680002215591,1182203946022944,6.2100005,2.8870502,7.53
1680002215593,1182203948524867,6.2059503,2.8170002,7.5340505
1680002215596,1182203951027251,6.1909504,2.901,7.5540004
1680002215599,1182203953529405,6.1530004,2.8170002,7.431
1680002215601,1182203956031577,6.234,2.83395,7.5940504
1680002215607,1182203958533500,6.10995,2.8630502,7.55595
1680002215608,1182203961035654,6.1000504,2.8840501,7.62795
1680002215610,1182203963537808,6.2200503,2.9320502,7.68795
1680002215611,1182203966039962,6.10995,2.901,7.7830505
1680002215613,1182203968542116,6.0810003,2.90595,7.6800003
1680002215616,1182203971044269,6.0430503,2.8819501,7.73295
1680002215618,1182203973546423,6.0330005,2.9320502,7.79295
1680002215623,1182203976048500,5.9880004,2.937,7.80705
1680002215624,1182203978550650,6.0139503,2.94,7.7380505
1680002215626,1182203981052804,5.973,2.9640002,7.9800005
1680002215628,1182203983554958,5.8780503,2.9179502,7.86495
1680002215630,1182203986057112,5.9040003,2.97795,7.9459505
1680002215632,1182203988559266,5.8300505,2.9350502,7.8940506
1680002215640,1182203991061208,5.9040003,2.973,7.8150005
1680002215641,1182203993563361,5.9350505,2.97105,7.93905
1680002215642,1182203996065515,5.9209504,2.9869502,7.9849505
1680002215644,1182203998567900,5.90595,2.90805,8.049001
1680002215648,1182204001069799,5.8320003,2.8489501,8.01
1680002215649,1182204003571953,5.7889504,2.91105,7.93695
1680002215651,1182204006074107,5.787,2.86995,8.073
1680002215655,1182204008576261,5.8489504,2.90805,8.016001
1680002215657,1182204011078323,5.808,2.877,8.05395
1680002215658,1182204013580477,5.80095,2.9350502,8.073
1680002215660,1182204016082708,5.8320003,2.94,8.097
1680002215663,1182204018584785,5.8060503,2.8819501,8.095051
1680002215666,1182204021086920,5.7000003,2.8560002,8.04195
1680002215668,1182204023589074,5.74305,2.913,8.03505
1680002215673,1182204026090997,5.65005,2.8129501,8.125951
1680002215674,1182204028593179,5.6329503,2.7580502,8.028001
1680002215677,1182204031095563,5.6140504,2.7859502,8.101951
1680002215679,1182204033597717,5.6329503,2.7960002,8.245951
1680002215680,1182204036099640,5.53695,2.7190502,8.21895
1680002215683,1182204038601794,5.6520004,2.79795,8.20695
1680002215691,1182204041103958,5.4870005,2.6449502,8.161051
1680002215692,1182204043606035,5.5020003,2.7,8.170051
1680002215694,1182204046108266,5.631,2.70195,8.052
1680002215695,1182204048610420,5.6020503,2.66205,8.05395
1680002215697,1182204051112563,5.59005,2.592,8.217
1680002215698,1182204053614640,5.5609503,2.66205,8.161051
1680002215700,1182204056116794,5.6239505,2.631,8.20005
1680002215703,1182204058618948,5.571,2.4820502,8.03505
1680002215706,1182204061120853,5.6020503,2.5830002,8.14005
1680002215708,1182204063623238,5.5690503,2.5560002,8.061001
1680002215712,1182204066125392,5.5999503,2.5830002,8.052
1680002215713,1182204068627545,5.6140504,2.56605,7.9939504
1680002215716,1182204071129457,5.60505,2.607,7.9270506
1680002215719,1182204073631611,5.59695,2.568,7.9849505
1680002215721,1182204076133765,5.5729504,2.6260502,7.8600006
1680002215723,1182204078636150,5.6239505,2.7499502,7.8600006
1680002215726,1182204081138083,5.63805,2.6550002,7.9440002
1680002215729,1182204083640237,5.655,2.70195,7.99695
1680002215731,1182204086142391,5.6020503,2.6790001,7.8529506
1680002215733,1182204088644544,5.7049503,2.7220502,7.8240004
1680002215736,1182204091146698,5.715,2.7769501,7.8739505
1680002215738,1182204093648842,5.8369503,2.7139502,7.9180503
1680002215740,1182204096150919,5.8819504,2.7169502,7.8310504
1680002215745,1182204098653073,5.9539504,2.6449502,7.7760005
1680002215746,1182204101155227,5.913,2.67405,7.80705
1680002215749,1182204103657362,5.8560004,2.6470501,7.73295
1680002215751,1182204106159515,5.913,2.631,7.9680004
1680002215753,1182204108661669,5.85405,2.6860502,7.7809505
1680002215756,1182204111163823,5.9490004,2.6569502,7.8150005
1680002215758,1182204113665977,6.0139503,2.6809502,7.89795
1680002215761,1182204116167895,5.9539504,2.5780501,7.8529506
1680002215763,1182204118670049,5.8969502,2.7120001,7.66095
1680002215767,1182204121172434,5.8609505,2.7,7.7479506
1680002215769,1182204123674357,5.94,2.6500502,7.6969504
1680002215770,1182204126176511,5.91795,2.69805,7.77405
1680002215773,1182204128678654,5.88495,2.6809502,7.83405
1680002215776,1182204131180808,5.87505,2.73105,7.80705
1680002215778,1182204133682885,5.7960005,2.772,7.668
1680002215781,1182204136185039,5.7649503,2.80095,7.872
1680002215784,1182204138687294,5.94,2.7889502,7.8430505
1680002215787,1182204141189448,5.88495,2.7480001,8.002951
1680002215789,1182204143691525,5.9350505,2.8890002,7.9630504
1680002215790,1182204146193678,5.8969502,2.868,8.029051
1680002215793,1182204148695847,5.81295,2.8890002,8.02305
1680002215796,1182204151198001,5.8939505,2.87505,8.073
1680002215798,1182204153700155,5.85795,2.8609502,8.215051
1680002215801,1182204156202309,5.9350505,2.8939502,8.19495
1680002215803,1182204158704472,5.9350505,2.904,8.227051
1680002215807,1182204161206626,6.0430503,2.8170002,8.398951
1680002215810,1182204163708549,6.0070505,2.9920502,8.290951
1680002215812,1182204166210722,6.05205,2.87505,8.215051
1680002215813,1182204168713107,6.0070505,2.8560002,8.425051
1680002215816,1182204171215030,6.07905,2.8270502,8.37705
1680002215818,1182204173717184,6.0880504,2.8219502,8.2890005
1680002215821,1182204176219338,6.0360003,2.8609502,8.397
1680002215825,1182204178721506,6.1270504,2.8870502,8.301001
1680002215828,1182204181223583,6.12195,2.7960002,8.397
1680002215830,1182204183725737,6.15105,2.90805,8.3869505
1680002215831,1182204186227967,6.0810003,2.805,8.35095
1680002215833,1182204188730121,6.10305,2.8489501,8.31
1680002215836,1182204191232198,6.14295,2.76495,8.33205
1680002215838,1182204193734352,6.0690002,2.8609502,8.236051
1680002215840,1182204196236506,6.0040503,2.70195,8.254951
1680002215843,1182204198738429,5.94705,2.70195,8.19795
1680002215847,1182204201240818,5.9329505,2.7259502,8.17905
1680002215848,1182204203742972,6.0550504,2.77005,8.269951
1680002215851,1182204206244895,5.9830503,2.76195,8.0779505
1680002215853,1182204208747049,5.87505,2.7120001,8.0449505
1680002215856,1182204211249212,5.90595,2.664,8.142
1680002215858,1182204213751366,5.9040003,2.74305,8.071051
1680002215862,1182204216253443,5.87505,2.77005,8.04195
1680002215864,1182204218755689,5.88,2.8819501,8.064
1680002215867,1182204221257843,5.84595,2.73105,8.0449505
1680002215868,1182204223759919,5.892,2.901,8.02095
1680002215871,1182204226262073,5.8660502,2.73405,7.9489503
1680002215873,1182204228764227,5.88495,2.83695,7.9939504
1680002215876,1182204231266395,5.7580504,2.9200501,8.02095
1680002215878,1182204233768549,5.83395,2.901,7.9560003
1680002215881,1182204236270703,5.79405,2.9610002,8.001
1680002215883,1182204238772857,5.78205,2.9520001,7.9099503
1680002215887,1182204241274794,5.75505,3.0619502,7.9560003
1680002215889,1182204243776948,5.82495,3.0190501,7.9489503
1680002215891,1182204246279101,5.80095,3.05205,7.8910503
1680002215894,1182204248781255,5.8180504,3.0280502,7.8529506
1680002215897,1182204251283381,5.8110003,2.98305,7.8619504
1680002215900,1182204253785535,5.7649503,2.9640002,7.8430505
1680002215902,1182204256287689,5.913,2.877,7.9819503
1680002215905,1182204258789794,5.8110003,2.7910502,7.86495
1680002215907,1182204261291948,5.80095,2.76195,7.83405
1680002215908,1182204263794101,5.88,2.70195,7.8409505
1680002215911,1182204266296332,5.9370003,2.6140501,7.7860503
1680002215913,1182204268798409,5.89905,2.63505,7.6920004
1680002215916,1182204271300563,6.045,2.56605,7.7140503
1680002215919,1182204273802717,6.0600004,2.6230502,7.55595
1680002215921,1182204276304871,6.045,2.523,7.5660005
1680002215923,1182204278806794,6.1189504,2.60205,7.5490503
1680002215927,1182204281309198,6.18195,2.4870002,7.53
1680002215929,1182204283811352,6.18195,2.5420501,7.5079503
1680002215937,1182204286313275,6.2419505,2.64,7.6009502
1680002215937,1182204288815429,6.1600504,2.59695,7.5820503
1680002215937,1182204291317587,6.1579504,2.6140501,7.5270004
1680002215939,1182204293819741,6.1189504,2.604,7.5850506
1680002215941,1182204296321818,6.0360003,2.6160002,7.6369505
1680002215943,1182204298824049,5.94,2.6569502,7.5439506
1680002215946,1182204301326202,5.9089503,2.7120001,7.668
1680002215948,1182204303828351,5.80095,2.676,7.6800003
1680002215952,1182204306330428,5.8390503,2.7889502,7.6420503
1680002215953,1182204308832582,5.7670503,2.7910502,7.6830006
1680002215956,1182204311334736,5.676,2.808,7.7359505
1680002215958,1182204313836977,5.7169504,2.868,7.8240004
1680002215961,1182204316339054,5.583,2.72895,7.8030005
1680002215963,1182204318841207,5.63805,2.8170002,7.839
1680002215967,1182204321343361,5.56395,2.736,7.9540505
1680002215969,1182204323845505,5.5090504,2.8650002,7.9609504
1680002215971,1182204326347428,5.5140004,2.6899502,8.017051
1680002215975,1182204328849582,5.53305,2.7169502,7.9680004
1680002215978,1182204331351967,5.5810504,2.7600002,8.04195
1680002215979,1182204333853876,5.511,2.74305,8.03505
1680002215981,1182204336356030,5.4820504,2.8290002,8.02305
1680002215983,1182204338858107,5.4900002,2.74305,7.9800005
1680002215986,1182204341360337,5.56605,2.6140501,8.142
1680002215988,1182204343862414,5.5609503,2.7220502,8.133
1680002215992,1182204346364545,5.56395,2.736,8.08005
1680002215993,1182204348866699,5.5230002,2.736,8.182051
1680002215996,1182204351368853,5.6329503,2.70195,8.20005
1680002215999,1182204353870776,5.6119504,2.7220502,8.203051
1680002216001,1182204356373161,5.6599503,2.8200002,8.217
1680002216003,1182204358875309,5.688,2.7889502,8.221951
1680002216007,1182204361377463,5.66895,2.8630502,8.274
1680002216009,1182204363879386,5.6839504,2.7769501,8.217
1680002216012,1182204366381540,5.80095,2.7910502,8.30805
1680002216014,1182204368883694,5.7720003,2.7529502,8.11905
1680002216016,1182204371386079,5.7769504,2.9200501,8.21895
1680002216018,1182204373888002,5.8219504,2.97495,8.245951
1680002216021,1182204376390156,5.7670503,2.9230502,8.19495
1680002216023,1182204378892309,5.70795,2.9590502,8.253
1680002216026,1182204381394434,5.8609505,2.9350502,8.260051
1680002216029,1182204383896511,5.84595,2.87295,8.17395
1680002216031,1182204386398665,5.8060503,2.90805,8.254951
1680002216033,1182204388900896,5.9350505,2.8990502,8.121
1680002216036,1182204391402944,5.88495,2.8270502,8.125951
1680002216038,1182204393905098,5.9089503,2.87295,8.049001
1680002216041,1182204396407251,5.94,2.8530002,8.05395
1680002216044,1182204398909362,6.0000005,2.9280002,8.059051
1680002216047,1182204401411285,6.0810003,2.8870502,8.03295
1680002216050,1182204403913670,6.0930004,2.805,8.109
1680002216052,1182204406415824,6.06195,2.7769501,7.8580503
1680002216054,1182204408917978,6.03105,2.76195,7.9219503
1680002216056,1182204411419881,6.05205,2.7600002,7.8940506
1680002216058,1182204413922035,6.1069503,2.7580502,7.79505
1680002216061,1182204416424189,6.04995,2.7480001,7.8220506
1680002216063,1182204418926342,6.10305,2.8219502,7.8030005
1680002216066,1182204421428515,6.1050005,2.6809502,7.7209506
1680002216068,1182204423930669,6.0360003,2.8290002,7.7550006
1680002216071,1182204426432823,6.0739503,2.805,7.8030005
1680002216073,1182204428934977,6.2179503,2.877,7.7689505
1680002216076,1182204431437025,6.14295,2.8510501,7.7689505
1680002216078,1182204433939179,6.0720005,2.844,7.7860503
1680002216081,1182204436441409,6.1530004,2.8579502,7.5870004
1680002216083,1182204438943486,6.0720005,2.80995,7.7809505
1680002216089,1182204441445611,6.084,2.8939502,7.8739505
1680002216090,1182204443947765,6.04995,2.7859502,7.8790503
1680002216092,1182204446449919,6.06405,2.6950502,7.8480005
1680002216095,1182204448951842,6.0360003,2.80095,7.80705
1680002216097,1182204451454227,6.0859504,2.71005,8.001
1680002216100,1182204453956371,5.9209504,2.7580502,7.9339504
1680002216102,1182204456458294,5.9419503,2.73105,7.8769503
1680002216103,1182204458960448,5.83395,2.805,7.9200006
1680002216106,1182204461462602,5.9490004,2.77005,7.9579506
1680002216108,1182204463964756,5.87505,2.7550502,7.86495
1680002216114,1182204466466818,5.775,2.6899502,7.8820505
1680002216114,1182204468969049,5.80305,2.6550002,7.9729505
1680002216116,1182204471471203,5.79405,2.6110501,8.04705
1680002216118,1182204473973356,5.7790504,2.664,7.9680004
1680002216121,1182204476475433,5.6569505,2.607,7.9489503
1680002216125,1182204478977577,5.6959505,2.64,7.9890003
1680002216128,1182204481479731,5.6569505,2.667,7.9080005
1680002216130,1182204483981885,5.6910005,2.676,7.9489503
1680002216132,1182204486484006,5.63595,2.6209502,8.03505
1680002216133,1182204488986160,5.58795,2.6830502,8.028001
1680002216136,1182204491488083,5.5849504,2.79795,8.035951
1680002216138,1182204493990237,5.65005,2.73405,7.9200006
1680002216141,1182204496492390,5.56395,2.77005,7.9560003
1680002216144,1182204498994539,5.5849504,2.69295,8.167951
1680002216146,1182204501496924,5.631,2.70195,8.116051
1680002216148,1182204503998847,5.6719503,2.7580502,8.00895
1680002216151,1182204506501001,5.6329503,2.83395,7.9270506
1680002216153,1182204509003155,5.61705,2.8630502,8.023951
1680002216156,1182204511505232,5.583,2.8530002,7.9890003
1680002216159,1182204514007385,5.57595,2.8129501,8.002951
1680002216162,1182204516509616,5.6140504,2.805,7.99695
1680002216164,1182204519011779,5.5849504,2.83695,7.9990506
1680002216168,1182204521513856,5.5810504,2.805,8.092051
1680002216169,1182204524016010,5.655,2.80995,8.04195
1680002216171,1182204526518164,5.6860504,2.80995,7.9249506
1680002216173,1182204529020087,5.6260505,2.868,7.9579506
1680002216176,1182204531522256,5.6020503,2.8870502,7.93695
1680002216179,1182204534024640,5.676,2.7550502,8.005051
1680002216181,1182204536526563,5.748,2.808,7.9489503
1680002216184,1182204539028717,5.79405,2.844,8.04195
1680002216186,1182204541530876,5.787,2.805,8.05605
1680002216188,1182204544033030,5.8440003,2.8870502,8.04
1680002216191,1182204546535107,5.81505,2.9520001,8.088
1680002216193,1182204549037338,5.87505,2.868,8.005051
1680002216196,1182204551539495,5.8939505,2.8510501,7.9579506
1680002216199,1182204554041572,5.9610004,2.8870502,7.93695
1680002216201,1182204556543726,6.024,2.9200501,7.90605
1680002216203,1182204559045880,6.045,2.97495,7.86705
1680002216207,1182204561548054,6.1480503,2.8609502,7.9270506
1680002216209,1182204564050208,6.13395,2.8650002,8.00895
1680002216211,1182204566552362,6.26805,2.9230502,8.06805
1680002216213,1182204569054516,6.2299504,2.868,7.9939504
1680002216216,1182204571556702,6.2730002,2.94,8.052
1680002216219,1182204574058625,6.2749505,2.9280002,7.93695
1680002216221,1182204576560779,6.3640504,2.877,7.96995
1680002216224,1182204579062933,6.321,2.8530002,7.8529506
1680002216226,1182204581565338,6.3469505,2.8290002,7.8910503
1680002216229,1182204584067261,6.261,2.8530002,8.016001
1680002216231,1182204586569415,6.2749505,2.79795,7.965
1680002216234,1182204589071492,6.28695,2.6860502,7.9510503
1680002216237,1182204591573737,6.2250004,2.6790001,7.8739505
1680002216239,1182204594075891,6.306,2.80305,7.86705
1680002216241,1182204596578045,6.2700005,2.70705,7.9510503
1680002216244,1182204599080122,6.18405,2.7220502,7.8960004
1680002216247,1182204601582276,6.2080503,2.71005,7.8220506
1680002216249,1182204604084444,6.06195,2.6089501,7.9099503
1680002216251,1182204606586598,6.0360003,2.6089501,7.8619504
1680002216253,1182204609088751,5.8780503,2.7139502,7.8169503
1680002216256,1182204611590905,5.8900504,2.6790001,7.7479506
1680002216258,1182204614093059,5.8489504,2.7259502,7.7190003
1680002216261,1182204616595021,5.7720003,2.6899502,7.695
1680002216264,1182204619097175,5.748,2.7169502,7.89795
1680002216266,1182204621599329,5.736,2.7600002,7.7640004
1680002216269,1182204624101714,5.775,2.805,7.7860503
1680002216271,1182204626603641,5.6929502,2.87295,7.8510003
1680002216275,1182204629105795,5.6959505,2.73105,7.8820505
1680002216278,1182204631607948,5.676,2.7240002,7.86705
1680002216279,1182204634110107,5.7190504,2.83695,7.9099503
1680002216281,1182204636612184,5.7169504,2.7,7.86495
1680002216283,1182204639114415,5.8900504,2.8170002,7.9630504
1680002216287,1182204641616569,5.8489504,2.7169502,8.03295
1680002216289,1182204644118723,5.9329505,2.736,8.023951
1680002216291,1182204646620810,5.9929504,2.73795,8.167951
1680002216293,1182204649122963,6.01905,2.7859502,8.097
1680002216296,1182204651625117,6.07905,2.805,8.059051
1680002216298,1182204654127271,6.03105,2.80095,8.203051
1680002216300,1182204656629439,6.15105,2.74305,8.158951
1680002216303,1182204659131593,6.19395,2.7840002,8.2890005
1680002216306,1182204661633747,6.0810003,2.73105,8.142
1680002216308,1182204664135670,6.0360003,2.772,8.145
1680002216312,1182204666637844,6.045,2.6470501,8.17905
1680002216314,1182204669139997,5.9929504,2.7840002,8.278951
1680002216316,1182204671642382,5.964,2.6899502,8.05605
1680002216319,1182204674144305,5.9830503,2.77005,8.161051
1680002216321,1182204676646459,5.81295,2.6470501,8.092051
1680002216324,1182204679148622,5.87295,2.6860502,8.17395
1680002216328,1182204681650776,5.8440003,2.70195,8.017051
1680002216329,1182204684152853,5.8110003,2.6590502,8.002951
1680002216331,1182204686655083,5.808,2.5849502,8.0449505
1680002216334,1182204689157237,5.8680005,2.631,7.93905
1680002216336,1182204691659386,5.8300505,2.5729501,7.9849505
1680002216338,1182204694161463,5.81505,2.5830002,7.8790503
1680002216341,1182204696663617,5.787,2.5560002,7.8409505
1680002216345,1182204699165771,5.7580504,2.5560002,7.9009504
1680002216346,1182204701667911,5.74095,2.5519502,7.9219503
1680002216350,1182204704170064,5.74305,2.5560002,7.8510003
1680002216351,1182204706672218,5.72205,2.499,7.767
1680002216353,1182204709174372,5.6980505,2.49405,7.8580503
1680002216356,1182204711676290,5.7990003,2.5129502,7.7209506
1680002216358,1182204714178444,5.7580504,2.60205,7.8120003
1680002216361,1182204716680598,5.7790504,2.604,7.83405
1680002216363,1182204719182983,5.6929502,2.5129502,7.8289504
1680002216367,1182204721684925,5.7340503,2.6470501,7.7190003
1680002216368,1182204724187079,5.66895,2.6190002,7.80705
1680002216371,1182204726689232,5.76,2.56605,7.7359505
1680002216373,1182204729191309,5.7289505,2.664,7.7880006
1680002216376,1182204731693468,5.72205,2.7220502,7.8030005
1680002216379,1182204734195622,5.6929502,2.736,7.7809505
1680002216381,1182204736697853,5.70795,2.74305,7.7380505
1680002216383,1182204739199930,5.8440003,2.7889502,7.8240004
1680002216387,1182204741702098,5.91795,2.70495,7.7910004
1680002216389,1182204744204251,5.8630505,2.83395,7.93905
1680002216391,1182204746706174,6.0070505,2.8150501,7.9819503
1680002216394,1182204749208328,6.0810003,2.7910502,8.002951
1680002216397,1182204751710723,5.9809504,2.77005,8.04
1680002216399,1182204754212877,6.10305,2.736,7.9680004
1680002216402,1182204756714800,6.04995,2.6860502,7.99695
1680002216404,1182204759216954,6.1909504,2.8270502,7.8600006
1680002216407,1182204761719069,6.1870503,2.8650002,8.073
1680002216409,1182204764221146,6.1770005,2.7769501,7.9890003
1680002216411,1182204766723376,6.1530004,2.7910502,7.9420505
1680002216414,1182204769225530,6.0880504,2.8510501,7.9939504
1680002216416,1182204771727684,6.06195,2.7910502,7.93695
1680002216419,1182204774229742,6.0859504,2.83395,7.9080005
1680002216421,1182204776731896,5.9539504,2.8530002,7.7359505
1680002216425,1182204779234050,5.85405,2.8219502,7.7479506
1680002216427,1182204781735973,5.8660502,2.8530002,7.76205
1680002216429,1182204784238367,5.8609505,2.832,7.8430505
1680002216431,1182204786740521,5.8180504,2.6569502,7.86495
1680002216434,1182204789242675,5.7630005,2.6830502,7.7790003
1680002216437,1182204791744598,5.70795,2.7259502,7.86495
1680002216439,1182204794246752,5.727,2.6950502,7.8859506
1680002216441,1182204796748896,5.6980505,2.72895,7.8240004
1680002216445,1182204799251280,5.6860504,2.74095,7.8859506
1680002216447,1182204801753204,5.6980505,2.7529502,7.839
1680002216449,1182204804255357,5.6719503,2.7840002,7.8889503
1680002216451,1182204806757511,5.7390003,2.77905,7.9800005
1680002216454,1182204809259602,5.83395,2.7480001,7.9510503
1680002216456,1182204811761756,5.85405,2.8459501,7.9680004
1680002216459,1182204814263910,5.9089503,2.7930002,8.071051
1680002216462,1182204816766141,5.9659505,2.74095,7.9870505
1680002216464,1182204819268218,6.0760503,2.7810001,8.1
1680002216467,1182204821770371,6.07905,2.7580502,8.02095
1680002216468,1182204824272525,6.10305,2.6809502,8.167951
1680002216471,1182204826774448,6.0930004,2.74305,8.175
1680002216473,1182204829276602,6.2419505,2.7930002,8.089951
1680002216476,1182204831778987,6.34005,2.832,8.19795
1680002216478,1182204834281141,6.2800503,2.7240002,8.236051
1680002216481,1182204836783064,6.32805,2.7169502,8.3220005
1680002216483,1182204839285204,6.2920504,2.7499502,8.260051
1680002216487,1182204841787588,6.3970504,2.77905,8.368051
1680002216489,1182204844289742,6.3810005,2.7529502,8.274
1680002216491,1182204846791665,6.36105,2.70705,8.221951
1680002216494,1182204849293824,6.3900003,2.7460501,8.13
1680002216497,1182204851795978,6.3229504,2.69805,8.187
1680002216501,1182204854298055,6.3300004,2.64,8.11905
1680002216503,1182204856800209,6.261,2.7,8.089951
1680002216505,1182204859302467,6.1309505,2.7169502,8.13
1680002216507,1182204861804621,6.201,2.7139502,8.088
1680002216509,1182204864306698,6.129,2.6880002,8.04
1680002216512,1182204866808852,6.0090003,2.6899502,8.116051
1680002216514,1182204869311006,6.0379505,2.70705,7.9819503
1680002216516,1182204871812939,6.0019503,2.7550502,8.01
1680002216519,1182204874315324,5.94,2.664,7.9579506
1680002216521,1182204876817477,5.8969502,2.6160002,7.8240004
1680002216524,1182204879319631,5.8780503,2.6260502,7.7380505
1680002216527,1182204881821549,5.84595,2.6140501,7.8030005
1680002216529,1182204884323703,5.85405,2.604,7.8030005
1680002216531,1182204886825857,5.76,2.56395,7.7380505
1680002216534,1182204889328011,5.87505,2.69295,7.7710505
1680002216538,1182204891830160,5.808,2.6209502,7.7830505
1680002216540,1182204894332314,5.75505,2.5489502,7.6969504
1680002216541,1182204896834468,5.74305,2.6520002,7.7640004
1680002216545,1182204899336544,5.80095,2.67405,7.695
1680002216547,1182204901838698,5.6910005,2.6809502,7.6729503
1680002216549,1182204904340843,5.7670503,2.70495,7.728
1680002216552,1182204906842997,5.7720003,2.7190502,7.6420503
1680002216553,1182204909345151,5.7720003,2.8200002,7.65705
1680002216562,1182204911847305,5.748,2.7499502,7.7260504
1680002216562,1182204914349435,5.7630005,2.80995,7.8
1680002216562,1182204916851358,5.82495,2.80095,7.68795
1680002216564,1182204919353512,5.7790504,2.7910502,7.8480005
1680002216567,1182204921855896,5.8110003,2.7550502,7.86705
1680002216569,1182204924357799,5.89905,2.841,7.8360004
1680002216571,1182204926859953,5.87505,2.70195,7.9540505
1680002216575,1182204929362107,5.9710503,2.676,7.93695
1680002216578,1182204931864261,5.973,2.7580502,7.7160006
1680002216579,1182204934366338,6.0139503,2.676,7.8289504
1680002216581,1182204936868501,6.0070505,2.6160002,7.8
1680002216584,1182204939370731,5.9760003,2.5800002,7.70205
1680002216587,1182204941872808,5.95695,2.5399501,7.79505
1680002216589,1182204944374962,6.0280504,2.5540502,7.7910004
1680002216592,1182204946877121,5.9830503,2.50395,7.7910004
1680002216595,1182204949379275,5.9209504,2.52495,7.8
1680002216597,1182204951881198,5.9040003,2.52495,7.69995
1680002216599,1182204954383583,5.8320003,2.6140501,7.6519504
1680002216601,1182204956885712,5.736,2.59905,7.8150005
1680002216604,1182204959387866,5.74305,2.6089501,7.79295
1680002216607,1182204961889789,5.703,2.5780501,7.7160006
1680002216609,1182204964391943,5.63595,2.5870502,7.7190003
1680002216612,1182204966894092,5.64795,2.5849502,7.7359505
1680002216614,1182204969396246,5.54505,2.66895,7.6920004
1680002216617,1182204971898400,5.5420504,2.7460501,7.8430505
1680002216619,1182204974400554,5.5140004,2.7259502,7.9009504
1680002216621,1182204976902707,5.583,2.8249502,7.8859506
1680002216624,1182204979404856,5.66895,2.83695,7.8580503
1680002216626,1182204981906933,5.7120004,2.83695,7.9579506
1680002216628,1182204984409087,5.7580504,2.877,7.8940506
1680002216631,1182204986911318,5.82495,2.901,8.023951
1680002216634,1182204989413381,5.8969502,2.8890002,8.15205
1680002216636,1182204991915535,6.0210004,2.8609502,8.016001
1680002216639,1182204994417688,6.1459503,2.94705,8.11905
1680002216641,1182204996919842,6.0810003,2.913,8.2890005
1680002216645,1182204999421770,6.2059503,2.9680502,8.215051
1680002216647,1182205001924155,6.2029505,2.8560002,8.24295
1680002216650,1182205004426309,6.22695,2.8870502,8.187
1680002216652,1182205006928463,6.2440505,2.8459501,8.301001
1680002216654,1182205009430381,6.3160505,2.841,8.28405
1680002216657,1182205011932535,6.26805,2.8630502,8.31
1680002216659,1182205014434689,6.2629504,2.8290002,8.274
1680002216662,1182205016936842,6.282,2.7910502,8.2240505
1680002216664,1182205019438996,6.2440505,2.70195,8.36295
1680002216667,1182205021941135,6.2629504,2.7259502,8.18595
1680002216669,1182205024443289,6.249,2.66895,8.34195
1680002216671,1182205026945443,6.2320504,2.6550002,8.233951
1680002216674,1182205029447520,6.234,2.592,8.20695
1680002216676,1182205031949660,6.1600504,2.5180502,8.20995
1680002216679,1182205034451890,6.117,2.6190002,8.33205
1680002216681,1182205036954044,6.06405,2.52495,8.262
1680002216684,1182205039456121,6.05205,2.67405,8.142
1680002216689,1182205041958294,6.07905,2.60205,8.035951
1680002216690,1182205044460448,5.98995,2.70195,8.064
1680002216692,1182205046962371,6.06405,2.6790001,8.05395
1680002216696,1182205049464525,6.0040503,2.6160002,7.93695
1680002216698,1182205051966909,6.024,2.69295,7.9729505
1680002216700,1182205054469063,5.9329505,2.6809502,7.965
1680002216702,1182205056970986,6.0040503,2.664,7.9300504
1680002216704,1182205059473140,6.09105,2.631,7.8240004
1680002216707,1182205061975285,5.9350505,2.6550002,7.8150005
1680002216710,1182205064477439,5.94705,2.6230502,7.8169503
1680002216713,1182205066979593,5.95905,2.67105,7.8619504
1680002216714,1182205069481747,5.85795,2.6899502,7.7209506
1680002216716,1182205071983909,5.8630505,2.7840002,7.62795
1680002216719,1182205074486063,5.9710503,2.74095,7.80495
1680002216721,1182205076988140,5.8609505,2.805,7.70205
1680002216725,1182205079490294,5.8900504,2.71005,7.7860503
1680002216728,1182205081992530,5.89905,2.7810001,7.7569504
1680002216730,1182205084494684,5.8699503,2.73405,7.66095
1680002216732,1182205086996761,5.9040003,2.7889502,7.7479506
1680002216733,1182205089498914,5.77005,2.7169502,7.6590004
1680002216736,1182205092000838,5.8060503,2.736,7.6420503
1680002216739,1182205094503212,5.88705,2.7840002,7.6660504
1680002216741,1182205097005366,5.94705,2.7169502,7.69995
1680002216745,1182205099507289,5.95695,2.74305,7.6849504
1680002216747,1182205102009443,5.9929504,2.676,7.6039505
1680002216750,1182205104511602,6.0979505,2.7,7.63005
1680002216751,1182205107013756,6.1750503,2.69295,7.6039505
1680002216754,1182205109515910,6.11205,2.66205,7.6009502
1680002216756,1182205112018063,6.0670505,2.6569502,7.5660005
1680002216760,1182205114520217,6.0160503,2.4850502,7.668
1680002216763,1182205117022376,6.0480003,2.5830002,7.7209506
1680002216765,1182205119524453,5.9370003,2.5800002,7.6039505
1680002216768,1182205122026607,6.0070505,2.559,7.65705
1680002216770,1182205124528838,5.92995,2.56605,7.7260504
1680002216772,1182205127031000,5.8680005,2.5830002,7.7160006
1680002216774,1182205129533077,5.82705,2.6230502,7.7359505
1680002216777,1182205132035231,5.8320003,2.607,7.7089505
1680002216779,1182205134537385,5.85405,2.664,7.7760005
1680002216781,1182205137039559,5.8060503,2.60205,7.7640004
1680002216784,1182205139541482,5.7580504,2.67105,7.80495
1680002216787,1182205142043867,5.7120004,2.7499502,7.7689505
1680002216789,1182205144546021,5.808,2.604,7.872
1680002216791,1182205147047939,5.74095,2.6449502,7.9219503
1680002216794,1182205149550092,5.7000003,2.83395,7.8790503
1680002216797,1182205152052246,5.7460504,2.76705,7.9579506
1680002216801,1182205154554400,5.74305,2.73405,7.9129505
1680002216802,1182205157056568,5.8110003,2.77005,7.9270506
1680002216804,1182205159558722,5.7510004,2.7,7.9819503
1680002216808,1182205162060876,5.7580504,2.7580502,8.023951
1680002216809,1182205164563030,5.8819504,2.6830502,8.00895
1680002216811,1182205167065106,5.8680005,2.73795,8.06595
1680002216814,1182205169567226,5.8369503,2.7840002,8.028001
1680002216816,1182205172069380,5.82495,2.8200002,8.092051
1680002216819,1182205174571611,5.9280005,2.7169502,8.113951
1680002216821,1182205177073688,5.8819504,2.77395,8.148001
1680002216824,1182205179575842,5.9610004,2.7190502,8.11905
1680002216827,1182205182078001,6.0160503,2.7499502,8.221951
1680002216829,1182205184579924,5.95695,2.6790001,8.18595
1680002216832,1182205187082078,6.0360003,2.7529502,8.20695
1680002216834,1182205189584462,6.0360003,2.7169502,8.18595
1680002216838,1182205192086635,6.1390505,2.7460501,8.19495
1680002216840,1182205194588558,6.05205,2.73795,8.13
1680002216841,1182205197090712,6.1530004,2.83395,8.272051
1680002216844,1182205199592866,6.1770005,2.83395,8.215051
1680002216848,1182205202095011,6.1459503,2.83395,8.1
1680002216849,1182205204597164,6.1480503,2.8890002,8.20005
1680002216851,1182205207099318,6.0739503,2.8870502,8.06595
1680002216854,1182205209601472,6.06405,2.8939502,8.20695
1680002216856,1182205212103520,6.1530004,2.8609502,8.059051
1680002216859,1182205214605674,6.1600504,2.8819501,8.149051
1680002216862,1182205217107828,6.1530004,2.79795,8.095051
1680002216864,1182205219609982,6.15105,2.832,8.05605
1680002216867,1182205222112126,6.10995,2.83395,8.10705
1680002216869,1182205224614279,6.15495,2.913,7.9849505
1680002216872,1182205227116433,6.11205,2.79795,7.9630504
1680002216876,1182205229618597,6.1000504,2.76195,7.9180503
1680002216877,1182205232120520,6.0720005,2.73405,7.8150005
1680002216880,1182205234622674,6.1909504,2.841,7.6710005
1680002216881,1182205237125059,6.2389503,2.7840002,7.8600006
1680002216884,1182205239627213,6.10995,2.71005,7.7860503
1680002216887,1182205242129141,6.0430503,2.80305,7.8240004
1680002216889,1182205244631294,6.0400505,2.6449502,7.7760005
1680002216891,1182205247133448,6.12405,2.72895,7.8430505
1680002216894,1182205249635525,6.0360003,2.67105,7.668
1680002216897,1182205252137669,6.0690002,2.7,7.6729503
1680002216899,1182205254639900,5.98995,2.64,7.7040005
1680002216902,1182205257141977,6.0070505,2.736,7.6180506
1680002216904,1182205259644131,6.0040503,2.7,7.5660005
1680002216908,1182205262146289,6.12195,2.6470501,7.6450505
1680002216909,1182205264648443,6.0739503,2.60205,7.668
1680002216914,1182205267150366,6.1050005,2.69295,7.5340505
1680002216916,1182205269652751,6.0430503,2.64,7.6039505
1680002216918,1182205272154905,6.0930004,2.6569502,7.6399503
1680002216919,1182205274657059,6.0670505,2.63805,7.66095
1680002216921,1182205277158982,6.04995,2.6880002,7.7790003
1680002216924,1182205279661136,6.0019503,2.6140501,7.6039505
1680002216928,1182205282163266,6.06405,2.6550002,7.6519504
1680002216930,1182205284665419,5.9929504,2.7,7.6039505
1680002216932,1182205287167573,5.964,2.6470501,7.6710005
1680002216934,1182205289669727,5.9929504,2.6110501,7.6729503
1680002216937,1182205292171881,5.87505,2.595,7.6849504
1680002216939,1182205294673929,5.9809504,2.6449502,7.6830006
1680002216941,1182205297176083,5.9760003,2.67105,7.8150005
1680002216945,1182205299678237,5.925,2.63295,7.69995
1680002216947,1182205302180467,6.0040503,2.5800002,7.8240004
1680002216950,1182205304682544,5.9950504,2.604,7.7550006
1680002216952,1182205307184698,6.024,2.6190002,7.76205
1680002216954,1182205309686852,5.9760003,2.69295,7.8700504
1680002216957,1182205312188775,5.9880004,2.631,7.767
1680002216959,1182205314690929,5.952,2.7169502,7.9339504
1680002216961,1182205317193309,5.94495,2.6950502,7.86495
1680002216964,1182205319695462,5.9880004,2.676,7.9939504
1680002216968,1182205322197385,5.85405,2.664,7.99695
1680002216969,1182205324699539,5.8320003,2.64,7.99695
1680002216972,1182205327201688,5.8900504,2.7169502,8.00895
1680002216974,1182205329703765,5.7889504,2.676,7.9819503
1680002216977,1182205332205919,5.9209504,2.667,8.06595
1680002216979,1182205334708150,5.9209504,2.7480001,8.109
1680002216982,1182205337210304,5.9710503,2.805,8.13
1680002216984,1182205339712415,5.9089503,2.76195,8.15205
1680002216989,1182205342214568,5.9209504,2.7240002,8.125951
1680002216991,1182205344716799,5.8560004,2.805,8.286
1680002216992,1182205347218953,5.9329505,2.7910502,8.28195
1680002216996,1182205349721039,5.8680005,2.67405,8.236051
1680002216997,1182205352223193,5.9539504,2.73405,8.163
1680002216999,1182205354725347,5.95695,2.772,8.20995
1680002217002,1182205357227270,5.9089503,2.7960002,8.253
1680002217004,1182205359729640,5.9710503,2.72895,8.17395
1680002217008,1182205362231794,5.8819504,2.7480001,8.18595
1680002217009,1182205364733948,5.92995,2.772,8.155951
1680002217011,1182205367235871,5.95905,2.7930002,8.248051
1680002217014,1182205369738039,5.8900504,2.8290002,8.11905
1680002217017,1182205372240193,5.9760003,2.8249502,8.233951
1680002217019,1182205374742270,5.964,2.8459501,8.122951
1680002217022,1182205377244501,5.9040003,2.8510501,8.035951
1680002217026,1182205379746654,5.95905,2.8960502,8.097
1680002217029,1182205382248808,5.925,2.8840501,8.161051
1680002217030,1182205384750885,5.997,2.844,8.061001
1680002217032,1182205387253039,6.084,2.7910502,8.0119505
1680002217035,1182205389755193,6.0330005,2.83905,7.9750504
1680002217037,1182205392257453,6.0210004,2.808,8.04705
1680002217039,1182205394759530,6.0259504,2.86995,7.9440002
1680002217042,1182205397261683,5.9950504,2.832,7.9630504
1680002217044,1182205399763837,6.01905,2.74305,7.9489503
1680002217048,1182205402265741,6.13395,2.8219502,7.965
1680002217050,1182205404767895,6.0810003,2.868,7.8619504
1680002217052,1182205407270280,6.0670505,2.8870502,7.9459505
1680002217054,1182205409772434,6.1720505,2.913,7.9459505
1680002217057,1182205412274357,6.096,2.91105,7.86705
1680002217059,1182205414776492,6.1600504,2.8840501,7.9249506
1680002217063,1182205417278645,6.1309505,2.90595,7.9080005
1680002217065,1182205419780799,6.1459503,2.9179502,7.8550506
1680002217067,1182205422282876,6.1870503,2.8510501,7.8169503
1680002217069,1182205424785116,6.2200503,2.8939502,7.7479506
1680002217072,1182205427287270,6.2730002,2.9899502,7.8360004
1680002217074,1182205429789347,6.18405,2.8579502,7.7260504
1680002217077,1182205432291501,6.18195,2.8510501,7.6849504
1680002217079,1182205434793675,6.2130003,2.9230502,7.6920004
1680002217081,1182205437295828,6.2130003,2.841,7.7260504
1680002217084,1182205439797982,6.3349504,2.77005,7.6090503
1680002217088,1182205442300136,6.25605,2.8489501,7.6639504
1680002217089,1182205444802300,6.22695,2.772,7.66095
1680002217092,1182205447304223,6.1980004,2.77905,7.63005
1680002217095,1182205449806377,6.2509503,2.72895,7.7260504
1680002217097,1182205452308531,6.2509503,2.77395,7.7260504
1680002217101,1182205454810704,6.2250004,2.7460501,7.6780505
1680002217103,1182205457312857,6.2200503,2.7139502,7.6759505
1680002217106,1182205459815011,6.2059503,2.628,7.728
1680002217108,1182205462317165,6.1770005,2.63295,7.6399503
1680002217110,1182205464819319,6.201,2.67405,7.8430505
1680002217111,1182205467321415,6.16695,2.60205,7.7070003
1680002217114,1182205469823569,6.09105,2.5759501,7.7209506
1680002217116,1182205472325800,6.0550504,2.5519502,7.7830505
1680002217119,1182205474827876,6.0379505,2.5129502,7.7160006
1680002217122,1182205477330030,6.0210004,2.5759501,7.8889503
1680002217124,1182205479832179,6.0330005,2.56395,7.75995
1680002217128,1182205482334333,6.0210004,2.53005,7.8150005
1680002217129,1182205484836256,6.03105,2.5180502,7.8310504
1680002217132,1182205487338410,5.9490004,2.571,7.80705
1680002217134,1182205489840810,5.95695,2.664,7.83405
1680002217138,1182205492342963,6.01905,2.607,7.80495
1680002217140,1182205494844886,5.892,2.6140501,7.77405
1680002217142,1182205497347040,6.0160503,2.5900502,7.79295
1680002217144,1182205499849194,5.9929504,2.6950502,7.6590004
1680002217147,1182205502351271,5.925,2.628,7.83405
1680002217149,1182205504853502,5.7670503,2.6140501,7.7980504
1680002217152,1182205507355656,5.8510504,2.532,7.8169503
1680002217154,1182205509857819,5.8320003,2.6500502,7.8700504
1680002217156,1182205512359896,5.7630005,2.6860502,8.001
1680002217159,1182205514862049,5.7460504,2.6260502,7.8960004
1680002217162,1182205517364203,5.715,2.59695,7.93695
1680002217164,1182205519866430,5.6959505,2.6590502,7.932
1680002217167,1182205522368507,5.72205,2.6569502,7.9729505
1680002217169,1182205524870661,5.63595,2.628,8.0449505
1680002217171,1182205527372815,5.6929502,2.595,8.1
1680002217175,1182205529874728,5.676,2.604,8.21205
1680002217178,1182205532376882,5.7049503,2.664,8.03295
1680002217180,1182205534879035,5.6839504,2.6550002,8.203051
1680002217185,1182205537381420,5.6569505,2.6790001,8.112
1680002217186,1182205539883343,5.6790004,2.6110501,8.13
1680002217186,1182205542385478,5.6260505,2.5830002,8.071051
1680002217189,1182205544887632,5.6740503,2.568,8.167951
1680002217191,1182205547389786,5.6670003,2.5729501,8.083051
1680002217195,1182205549891863,5.75505,2.5759501,7.977
1680002217197,1182205552394088,5.74305,2.4799502,7.8940506
1680002217199,1182205554896242,5.7340503,2.46105,8.06805
1680002217201,1182205557398396,5.77005,2.4820502,8.02305
1680002217204,1182205559900473,5.7289505,2.463,7.8550506
1680002217207,1182205562402617,5.74095,2.50095,7.9270506
1680002217214,1182205564904771,5.81295,2.5200002,7.9800005
1680002217215,1182205567406925,5.8300505,2.559,7.9339504
1680002217215,1182205569909078,5.7000003,2.59695,8.016001
1680002217217,1182205572411232,5.8699503,2.6160002,7.86495
1680002217219,1182205574913415,5.8180504,2.73105,8.016001
1680002217221,1182205577415569,5.7670503,2.628,7.8700504
1680002217224,1182205579917492,5.88495,2.77005,7.96995
1680002217227,1182205582419646,5.7670503,2.736,7.86495
1680002217229,1182205584922036,5.9490004,2.80095,8.1
1680002217232,1182205587423959,5.9710503,2.6790001,7.9579506
1680002217234,1182205589926112,5.91795,2.6809502,7.9129505
1680002217237,1182205592428189,5.9689503,2.71005,8.029051
1680002217239,1182205594930425,6.06195,2.7240002,7.8220506
1680002217241,1182205597432579,6.05205,2.5849502,7.8619504
1680002217244,1182205599934733,6.1459503,2.6899502,7.9080005
1680002217248,1182205602436810,6.1699505,2.7139502,7.9030504
1680002217251,1182205604938959,6.25395,2.76495,7.8240004
1680002217252,1182205607441113,6.3370504,2.7550502,7.9080005
1680002217255,1182205609943266,6.3810005,2.841,7.8700504
1680002217257,1182205612445420,6.4669504,2.74305,7.9099503
1680002217260,1182205614947574,6.5790005,2.8290002,7.8310504
1680002217262,1182205617449713,6.60795,2.7529502,7.728
1680002217264,1182205619951867,6.6220503,2.6950502,7.8
1680002217267,1182205622453790,6.6220503,2.72895,7.7520003
1680002217269,1182205624955944,6.663,2.667,7.7070003
1680002217272,1182205627458328,6.675,2.6140501,7.7520003
1680002217274,1182205629960492,6.61005,2.53005,7.7119503
1680002217277,1182205632462415,6.603,2.6430001,7.7830505
1680002217280,1182205634964569,6.5220003,2.7139502,7.7119503
1680002217282,1182205637466723,6.531,2.67105,7.7359505
1680002217284,1182205639968795,6.4690504,2.628,7.6159506
1680002217289,1182205642471026,6.4429502,2.7859502,7.6969504
1680002217291,1182205644973180,6.426,2.69295,7.872
1680002217293,1182205647475338,6.35895,2.67105,7.65705
1680002217296,1182205649977415,6.3130503,2.7220502,7.7400002
1680002217298,1182205652479569,6.32805,2.7840002,7.695
1680002217300,1182205654981723,6.2130003,2.88,7.7910004
1680002217302,1182205657483877,6.2059503,2.7220502,7.7400002
1680002217305,1182205659986045,6.22695,2.772,7.7070003
1680002217307,1182205662488199,6.1189504,2.69295,7.8840003
1680002217309,1182205664990352,6.14295,2.8150501,7.8120003
1680002217312,1182205667492506,6.12195,2.77905,7.8310504
1680002217314,1182205669994420,6.18405,2.7,7.9009504
1680002217318,1182205672496574,6.0880504,2.6790001,7.8910503
1680002217320,1182205674998959,6.0070505,2.6260502,7.8480005
1680002217322,1182205677501113,6.07905,2.7220502,7.9489503
1680002217326,1182205680003026,6.0070505,2.6569502,7.8310504
1680002217329,1182205682505180,6.0880504,2.6110501,7.9300504
1680002217331,1182205685007333,5.91795,2.66205,7.8910503
1680002217333,1182205687509410,5.90595,2.6089501,7.9459505
1680002217335,1182205690011564,5.9760003,2.6590502,7.8240004
1680002217337,1182205692513790,5.9929504,2.6430001,7.977
1680002217340,1182205695015944,5.92995,2.6569502,7.9300504
1680002217341,1182205697518021,5.9689503,2.6809502,7.9080005
1680002217344,1182205700020175,5.8110003,2.63805,7.9870505
1680002217347,1182205702522344,5.9230504,2.6550002,7.8220506
1680002217349,1182205705024497,5.8819504,2.592,8.04705
1680002217352,1182205707526651,5.8390503,2.70195,8.097
1680002217355,1182205710028805,5.8219504,2.72895,8.01
1680002217357,1182205712530963,5.8819504,2.72895,7.9939504
1680002217360,1182205715033117,5.8390503,2.73105,8.02095
1680002217363,1182205717535040,5.84595,2.7460501,8.029051
1680002217366,1182205720037194,5.8320003,2.7460501,7.9440002
1680002217369,1182205722539607,5.8320003,2.74305,7.9009504
1680002217370,1182205725041761,5.8630505,2.8170002,7.9800005
1680002217372,1182205727543684,5.8510504,2.73105,7.9680004
1680002217374,1182205730045838,5.80095,2.71005,7.8529506
1680002217377,1182205732547992,5.89905,2.63505,7.8940506
1680002217379,1182205735050127,5.81505,2.6190002,7.9440002
1680002217382,1182205737552204,5.9659505,2.6880002,7.9180503
1680002217384,1182205740054435,5.9659505,2.6110501,7.9099503
1680002217387,1182205742556588,5.9209504,2.592,7.872
1680002217389,1182205745058742,5.9209504,2.63805,7.8580503
1680002217392,1182205747560824,5.913,2.5560002,7.8619504
1680002217395,1182205750062978,5.9809504,2.5489502,7.8820505
1680002217397,1182205752565132,6.0019503,2.559,7.8580503
1680002217401,1182205755067300,5.9929504,2.4769502,7.8310504
1680002217403,1182205757569454,5.9809504,2.4799502,7.80705
1680002217405,1182205760071607,5.9929504,2.559,7.827
1680002217408,1182205762573761,5.9710503,2.63805,7.7160006
1680002217409,1182205765075684,5.9809504,2.5420501,7.7710505
1680002217412,1182205767577838,5.8680005,2.49405,7.77405
1680002217415,1182205770079992,5.913,2.43705,7.6009502
1680002217417,1182205772582377,5.9809504,2.5420501,7.6399503
1680002217420,1182205775084300,5.9350505,2.5519502,7.5610504
1680002217422,1182205777586468,5.8819504,2.48895,7.5079503
1680002217425,1182205780088621,5.8699503,2.5470002,7.5220504
1680002217429,1182205782590698,5.8489504,2.628,7.5220504
1680002217429,1182205785092852,5.85795,2.6089501,7.5460505
1680002217432,1182205787595093,5.9710503,2.5129502,7.5870004
1680002217435,1182205790097247,5.88495,2.5849502,7.5750003
1680002217439,1182205792599324,5.913,2.6569502,7.5030003
1680002217440,1182205795101478,5.91795,2.5900502,7.5540004
1680002217442,1182205797603632,5.913,2.74305,7.5679502
1680002217446,1182205800105785,6.0210004,2.7,7.70205
1680002217448,1182205802607708,6.03105,2.70195,7.6180506
1680002217450,1182205805110093,6.03105,2.70495,7.5370502
1680002217452,1182205807612247,6.024,2.7120001,7.6090503
1680002217455,1182205810114401,6.0760503,2.76495,7.80495
1680002217457,1182205812616324,6.0360003,2.90595,7.6729503
1680002217459,1182205815118478,6.1650004,2.901,7.7070003
1680002217462,1182205817620617,6.16305,2.8579502,7.7809505
1680002217465,1182205820122770,6.22695,2.8459501,7.7860503
1680002217467,1182205822624924,6.11205,2.901,7.7640004
1680002217469,1182205825127078,6.1579504,2.9350502,7.8859506
1680002217472,1182205827629155,6.1600504,2.9490001,7.9180503
1680002217477,1182205830131295,6.2899504,2.9560502,7.8619504
1680002217478,1182205832633449,6.2059503,2.937,7.8910503
1680002217480,1182205835135680,6.2029505,2.9680502,7.99695
1680002217482,1182205837637756,6.3160505,3.00195,8.023951
1680002217486,1182205840139934,6.2730002,3.0670502,8.00895
1680002217488,1182205842641857,6.2509503,3.0589502,8.097
1680002217490,1182205845144242,6.3160505,2.97495,8.0119505
1680002217492,1182205847646396,6.3450003,3.0310502,8.109
1680002217496,1182205850148550,6.3450003,2.9989502,8.064
1680002217498,1182205852650473,6.39195,3.03795,8.061001
1680002217500,1182205855152627,6.4240503,3.08295,8.116051
1680002217502,1182205857654781,6.3690004,3.0550501,8.08005
1680002217505,1182205860156857,6.321,3.0349503,8.221951
1680002217507,1182205862659088,6.3450003,3.0210001,8.262
1680002217510,1182205865161242,6.3130503,3.0570002,8.17395
1680002217513,1182205867663396,6.354,3.081,8.18595
1680002217516,1182205870165478,6.3469505,3.0859501,8.21205
1680002217518,1182205872667632,6.3250504,3.081,8.13
1680002217520,1182205875169786,6.294,3.1260002,8.302951
1680002217522,1182205877672016,6.3229504,3.0550501,8.23095
1680002217526,1182205880174107,6.3300004,3.05205,8.203051
1680002217528,1182205882676261,6.2700005,3.1339502,8.20005
1680002217530,1182205885178415,6.3250504,3.1189501,8.04195
1680002217532,1182205887680569,6.3040504,3.0930002,8.071051
1680002217535,1182205890182492,6.2419505,3.1309502,8.076
1680002217537,1182205892684617,6.294,3.04695,8.01
1680002217540,1182205895187001,6.29895,3.0280502,8.04
1680002217542,1182205897689155,6.189,3.0589502,7.8510003
1680002217545,1182205900191078,6.1459503,2.9659503,7.7910004
1680002217547,1182205902693232,6.1770005,3.0280502,7.8460503
1680002217551,1182205905195386,6.1000504,2.94,7.8220506
1680002217553,1182205907697463,6.0810003,2.88,7.6969504
1680002217555,1182205910199694,6.0880504,2.8960502,7.6729503
1680002217557,1182205912701824,5.97795,2.736,7.6009502
1680002217559,1182205915203977,5.9490004,2.72895,7.6470003
1680002217562,1182205917706054,5.964,2.7859502,7.59705
1680002217566,1182205920208208,5.985,2.70195,7.7070003
1680002217568,1182205922710329,5.95695,2.7169502,7.6159506
1680002217570,1182205925212483,5.9160004,2.71005,7.68795
1680002217572,1182205927714637,5.9230504,2.70495,7.5660005
1680002217576,1182205930216791,5.85405,2.6569502,7.5390005
1680002217578,1182205932718944,5.9350505,2.736,7.5490503
1680002217580,1182205935221112,5.9350505,2.73795,7.58895
1680002217582,1182205937723035,5.892,2.6830502,7.58895
1680002217585,1182205940225189,5.8969502,2.59905,7.5390005
1680002217589,1182205942727574,5.9370003,2.60205,7.5439506
1680002217592,1182205945229684,5.913,2.67405,7.5270004
1680002217593,1182205947731607,5.9950504,2.5900502,7.58895
1680002217596,1182205950233761,5.9830503,2.5560002,7.55595
1680002217597,1182205952735915,5.9710503,2.499,7.5340505
1680002217600,1182205955237991,6.05205,2.47305,7.70205
1680002217602,1182205957740217,5.964,2.5110002,7.6210504
1680002217606,1182205960242371,5.9209504,2.48895,7.6780505
1680002217608,1182205962744525,5.9419503,2.43405,7.6489506
1680002217610,1182205965246602,5.9490004,2.38395,7.7790003
1680002217612,1182205967748775,5.985,2.41995,7.5990005
1680002217615,1182205970250929,5.925,2.4100502,7.623
1680002217617,1182205972752852,5.91795,2.427,7.62795
1680002217620,1182205975255236,5.9089503,2.45595,7.563
1680002217622,1182205977757390,5.8440003,2.4870002,7.7449503
1680002217628,1182205980259573,5.7670503,2.3740501,7.8150005
1680002217629,1182205982761496,5.8180504,2.41995,7.6540504
1680002217631,1182205985263650,5.808,2.52495,7.827
1680002217632,1182205987765804,5.81505,2.5159502,7.8910503
1680002217636,1182205990268207,5.8180504,2.47305,7.8460503
1680002217637,1182205992770130,5.8320003,2.50395,7.8510003
1680002217640,1182205995272284,5.74305,2.5200002,7.8790503
1680002217642,1182205997774438,5.7790504,2.56605,7.9560003
1680002217647,1182206000276525,5.74095,2.5489502,8.005051
1680002217648,1182206002778679,5.7169504,2.60205,8.109
1680002217650,1182206005280833,5.7340503,2.6160002,8.092051
1680002217652,1182206007782987,5.688,2.736,8.109
1680002217655,1182206010285126,5.7720003,2.67405,8.163
1680002217657,1182206012787280,5.8369503,2.7600002,8.10705
1680002217660,1182206015289434,5.7580504,2.664,8.215051
1680002217663,1182206017791588,5.7990003,2.6569502,8.19495
1680002217666,1182206020293525,5.7580504,2.667,8.187
1680002217668,1182206022795910,5.925,2.6790001,8.278951
1680002217670,1182206025298064,5.87295,2.70705,8.236051
1680002217673,1182206027799987,5.9329505,2.6569502,8.31795
1680002217676,1182206030302141,5.94495,2.7460501,8.133
1680002217678,1182206032804294,5.9710503,2.7480001,8.236051
1680002217680,1182206035306448,5.9209504,2.6569502,8.241
1680002217683,1182206037808602,5.997,2.77005,8.30805
1680002217687,1182206040310741,5.9760003,2.667,8.30595
1680002217689,1182206042812895,5.9950504,2.73105,8.272051
1680002217690,1182206045315049,5.9539504,2.8129501,8.28195
1680002217692,1182206047817126,5.92995,2.70705,8.215051
1680002217696,1182206050319279,6.07905,2.83695,8.290951
1680002217699,1182206052821429,6.12195,2.7910502,8.17395
1680002217702,1182206055323583,6.0210004,2.8560002,8.233951
1680002217704,1182206057825737,6.12195,2.83905,8.193001
1680002217709,1182206060327886,6.1189504,2.8560002,8.17905
1680002217710,1182206062830040,6.1699505,2.80305,8.205
1680002217711,1182206065331963,6.234,2.7889502,8.113951
1680002217712,1182206067834117,6.2629504,2.7529502,8.00895
1680002217716,1182206070336501,6.3469505,2.841,8.04195
1680002217718,1182206072838424,6.3900003,2.8170002,7.9009504
1680002217720,1182206075340578,6.3760505,2.77905,7.9099503
1680002217723,1182206077842732,6.32805,2.7769501,7.9150505
1680002217727,1182206080344886,6.3420005,2.80995,7.93905
1680002217729,1182206082847044,6.38805,2.77005,7.8220506
1680002217731,1182206085349121,6.3130503,2.83905,7.77405
1680002217733,1182206087851351,6.3760505,2.7480001,7.9080005
1680002217736,1182206090353505,6.366,2.8249502,7.8100505
1680002217739,1182206092855602,6.35895,2.8920002,7.6969504
1680002217741,1182206095357756,6.4620004,2.8630502,7.6180506
1680002217743,1182206097859987,6.38805,2.805,7.6180506
1680002217746,1182206100362064,6.531,2.7240002,7.6129503
1680002217748,1182206102864218,6.4480505,2.80305,7.5700502
1680002217750,1182206105366361,6.4090505,2.6569502,7.5990005
1680002217752,1182206107868515,6.43095,2.631,7.5750003
1680002217756,1182206110370669,6.3690004,2.69295,7.55595
1680002217758,1182206112872823,6.4020004,2.66895,7.5679502
1680002217760,1182206115374986,6.2779503,2.6899502,7.4389505
1680002217763,1182206117877140,6.40395,2.5470002,7.4119506
1680002217767,1182206120379063,6.4090505,2.52795,7.4700003
1680002217769,1182206122881217,6.3229504,2.568,7.458
1680002217770,1182206125383386,6.3109503,2.56095,7.48605
1680002217772,1182206127885539,6.2130003,2.5489502,7.4269505
1680002217779,1182206130387693,6.3300004,2.571,7.5319505
1680002217780,1182206132889847,6.1909504,2.56605,7.48395
1680002217781,1182206135392001,6.10995,2.4409502,7.49805
1680002217783,1182206137894078,6.1480503,2.46105,7.5850506
1680002217786,1182206140396232,6.04995,2.523,7.5390005
1680002217788,1182206142898386,6.0880504,2.4799502,7.5769506
1680002217790,1182206145400539,6.1459503,2.6260502,7.5679502
1680002217793,1182206147902678,6.01905,2.5729501,7.5610504
1680002217797,1182206150404832,6.0000005,2.5399501,7.5870004
1680002217799,1182206152906986,5.95905,2.631,7.6110005
1680002217800,1182206155409140,6.0000005,2.6140501,7.6800003
1680002217803,1182206157911073,5.94705,2.604,7.62795
1680002217807,1182206160413458,5.973,2.6950502,7.68795
1680002217819,1182206162915611,5.88,2.6089501,7.6969504
1680002217820,1182206165417534,5.91795,2.7550502,7.65705
1680002217820,1182206167919693,5.9710503,2.6809502,7.7089505
1680002217820,1182206170421847,5.8369503,2.6140501,7.75995
1680002217820,1182206172923924,5.92995,2.6569502,7.79505
1680002217820,1182206175426155,5.7580504,2.5849502,7.9080005
1680002217822,1182206177928309,5.82495,2.56605,7.93695
1680002217826,1182206180430482,5.8489504,2.56605,7.9150505
1680002217827,1182206182932635,5.7510004,2.6110501,7.90605
1680002217830,1182206185434712,5.80305,2.47305,8.023951
1680002217832,1182206187936866,5.7169504,2.607,7.9219503
1680002217836,1182206190439005,5.77005,2.6140501,8.029051
1680002217837,1182206192941159,5.8369503,2.5420501,8.10705
1680002217840,1182206195443313,5.74305,2.5159502,7.96995
1680002217842,1182206197945467,5.736,2.64,8.092051
1680002217846,1182206200447620,5.8440003,2.604,8.064
1680002217849,1182206202949544,5.892,2.63505,8.089951
1680002217852,1182206205451697,5.808,2.5780501,8.20005
1680002217854,1182206207953851,5.9020505,2.6880002,8.023951
1680002217856,1182206210456236,5.7120004,2.5729501,8.061001
1680002217858,1182206212958169,5.79405,2.63295,7.9990506
1680002217860,1182206215460323,5.8680005,2.6830502,7.9249506
1680002217863,1182206217962477,5.9419503,2.71005,8.06595
1680002217866,1182206220464554,5.91795,2.72895,8.028001
1680002217868,1182206222966693,5.9370003,2.8200002,7.977
1680002217870,1182206225468924,5.952,2.6260502,7.9420505
1680002217873,1182206227971078,6.04995,2.6809502,7.93905
1680002217876,1182206230473155,6.045,2.73405,7.9339504
1680002217879,1182206232975333,6.0720005,2.664,7.9540505
1680002217880,1182206235477487,6.06405,2.736,7.8529506
1680002217882,1182206237979410,6.15495,2.71005,7.9890003
1680002217887,1182206240481794,6.11205,2.67105,7.9800005
1680002217889,1182206242983957,6.2299504,2.631,7.8820505
1680002217892,1182206245486111,6.25605,2.6860502,7.8409505
1680002217895,1182206247988034,6.28695,2.7460501,7.8430505
1680002217897,1182206250490188,6.3130503,2.6550002,7.7689505
1680002217899,1182206252992342,6.3370504,2.76195,7.83405
1680002217901,1182206255494482,6.3829503,2.6809502,7.8
1680002217903,1182206257996636,6.4840503,2.66205,7.7760005
1680002217907,1182206260498789,6.4759502,2.6449502,7.8220506
1680002217908,1182206263000943,6.50295,2.71005,7.7040005
1680002217910,1182206265503087,6.5290504,2.6520002,7.6710005
1680002217913,1182206268005164,6.6150002,2.7169502,7.7479506
1680002217917,1182206270507318,6.5670004,2.66895,7.7380505
1680002217918,1182206273009549,6.66795,2.67405,7.7790003
1680002217920,1182206275511703,6.5670004,2.7,7.7640004
1680002217922,1182206278013761,6.6730504,2.6860502,7.5799503
1680002217930,1182206280515914,6.558,2.7960002,7.7209506
1680002217931,1182206283018068,6.57,2.7,7.668
1680002217932,1182206285520242,6.6250505,2.67405,7.7520003
1680002217933,1182206288022165,6.5149503,2.64,7.6470003
1680002217936,1182206290524550,6.4999504,2.6830502,7.635
1680002217939,1182206293026704,6.4690504,2.7220502,7.63005
1680002217940,1182206295528627,6.4240503,2.74095,7.7500505
1680002217942,1182206298030762,6.3829503,2.7169502,7.5390005
1680002217946,1182206300532915,6.3850503,2.6899502,7.7359505
1680002217948,1182206303035069,6.3810005,2.77905,7.6830006
1680002217950,1182206305537223,6.36105,2.7529502,7.6900506
1680002217953,1182206308039348,6.2779503,2.73405,7.6729503
1680002217958,1182206310541502,6.2700005,2.7120001,7.728
1680002217960,1182206313043656,6.1650004,2.7529502,7.7830505
1680002217961,1182206315545733,6.0880504,2.70705,7.6849504
1680002217964,1182206318047891,6.15495,2.6569502,7.7040005
1680002217967,1182206320550045,6.0979505,2.7120001,7.7160006
1680002217969,1182206323052276,6.1189504,2.7889502,7.7479506
1680002217972,1182206325554353,5.9950504,2.8290002,7.6800003
1680002217973,1182206328056507,6.0400505,2.7550502,7.6249504
1680002217976,1182206330558642,5.9539504,2.69295,7.79505
1680002217978,1182206333060796,5.8609505,2.7840002,7.8480005
1680002217980,1182206335562719,5.94495,2.73105,7.8030005
1680002217982,1182206338065103,5.80095,2.7190502,7.8580503
1680002217986,1182206340567209,5.8560004,2.7259502,7.7479506
1680002217988,1182206343069132,5.8180504,2.76195,7.8
1680002217990,1182206345571286,5.8900504,2.6790001,7.8940506
1680002217993,1182206348073671,5.8660502,2.6470501,7.8460503
1680002217996,1182206350575589,5.84595,2.7169502,7.9180503
1680002217998,1182206353077743,5.8390503,2.6550002,7.8240004
1680002218001,1182206355579896,5.8110003,2.67405,7.96995
1680002218003,1182206358082050,5.79405,2.631,7.9579506
1680002218007,1182206360584189,5.87295,2.5780501,7.8510003
1680002218009,1182206363086343,5.7790504,2.667,7.9129505
1680002218011,1182206365588497,5.787,2.631,7.83405
1680002218013,1182206368090651,5.7910504,2.5830002,7.89795
1680002218016,1182206370592728,5.88705,2.5870502,8.005051
1680002218018,1182206373094868,5.925,2.607,7.9300504
1680002218020,1182206375597021,5.89905,2.4769502,7.9729505
1680002218023,1182206378098944,5.78205,2.52495,7.93905
1680002218026,1182206380601329,5.748,2.5399501,8.05605
1680002218029,1182206383103473,5.90595,2.48895,7.8360004
1680002218031,1182206385605627,5.8390503,2.427,7.8859506
1680002218035,1182206388107550,5.85405,2.6089501,7.8790503
1680002218037,1182206390609704,5.85405,2.5519502,7.8529506
1680002218040,1182206393111877,5.8060503,2.5540502,7.9440002
1680002218041,1182206395614261,5.8969502,2.5180502,7.932
1680002218043,1182206398116184,5.88495,2.53005,7.8529506
1680002218047,1182206400618338,5.9490004,2.499,7.8430505
1680002218049,1182206403120492,5.9209504,2.56095,7.8409505
1680002218051,1182206405622569,5.8660502,2.52795,7.7520003
1680002218053,1182206408124723,5.90595,2.63505,7.8030005
1680002218056,1182206410626877,5.9689503,2.67105,7.80705
1680002218058,1182206413129107,5.94,2.6860502,7.7689505
1680002218060,1182206415631189,5.9280005,2.6470501,7.8150005
1680002218063,1182206418133343,5.94,2.67405,7.7760005
1680002218066,1182206420635497,6.01905,2.6830502,7.8289504
1680002218068,1182206423137651,6.0280504,2.7220502,7.7910004
1680002218070,1182206425639574,6.0070505,2.76195,7.7980504
1680002218073,1182206428141978,6.096,2.73405,7.7809505
1680002218078,1182206430644131,6.1309505,2.7840002,7.7830505
1680002218080,1182206433146285,6.201,2.76195,7.7260504
1680002218082,1182206435648218,6.1980004,2.8510501,7.8120003
1680002218083,1182206438150372,6.1699505,2.7910502,7.7830505
1680002218087,1182206440652526,6.1750503,2.76495,7.839
1680002218089,1182206443154603,6.29895,2.8939502,7.7809505
1680002218091,1182206445656834,6.294,2.8840501,7.8550506
1680002218093,1182206448158988,6.321,2.844,7.9180503
1680002218096,1182206450661141,6.4860005,2.8819501,7.79505
1680002218098,1182206453163218,6.438,2.83905,7.9009504
1680002218101,1182206455665372,6.4620004,2.8170002,8.0449505
1680002218105,1182206458167526,6.4669504,2.8510501,7.9300504
1680002218106,1182206460669757,6.6010504,2.8150501,7.8910503
1680002218108,1182206463171834,6.6460505,2.8630502,7.977
1680002218110,1182206465673988,6.56505,2.83395,8.04705
1680002218114,1182206468176137,6.57,2.79795,7.8580503
1680002218116,1182206470678290,6.5860505,2.7960002,7.9920006
1680002218118,1182206473180213,6.6439505,2.868,8.035951
1680002218120,1182206475682598,6.5940003,2.8219502,8.005051
1680002218123,1182206478184752,6.543,2.7600002,8.02305
1680002218127,1182206480686675,6.5530505,2.8890002,7.9129505
1680002218129,1182206483188829,6.53595,2.7960002,8.01
1680002218131,1182206485690983,6.4860005,2.8219502,8.03295
1680002218132,1182206488193137,6.5269504,2.7960002,7.90605
1680002218136,1182206490695208,6.498,2.8609502,7.93695
1680002218138,1182206493197439,6.4120502,2.7960002,7.965
1680002218140,1182206495699593,6.2920504,2.8129501,8.029051
1680002218142,1182206498201747,6.3780003,2.80095,7.9459505
1680002218146,1182206500703829,6.2130003,2.841,7.932
1680002218148,1182206503205983,6.222,2.80995,7.872
1680002218151,1182206505708137,6.2419505,2.805,7.965
1680002218153,1182206508210367,6.1459503,2.7600002,7.872
1680002218156,1182206510712444,6.11205,2.8530002,7.9510503
1680002218157,1182206513214617,6.1410003,2.8219502,7.9939504
1680002218160,1182206515716771,6.05205,2.808,7.9609504
1680002218163,1182206518218694,6.0979505,2.832,7.86495
1680002218167,1182206520720834,6.0400505,2.7,7.8240004
1680002218169,1182206523222988,6.012,2.772,7.7710505
1680002218171,1182206525725372,6.0019503,2.7859502,7.86705
1680002218173,1182206528227296,5.9880004,2.7480001,7.8910503
1680002218176,1182206530729449,6.012,2.76705,7.7809505
1680002218178,1182206533231602,5.9490004,2.67405,7.8220506
1680002218180,1182206535733756,5.95905,2.736,7.9270506
1680002218183,1182206538235833,6.0040503,2.69805,7.9249506
1680002218186,1182206540738064,5.9040003,2.664,7.9510503
1680002218191,1182206543240228,5.9419503,2.6110501,7.8430505
1680002218192,1182206545742305,5.87295,2.664,7.9729505
1680002218193,1182206548244458,5.8510504,2.6110501,7.8529506
1680002218196,1182206550746612,5.9209504,2.604,7.90605
1680002218198,1182206553248766,5.9710503,2.667,7.8700504
1680002218200,1182206555750997,5.81295,2.6790001,7.8550506
1680002218203,1182206558253074,5.8939505,2.571,7.9009504
1680002218207,1182206560755228,5.8819504,2.6140501,7.8619504
1680002218209,1182206563257382,5.9209504,2.5489502,7.8700504
1680002218212,1182206565759295,5.88,2.6590502,7.8840003
1680002218213,1182206568261448,5.87505,2.66895,7.872
1680002218216,1182206570763602,5.8660502,2.6089501,7.8460503
1680002218218,1182206573265987,5.8660502,2.628,7.8550506
1680002218220,1182206575767910,5.82495,2.5489502,7.767
1680002218223,1182206578270064,5.84595,2.56605,7.8529506
1680002218229,1182206580772218,5.8320003,2.5420501,7.872
1680002218230,1182206583274372,5.8900504,2.523,7.8190503
1680002218231,1182206585776439,5.84205,2.52795,7.7980504
1680002218233,1182206588278670,5.8440003,2.59905,7.8460503
1680002218236,1182206590780824,5.8560004,2.52495,7.7710505
1680002218238,1182206593282901,5.82705,2.49405,7.70205
1680002218240,1182206595785055,5.7790504,2.46495,7.767
1680002218243,1182206598287267,5.7990003,2.535,7.7550006
1680002218247,1182206600789421,5.85405,2.46795,7.7310004
1680002218249,1182206603291497,5.8900504,2.52495,7.6110005
1680002218251,1182206605793651,5.83395,2.4510002,7.6159506
1680002218253,1182206608295805,5.94,2.4510002,7.623
1680002218256,1182206610797968,5.985,2.45295,7.7209506
1680002218258,1182206613299891,5.95695,2.5180502,7.6590004
1680002218260,1182206615802276,5.952,2.4870002,7.6969504
1680002218264,1182206618304425,6.0480003,2.43705,7.6519504
1680002218266,1182206620806348,5.9710503,2.5519502,7.7359505
1680002218268,1182206623308501,6.0810003,2.48895,7.6900506
1680002218270,1182206625810655,6.0600004,2.56095,7.6920004
1680002218273,1182206628312809,6.0810003,2.5800002,7.6900506
1680002218276,1182206630814963,6.0430503,2.47305,7.623
1680002218278,1182206633317117,6.1050005,2.5540502,7.65705
1680002218280,1182206635819271,6.04995,2.604,7.73295
1680002218283,1182206638321425,6.14295,2.6550002,7.695
1680002218287,1182206640823536,6.0690002,2.7,7.8
1680002218289,1182206643325689,6.1600504,2.63295,7.6450505
1680002218291,1182206645827843,6.096,2.73405,7.7310004
1680002218293,1182206648330074,6.18195,2.6790001,7.728
1680002218296,1182206650832165,6.234,2.7259502,7.7359505
1680002218298,1182206653334319,6.234,2.7600002,7.7980504
1680002218301,1182206655836473,6.2580004,2.7529502,7.8030005
1680002218304,1182206658338396,6.22695,2.8249502,7.7710505
1680002218306,1182206660840570,6.2580004,2.6809502,7.8169503
1680002218308,1182206663342954,6.30105,2.7550502,7.8100505
1680002218310,1182206665845108,6.3250504,2.6860502,7.8910503
1680002218313,1182206668347031,6.3130503,2.6809502,7.872
1680002218316,1182206670849180,6.3469505,2.7810001,7.8619504
1680002218318,1182206673351334,6.3570004,2.74305,7.8889503
1680002218321,1182206675853488,6.37095,2.7910502,7.80705
1680002218323,1182206678355642,6.4480505,2.7139502,7.8889503
1680002218327,1182206680857790,6.4480505,2.772,7.839
1680002218329,1182206683359944,6.4020004,2.67105,7.9200006
1680002218331,1182206685862021,6.4069505,2.7529502,7.977
1680002218333,1182206688364175,6.43305,2.7499502,7.86495
1680002218336,1182206690866329,6.366,2.80995,8.035951
1680002218339,1182206693368483,6.41895,2.7220502,7.9920006
1680002218341,1182206695870637,6.3570004,2.8840501,7.9750504
1680002218345,1182206698372790,6.3570004,2.79795,7.9680004
1680002218346,1182206700874944,6.47205,2.7550502,7.9459505
1680002218348,1182206703377098,6.3850503,2.77005,8.04195
1680002218350,1182206705879271,6.294,2.7550502,8.03505
1680002218353,1182206708381194,6.3640504,2.7960002,7.93905
1680002218356,1182206710883579,6.3349504,2.7889502,8.116051
1680002218358,1182206713385502,6.25605,2.7840002,7.9009504
1680002218361,1182206715887646,6.2200503,2.8219502,8.035951
1680002218362,1182206718389799,6.30105,2.7259502,7.9579506
1680002218366,1182206720891953,6.261,2.8579502,7.965
1680002218368,1182206723394030,6.2100005,2.7910502,7.90605
1680002218370,1182206725896184,6.249,2.7529502,7.9459505
1680002218373,1182206728398415,6.1600504,2.7600002,7.9609504
1680002218379,1182206730900569,6.0880504,2.73405,7.977
1680002218380,1182206733402646,6.0670505,2.7889502,7.9489503
1680002218381,1182206735904791,6.1909504,2.7550502,7.8889503
1680002218383,1182206738406944,6.0979505,2.6830502,7.8700504
1680002218386,1182206740909098,6.0330005,2.7220502,7.977
1680002218388,1182206743411252,6.2370005,2.70195,7.86495
1680002218391,1182206745913406,6.096,2.736,7.8480005
1680002218393,1182206748415545,6.1480503,2.676,7.80705
1680002218396,1182206750917699,6.0810003,2.70195,7.8840003
1680002218399,1182206753419622,6.0550504,2.676,7.79505
1680002218401,1182206755921776,6.1309505,2.532,7.7479506
1680002218403,1182206758424160,6.1069503,2.69805,7.8310504
1680002218408,1182206760926088,6.0810003,2.5900502,7.8030005
1680002218409,1182206763428242,6.1050005,2.6110501,7.8190503
1680002218411,1182206765930396,5.9929504,2.5870502,7.86495
1680002218414,1182206768432564,6.0480003,2.56095,7.7119503
1680002218417,1182206770934641,6.0139503,2.5780501,7.7550006
1680002218419,1182206773436795,6.0400505,2.56605,7.8030005
1680002218421,1182206775939025,5.9689503,2.59695,7.767
1680002218423,1182206778441179,5.9329505,2.4870002,7.6729503
1680002218427,1182206780943247,6.0040503,2.47305,7.6900506
1680002218429,1182206783445401,5.973,2.49195,7.83405
1680002218431,1182206785947555,5.997,2.45595,7.6399503
1680002218442,1182206788449709,5.9809504,2.50395,7.69995
1680002218443,1182206790951867,5.9929504,2.559,7.65705
1680002218443,1182206793454020,5.997,2.5129502,7.8030005
1680002218443,1182206795956174,5.94705,2.5420501,7.7790003
1680002218443,1182206798458328,5.9419503,2.5540502,7.6470003
1680002218447,1182206800960236,5.94705,2.4390001,7.76205
1680002218449,1182206803462390,5.9280005,2.535,7.7880006
1680002218452,1182206805964544,6.057,2.4850502,7.77405
1680002218454,1182206808466698,5.9209504,2.43705,7.7569504
1680002218456,1182206810968852,5.95905,2.523,7.6129503
1680002218458,1182206813470971,5.973,2.5110002,7.68795
1680002218460,1182206815973125,6.0670505,2.559,7.65705
1680002218463,1182206818475202,6.0090003,2.45295,7.8510003
1680002218466,1182206820977356,5.94705,2.595,7.7760005
1680002218468,1182206823479573,5.94705,2.5159502,7.7190003
1680002218470,1182206825981727,5.9370003,2.63805,7.695
1680002218473,1182206828483804,5.94495,2.604,7.6969504
1680002218476,1182206830985958,5.973,2.5540502,7.8150005
1680002218478,1182206833488092,6.0550504,2.6830502,7.635
1680002218480,1182206835990246,6.0000005,2.6569502,7.6660504
1680002218483,1182206838492169,6.0090003,2.7480001,7.66095
1680002218487,1182206840994554,6.04995,2.70705,7.6729503
1680002218491,1182206843496698,6.06405,2.6830502,7.79505
1680002218492,1182206845998621,6.1309505,2.67405,7.7430005
1680002218496,1182206848500775,6.1150503,2.7910502,7.7550006
1680002218498,1182206851003159,6.10995,2.70705,7.7160006
1680002218500,1182206853505332,6.1720505,2.7190502,7.7089505
1680002218502,1182206856082025,6.1480503,2.7769501,7.79505
1680002218504,1182206858509409,6.1459503,2.7580502,7.695
1680002218507,1182206861011563,6.1870503,2.6880002,7.7860503
1680002218509,1182206863513717,6.234,2.7529502,7.7760005
1680002218511,1182206866015862,6.294,2.841,7.7760005
1680002218513,1182206868518016,6.28695,2.76495,7.8150005
1680002218517,1182206871020169,6.29895,2.76195,7.7830505
1680002218519,1182206873522246,6.2629504,2.8290002,7.7830505
1680002218521,1182206876024400,6.28695,2.9490001,7.8100505
1680002218525,1182206878526549,6.35895,2.8560002,7.8790503
1680002218531,1182206881028780,6.38805,2.8200002,7.8790503
1680002218532,1182206883530857,6.4450502,2.832,7.8529506
1680002218533,1182206886033011,6.4480505,2.7859502,7.8840003
1680002218534,1182206888535164,6.3900003,2.8150501,7.8910503
1680002218537,1182206891037318,6.43305,2.7960002,7.8409505
1680002218539,1182206893539241,6.40395,2.7889502,8.02095
1680002218541,1182206896041395,6.3810005,2.7529502,7.8820505
1680002218546,1182206898543751,6.3640504,2.8819501,8.03505
1680002218547,1182206901045905,6.3850503,2.8290002,7.9729505
1680002218548,1182206903547828,6.3370504,2.7169502,7.9339504
1680002218550,1182206906049982,6.321,2.7810001,7.8840003
1680002218553,1182206908552135,6.34005,2.8170002,7.86705
1680002218557,1182206911054294,6.32805,2.72895,7.9579506
1680002218559,1182206913556448,6.2200503,2.6899502,7.9510503
1680002218562,1182206916058602,6.249,2.7120001,7.9080005
1680002218564,1182206918560756,6.25605,2.72895,7.9920006
1680002218568,1182206921062847,6.2059503,2.7529502,7.965
1680002218570,1182206923565001,6.2100005,2.6550002,7.932
1680002218572,1182206926067155,6.16695,2.76195,7.9680004
1680002218573,1182206928569308,6.1459503,2.736,7.9990506
1680002218576,1182206931071452,6.1789503,2.70705,7.8940506
1680002218579,1182206933573606,6.15105,2.71005,7.99695
1680002218581,1182206936075760,6.1270504,2.6590502,7.9150505
1680002218583,1182206938577683,6.0979505,2.6430001,7.9440002
1680002218586,1182206941079833,6.1270504,2.7529502,7.8700504
1680002218588,1182206943581987,6.1270504,2.5759501,7.9459505
1680002218590,1182206946084371,6.1459503,2.6569502,7.96995
1680002218593,1182206948586294,6.1050005,2.628,7.9270506
1680002218597,1182206951088433,6.117,2.63505,7.80705
1680002218599,1182206953590587,6.1459503,2.6569502,7.8510003
1680002218602,1182206956092741,6.1600504,2.6899502,7.8030005
1680002218604,1182206958594818,6.1650004,2.592,7.8220506
1680002218608,1182206961096967,6.16305,2.64,7.7640004
1680002218610,1182206963599198,6.10995,2.6209502,7.8220506
1680002218613,1182206966101351,6.09105,2.595,7.7160006
1680002218615,1182206968603428,6.14295,2.49405,7.9099503
1680002218616,1182206971105582,6.1480503,2.5470002,7.7760005
1680002218618,1182206973607747,6.0430503,2.628,7.7359505
1680002218620,1182206976109901,6.0720005,2.5800002,7.7070003
1680002218623,1182206978612055,6.10305,2.667,7.7500505
1680002218626,1182206981114209,6.0160503,2.6500502,7.58895
1680002218629,1182206983616362,5.9610004,2.6950502,7.7119503
1680002218631,1182206986118315,5.9880004,2.66895,7.7860503
1680002218633,1182206988620468,5.94495,2.6230502,7.59705
1680002218636,1182206991122622,6.12405,2.71005,7.7689505
1680002218640,1182206993625021,6.06405,2.6470501,7.69995
1680002218641,1182206996126944,6.0040503,2.6089501,7.7190003
1680002218643,1182206998629098,5.94,2.7120001,7.7160006
1680002218647,1182207001131252,6.0400505,2.63295,7.65705
1680002218649,1182207003633405,5.9830503,2.5870502,7.75995
1680002218651,1182207006135559,6.0040503,2.5830002,7.66095
1680002218653,1182207008637636,5.9880004,2.6899502,7.8190503
1680002218657,1182207011139867,6.06405,2.5729501,7.6780505
1680002218658,1182207013642021,6.06195,2.59695,7.7239504
1680002218662,1182207016144098,6.0280504,2.5870502,7.6210504
1680002218664,1182207018646252,6.0280504,2.5780501,7.7239504
1680002218666,1182207021148406,5.9710503,2.6449502,7.6330504
1680002218668,1182207023650329,6.05205,2.59695,7.6900506
1680002218671,1182207026152699,6.03105,2.6500502,7.695
1680002218673,1182207028654853,5.97795,2.50395,7.5730505
1680002218677,1182207031157007,5.9760003,2.4769502,7.68795
1680002218679,1182207033658930,5.95695,2.6140501,7.695
1680002218681,1182207036161093,5.90595,2.6140501,7.6849504
1680002218683,1182207038663247,5.9209504,2.5129502,7.6210504
1680002218687,1182207041165401,5.9710503,2.5540502,7.6849504
1680002218689,1182207043667554,5.8660502,2.559,7.79295
1680002218691,1182207046169708,5.95905,2.6110501,7.7380505
1680002218693,1182207048671862,5.9710503,2.47305,7.7880006
1680002218697,1182207051174016,5.8390503,2.63805,7.68795
1680002218699,1182207053676093,5.88495,2.532,7.7809505
1680002218701,1182207056178247,5.9160004,2.568,7.75995
1680002218703,1182207058680507,5.84205,2.631,7.7760005
1680002218709,1182207061182583,5.9160004,2.5729501,7.8150005
1680002218710,1182207063684737,5.9880004,2.63805,7.8240004
1680002218712,1182207066186891,5.9329505,2.6140501,7.8700504
1680002218715,1182207068689083,5.9830503,2.6140501,7.8840003
1680002218717,1182207071191237,5.9880004,2.595,7.8510003
1680002218719,1182207073693391,6.0690002,2.6880002,7.8769503
1680002218721,1182207076195545,6.0600004,2.71005,7.93905
1680002218723,1182207078697698,6.1390505,2.70495,8.05605
1680002218727,1182207081199617,6.2029505,2.77905,7.9489503
1680002218729,1182207083701770,6.249,2.80095,7.8510003
1680002218731,1182207086203924,6.2730002,2.8150501,7.8510003
1680002218733,1182207088706078,6.2730002,2.7,7.9579506
1680002218737,1182207091208218,6.29895,2.79795,7.9849505
1680002218738,1182207093710372,6.3250504,2.6569502,7.9680004
1680002218741,1182207096212526,6.306,2.7169502,7.9920006
1680002218743,1182207098714679,6.3490505,2.736,8.01
1680002218746,1182207101216862,6.5190005,2.69805,7.99695
1680002218748,1182207103719016,6.4090505,2.832,7.9870505
1680002218752,1182207106221170,6.41895,2.7529502,8.0119505
1680002218755,1182207108723247,6.3370504,2.6950502,7.9219503
1680002218756,1182207111225406,6.4140005,2.7120001,8.001
1680002218759,1182207113727560,6.43095,2.7580502,8.023951
1680002218762,1182207116229790,6.4399505,2.7810001,8.0449505
1680002218763,1182207118731867,6.3570004,2.7840002,8.0119505
1680002218767,1182207121234034,6.36105,2.7190502,8.061001
1680002218769,1182207123736188,6.333,2.7169502,8.05395
1680002218771,1182207126238342,6.3490505,2.83905,7.9990506
1680002218773,1182207128740265,6.3520503,2.76195,8.02305
1680002218776,1182207131242419,6.3450003,2.66895,7.9920006
1680002218778,1182207133744798,6.3250504,2.7190502,8.04705
1680002218781,1182207136246952,6.3090005,2.7240002,7.9180503
1680002218784,1182207138748875,6.2970004,2.83695,7.8960004
1680002218787,1182207141251029,6.28695,2.808,8.04195
1680002218790,1182207143753189,6.3349504,2.841,7.8600006
1680002218792,1182207146255343,6.25395,2.8219502,7.827
1680002218795,1182207148757497,6.1699505,2.7600002,7.8510003
1680002218797,1182207151259651,6.249,2.805,7.767
1680002218799,1182207153761805,6.1459503,2.8579502,7.8220506
1680002218801,1182207156263857,6.249,2.7769501,7.7500505
1680002218803,1182207158766011,6.16305,2.8650002,7.728
1680002218807,1182207161268165,6.1270504,2.8249502,7.7260504
1680002218809,1182207163770319,6.2419505,2.9299502,7.5820503
1680002218812,1182207166272454,6.1410003,2.8219502,7.5660005
1680002218813,1182207168774608,6.1480503,2.8890002,7.63005
1680002218816,1182207171276762,6.1309505,3.045,7.6590004
1680002218818,1182207173778915,6.117,2.9950502,7.6090503
1680002218821,1182207176280839,6.2100005,2.8630502,7.5439506
1680002218823,1182207178782997,6.3450003,2.805,7.419
1680002218828,1182207181285382,6.34005,2.8129501,7.5420003
1680002218829,1182207183787305,6.4549503,2.7600002,7.4749503
1680002218831,1182207186289483,6.3450003,2.76495,7.48395
1680002218833,1182207188791637,6.3229504,2.67105,7.49595
1680002218836,1182207191293791,6.43095,2.6449502,7.6009502
1680002218838,1182207193795868,6.43095,2.6569502,7.5060005
1680002218840,1182207196298098,6.354,2.6140501,7.4670005
1680002218843,1182207198800251,6.366,2.595,7.5940504
1680002218847,1182207201302405,6.366,2.568,7.5150003
1680002218849,1182207203804559,6.3300004,2.559,7.5510006
1680002218851,1182207206306636,6.28695,2.5900502,7.4940004
1680002218854,1182207208808781,6.45195,2.6449502,7.62795
1680002218856,1182207211310935,6.3490505,2.631,7.6039505
1680002218858,1182207213813088,6.294,2.5440001,7.6780505
1680002218862,1182207216315242,6.2509503,2.592,7.5270004
1680002218865,1182207218817396,6.1699505,2.6809502,7.6540504
1680002218867,1182207221319550,6.07905,2.6569502,7.623
1680002218870,1182207223821473,5.985,2.6110501,7.6800003
1680002218873,1182207226323627,5.9490004,2.6550002,7.8100505
1680002218875,1182207228826011,5.952,2.6569502,7.77405
1680002218877,1182207231328131,5.8320003,2.74305,7.79505
1680002218880,1182207233830054,5.7190504,2.73405,7.7790003
1680002218881,1182207236332208,5.6599503,2.8150501,7.9009504
1680002218883,1182207238834362,5.6599503,2.7600002,7.86495
1680002218887,1182207241336521,5.58795,2.7480001,7.9099503
1680002218889,1182207243838598,5.6620502,2.73405,7.9219503
1680002218891,1182207246340829,5.6620502,2.70495,7.9420505
1680002218894,1182207248842983,5.6020503,2.832,7.8580503
1680002218897,1182207251345088,5.6119504,2.7499502,8.017051
1680002218899,1182207253847242,5.6620502,2.7190502,7.872
1680002218903,1182207256349396,5.58795,2.7859502,8.002951
1680002218905,1182207258851550,5.6190004,2.73405,8.017051
1680002218909,1182207261353704,5.6239505,2.664,8.061001
1680002218910,1182207263855858,5.715,2.7139502,8.059051
1680002218911,1182207266358012,5.7460504,2.6550002,8.10705
1680002218914,1182207268860165,5.7790504,2.628,8.109
1680002218917,1182207271362060,5.8489504,2.6260502,8.023951
1680002218919,1182207273864213,5.9280005,2.628,8.052
1680002218921,1182207276366367,5.8819504,2.67405,8.029051
1680002218924,1182207278868752,5.94495,2.6569502,8.097
1680002218927,1182207281370694,6.0930004,2.64,8.03505
1680002218929,1182207283872848,6.0760503,2.6449502,8.112
1680002218931,1182207286375002,6.15495,2.63295,8.005051
1680002218934,1182207288877079,6.0880504,2.592,7.99695
1680002218937,1182207291379232,6.1410003,2.60205,7.9819503
1680002218940,1182207293881459,6.096,2.5780501,7.977
1680002218941,1182207296383613,6.2370005,2.64,8.001
1680002218944,1182207298885767,6.2029505,2.568,8.01
1680002218946,1182207301387844,6.16695,2.6190002,7.9990506
1680002218949,1182207303889998,6.2299504,2.6110501,7.9440002
1680002218951,1182207306392190,6.3130503,2.7600002,7.872
1680002218953,1182207308894343,6.34005,2.59905,7.9200006
1680002218956,1182207311396497,6.4120502,2.63505,7.77405
1680002218958,1182207313898651,6.4279504,2.664,7.839
1680002218961,1182207316400805,6.3490505,2.7,7.7980504
1680002218964,1182207318902679,6.4759502,2.6520002,7.7310004
1680002218967,1182207321404833,6.4999504,2.6449502,7.75995
1680002218969,1182207323906987,6.4429502,2.6790001,7.8580503
1680002218971,1182207326409371,6.43095,2.6860502,7.728
1680002218974,1182207328911323,6.531,2.76195,7.7790003
1680002218978,1182207331413477,6.4840503,2.8129501,7.80495
1680002218980,1182207333915631,6.5170503,2.83905,7.8150005
1680002218981,1182207336417708,6.5839505,2.70495,7.7479506
1680002218984,1182207338919881,6.56505,2.7859502,7.7860503
1680002218986,1182207341422112,6.5839505,2.7910502,7.6590004
1680002218989,1182207343924189,6.558,2.8270502,7.7260504
1680002218992,1182207346426342,6.47205,2.7810001,7.6590004
1680002218994,1182207348928261,6.5340004,2.8270502,7.7190003
1680002218997,1182207351430645,6.49305,2.79795,7.7640004
1680002218999,1182207353932799,6.4140005,2.7960002,7.7310004
1680002219001,1182207356434953,6.3229504,2.76705,7.7359505
1680002219004,1182207358936833,6.4500003,2.7480001,7.7760005
1680002219007,1182207361438987,6.3229504,2.7810001,7.7860503
1680002219009,1182207363941141,6.2730002,2.7840002,7.80705
1680002219012,1182207366443294,6.30105,2.77005,7.7980504
1680002219015,1182207368945453,6.3090005,2.80995,7.9080005
1680002219017,1182207371447607,6.12405,2.7460501,7.7209506
1680002219019,1182207373949761,6.13395,2.80995,7.8120003
1680002219021,1182207376451838,6.15495,2.79795,7.8460503
1680002219023,1182207378953992,6.096,2.736,7.9099503
1680002219026,1182207381456155,6.0930004,2.844,7.9129505
1680002219029,1182207383958385,6.0979505,2.7960002,7.8739505
1680002219031,1182207386460462,6.01905,2.8650002,7.8409505
1680002219035,1182207388962616,6.0720005,2.808,7.872
1680002219036,1182207391464765,6.0259504,2.9320502,7.9080005
1680002219039,1182207393966919,5.9659505,2.9299502,7.8859506
1680002219041,1182207396468842,6.0000005,2.8890002,7.8409505
1680002219043,1182207398970996,5.94705,2.80995,7.80705
1680002219047,1182207401473400,5.9209504,2.805,7.9750504
1680002219049,1182207403975553,5.95695,2.8870502,7.9440002
1680002219052,1182207406477476,5.9490004,2.8630502,7.9219503
1680002219054,1182207408979630,5.8699503,2.904,7.9200006
1680002219057,1182207411481784,5.9160004,2.9299502,7.9870505
1680002219066,1182207413983938,5.8180504,2.86995,7.89795
1680002219066,1182207416486092,5.8440003,2.90595,7.9080005
1680002219066,1182207418988246,5.8060503,2.8630502,7.89795
1680002219067,1182207421490391,5.892,2.9200501,7.9080005
1680002219068,1182207423992544,5.8900504,2.841,7.8840003
1680002219071,1182207426494621,5.8630505,2.904,7.8430505
1680002219074,1182207428996775,5.8630505,2.868,7.89795
1680002219076,1182207431499015,5.84595,2.90595,7.8889503
1680002219079,1182207434001169,5.808,2.7930002,7.8360004
1680002219081,1182207436503246,5.92995,2.7910502,7.8529506
1680002219084,1182207439005400,5.9209504,2.7840002,7.8769503
1680002219087,1182207441507563,5.81295,2.8219502,7.8739505
1680002219090,1182207444009487,5.88495,2.8200002,7.9300504
1680002219092,1182207446511640,5.9490004,2.8129501,7.8
1680002219096,1182207449014025,6.0040503,2.7889502,7.8190503
1680002219098,1182207451516150,6.0930004,2.808,7.8120003
1680002219100,1182207454018073,5.997,2.772,7.7790003
1680002219102,1182207456520227,6.0880504,2.74305,7.7809505
1680002219104,1182207459022381,6.10995,2.7240002,7.79295
1680002219107,1182207461524534,6.04995,2.7810001,7.79295
1680002219109,1182207464026693,6.1050005,2.7139502,7.7520003
1680002219111,1182207466528847,6.0480003,2.7580502,7.75995
1680002219114,1182207469031001,6.129,2.8150501,7.7689505
1680002219116,1182207471533155,6.2100005,2.808,7.70205
1680002219118,1182207474035232,6.1069503,2.7550502,7.8889503
1680002219121,1182207476537357,6.1699505,2.7460501,7.73295
1680002219123,1182207479039511,6.18405,2.7550502,7.76205
1680002219128,1182207481541741,6.2389503,2.76495,7.7449503
1680002219130,1182207484043818,6.222,2.7220502,7.79505
1680002219132,1182207486546021,6.2509503,2.8609502,7.7640004
1680002219133,1182207489048175,6.22695,2.60205,7.80705
1680002219136,1182207491550098,6.21495,2.805,7.8150005
1680002219138,1182207494052252,6.1980004,2.7499502,7.8460503
1680002219141,1182207496554637,6.2320504,2.7259502,7.7550006
1680002219145,1182207499056761,6.249,2.7139502,7.8030005
1680002219147,1182207501558684,6.36105,2.592,7.7500505
1680002219148,1182207504060838,6.2440505,2.76495,7.827
1680002219151,1182207506562992,6.3130503,2.8150501,7.90605
1680002219153,1182207509065146,6.18405,2.808,7.8
1680002219156,1182207511567300,6.25395,2.8290002,7.8510003
1680002219159,1182207514069454,6.2200503,2.7460501,7.86495
1680002219162,1182207516571608,6.2100005,2.72895,7.79295
1680002219165,1182207519073756,6.16695,2.7769501,7.8790503
1680002219168,1182207521575833,6.12195,2.8170002,7.76205
1680002219170,1182207524077987,6.13395,2.7220502,7.80495
1680002219172,1182207526580141,6.0979505,2.7240002,7.8960004
1680002219173,1182207529082372,6.13605,2.8939502,7.8529506
1680002219176,1182207531584473,6.117,2.72895,7.9219503
1680002219179,1182207534086627,6.0280504,2.7529502,7.8240004
1680002219181,1182207536588780,6.096,2.7190502,7.8430505
1680002219183,1182207539090704,6.057,2.71005,7.9510503
1680002219186,1182207541592852,5.9710503,2.7960002,8.017051
1680002219188,1182207544095237,6.0259504,2.832,7.8600006
1680002219191,1182207546597391,6.0330005,2.77905,7.9579506
1680002219193,1182207549099314,6.0139503,2.7930002,7.9080005
1680002219197,1182207551601468,6.0930004,2.90805,7.9560003
1680002219199,1182207554103622,6.0930004,2.77005,7.9750504
1680002219202,1182207556605775,6.0019503,2.736,7.8769503
1680002219204,1182207559107852,6.0000005,2.83395,7.8960004
1680002219209,1182207561610088,6.0070505,2.8170002,7.8910503
1680002219212,1182207564112242,6.117,2.7910502,7.9300504
1680002219212,1182207566614396,6.117,2.8150501,7.7569504
1680002219214,1182207569116473,6.1189504,2.8270502,7.8840003
1680002219216,1182207571618622,6.1309505,2.8890002,7.89795
1680002219219,1182207574120776,6.0480003,2.7889502,7.8739505
1680002219221,1182207576623006,6.1530004,2.7960002,7.8360004
1680002219224,1182207579125083,6.15495,2.80995,7.93695
1680002219226,1182207581627237,6.1600504,2.805,7.8889503
1680002219228,1182207584129386,6.1699505,2.7840002,7.8430505
1680002219231,1182207586631540,6.1720505,2.70705,7.8310504
1680002219234,1182207589133463,6.1720505,2.83395,7.79295
1680002219236,1182207591635847,6.18195,2.7,7.6900506
1680002219240,1182207594137972,6.2320504,2.7220502,7.7449503
1680002219242,1182207596639895,6.1309505,2.736,7.7310004
1680002219245,1182207599142049,6.1390505,2.76195,7.70205
1680002219247,1182207601644126,6.1150503,2.7910502,7.6110005
1680002219249,1182207604146357,6.1750503,2.8459501,7.70205
1680002219251,1182207606648502,6.0859504,2.73405,7.7260504
1680002219253,1182207609150656,6.1909504,2.7960002,7.7430005
1680002219256,1182207611652733,6.1980004,2.6899502,7.69995
1680002219259,1182207614154886,6.1390505,2.7550502,7.6800003
1680002219262,1182207616657025,6.1789503,2.7,7.6900506
1680002219263,1182207619159256,6.1909504,2.77905,7.6369505
1680002219266,1182207621661333,6.13395,2.664,7.6710005
1680002219268,1182207624163487,6.10995,2.77905,7.5919504
1680002219271,1182207626665641,6.06195,2.77005,7.6710005
1680002219274,1182207629167790,6.13605,2.70705,7.6060505
1680002219278,1182207631669713,6.0070505,2.74095,7.5319505
1680002219280,1182207634172097,6.0379505,2.805,7.5820503
1680002219281,1182207636674251,6.0379505,2.841,7.5820503
1680002219284,1182207639176405,6.0400505,2.8219502,7.4790006
1680002219287,1182207641678328,6.0600004,2.72895,7.5660005
1680002219289,1182207644180482,5.973,2.87505,7.6129503
1680002219291,1182207646682636,5.98995,2.844,7.518
1680002219293,1182207649184728,6.012,2.77395,7.6710005
1680002219297,1182207651686958,5.9710503,2.8489501,7.623
1680002219299,1182207654189112,6.0280504,2.8510501,7.635
1680002219301,1182207656691266,6.0360003,2.72895,7.63005
1680002219303,1182207659193338,6.05205,2.6880002,7.6489506
1680002219307,1182207661695492,6.1189504,2.77905,7.6489506
1680002219308,1182207664197646,6.0480003,2.6110501,7.7359505
1680002219312,1182207666699877,6.1309505,2.6809502,7.65705
1680002219315,1182207669201964,6.0979505,2.6500502,7.6540504
1680002219318,1182207671704117,6.1309505,2.7259502,7.7430005
1680002219320,1182207674206271,6.10305,2.7,7.7430005
1680002219322,1182207676708425,6.0810003,2.6809502,7.69995
1680002219324,1182207679210357,6.10995,2.71005,7.7160006
1680002219327,1182207681712511,6.129,2.69295,7.6900506
1680002219330,1182207684214896,6.057,2.67105,7.8289504
1680002219331,1182207686717049,6.0600004,2.805,7.8240004
1680002219333,1182207689218988,5.9419503,2.63295,7.79295
1680002219336,1182207691721141,6.0210004,2.7480001,7.8619504
1680002219339,1182207694223295,5.985,2.67405,7.8619504
1680002219341,1182207696725372,5.94495,2.67405,7.839
1680002219344,1182207699227593,5.9040003,2.70195,7.9270506
1680002219347,1182207701729747,5.9830503,2.6830502,8.0119505
1680002219349,1182207704231901,5.9370003,2.66895,7.9180503
1680002219353,1182207706733978,5.9610004,2.8290002,7.9300504
1680002219354,1182207709236141,5.892,2.70495,7.9009504
1680002219357,1182207711738295,5.9659505,2.76495,7.9920006
1680002219359,1182207714240526,6.0259504,2.74305,7.96995
1680002219361,1182207716742603,5.9370003,2.66205,8.029051
1680002219364,1182207719244757,5.97795,2.7910502,7.99695
1680002219368,1182207721746896,5.964,2.70705,8.02095
1680002219370,1182207724249050,5.9809504,2.6569502,7.9939504
1680002219372,1182207726750973,5.8969502,2.67105,7.9339504
1680002219374,1182207729253127,6.0400505,2.676,7.9819503
1680002219377,1182207731755502,5.9710503,2.7190502,8.017051
1680002219380,1182207734257656,6.045,2.70195,7.9920006
1680002219382,1182207736759579,6.0720005,2.70705,8.101951
1680002219384,1182207739261733,6.1459503,2.70705,7.9990506
1680002219387,1182207741763906,6.2130003,2.70705,8.052
1680002219390,1182207744266060,6.0880504,2.66895,8.017051
1680002219392,1182207746768213,6.1650004,2.73405,8.005051
1680002219394,1182207749270367,6.11205,2.66205,7.9440002
1680002219398,1182207751772511,6.18195,2.83695,7.9870505
1680002219400,1182207754274665,6.2080503,2.74305,7.9560003
1680002219402,1182207756776742,6.234,2.73105,7.83405
1680002219404,1182207759278896,6.25395,2.736,7.8310504
1680002219408,1182207761781060,6.321,2.7499502,7.8910503
1680002219410,1182207764283214,6.3160505,2.7810001,7.86495
1680002219412,1182207766785367,6.3229504,2.7529502,7.8700504
1680002219414,1182207769287521,6.3810005,2.77905,7.8529506
1680002219416,1182207771789675,6.3949504,2.8270502,7.965
1680002219419,1182207774291608,6.306,2.76705,7.8820505
1680002219421,1182207776793762,6.29895,2.77395,7.83405
1680002219424,1182207779296147,6.32805,2.8840501,7.79505
1680002219429,1182207781798300,6.3570004,2.79795,7.9680004
1680002219431,1182207784300238,6.4480505,2.80305,7.7860503
1680002219432,1182207786802391,6.3160505,2.8129501,7.7550006
1680002219434,1182207789304545,6.3570004,2.8219502,7.7880006
1680002219437,1182207791806699,6.2700005,2.7910502,7.7359505
1680002219439,1182207794308776,6.3090005,2.7240002,7.75995
1680002219441,1182207796811021,6.2130003,2.77005,7.7809505
1680002219445,1182207799313175,6.3090005,2.77005,7.7140503
1680002219448,1182207801815329,6.25605,2.8459501,7.8
1680002219449,1182207804317405,6.22695,2.76195,7.8430505
1680002219451,1182207806819559,6.3180003,2.7810001,7.7880006
1680002219454,1182207809321713,6.19605,2.841,7.7400002
1680002219457,1182207811823867,6.1699505,2.7550502,7.8220506
1680002219459,1182207814326021,6.2130003,2.841,7.7520003
1680002219462,1182207816828175,6.2320504,2.7190502,7.7809505
1680002219465,1182207819330315,6.1309505,2.76705,7.7640004
1680002219468,1182207821832238,6.14295,2.8170002,7.7160006
1680002219470,1182207824334392,6.084,2.67405,7.7070003
1680002219471,1182207826836776,6.15495,2.7499502,7.7190003
1680002219474,1182207829338935,6.0720005,2.868,7.6849504
1680002219477,1182207831840858,6.2700005,2.7139502,7.7760005
1680002219479,1182207834343012,6.1050005,2.76495,7.8030005
1680002219481,1182207836845166,6.0810003,2.73105,7.6639504
1680002219485,1182207839347310,6.045,2.7139502,7.7160006
1680002219488,1182207841849387,6.06195,2.63805,7.7569504
1680002219490,1182207844351617,6.0330005,2.72895,7.7640004
1680002219492,1182207846853694,6.0600004,2.7259502,7.79505
1680002219495,1182207849355815,5.9929504,2.6860502,7.6489506
1680002219498,1182207851857969,6.1270504,2.74305,7.7550006
1680002219501,1182207854360123,5.9490004,2.7529502,7.7310004
1680002219503,1182207856862277,5.9760003,2.6809502,7.7380505
1680002219506,1182207859364421,5.9539504,2.6860502,7.7760005
1680002219508,1182207861866344,5.9280005,2.628,7.68795
1680002219510,1182207864368497,5.95695,2.6209502,7.7500505
1680002219514,1182207866870651,5.9040003,2.6569502,7.7569504
1680002219514,1182207869373036,6.0070505,2.5399501,7.7689505
1680002219517,1182207871874969,5.88495,2.64,7.8739505
1680002219520,1182207874377123,6.0139503,2.523,7.7479506
1680002219522,1182207876879277,5.97795,2.628,7.8289504
1680002219525,1182207879381354,5.9089503,2.56605,7.728
1680002219529,1182207881883526,5.98995,2.667,7.7860503
1680002219531,1182207884385680,5.8510504,2.46105,7.7449503
1680002219532,1182207886887911,5.88,2.5800002,7.767
1680002219534,1182207889389988,5.83395,2.47005,7.6849504
1680002219537,1182207891892142,5.9089503,2.4439502,7.6450505
1680002219540,1182207894394296,5.87505,2.45805,7.7980504
1680002219542,1182207896896450,5.9110503,2.5900502,7.7689505
1680002219544,1182207899398373,5.94705,2.56395,7.7760005
1680002219547,1182207901900757,5.9280005,2.5900502,7.7140503
1680002219549,1182207904402911,6.07905,2.60205,7.7830505
1680002219551,1182207906905074,6.0070505,2.60205,7.6729503
1680002219554,1182207909406997,6.0430503,2.6089501,7.8100505
1680002219557,1182207911909151,6.1069503,2.6209502,7.8910503
1680002219559,1182207914411305,6.0810003,2.607,7.7569504
1680002219562,1182207916913440,6.12195,2.6830502,7.8360004
1680002219564,1182207919415594,6.0979505,2.6790001,7.8840003
1680002219568,1182207921917747,6.1530004,2.70495,7.9180503
1680002219569,1182207924419901,6.1530004,2.6110501,7.9800005
1680002219571,1182207926922084,6.2130003,2.7460501,7.8529506
1680002219574,1182207929424161,6.2440505,2.6430001,7.8360004
1680002219578,1182207931926315,6.1789503,2.7859502,7.9099503
1680002219579,1182207934428546,6.2899504,2.70195,7.8550506
1680002219581,1182207936930642,6.249,2.73795,7.9459505
1680002219584,1182207939432795,6.2419505,2.7769501,7.99695
1680002219587,1182207941934949,6.18195,2.70705,7.9890003
1680002219589,1182207944437103,6.2029505,2.8489501,7.9129505
1680002219591,1182207946939026,6.2460003,2.7580502,7.86705
1680002219594,1182207949441411,6.10305,2.7139502,7.8240004
1680002219597,1182207951943565,6.16695,2.80305,7.8580503
1680002219599,1182207954445719,6.10305,2.841,7.8480005
1680002219601,1182207956947642,6.19395,2.7840002,7.8739505
1680002219604,1182207959449809,6.1069503,2.805,7.7910004
1680002219608,1182207961951963,6.16305,2.8510501,7.8550506
1680002219609,1182207964454117,6.18405,2.8459501,7.8310504
1680002219612,1182207966956271,6.22695,2.86995,7.9180503
1680002219616,1182207969458440,6.1870503,2.8579502,7.8460503
1680002219618,1182207971960594,6.16305,2.8960502,7.7190003
1680002219620,1182207974462748,6.129,2.9179502,7.8700504
1680002219621,1182207976964824,6.1699505,2.94195,7.8030005
1680002219624,1182207979466963,6.0720005,2.8960502,7.9440002
1680002219627,1182207981969194,6.0480003,3.0190501,7.8220506
1680002219629,1182207984471271,6.1069503,3.0499501,7.7980504
1680002219632,1182207986973425,6.1909504,3.0640502,7.8190503
1680002219634,1182207989475608,6.13395,3.07395,7.8529506
1680002219637,1182207991977762,6.1459503,3.04305,7.8150005
1680002219639,1182207994479685,6.12195,3.04695,7.767
1680002219641,1182207996981839,6.1459503,3.0349503,7.7260504
1680002219645,1182207999484233,6.1309505,3.0949502,7.77405
1680002219648,1182208001986387,6.201,2.9610002,7.8100505
1680002219650,1182208004488310,6.1600504,3.0550501,7.7380505
1680002219653,1182208006990464,6.1459503,2.9950502,7.7569504
1680002219655,1182208009492618,6.1480503,3.07605,7.6710005
1680002219657,1182208011994772,6.0690002,3.00195,7.7239504
1680002219659,1182208014496926,6.1750503,3.009,7.8169503
1680002219662,1182208016999079,6.2130003,2.9640002,7.7479506
1680002219664,1182208019501233,6.1309505,2.9539502,7.7380505
1680002219667,1182208022003391,6.2730002,2.94,7.6759505
1680002219669,1182208024505468,6.19605,2.8270502,7.8430505
1680002219671,1182208027007622,6.16695,2.8170002,7.6900506
1680002219674,1182208029509853,6.2250004,2.805,7.6920004
1680002219677,1182208032011930,6.2389503,2.83695,7.695
1680002219679,1182208034514083,6.2059503,2.76195,7.7449503
1680002219682,1182208037016237,6.19605,2.83395,7.6920004
1680002219693,1182208039518391,6.2419505,2.83695,7.7160006
1680002219694,1182208042020324,6.3349504,2.7810001,7.7239504
1680002219694,1182208044522478,6.2419505,2.8150501,7.695
1680002219694,1182208047024863,6.2629504,2.7769501,7.63005
1680002219697,1182208049527017,6.2580004,2.7600002,7.7310004
1680002219699,1182208052028925,6.2460003,2.772,7.6249504
1680002219700,1182208054531078,6.2580004,2.77905,7.6450505
1680002219702,1182208057033232,6.3090005,2.77005,7.5660005
1680002219704,1182208059535386,6.2920504,2.71005,7.6420503
1680002219707,1182208062037540,6.321,2.80995,7.6780505
1680002219709,1182208064539704,6.37305,2.86995,7.69995
1680002219712,1182208067041858,6.25605,2.76195,7.6489506
1680002219715,1182208069544012,6.2899504,2.7810001,7.6849504
1680002219718,1182208072046088,6.3130503,2.79795,7.58895
1680002219719,1182208074548228,6.2509503,2.6950502,7.623
1680002219722,1182208077050382,6.354,2.832,7.6420503
1680002219724,1182208079552536,6.306,2.76195,7.6330504
1680002219729,1182208082054690,6.2389503,2.7460501,7.76205
1680002219731,1182208084556834,6.3229504,2.76195,7.695
1680002219733,1182208087058988,6.2200503,2.76495,7.7119503
1680002219735,1182208089560911,6.1870503,2.6899502,7.7760005
1680002219738,1182208092063065,6.2419505,2.7480001,7.7190003
1680002219740,1182208094565449,6.25605,2.7889502,7.7449503
1680002219742,1182208097067338,6.1980004,2.7259502,7.7550006
1680002219746,1182208099569492,6.1480503,2.664,7.6800003
1680002219748,1182208102071646,6.1459503,2.7190502,7.6540504
1680002219749,1182208104573800,6.1459503,2.70705,7.6399503
1680002219751,1182208107075954,6.1720505,2.6470501,7.6969504
1680002219754,1182208109578089,6.0330005,2.73405,7.5870004
1680002219757,1182208112080242,5.997,2.69295,7.6900506
1680002219761,1182208114582319,6.0139503,2.631,7.5460505
1680002219765,1182208117084473,5.9689503,2.607,7.668
1680002219766,1182208119586627,5.9539504,2.7,7.6399503
1680002219769,1182208122088858,6.0040503,2.67105,7.6920004
1680002219771,1182208124590935,5.9760003,2.76195,7.6519504
1680002219773,1182208127093079,6.0360003,2.69295,7.7160006
1680002219776,1182208129595232,5.964,2.631,7.728
1680002219779,1182208132097386,6.0280504,2.7769501,7.8289504
1680002219780,1182208134599309,6.0550504,2.69295,7.6710005
1680002219782,1182208137101694,6.0810003,2.628,7.6399503
1680002219784,1182208139603839,6.0000005,2.6950502,7.7809505
1680002219787,1182208142105762,5.9809504,2.6520002,7.6710005
1680002219789,1182208144607916,5.9809504,2.7460501,7.58895
1680002219793,1182208147110070,6.0280504,2.7169502,7.5010505
1680002219796,1182208149612237,6.10995,2.7550502,7.5820503
1680002219798,1182208152114622,5.9830503,2.7930002,7.563
1680002219799,1182208154616545,6.024,2.772,7.6519504
1680002219803,1182208157118699,5.985,2.7190502,7.7710505
1680002219807,1182208159620800,5.9929504,2.7550502,7.7500505
1680002219810,1182208162122877,5.90595,2.6899502,7.6039505
1680002219811,1182208164625031,5.925,2.7769501,7.7809505
1680002219813,1182208167127184,5.8819504,2.736,7.7449503
1680002219815,1182208169629415,5.9329505,2.7550502,7.8550506
1680002219817,1182208172131462,5.8939505,2.74305,7.872
1680002219819,1182208174633616,5.85795,2.74305,7.86705
1680002219822,1182208177135770,5.8900504,2.69295,7.8859506
1680002219824,1182208179637924,5.95905,2.72895,7.8889503
1680002219827,1182208182139843,5.9710503,2.70705,7.9099503
1680002219829,1182208184642227,5.9610004,2.6950502,7.8240004
1680002219831,1182208187144381,5.9760003,2.66895,7.8700504
1680002219834,1182208189646535,6.0070505,2.7529502,7.9300504
1680002219837,1182208192148458,6.0139503,2.7460501,7.9540505
1680002219840,1182208194650640,6.0160503,2.76195,7.9440002
1680002219842,1182208197152794,6.0070505,2.7840002,8.0119505
1680002219846,1182208199654871,5.97795,2.77905,8.035951
1680002219849,1182208202157078,6.0019503,2.8290002,8.03295
1680002219850,1182208204659231,6.0040503,2.868,8.01
1680002219852,1182208207161385,6.0930004,2.913,8.104051
1680002219854,1182208209663462,6.0810003,2.877,8.049001
1680002219857,1182208212165616,6.0859504,2.9299502,8.11905
1680002219859,1182208214667756,6.1459503,2.913,8.137051
1680002219862,1182208217169987,6.1699505,2.9610002,8.19495
1680002219864,1182208219672064,6.2370005,2.9200501,8.215051
1680002219867,1182208222174218,6.18405,2.9680502,8.03505
1680002219869,1182208224676380,6.2899504,3.0229502,8.20695
1680002219872,1182208227178534,6.321,2.937,8.16705
1680002219874,1182208229680457,6.36105,2.9970002,8.20995
1680002219879,1182208232182611,6.282,2.98005,8.121
1680002219880,1182208234685016,6.3810005,2.9560502,8.122951
1680002219882,1182208237187170,6.3850503,2.90805,8.167951
1680002219884,1182208239689093,6.3229504,2.8560002,8.083051
1680002219888,1182208242191247,6.3640504,2.8650002,8.00895
1680002219889,1182208244693400,6.4620004,2.841,8.04705
1680002219892,1182208247195491,6.354,2.8150501,7.99695
1680002219895,1182208249697722,6.37305,2.83905,7.9630504
1680002219898,1182208252199876,6.2899504,2.8170002,7.872
1680002219900,1182208254702030,6.39195,2.8249502,7.9489503
1680002219901,1182208257204121,6.3229504,2.73795,7.93905
1680002219904,1182208259706275,6.3180003,2.8560002,7.8169503
1680002219907,1182208262208428,6.3469505,2.7889502,7.8220506
1680002219909,1182208264710659,6.29895,2.7550502,7.73295
1680002219912,1182208267212765,6.333,2.76195,7.6369505
1680002219916,1182208269714919,6.35895,2.8819501,7.66095
1680002219918,1182208272217073,6.306,2.80305,7.6800003
1680002219920,1182208274719227,6.30105,2.808,7.6249504
1680002219922,1182208277221165,6.30105,2.76195,7.5460505
1680002219924,1182208279723319,6.3300004,2.832,7.6420503
1680002219931,1182208282225703,6.3469505,2.7889502,7.58895
1680002219932,1182208284727857,6.354,2.877,7.5199504
1680002219933,1182208287229780,6.30105,2.877,7.6110005
1680002219935,1182208289731938,6.3780003,2.8650002,7.5439506
1680002219937,1182208292234092,6.3229504,2.8290002,7.55805
1680002219939,1182208294736246,6.2920504,2.91105,7.5030003
1680002219942,1182208297238400,6.34005,2.8290002,7.563
1680002219945,1182208299740539,6.3040504,2.83395,7.48395
1680002219947,1182208302242693,6.2299504,2.8170002,7.5030003
1680002219949,1182208304744770,6.21495,2.83905,7.48605
1680002219953,1182208307246924,6.2800503,2.86995,7.52505
1680002219955,1182208309749059,6.2059503,2.79795,7.48395
1680002219958,1182208312251213,6.25605,2.86995,7.3999505
1680002219959,1182208314753367,6.1410003,2.8489501,7.49595
1680002219966,1182208317255521,6.2509503,2.7810001,7.4149504
1680002219968,1182208319757674,6.2200503,2.77905,7.4820004
1680002219969,1182208322259828,6.117,2.80305,7.4749503
1680002219971,1182208324761751,6.1480503,2.73795,7.4820004
1680002219972,1182208327263905,6.0810003,2.844,7.4700003
1680002219974,1182208329766290,6.0070505,2.808,7.5030003
1680002219977,1182208332268472,6.0379505,2.841,7.6159506
1680002219979,1182208334770395,6.0160503,2.7120001,7.48605
1680002219982,1182208337272549,6.0360003,2.71005,7.55595
1680002219984,1182208339774702,5.9659505,2.7480001,7.5319505
1680002219987,1182208342276881,5.9490004,2.77905,7.5850506
1680002219990,1182208344779035,5.87505,2.74095,7.5610504
1680002219992,1182208347281189,5.9280005,2.6790001,7.6759505
1680002219994,1182208349783266,5.88495,2.7,7.7520003
1680002219997,1182208352285440,5.8390503,2.70705,7.7400002
1680002219999,1182208354787671,5.7120004,2.6860502,7.7520003
1680002220002,1182208357289824,5.6860504,2.7460501,7.8120003
1680002220004,1182208359791901,5.7460504,2.6830502,7.68795
1680002220012,1182208362294050,5.736,2.6950502,7.8120003
1680002220012,1182208364796204,5.80305,2.6590502,7.839
1680002220014,1182208367298358,5.6929502,2.5470002,7.8529506
1680002220015,1182208369800281,5.71005,2.69295,7.8430505
1680002220017,1182208372302666,5.79405,2.6569502,7.8529506
1680002220020,1182208374804838,5.78205,2.6880002,7.93695
1680002220022,1182208377306762,5.79405,2.6569502,7.9200006
1680002220024,1182208379808915,5.8300505,2.6260502,7.9630504
1680002220028,1182208382311069,5.8560004,2.7169502,7.89795
1680002220030,1182208384813218,5.89905,2.7460501,7.9890003
1680002220032,1182208387315372,5.97795,2.7,8.06595
1680002220034,1182208389817526,5.9610004,2.7499502,8.083051
1680002220037,1182208392319680,5.9659505,2.66205,8.20995
1680002220039,1182208394821833,6.057,2.73795,8.112
1680002220042,1182208397323901,6.024,2.7139502,8.122951
1680002220045,1182208399826055,6.0739503,2.6430001,8.08005
1680002220048,1182208402328209,6.096,2.6809502,8.125951
1680002220050,1182208404830440,6.222,2.7550502,8.125951
1680002220052,1182208407332507,6.13605,2.664,8.023951
1680002220055,1182208409834661,6.282,2.6110501,8.064
1680002220057,1182208412336815,6.1699505,2.73405,8.04705
1680002220059,1182208414838968,6.22695,2.72895,8.052
1680002220062,1182208417340886,6.2419505,2.74095,8.0449505
1680002220066,1182208419843271,6.306,2.7499502,8.089951
1680002220068,1182208422345425,6.2580004,2.6790001,8.148001
1680002220070,1182208424847348,6.3520503,2.77005,8.181001
1680002220072,1182208427349516,6.3090005,2.7190502,8.071051
1680002220074,1182208429851670,6.222,2.77395,8.073
1680002220077,1182208432353824,6.234,2.6809502,8.10705
1680002220079,1182208434855901,6.2440505,2.7499502,8.04
1680002220082,1182208437358131,6.2100005,2.8200002,8.052
1680002220084,1182208439860261,6.2100005,2.8510501,8.03505
1680002220088,1182208442362415,6.2080503,2.80305,8.049001
1680002220089,1182208444864492,6.1650004,2.8459501,8.00895
1680002220092,1182208447366646,6.2700005,2.832,7.9099503
1680002220094,1182208449868819,6.2130003,2.9280002,7.86495
1680002220098,1182208452371049,6.0880504,2.8200002,7.9510503
1680002220099,1182208454873126,6.16695,2.8150501,7.8480005
1680002220103,1182208457375280,6.249,2.901,8.002951
1680002220105,1182208459877430,6.25605,2.808,7.872
1680002220108,1182208462379584,6.2130003,2.88,7.8240004
1680002220109,1182208464881507,6.2029505,2.73405,7.75995
1680002220113,1182208467383892,6.234,2.77905,7.8240004
1680002220115,1182208469886045,6.19605,2.7889502,7.7830505
1680002220117,1182208472387978,6.26805,2.8270502,7.7479506
1680002220119,1182208474890131,6.26805,2.77005,7.6039505
1680002220122,1182208477392285,6.2629504,2.76705,7.79505
1680002220124,1182208479894439,6.2179503,2.7859502,7.7860503
1680002220129,1182208482396516,6.2299504,2.71005,7.63005
1680002220131,1182208484898747,6.2700005,2.6500502,7.6849504
1680002220132,1182208487400901,6.22695,2.70195,7.6710005
1680002220134,1182208489903054,6.2370005,2.667,7.7449503
1680002220137,1182208492405131,6.25605,2.67105,7.6489506
1680002220140,1182208494907290,6.2440505,2.7169502,7.6729503
1680002220142,1182208497409444,6.1909504,2.664,7.6330504
1680002220144,1182208499911598,6.21495,2.69805,7.7710505
1680002220147,1182208502413752,6.15495,2.6430001,7.7239504
1680002220149,1182208504915906,6.2059503,2.6160002,7.7500505
1680002220152,1182208507418074,6.14295,2.6140501,7.6519504
1680002220154,1182208509920227,6.1309505,2.6809502,7.6159506
1680002220157,1182208512422150,6.0720005,2.7480001,7.4749503
1680002220159,1182208514924304,6.1770005,2.70705,7.58895
1680002220162,1182208517426689,6.1770005,2.7190502,7.55595
1680002220164,1182208519928602,6.1270504,2.8290002,7.5940504
1680002220168,1182208522430756,6.1189504,2.913,7.6159506
1680002220170,1182208524932910,6.1699505,2.8870502,7.69995
1680002220172,1182208527435049,6.13605,2.8609502,7.7359505
1680002220174,1182208529937126,6.07905,2.80995,7.7880006
1680002220179,1182208532439356,6.15495,2.79795,7.9200006
1680002220180,1182208534941510,6.06405,2.772,7.8480005
1680002220182,1182208537443660,6.1530004,2.77395,7.6900506
1680002220185,1182208539945737,6.1410003,2.8290002,7.7830505
1680002220187,1182208542447891,6.1270504,2.7889502,7.9270506
1680002220189,1182208544950045,6.0720005,2.74305,7.8310504
1680002220192,1182208547452275,6.0720005,2.77395,7.70205
1680002220195,1182208549954352,6.0979505,2.6809502,7.8600006
1680002220198,1182208552456506,6.0810003,2.7460501,7.7760005
1680002220200,1182208554958660,6.05205,2.7,7.7860503
1680002220202,1182208557460583,6.0139503,2.67105,7.6969504
1680002220204,1182208559962751,6.0000005,2.63505,7.8430505
1680002220208,1182208562464905,5.8939505,2.6550002,7.8580503
1680002220210,1182208564967289,5.9020505,2.7499502,7.8480005
1680002220212,1182208567469213,5.85405,2.631,7.827
1680002220216,1182208569971361,5.88705,2.5870502,7.7089505
1680002220218,1182208572473515,5.88,2.6860502,7.6830006
1680002220220,1182208574975592,5.8180504,2.628,7.63005
1680002220222,1182208577477746,5.8300505,2.6230502,7.5700502
1680002220224,1182208579979982,5.8180504,2.71005,7.6129503
1680002220229,1182208582482136,5.8219504,2.664,7.63005
1680002220230,1182208584984289,5.92995,2.69295,7.6660504
1680002220232,1182208587486366,5.8680005,2.59695,7.5490503
1680002220235,1182208589988510,5.9809504,2.66895,7.6519504
1680002220237,1182208592490664,6.0160503,2.7480001,7.5460505
1680002220240,1182208594992587,6.0000005,2.7169502,7.7089505
1680002220242,1182208597494972,5.997,2.70195,7.7400002
1680002220246,1182208599997126,6.0139503,2.74305,7.7449503
1680002220248,1182208602499261,6.0739503,2.7,7.8100505
1680002220250,1182208605001184,6.0259504,2.80995,7.8820505
1680002220253,1182208607503568,6.0360003,2.736,7.8600006
1680002220256,1182208610005732,6.0720005,2.7480001,7.8409505
1680002220258,1182208612507886,6.096,2.64,7.8790503
1680002220260,1182208615009809,6.12405,2.74095,8.002951
1680002220262,1182208617511963,6.1650004,2.7580502,7.9009504
1680002220265,1182208620014117,6.1770005,2.6830502,7.9270506
1680002220267,1182208622516487,6.222,2.72895,7.977
1680002220269,1182208625018410,6.2200503,2.74305,8.08005
1680002220272,1182208627520564,6.25605,2.7,7.9890003
1680002220275,1182208630022718,6.2580004,2.67105,8.113951
1680002220277,1182208632524872,6.2800503,2.69295,7.9870505
1680002220280,1182208635026949,6.3180003,2.664,7.9579506
1680002220283,1182208637529103,6.29895,2.63505,8.06805
1680002220285,1182208640031334,6.4090505,2.6830502,8.017051
1680002220288,1182208642533419,6.3229504,2.7139502,7.90605
1680002220291,1182208645035573,6.282,2.71005,7.9890003
1680002220294,1182208647537727,6.366,2.7910502,8.02305
1680002220296,1182208650039881,6.28695,2.76705,7.93695
1680002220299,1182208652541804,6.282,2.67105,7.9630504
1680002220301,1182208655044189,6.2629504,2.70495,7.99695
1680002220303,1182208657546343,6.2419505,2.77005,7.9920006
1680002220305,1182208660048496,6.1530004,2.7460501,7.9339504
1680002220307,1182208662550420,6.1720505,2.74305,7.9750504
1680002220316,1182208665052550,6.22695,2.7220502,7.89795
1680002220316,1182208667554704,6.1650004,2.80995,7.8840003
1680002220316,1182208670057089,6.0810003,2.7580502,7.9080005
1680002220317,1182208672559012,6.10995,2.7580502,7.8409505
1680002220319,1182208675061147,6.19605,2.74095,7.9540505
1680002220322,1182208677563301,6.0810003,2.90595,7.86705
1680002220325,1182208680065378,6.07905,2.7810001,7.89795
1680002220329,1182208682567531,6.0810003,2.7910502,7.9459505
1680002220331,1182208685069685,6.0600004,2.7840002,7.9200006
1680002220333,1182208687571916,6.0670505,2.8170002,7.767
1680002220336,1182208690073993,6.0600004,2.76705,8.016001
1680002220338,1182208692576147,6.0259504,2.8459501,7.9180503
1680002220340,1182208695078315,6.1699505,2.7499502,7.9579506
1680002220342,1182208697580469,6.0979505,2.77905,7.80495
1680002220346,1182208700082392,6.13605,2.8200002,7.872
1680002220348,1182208702584776,6.10995,2.7910502,7.7760005
1680002220349,1182208705086930,6.06195,2.77395,7.8310504
1680002220352,1182208707588838,6.1770005,2.8840501,7.7550006
1680002220355,1182208710090992,6.0810003,2.83905,7.9030504
1680002220357,1182208712593146,6.1270504,2.7529502,7.8120003
1680002220360,1182208715095300,6.1699505,2.7529502,7.8769503
1680002220362,1182208717597392,6.10995,2.736,7.8
1680002220368,1182208720099622,6.2080503,2.7259502,7.7380505
1680002220370,1182208722601776,6.2100005,2.7499502,7.7910004
1680002220371,1182208725192536,6.0930004,2.7499502,7.8150005
1680002220373,1182208727606074,6.1480503,2.7930002,7.75995
1680002220376,1182208730108151,6.07905,2.63805,7.7520003
1680002220378,1182208732610305,6.0280504,2.66895,7.77405
1680002220380,1182208735112536,6.0430503,2.7220502,7.6800003
1680002220382,1182208737614617,6.1410003,2.66205,7.63005
1680002220386,1182208740116771,6.1309505,2.7120001,7.6060505
1680002220388,1182208742618925,6.045,2.7460501,7.6330504
1680002220389,1182208745121079,6.0979505,2.73405,7.63005
1680002220392,1182208747622988,6.0739503,2.70705,7.62795
1680002220395,1182208750125142,6.0550504,2.67105,7.6249504
1680002220399,1182208752627527,6.0930004,2.7550502,7.65705
1680002220400,1182208755129680,6.0040503,2.7600002,7.6369505
1680002220403,1182208757631618,6.1000504,2.76195,7.52505
1680002220408,1182208760133771,6.0430503,2.77005,7.4749503
1680002220409,1182208762635925,6.0330005,2.76705,7.4340005
1680002220410,1182208765138007,5.9830503,2.7859502,7.58895
1680002220413,1182208767640238,6.0210004,2.83695,7.4890504
1680002220415,1182208770142392,5.973,2.70195,7.5340505
1680002220417,1182208772644546,6.1069503,2.76195,7.6129503
1680002220419,1182208775146699,6.0979505,2.8129501,7.53
1680002220422,1182208777648780,6.0739503,2.8489501,7.5370502
1680002220425,1182208780150934,6.1390505,2.77395,7.4149504
1680002220427,1182208782653165,6.1050005,2.76195,7.49595
1680002220429,1182208785155242,6.15105,2.7769501,7.4890504
1680002220432,1182208787657410,6.09105,2.74305,7.53
1680002220435,1182208790159564,6.1980004,2.76195,7.5750003
1680002220437,1182208792661718,6.1150503,2.77005,7.5799503
1680002220441,1182208795163627,6.234,2.736,7.4890504
1680002220443,1182208797665780,6.1699505,2.7859502,7.5150003
1680002220446,1182208800168165,6.30105,2.7600002,7.55595
1680002220448,1182208802670319,6.1789503,2.69295,7.518
1680002220450,1182208805172242,6.2370005,2.8459501,7.6729503
1680002220452,1182208807674387,6.2370005,2.7169502,7.62795
1680002220456,1182208810176541,6.234,2.76705,7.6369505
1680002220458,1182208812678695,6.2509503,2.76705,7.6729503
1680002220460,1182208815180848,6.2580004,2.8249502,7.767
1680002220462,1182208817683002,6.249,2.80995,7.7089505
1680002220465,1182208820185146,6.1650004,2.868,7.7070003
1680002220467,1182208822687223,6.15495,2.877,7.767
1680002220469,1182208825189377,6.1870503,2.8609502,7.7160006
1680002220472,1182208827691531,6.1069503,2.805,7.872
1680002220476,1182208830193714,6.117,2.904,7.8460503
1680002220479,1182208832695867,6.1699505,2.904,7.80705
1680002220480,1182208835198021,6.15495,2.808,7.9420505
1680002220482,1182208837700175,6.1069503,2.844,7.77405
1680002220486,1182208840202342,6.129,2.83695,7.86705
1680002220488,1182208842704265,6.2100005,2.86995,7.96995
1680002220490,1182208845206419,6.2080503,2.8840501,7.8820505
1680002220493,1182208847708804,6.1980004,2.8990502,7.9180503
1680002220496,1182208850210713,6.1410003,2.8609502,7.89795
1680002220498,1182208852712867,6.2200503,2.90595,8.0119505
1680002220500,1182208855214943,6.234,2.9160001,8.0119505
1680002220502,1182208857717174,6.294,2.973,8.06595
1680002220505,1182208860219313,6.3949504,2.8609502,8.00895
