system_ts_ms, sensor_ts_ns, gyrX, gyrY, gyrZ
1680010470657,1190459008493649,-0.17379999,0.2341625,-0.366575
1680010470657,1190459010995880,-0.1808125,0.2332,-0.3696
1680010470659,1190459013498265,-0.1918125,0.22825,-0.3686375
1680010470661,1190459016000418,-0.203775,0.219175,-0.3705625
1680010470663,1190459018502649,-0.21175,0.214225,-0.3686375
1680010470678,1190459021004793,-0.2187625,0.203225,-0.3675375
1680010470678,1190459023506947,-0.225775,0.1962125,-0.3656125
1680010470678,1190459026009332,-0.23375,0.18425,-0.3595625
1680010470678,1190459028511562,-0.241725,0.17215,-0.3546125
1680010470678,1190459031013706,-0.2457125,0.1571625,-0.35365
1680010470679,1190459033515860,-0.2498375,0.1332375,-0.350625
1680010470681,1190459036018245,-0.2508,0.115225,-0.34553748
1680010470686,1190459038520398,-0.2547875,0.093225,-0.3366
1680010470687,1190459041022523,-0.2578125,0.0691625,-0.33165
1680010470691,1190459043524985,-0.2578125,0.04015,-0.3216125
1680010470692,1190459046027139,-0.25575,0.010175,-0.30965
1680010470693,1190459048529293,-0.2567125,-0.01375,-0.29865
1680010470695,1190459051031523,-0.253825,-0.036849998,-0.2855875
1680010470702,1190459053533687,-0.2498375,-0.0638,-0.2696375
1680010470702,1190459056036072,-0.2457125,-0.09185,-0.256575
1680010470703,1190459058538226,-0.24475,-0.1117875,-0.245575
1680010470705,1190459061040456,-0.2407625,-0.126775,-0.2355375
1680010470709,1190459063542851,-0.236775,-0.1508375,-0.234575
1680010470711,1190459066045005,-0.2327875,-0.1758625,-0.2355375
1680010470714,1190459068547159,-0.2267375,-0.1958,-0.2286625
1680010470719,1190459071049313,-0.2267375,-0.1948375,-0.22055
1680010470720,1190459073551552,-0.2267375,-0.1918125,-0.2176625
1680010470721,1190459076053937,-0.2278375,-0.1868625,-0.212575
1680010470725,1190459078556091,-0.2297625,-0.1728375,-0.2116125
1680010470728,1190459081058322,-0.2297625,-0.1538625,-0.2085875
1680010470730,1190459083560481,-0.230725,-0.1337875,-0.2085875
1680010470735,1190459086062634,-0.2327875,-0.1117875,-0.2085875
1680010470736,1190459088565019,-0.2278375,-0.0867625,-0.21065
1680010470736,1190459091067173,-0.2267375,-0.0598125,-0.212575
1680010470739,1190459093569404,-0.2248125,-0.03575,-0.2116125
1680010470741,1190459096071552,-0.2217875,-0.011825,-0.2156
1680010470743,1190459098573937,-0.220825,0.0111375,-0.2195875
1680010470746,1190459101076091,-0.21573749,0.027224999,-0.2226125
1680010470748,1190459103578322,-0.21285,0.05115,-0.22453749
1680010470754,1190459106080500,-0.21175,0.0581625,-0.22659999
1680010470754,1190459108582884,-0.21175,0.0691625,-0.22659999
1680010470756,1190459111085115,-0.21175,0.082225,-0.23155
1680010470759,1190459113587269,-0.21285,0.093225,-0.2366375
1680010470762,1190459116089418,-0.21573749,0.10615,-0.2385625
1680010470764,1190459118591802,-0.21285,0.11715,-0.2396625
1680010470770,1190459121093956,-0.21779999,0.1302125,-0.2385625
1680010470771,1190459123596187,-0.2187625,0.14025,-0.240625
1680010470771,1190459126098341,-0.219725,0.148225,-0.2385625
1680010470774,1190459128600697,-0.2168375,0.15619999,-0.2355375
1680010470776,1190459131102851,-0.2168375,0.164175,-0.23265
1680010470779,1190459133605005,-0.2168375,0.1711875,-0.22659999
1680010470780,1190459136107236,-0.21285,0.17613749,-0.218625
1680010470786,1190459138609375,-0.21285,0.1791625,-0.2146375
1680010470786,1190459141111836,-0.2107875,0.1821875,-0.2066625
1680010470789,1190459143613990,-0.20185,0.181225,-0.20253749
1680010470791,1190459146116144,-0.20075,0.17613749,-0.1956625
1680010470793,1190459148618510,-0.1967625,0.17613749,-0.1865875
1680010470796,1190459151120663,-0.19373749,0.170225,-0.18259999
1680010470803,1190459153622817,-0.1887875,0.16115,-0.174625
1680010470803,1190459156125279,-0.1838375,0.15619999,-0.1695375
1680010470805,1190459158627414,-0.17875,0.1522125,-0.1676125
1680010470807,1190459161129568,-0.175725,0.15015,-0.1645875
1680010470809,1190459163631721,-0.1747625,0.1461625,-0.1626625
1680010470811,1190459166133952,-0.17173749,0.1431375,-0.1606
1680010470813,1190459168636106,-0.1698125,0.1351625,-0.1615625
1680010470819,1190459171138486,-0.164725,0.131175,-0.1566125
1680010470820,1190459173640716,-0.16885,0.131175,-0.1505625
1680010470821,1190459176142870,-0.16885,0.131175,-0.14355
1680010470823,1190459178645255,-0.16775,0.131175,-0.14465
1680010470826,1190459181147409,-0.170775,0.1332375,-0.146575
1680010470829,1190459183649563,-0.17379999,0.1332375,-0.1486375
1680010470831,1190459186151793,-0.1728375,0.13213749,-0.1516625
1680010470837,1190459188654178,-0.1747625,0.1332375,-0.1516625
1680010470837,1190459191156337,-0.1777875,0.1362625,-0.1535875
1680010470841,1190459193658491,-0.1808125,0.13915,-0.15565
1680010470843,1190459196160721,-0.1777875,0.1442375,-0.157575
1680010470844,1190459198662875,-0.1777875,0.1472625,-0.15853749
1680010470846,1190459201165029,-0.175725,0.1491875,-0.157575
1680010470854,1190459203667491,-0.1728375,0.15125,-0.15455
1680010470855,1190459206169645,-0.1747625,0.15619999,-0.157575
1680010470855,1190459208672029,-0.1698125,0.1672,-0.15565
1680010470856,1190459211174183,-0.1698125,0.1711875,-0.1505625
1680010470859,1190459213676337,-0.1698125,0.1821875,-0.152625
1680010470861,1190459216178568,-0.1698125,0.1892,-0.1496
1680010470863,1190459218680722,-0.16885,0.1931875,-0.146575
1680010470869,1190459221182875,-0.16885,0.20019999,-0.14355
1680010470870,1190459223685255,-0.164725,0.2041875,-0.1406625
1680010470871,1190459226187409,-0.1667875,0.2112,-0.13859999
1680010470876,1190459228689640,-0.1667875,0.2182125,-0.1346125
1680010470878,1190459231192024,-0.1637625,0.219175,-0.1285625
1680010470880,1190459233694168,-0.1607375,0.22013749,-0.1236125
1680010470888,1190459236196399,-0.1588125,0.2182125,-0.12265
1680010470889,1190459238698553,-0.1518,0.21615,-0.12155
1680010470890,1190459241200707,-0.14575,0.2091375,-0.12265
1680010470891,1190459243703091,-0.14575,0.214225,-0.1205875
1680010470892,1190459246205317,-0.1417625,0.2091375,-0.12265
1680010470893,1190459248707471,-0.13475,0.2022625,-0.1296625
1680010470896,1190459251209625,-0.1307625,0.1931875,-0.1346125
1680010470903,1190459253712009,-0.13475,0.1931875,-0.13365
1680010470905,1190459256214154,-0.12773749,0.1901625,-0.13859999
1680010470907,1190459258716308,-0.121825,0.1901625,-0.152625
1680010470907,1190459261218539,-0.12375,0.19415,-0.157575
1680010470909,1190459263720923,-0.12375,0.1931875,-0.16555
1680010470913,1190459266223163,-0.12485,0.1992375,-0.1716
1680010470914,1190459268725317,-0.1258125,0.2011625,-0.1695375
1680010470919,1190459271227471,-0.12375,0.20019999,-0.1716
1680010470921,1190459273729856,-0.12375,0.197175,-0.174625
1680010470922,1190459276232009,-0.126775,0.2022625,-0.1846625
1680010470924,1190459278734226,-0.12773749,0.2091375,-0.1896125
1680010470926,1190459281236611,-0.12773749,0.2091375,-0.190575
1680010470929,1190459283738765,-0.131725,0.2091375,-0.1945625
1680010470931,1190459286240918,-0.1368125,0.2112,-0.1975875
1680010470936,1190459288743067,-0.1408,0.2102375,-0.19855
1680010470937,1190459291245298,-0.1398375,0.2072125,-0.19965
1680010470938,1190459293747452,-0.142725,0.2022625,-0.1975875
1680010470941,1190459296249837,-0.14685,0.197175,-0.1956625
1680010470943,1190459298752086,-0.14973749,0.1892,-0.1915375
1680010470946,1190459301254240,-0.1508375,0.1791625,-0.1915375
1680010470953,1190459303756625,-0.1527625,0.17215,-0.1926375
1680010470953,1190459306258779,-0.154825,0.16225,-0.1915375
1680010470954,1190459308760933,-0.1527625,0.1522125,-0.1926375
1680010470956,1190459311263394,-0.1508375,0.1442375,-0.1945625
1680010470960,1190459313765548,-0.14973749,0.1351625,-0.19855
1680010470961,1190459316267702,-0.143825,0.1241625,-0.1975875
1680010470964,1190459318769856,-0.1408,0.122237496,-0.2006125
1680010470968,1190459321272086,-0.137775,0.1161875,-0.20253749
1680010470970,1190459323774240,-0.137775,0.1101375,-0.2046
1680010470971,1190459326276625,-0.1387375,0.1021625,-0.20955
1680010470975,1190459328778856,-0.1387375,0.098175,-0.2146375
1680010470976,1190459331281028,-0.137775,0.0941875,-0.2165625
1680010470979,1190459333783413,-0.1398375,0.08525,-0.2226125
1680010470981,1190459336285567,-0.142725,0.0801625,-0.2226125
1680010470985,1190459338787721,-0.137775,0.0672375,-0.2256375
1680010470988,1190459341289962,-0.1408,0.0551375,-0.2275625
1680010470990,1190459343792115,-0.1408,0.049225,-0.23155
1680010470993,1190459346294500,-0.1398375,0.0391875,-0.2366375
1680010470994,1190459348796654,-0.1417625,0.0342375,-0.2366375
1680010470996,1190459351298885,-0.137775,0.032175,-0.2376
1680010471004,1190459353801039,-0.1337875,0.0242,-0.240625
1680010471005,1190459356303192,-0.1337875,0.0202125,-0.2446125
1680010471006,1190459358805654,-0.12773749,0.01815,-0.24365
1680010471008,1190459361307784,-0.1288375,0.014162499,-0.2476375
1680010471009,1190459363809938,-0.1258125,0.0171875,-0.2495625
1680010471011,1190459366312322,-0.1197625,0.015262499,-0.251625
1680010471014,1190459368814476,-0.120725,0.014162499,-0.2506625
1680010471018,1190459371316707,-0.121825,0.0111375,-0.2486
1680010471019,1190459373818861,-0.1227875,0.0132,-0.2486
1680010471021,1190459376321245,-0.121825,0.01925,-0.2446125
1680010471025,1190459378823399,-0.12375,0.015262499,-0.2415875
1680010471029,1190459381325630,-0.1288375,0.0202125,-0.2415875
1680010471031,1190459383827784,-0.13585,0.0232375,-0.2366375
1680010471035,1190459386329938,-0.1387375,0.0202125,-0.2336125
1680010471036,1190459388832322,-0.1417625,0.0232375,-0.23265
1680010471038,1190459391334553,-0.1447875,0.0232375,-0.23265
1680010471040,1190459393836707,-0.1518,0.0251625,-0.229625
1680010471042,1190459396339092,-0.1557875,0.021175,-0.229625
1680010471044,1190459398841245,-0.1588125,0.01815,-0.2286625
1680010471046,1190459401343476,-0.1588125,0.01815,-0.2275625
1680010471049,1190459403845644,-0.15675,0.0221375,-0.2256375
1680010471051,1190459406347798,-0.1588125,0.0242,-0.2256375
1680010471053,1190459408850183,-0.15675,0.0312125,-0.2256375
1680010471056,1190459411352336,-0.154825,0.0391875,-0.2226125
1680010471059,1190459413854557,-0.1527625,0.0482625,-0.2176625
1680010471063,1190459416356711,-0.1478125,0.05115,-0.212575
1680010471064,1190459418859096,-0.1417625,0.0572,-0.20253749
1680010471067,1190459421361249,-0.137775,0.065175,-0.19965
1680010471069,1190459423863466,-0.1398375,0.0721875,-0.1936
1680010471071,1190459426365851,-0.137775,0.0801625,-0.1835625
1680010471074,1190459428868005,-0.131725,0.0862125,-0.18259999
1680010471076,1190459431370159,-0.1337875,0.0911625,-0.179575
1680010471079,1190459433872365,-0.131725,0.0991375,-0.17765
1680010471081,1190459436374519,-0.12485,0.1082125,-0.17655
1680010471084,1190459438876904,-0.117837496,0.1142625,-0.179575
1680010471086,1190459441379058,-0.110825,0.120175,-0.179575
1680010471090,1190459443881288,-0.1038125,0.12925,-0.18259999
1680010471091,1190459446383432,-0.095837496,0.1302125,-0.1835625
1680010471094,1190459448885817,-0.0848375,0.1302125,-0.1865875
1680010471096,1190459451387971,-0.0757625,0.1302125,-0.18865
1680010471100,1190459453890125,-0.06985,0.1271875,-0.190575
1680010471102,1190459456392566,-0.0647625,0.1241625,-0.1926375
1680010471104,1190459458894720,-0.0567875,0.11825,-0.1915375
1680010471106,1190459461396874,-0.0507375,0.1192125,-0.1975875
1680010471109,1190459463899105,-0.0518375,0.115225,-0.1956625
1680010471111,1190459466401253,-0.0507375,0.1131625,-0.1945625
1680010471114,1190459468903407,-0.04675,0.1142625,-0.1975875
1680010471116,1190459471405792,-0.04675,0.1122,-0.19965
1680010471120,1190459473908023,-0.047849998,0.115225,-0.1945625
1680010471122,1190459476410196,-0.0507375,0.1192125,-0.1975875
1680010471124,1190459478912349,-0.0488125,0.126225,-0.19855
1680010471126,1190459481414734,-0.0528,0.12925,-0.1975875
1680010471129,1190459483916888,-0.0528,0.131175,-0.2006125
1680010471131,1190459486419119,-0.0537625,0.1412125,-0.19855
1680010471134,1190459488921513,-0.054725,0.15125,-0.201575
1680010471138,1190459491423667,-0.0507375,0.1651375,-0.2046
1680010471140,1190459493925898,-0.0457875,0.1772375,-0.207625
1680010471142,1190459496428052,-0.043725,0.19525,-0.2116125
1680010471144,1190459498930201,-0.04675,0.2182125,-0.2156
1680010471146,1190459501432355,-0.0408375,0.2402125,-0.22453749
1680010471149,1190459503934816,-0.038775,0.2572625,-0.23155
1680010471151,1190459506436970,-0.0397375,0.2811875,-0.2366375
1680010471154,1190459508939129,-0.0408375,0.3031875,-0.2476375
1680010471156,1190459511441513,-0.038775,0.32615,-0.25465
1680010471159,1190459513943667,-0.038775,0.3532375,-0.26455
1680010471161,1190459516445821,-0.0488125,0.379225,-0.2726625
1680010471164,1190459518948283,-0.0518375,0.40425,-0.28655
1680010471166,1190459521450436,-0.0528,0.4302375,-0.2996125
1680010471169,1190459523952667,-0.0598125,0.45319998,-0.30965
1680010471171,1190459526454821,-0.0708125,0.48221248,-0.31955
1680010471175,1190459528956975,-0.076725,0.505175,-0.33055
1680010471180,1190459531459167,-0.0837375,0.5262125,-0.3405875
1680010471180,1190459533961551,-0.0928125,0.54821247,-0.3485625
1680010471181,1190459536463782,-0.1007875,0.56925,-0.3565375
1680010471183,1190459538965936,-0.1117875,0.588225,-0.3656125
1680010471186,1190459541468321,-0.1197625,0.6111875,-0.3675375
1680010471189,1190459543970461,-0.12979999,0.6292,-0.3696
1680010471191,1190459546472614,-0.1398375,0.6441875,-0.3785375
1680010471194,1190459548974845,-0.14685,0.66316247,-0.3815625
1680010471196,1190459551477230,-0.1588125,0.6771875,-0.38555
1680010471199,1190459553979466,-0.1667875,0.6832375,-0.38665
1680010471201,1190459556481619,-0.1747625,0.692175,-0.3876125
1680010471204,1190459558983773,-0.186725,0.6972625,-0.38953748
1680010471207,1190459561486158,-0.1918125,0.70015,-0.3906375
1680010471209,1190459563988081,-0.197725,0.6961625,-0.388575
1680010471213,1190459566490446,-0.1997875,0.6851625,-0.383625
1680010471215,1190459568992676,-0.1997875,0.6692125,-0.3826625
1680010471216,1190459571495061,-0.2028125,0.6502375,-0.377575
1680010471219,1190459573997215,-0.2047375,0.6202625,-0.3735875
1680010471222,1190459576499369,-0.203775,0.59015,-0.372625
1680010471225,1190459579001575,-0.2028125,0.55715,-0.3716625
1680010471227,1190459581503960,-0.2028125,0.5182375,-0.3686375
1680010471231,1190459584006114,-0.2028125,0.4752,-0.3705625
1680010471232,1190459586508345,-0.203775,0.43614998,-0.37565
1680010471234,1190459589010499,-0.203775,0.39421248,-0.377575
1680010471236,1190459591512662,-0.2068,0.35021248,-0.3845875
1680010471240,1190459594015124,-0.2068,0.3102,-0.3936625
1680010471242,1190459596517278,-0.2077625,0.27115,-0.40755
1680010471243,1190459599019432,-0.21175,0.23815,-0.41965
1680010471246,1190459601521595,-0.21573749,0.2121625,-0.4316125
1680010471251,1190459604023979,-0.219725,0.18425,-0.4466
1680010471252,1190459606526133,-0.22385,0.15413749,-0.4576
1680010471254,1190459609028307,-0.2248125,0.137225,-0.4686
1680010471257,1190459611530768,-0.2267375,0.1211375,-0.4756125
1680010471259,1190459614032922,-0.2267375,0.104225,-0.48565
1680010471262,1190459616535076,-0.2327875,0.0911625,-0.4906
1680010471264,1190459619037307,-0.2398,0.087175,-0.4926625
1680010471266,1190459621539490,-0.2407625,0.0792,-0.4995375
1680010471269,1190459624041644,-0.2498375,0.0691625,-0.49665
1680010471271,1190459626544028,-0.2578125,0.065175,-0.49665
1680010471274,1190459629046259,-0.26785,0.06215,-0.4976125
1680010471278,1190459631548408,-0.2737625,0.054175,-0.4976125
1680010471283,1190459634050792,-0.27981248,0.0501875,-0.49665
1680010471283,1190459636552946,-0.2908125,0.05115,-0.49665
1680010471283,1190459639055100,-0.2987875,0.0471625,-0.49665
1680010471287,1190459641557567,-0.3058,0.041249998,-0.4995375
1680010471290,1190459644059721,-0.3128125,0.0391875,-0.4995375
1680010471294,1190459646561874,-0.3097875,0.0372625,-0.5016
1680010471294,1190459649064105,-0.3128125,0.0312125,-0.504625
1680010471296,1190459651566259,-0.3168,0.0281875,-0.5126
1680010471298,1190459654068629,-0.3158375,0.0221375,-0.5196125
1680010471301,1190459656570782,-0.3168,0.021175,-0.5236
1680010471303,1190459659073013,-0.318725,0.0251625,-0.52965
1680010471306,1190459661575398,-0.3158375,0.0221375,-0.5355625
1680010471309,1190459664077321,-0.31185,0.0202125,-0.5355625
1680010471311,1190459666579706,-0.308825,0.015262499,-0.5355625
1680010471313,1190459669081859,-0.308825,0.0171875,-0.5366625
1680010471316,1190459671584090,-0.3067625,0.021175,-0.5355625
1680010471320,1190459674086480,-0.2987875,0.01815,-0.531575
1680010471322,1190459676588634,-0.296725,0.0171875,-0.5226375
1680010471326,1190459679090864,-0.291775,0.010175,-0.5215375
1680010471329,1190459681593018,-0.285725,0.005225,-0.51865
1680010471330,1190459684190552,-0.27981248,0.010175,-0.5105375
1680010471333,1190459686597321,-0.2737625,0.0111375,-0.5086125
1680010471334,1190459689099706,-0.2688125,0.0132,-0.5086125
1680010471337,1190459691602167,-0.263725,0.0171875,-0.5105375
1680010471339,1190459694104090,-0.263725,0.0242,-0.509575
1680010471342,1190459696606470,-0.263725,0.0372625,-0.5126
1680010471344,1190459699108624,-0.26675,0.0452375,-0.5126
1680010471347,1190459701610855,-0.26675,0.06325,-0.509575
1680010471349,1190459704113008,-0.269775,0.0782375,-0.5135625
1680010471351,1190459706615374,-0.2707375,0.09625,-0.5105375
1680010471354,1190459709117605,-0.2737625,0.115225,-0.50765
1680010471356,1190459711619759,-0.27775,0.1362625,-0.5036625
1680010471360,1190459714121912,-0.2828375,0.1472625,-0.5016
1680010471364,1190459716624297,-0.280775,0.164175,-0.498575
1680010471365,1190459719126451,-0.280775,0.1742125,-0.493625
1680010471368,1190459721628682,-0.2847625,0.1882375,-0.4885375
1680010471370,1190459724130836,-0.2838,0.1901625,-0.482625
1680010471372,1190459726633220,-0.2828375,0.1962125,-0.47753748
1680010471377,1190459729135355,-0.27981248,0.197175,-0.4695625
1680010471378,1190459731637509,-0.2767875,0.19525,-0.4596625
1680010471379,1190459734139740,-0.2728,0.192225,-0.45155
1680010471383,1190459736641894,-0.2688125,0.1871375,-0.4466
1680010471384,1190459739144355,-0.2627625,0.1782,-0.4395875
1680010471387,1190459741646533,-0.25685,0.1681625,-0.43559998
1680010471389,1190459744148687,-0.2547875,0.16225,-0.4255625
1680010471391,1190459746651071,-0.242825,0.148225,-0.421575
1680010471394,1190459749153225,-0.23773749,0.1412125,-0.42061248
1680010471402,1190459751655398,-0.2327875,0.131175,-0.4156625
1680010471402,1190459754157629,-0.2278375,0.11715,-0.4115375
1680010471403,1190459756660013,-0.22385,0.104225,-0.4136
1680010471405,1190459759162167,-0.2187625,0.098175,-0.4175875
1680010471408,1190459761664321,-0.2168375,0.087175,-0.416625
1680010471410,1190459764166543,-0.21175,0.0782375,-0.416625
1680010471411,1190459766668697,-0.209825,0.0661375,-0.4175875
1680010471414,1190459769171081,-0.2047375,0.0551375,-0.416625
1680010471417,1190459771673312,-0.20185,0.05115,-0.416625
1680010471419,1190459774175466,-0.1997875,0.0441375,-0.41854998
1680010471422,1190459776677851,-0.1967625,0.032175,-0.41854998
1680010471425,1190459779179774,-0.19373749,0.0281875,-0.4175875
1680010471428,1190459781682158,-0.19373749,0.0221375,-0.4136
1680010471430,1190459784184307,-0.18975,0.014162499,-0.4046625
1680010471432,1190459786686769,-0.18975,0.015262499,-0.3986125
1680010471434,1190459789188923,-0.19373749,0.00715,-0.38953748
1680010471440,1190459791691077,-0.19373749,0.0031625,-0.3806
1680010471442,1190459794193273,-0.1958,-8.25E-4,-0.372625
1680010471443,1190459796695427,-0.1948375,-0.00385,-0.3576375
1680010471445,1190459799197581,-0.20185,-0.011825,-0.3436125
1680010471450,1190459801699966,-0.2028125,-0.0177375,-0.3386625
1680010471452,1190459804202211,-0.2077625,-0.0188375,-0.3276625
1680010471452,1190459806704596,-0.21175,-0.0287375,-0.317625
1680010471454,1190459809206750,-0.2138125,-0.0328625,-0.306625
1680010471459,1190459811708904,-0.21573749,-0.038775,-0.29865
1680010471460,1190459814211058,-0.219725,-0.04675,-0.2926
1680010471462,1190459816713284,-0.22275,-0.04675,-0.2916375
1680010471464,1190459819215669,-0.22275,-0.049775,-0.28765
1680010471468,1190459821717823,-0.2217875,-0.044825,-0.2836625
1680010471469,1190459824220054,-0.22275,-0.0418,-0.2836625
1680010471471,1190459826722207,-0.22275,-0.033825,-0.2816
1680010471477,1190459829224356,-0.220825,-0.0177375,-0.2825625
1680010471479,1190459831726741,-0.2248125,-0.0158125,-0.2776125
1680010471481,1190459834228972,-0.2267375,-0.00385,-0.27555
1680010471483,1190459836731140,-0.22385,0.0111375,-0.2745875
1680010471484,1190459839233524,-0.22275,0.0331375,-0.2726625
1680010471487,1190459841735678,-0.2288,0.0501875,-0.26455
1680010471490,1190459844237832,-0.23375,0.0611875,-0.262625
1680010471491,1190459846739986,-0.23375,0.08525,-0.256575
1680010471494,1190459849242211,-0.2327875,0.1032625,-0.2486
1680010471498,1190459851744596,-0.2358125,0.120175,-0.2366375
1680010471499,1190459854246827,-0.236775,0.1332375,-0.22659999
1680010471502,1190459856748981,-0.236775,0.1472625,-0.2165625
1680010471504,1190459859251116,-0.2327875,0.1601875,-0.2066625
1680010471510,1190459861753500,-0.230725,0.1711875,-0.1956625
1680010471514,1190459864255654,-0.225775,0.181225,-0.1835625
1680010471514,1190459866757885,-0.220825,0.186175,-0.1706375
1680010471515,1190459869260303,-0.21573749,0.1931875,-0.1596375
1680010471519,1190459871762457,-0.2058375,0.192225,-0.146575
1680010471521,1190459874264611,-0.1997875,0.1962125,-0.13653749
1680010471525,1190459876766765,-0.1887875,0.19415,-0.1266375
1680010471526,1190459879268996,-0.1777875,0.186175,-0.119625
1680010471528,1190459881771150,-0.170775,0.1791625,-0.1076625
1680010471530,1190459884273534,-0.159775,0.1672,-0.0925375
1680010471532,1190459886775765,-0.1518,0.1552375,-0.0856625
1680010471534,1190459889277919,-0.143825,0.1442375,-0.07755
1680010471538,1190459891780313,-0.1398375,0.131175,-0.0716375
1680010471539,1190459894282466,-0.13585,0.11825,-0.0716375
1680010471542,1190459896784620,-0.1307625,0.1051875,-0.069575
1680010471544,1190459899287082,-0.12979999,0.093225,-0.06765
1680010471551,1190459901789246,-0.1288375,0.082225,-0.06765
1680010471553,1190459904291399,-0.1288375,0.0721875,-0.0726
1680010471553,1190459906793553,-0.12979999,0.0672375,-0.0765875
1680010471554,1190459909295784,-0.1307625,0.0611875,-0.0815375
1680010471558,1190459911797938,-0.1337875,0.0581625,-0.0856625
1680010471560,1190459914300308,-0.13585,0.054175,-0.0925375
1680010471562,1190459916802538,-0.1368125,0.0562375,-0.0985875
1680010471564,1190459919304692,-0.137775,0.06325,-0.102575
1680010471569,1190459921807077,-0.13475,0.0611875,-0.108625
1680010471570,1190459924309231,-0.1307625,0.0642125,-0.113575
1680010471571,1190459926811395,-0.1307625,0.0702625,-0.1205875
1680010471576,1190459929313625,-0.12375,0.0721875,-0.1236125
1680010471578,1190459931816010,-0.1148125,0.0702625,-0.1255375
1680010471579,1190459934318164,-0.110825,0.076175,-0.1315875
1680010471581,1190459936820308,-0.10285,0.0792,-0.1315875
1680010471584,1190459939322461,-0.0968,0.076175,-0.135575
1680010471589,1190459941824923,-0.0928125,0.0702625,-0.1346125
1680010471591,1190459944327068,-0.087725,0.0691625,-0.13255
1680010471593,1190459946829222,-0.0867625,0.0642125,-0.1296625
1680010471594,1190459949331452,-0.087725,0.0551375,-0.1285625
1680010471597,1190459951833606,-0.0858,0.0562375,-0.124575
1680010471599,1190459954335760,-0.0818125,0.0562375,-0.119625
1680010471601,1190459956838212,-0.0867625,0.0581625,-0.119625
1680010471604,1190459959340366,-0.087725,0.0532125,-0.1205875
1680010471608,1190459961842519,-0.093775,0.0562375,-0.1186625
1680010471609,1190459964344904,-0.0947375,0.060225,-0.1186625
1680010471611,1190459966847058,-0.0977625,0.06325,-0.124575
1680010471614,1190459969349212,-0.10175,0.071225,-0.1276
1680010471617,1190459971851366,-0.1038125,0.0801625,-0.1285625
1680010471619,1190459974353827,-0.1057375,0.0881375,-0.13653749
1680010471622,1190459976855981,-0.1038125,0.1021625,-0.14355
1680010471626,1190459979358212,-0.10285,0.11715,-0.1486375
1680010471629,1190459981860366,-0.10175,0.13213749,-0.1535875
1680010471631,1190459984511366,-0.0977625,0.148225,-0.1566125
1680010471633,1190459986864885,-0.0968,0.1651375,-0.1596375
1680010471634,1190459989367116,-0.0928125,0.181225,-0.1596375
1680010471637,1190459991869270,-0.0897875,0.19525,-0.1615625
1680010471640,1190459994371654,-0.0867625,0.2102375,-0.1606
1680010471642,1190459996873808,-0.08085,0.2222,-0.157575
1680010471644,1190459999375971,-0.07975,0.2371875,-0.1596375
1680010471647,1190460001878125,-0.0787875,0.2542375,-0.1566125
1680010471649,1190460004380356,-0.0787875,0.2662,-0.15455
1680010471652,1190460006882740,-0.08085,0.27115,-0.1516625
1680010471654,1190460009384865,-0.0818125,0.27719998,-0.1486375
1680010471657,1190460011887096,-0.07975,0.2842125,-0.1486375
1680010471659,1190460014389250,-0.0837375,0.285175,-0.141625
1680010471663,1190460016891634,-0.0858,0.28325,-0.13859999
1680010471665,1190460019393793,-0.0858,0.28215,-0.13365
1680010471668,1190460021896024,-0.0858,0.280225,-0.1346125
1680010471669,1190460024398178,-0.0848375,0.27225,-0.13653749
1680010471671,1190460026900563,-0.0897875,0.2671625,-0.135575
1680010471674,1190460029402716,-0.088825,0.26221249,-0.1346125
1680010471678,1190460031904860,-0.0867625,0.2531375,-0.13653749
1680010471680,1190460034407091,-0.0837375,0.2481875,-0.13859999
1680010471682,1190460036909476,-0.08085,0.23925,-0.1406625
1680010471685,1190460039411629,-0.0738375,0.2292125,-0.14355
1680010471688,1190460041913836,-0.0748,0.214225,-0.1456125
1680010471689,1190460044415990,-0.0727375,0.2022625,-0.146575
1680010471692,1190460046918144,-0.0677875,0.1852125,-0.1516625
1680010471695,1190460049420529,-0.0677875,0.1692625,-0.1566125
1680010471698,1190460051922702,-0.06875,0.148225,-0.1626625
1680010471701,1190460054425164,-0.066825,0.12925,-0.16665
1680010471702,1190460056927318,-0.06985,0.1051875,-0.1716
1680010471704,1190460059429472,-0.0748,0.082225,-0.174625
1680010471708,1190460061931630,-0.0748,0.060225,-0.179575
1680010471709,1190460064433860,-0.076725,0.0372625,-0.1846625
1680010471711,1190460066936014,-0.07975,0.014162499,-0.18755
1680010471714,1190460069438399,-0.07975,-0.0127875,-0.1896125
1680010471718,1190460071940669,-0.08085,-0.0317625,-0.1936
1680010471721,1190460074442822,-0.0837375,-0.049775,-0.19965
1680010471723,1190460076944976,-0.08085,-0.0748,-0.201575
1680010471725,1190460079447361,-0.08085,-0.0848375,-0.2036375
1680010471728,1190460081949534,-0.077825,-0.0988625,-0.2046
1680010471730,1190460084451765,-0.077825,-0.1117875,-0.2036375
1680010471732,1190460086953918,-0.0757625,-0.1197625,-0.2066625
1680010471733,1190460089456303,-0.0708125,-0.12773749,-0.2066625
1680010471739,1190460091958418,-0.0647625,-0.12979999,-0.21065
1680010471740,1190460094460649,-0.0617375,-0.1307625,-0.2146375
1680010471742,1190460096962802,-0.060775,-0.1307625,-0.2146375
1680010471744,1190460099464956,-0.0598125,-0.12979999,-0.2195875
1680010471747,1190460101967418,-0.05775,-0.1258125,-0.2195875
1680010471749,1190460104469587,-0.055825,-0.1208625,-0.22165
1680010471751,1190460106971741,-0.0528,-0.1167375,-0.2226125
1680010471754,1190460109474125,-0.0488125,-0.1098625,-0.22453749
1680010471760,1190460111976274,-0.0528,-0.095837496,-0.2256375
1680010471761,1190460114478428,-0.055825,-0.0928125,-0.22659999
1680010471762,1190460116980659,-0.0518375,-0.07975,-0.23265
1680010471764,1190460119483043,-0.0537625,-0.0617375,-0.2336125
1680010471768,1190460121985197,-0.054725,-0.044825,-0.2336125
1680010471770,1190460124487351,-0.0537625,-0.0298375,-0.2366375
1680010471771,1190460126989611,-0.0537625,-0.016775,-0.240625
1680010471777,1190460129491765,-0.055825,0.0022,-0.2415875
1680010471779,1190460131994149,-0.0567875,0.016224999,-0.2446125
1680010471780,1190460134496375,-0.058849998,0.0312125,-0.2506625
1680010471782,1190460136998529,-0.060775,0.0452375,-0.2525875
1680010471784,1190460139500913,-0.0677875,0.06215,-0.25465
1680010471787,1190460142003067,-0.071775,0.0792,-0.25753748
1680010471790,1190460144505201,-0.0727375,0.0941875,-0.267575
1680010471792,1190460147007432,-0.077825,0.1032625,-0.2685375
1680010471797,1190460149509817,-0.0837375,0.1131625,-0.26455
1680010471798,1190460152011970,-0.0897875,0.1232,-0.2666125
1680010471800,1190460154514148,-0.0968,0.1302125,-0.26565
1680010471802,1190460157016379,-0.1007875,0.1351625,-0.26565
1680010471804,1190460159518533,-0.10285,0.1381875,-0.262625
1680010471808,1190460162020687,-0.1038125,0.1362625,-0.256575
1680010471809,1190460164523071,-0.104775,0.1342,-0.25355
1680010471813,1190460167025287,-0.1078,0.13213749,-0.2486
1680010471816,1190460169527672,-0.106837496,0.126225,-0.2446125
1680010471819,1190460172029826,-0.1057375,0.11825,-0.240625
1680010471820,1190460174531979,-0.104775,0.1122,-0.2376
1680010471822,1190460177034210,-0.106837496,0.0972125,-0.23265
1680010471825,1190460179536364,-0.1038125,0.087175,-0.2275625
1680010471828,1190460182038749,-0.10175,0.0782375,-0.22453749
1680010471831,1190460184540903,-0.10175,0.0682,-0.2226125
1680010471832,1190460187043133,-0.095837496,0.0562375,-0.2226125
1680010471835,1190460189545287,-0.0928125,0.0452375,-0.218625
1680010471837,1190460192047441,-0.09075,0.03025,-0.2156
1680010471840,1190460194549826,-0.0867625,0.014162499,-0.212575
1680010471842,1190460197051980,-0.08085,-0.0017875,-0.2066625
1680010471844,1190460199554441,-0.0738375,-0.0188375,-0.2046
1680010471848,1190460202056634,-0.0727375,-0.0378125,-0.2036375
1680010471851,1190460204558788,-0.0708125,-0.05775,-0.1956625
1680010471854,1190460207061019,-0.06985,-0.0787875,-0.190575
1680010471855,1190460209563096,-0.0617375,-0.0968,-0.1915375
1680010471860,1190460212065297,-0.0598125,-0.1167375,-0.18755
1680010471862,1190460214567682,-0.0617375,-0.1368125,-0.185625
1680010471862,1190460217069913,-0.0638,-0.154825,-0.1865875
1680010471865,1190460219572067,-0.0617375,-0.1728375,-0.1846625
1680010471868,1190460222074220,-0.0628375,-0.1848,-0.1835625
1680010471870,1190460224576605,-0.0647625,-0.198825,-0.1865875
1680010471872,1190460227078759,-0.0677875,-0.209825,-0.190575
1680010471876,1190460229580990,-0.06875,-0.21573749,-0.1915375
1680010471878,1190460232083374,-0.0677875,-0.21573749,-0.1936
1680010471880,1190460234585514,-0.0647625,-0.22275,-0.1956625
1680010471882,1190460237087745,-0.06875,-0.2267375,-0.1915375
1680010471884,1190460239589822,-0.071775,-0.2297625,-0.1915375
1680010471892,1190460242092014,-0.0628375,-0.22385,-0.1915375
1680010471893,1190460244594167,-0.0647625,-0.22385,-0.18865
1680010471894,1190460247096629,-0.0677875,-0.220825,-0.1865875
1680010471895,1190460249598783,-0.066825,-0.21779999,-0.18259999
1680010471898,1190460252100937,-0.0677875,-0.21175,-0.17765
1680010471899,1190460254603321,-0.0628375,-0.209825,-0.1695375
1680010471903,1190460257105451,-0.0628375,-0.2058375,-0.16665
1680010471905,1190460259607605,-0.066825,-0.1997875,-0.1615625
1680010471909,1190460262110067,-0.0638,-0.192775,-0.1645875
1680010471910,1190460264612220,-0.0638,-0.1838375,-0.1606
1680010471912,1190460267114398,-0.0617375,-0.1758625,-0.1626625
1680010471914,1190460269616629,-0.060775,-0.1648625,-0.1645875
1680010471918,1190460272118783,-0.058849998,-0.1518,-0.1676125
1680010471920,1190460274620937,-0.0567875,-0.13585,-0.1716
1680010471922,1190460277123096,-0.054725,-0.1188,-0.1725625
1680010471926,1190460279625557,-0.0537625,-0.0977625,-0.1786125
1680010471929,1190460282127711,-0.0507375,-0.0748,-0.18259999
1680010471931,1190460284665249,-0.043725,-0.0507375,-0.1816375
1680010471933,1190460287132263,-0.038775,-0.0207625,-0.185625
1680010471935,1190460289634417,-0.0397375,0.0022,-0.18755
1680010471938,1190460292136648,-0.0347875,0.02915,-0.18865
1680010471940,1190460294639033,-0.02585,0.0551375,-0.18865
1680010471942,1190460297141187,-0.021724999,0.08415,-0.18865
1680010471944,1190460299643398,-0.0188375,0.10615,-0.18755
1680010471947,1190460302145552,-0.016775,0.1271875,-0.185625
1680010471951,1190460304647937,-0.0177375,0.1522125,-0.179575
1680010471952,1190460307150091,-0.0158125,0.1681625,-0.17655
1680010471954,1190460309652345,-0.016775,0.18425,-0.174625
1680010471958,1190460312154499,-0.0158125,0.20019999,-0.1716
1680010471960,1190460314656653,-0.016775,0.2121625,-0.16555
1680010471963,1190460317159038,-0.021724999,0.2222,-0.1596375
1680010471965,1190460319661206,-0.021724999,0.2261875,-0.15565
1680010471968,1190460322163436,-0.02475,0.2261875,-0.1496
1680010471970,1190460324665821,-0.0287375,0.2242625,-0.1486375
1680010471972,1190460327167975,-0.0298375,0.22825,-0.1456125
1680010471974,1190460329670129,-0.0378125,0.2292125,-0.141625
1680010471981,1190460332172335,-0.036849998,0.2242625,-0.1376375
1680010471981,1190460334674489,-0.038775,0.21615,-0.1376375
1680010471982,1190460337176874,-0.038775,0.2112,-0.13859999
1680010471984,1190460339679028,-0.0427625,0.2041875,-0.1376375
1680010471987,1190460342181255,-0.038775,0.2022625,-0.13255
1680010471989,1190460344683408,-0.0397375,0.19525,-0.135575
1680010471992,1190460347185793,-0.038775,0.1931875,-0.135575
1680010471994,1190460349687947,-0.03575,0.18425,-0.1346125
1680010471998,1190460352190197,-0.033825,0.1711875,-0.13365
1680010472002,1190460354692581,-0.0287375,0.1662375,-0.13365
1680010472003,1190460357194735,-0.0298375,0.159225,-0.1315875
1680010472005,1190460359696889,-0.0308,0.148225,-0.1285625
1680010472008,1190460362199038,-0.0268125,0.1362625,-0.13365
1680010472010,1190460364701269,-0.022824999,0.126225,-0.1315875
1680010472012,1190460367203422,-0.02475,0.11715,-0.13255
1680010472014,1190460369705807,-0.021724999,0.10725,-0.1346125
1680010472017,1190460372208038,-0.021724999,0.098175,-0.13365
1680010472019,1190460374710187,-0.021724999,0.0911625,-0.1346125
1680010472022,1190460377212341,-0.0207625,0.0782375,-0.135575
1680010472025,1190460379714725,-0.0188375,0.0721875,-0.1346125
1680010472028,1190460382216879,-0.01375,0.0642125,-0.13255
1680010472030,1190460384719374,-0.010725,0.0562375,-0.1296625
1680010472032,1190460387221527,-0.0097624995,0.0532125,-0.1266375
1680010472035,1190460389723681,-0.00385,0.0462,-0.124575
1680010472039,1190460392225835,-0.00275,0.0361625,-0.124575
1680010472041,1190460394728057,0.0022,0.0281875,-0.12265
1680010472043,1190460397230211,0.010175,0.0202125,-0.1175625
1680010472045,1190460399732365,0.0171875,0.016224999,-0.1166
1680010472048,1190460402234826,0.0232375,0.005225,-0.115637496
1680010472052,1190460404736980,0.02915,1.375E-4,-0.1095875
1680010472052,1190460407239148,0.0352,-0.0017875,-0.1065625
1680010472054,1190460409741533,0.043175,-0.0088,-0.102575
1680010472057,1190460412243686,0.0452375,-0.0078375,-0.0985875
1680010472059,1190460414745917,0.0462,-0.0078375,-0.093637496
1680010472061,1190460417248326,0.0462,-0.0048125,-0.0875875
1680010472064,1190460419750480,0.0452375,1.375E-4,-0.0815375
1680010472068,1190460422252710,0.04015,0.0061875,-0.07755
1680010472070,1190460424754864,0.0372625,0.01815,-0.0765875
1680010472072,1190460427257037,0.02915,0.0352,-0.07755
1680010472076,1190460429759191,0.021175,0.05115,-0.0796125
1680010472079,1190460432261576,0.0132,0.07425,-0.075625
1680010472082,1190460434763806,0.0061875,0.0911625,-0.075625
1680010472083,1190460437265951,0.005225,0.1131625,-0.07755
1680010472085,1190460439768336,-0.005775,0.1412125,-0.07755
1680010472087,1190460442270490,-0.011825,0.1681625,-0.0746625
1680010472091,1190460444772644,-0.0158125,0.1882375,-0.0716375
1680010472092,1190460447274874,-0.0188375,0.2091375,-0.069575
1680010472095,1190460449777235,-0.0198,0.236225,-0.0686125
1680010472098,1190460452279389,-0.02475,0.2531375,-0.0636625
1680010472100,1190460454781543,-0.02475,0.2671625,-0.0616
1680010472102,1190460457283773,-0.022824999,0.280225,-0.0595375
1680010472105,1190460459785917,-0.02585,0.2891625,-0.058575
1680010472109,1190460462288302,-0.0298375,0.2861375,-0.0545875
1680010472110,1190460464790533,-0.0317625,0.2811875,-0.053625
1680010472113,1190460467292687,-0.0308,0.2682625,-0.0515625
1680010472116,1190460469795071,-0.0347875,0.252175,-0.0526625
1680010472118,1190460472297225,-0.036849998,0.2292125,-0.0515625
1680010472121,1190460474799379,-0.0397375,0.20625,-0.0485375
1680010472124,1190460477301610,-0.044825,0.17215,-0.04455
1680010472125,1190460479803763,-0.047849998,0.13915,-0.0405625
1680010472129,1190460482306162,-0.0537625,0.1101375,-0.034649998
1680010472131,1190460484808316,-0.058849998,0.0771375,-0.0306625
1680010472133,1190460487310547,-0.0617375,0.043175,-0.0286
1680010472135,1190460489812701,-0.066825,0.00825,-0.02255
1680010472138,1190460492314849,-0.06985,-0.0237875,-0.0196625
1680010472140,1190460494817234,-0.0738375,-0.0537625,-0.01265
1680010472142,1190460497319465,-0.0727375,-0.077825,-0.0086624995
1680010472144,1190460499821849,-0.0738375,-0.104775,-0.00165
1680010472148,1190460502324008,-0.0727375,-0.126775,0.0023375
1680010472152,1190460504826162,-0.06875,-0.143825,0.007425
1680010472153,1190460507328393,-0.0628375,-0.1667875,0.0083875
1680010472155,1190460509830547,-0.0567875,-0.176825,0.0133375
1680010472158,1190460512332706,-0.0528,-0.1848,0.02145
1680010472161,1190460514835090,-0.0507375,-0.1948375,0.02145
1680010472163,1190460517337321,-0.0418,-0.198825,0.02035
1680010472165,1190460519839475,-0.0378125,-0.2058375,0.023375
1680010472170,1190460522341595,-0.033825,-0.2028125,0.02145
1680010472171,1190460524843979,-0.0268125,-0.2028125,0.0193875
1680010472172,1190460527346133,-0.0237875,-0.1967625,0.0154
1680010472175,1190460529848364,-0.021724999,-0.19085,0.0083875
1680010472181,1190460532350730,-0.0188375,-0.17985,0.0034375
1680010472181,1190460534852883,-0.0158125,-0.1667875,-0.003575
1680010472183,1190460537355114,-0.016775,-0.1508375,-0.0105875
1680010472185,1190460539857268,-0.0198,-0.132825,-0.0176
1680010472191,1190460542359412,-0.021724999,-0.1148125,-0.025575
1680010472193,1190460544861873,-0.021724999,-0.0988625,-0.03355
1680010472195,1190460547364027,-0.02475,-0.0708125,-0.0375375
1680010472197,1190460549866181,-0.027775,-0.0537625,-0.0386375
1680010472201,1190460552368335,-0.0287375,-0.03575,-0.0416625
1680010472201,1190460554870725,-0.0317625,-0.0188375,-0.042625
1680010472205,1190460557372878,-0.0347875,-0.00385,-0.045649998
1680010472208,1190460559875032,-0.038775,0.0111375,-0.0416625
1680010472211,1190460562377494,-0.038775,0.0232375,-0.0416625
1680010472215,1190460564879648,-0.0408375,0.0342375,-0.0386375
1680010472217,1190460567381874,-0.0408375,0.043175,-0.03355
1680010472218,1190460569884027,-0.0378125,0.05115,-0.03355
1680010472220,1190460572386181,-0.03575,0.052249998,-0.0286
1680010472221,1190460574888335,-0.033825,0.0572,-0.025575
1680010472222,1190460577390792,-0.0287375,0.055275,-0.0215875
1680010472228,1190460579892945,-0.027775,0.05115,-0.020624999
1680010472230,1190460582395099,-0.02475,0.05115,-0.0176
1680010472233,1190460583874887,-0.0198,0.0501875,-0.0155375
1680010472233,1190460585355942,-0.0207625,0.0482625,-0.0166375
1680010472234,1190460589901788,-0.0177375,0.041249998,-0.0196625
1680010472238,1190460592404018,-0.016775,0.041249998,-0.02365
1680010472240,1190460594906403,-0.016775,0.04015,-0.02255
1680010472242,1190460597408557,-0.01375,0.038225,-0.025575
1680010472245,1190460599910773,-0.0158125,0.0372625,-0.0286
1680010472248,1190460602412927,-0.014712499,0.0342375,-0.0306625
1680010472250,1190460604915080,-0.01375,0.03025,-0.03355
1680010472252,1190460607417234,-0.01375,0.02915,-0.03355
1680010472255,1190460609919696,-0.0127875,0.0281875,-0.034649998
1680010472258,1190460612421850,-0.010725,0.0251625,-0.0386375
1680010472259,1190460614924234,-0.0097624995,0.022275,-0.0405625
1680010472264,1190460617426388,-0.0097624995,0.01925,-0.0386375
1680010472265,1190460619928547,-0.0078375,0.014162499,-0.0405625
1680010472269,1190460622430778,-0.0078375,0.016224999,-0.0405625
1680010472270,1190460624933162,-0.0088,0.01815,-0.045649998
1680010472272,1190460627435316,-0.010725,0.011275,-0.0496375
1680010472275,1190460629937547,-0.011825,0.0122375,-0.0515625
1680010472278,1190460632439730,-0.011825,0.016224999,-0.053625
1680010472281,1190460634941884,-0.01375,0.0132,-0.05555
1680010472282,1190460637444268,-0.01375,0.016224999,-0.0576125
1680010472284,1190460639946422,-0.0158125,0.01925,-0.0606375
1680010472288,1190460642448643,-0.014712499,0.01925,-0.0636625
1680010472291,1190460644950797,-0.01375,0.021175,-0.0686125
1680010472292,1190460647453181,-0.016775,0.0232375,-0.069575
1680010472295,1190460649955335,-0.016775,0.0251625,-0.0726
1680010472298,1190460652457552,-0.016775,0.03025,-0.0746625
1680010472301,1190460654959706,-0.0127875,0.0312125,-0.0746625
1680010472303,1190460657462090,-0.0127875,0.033275,-0.0746625
1680010472305,1190460659964244,-0.014712499,0.0361625,-0.0746625
1680010472308,1190460662466475,-0.0177375,0.04015,-0.07755
1680010472310,1190460664968552,-0.0188375,0.044275,-0.0726
1680010472312,1190460667471014,-0.0188375,0.0452375,-0.0686125
1680010472314,1190460669973167,-0.022824999,0.0452375,-0.0636625
1680010472318,1190460672475393,-0.02475,0.0452375,-0.0636625
1680010472320,1190460674977547,-0.0268125,0.044275,-0.0576125
1680010472322,1190460677479701,-0.0287375,0.044275,-0.053625
1680010472325,1190460679982086,-0.027775,0.041249998,-0.0496375
1680010472328,1190460682484239,-0.0308,0.0361625,-0.0435875
1680010472330,1190460684986470,-0.0287375,0.0372625,-0.0405625
1680010472332,1190460687488855,-0.0298375,0.0342375,-0.0375375
1680010472334,1190460689991009,-0.0298375,0.032175,-0.034649998
1680010472339,1190460692493254,-0.0298375,0.032175,-0.034649998
1680010472341,1190460694995408,-0.0287375,0.02915,-0.0356125
1680010472343,1190460697497562,-0.0287375,0.02915,-0.0295625
1680010472345,1190460699999947,-0.027775,0.0281875,-0.0286
1680010472348,1190460702502101,-0.0287375,0.0251625,-0.0295625
1680010472350,1190460705004345,-0.0298375,0.0232375,-0.0286
1680010472352,1190460707506499,-0.0257125,0.01925,-0.0276375
1680010472355,1190460710008884,-0.02475,0.014162499,-0.02365
1680010472358,1190460712511038,-0.0268125,0.011275,-0.02365
1680010472360,1190460715013178,-0.0237875,0.005225,-0.02365
1680010472363,1190460717515639,-0.021724999,0.0022,-0.0196625
1680010472365,1190460720017793,-0.0188375,0.0012375,-0.0166375
1680010472368,1190460722519947,-0.0177375,-0.00385,-0.01265
1680010472369,1190460725022178,-0.0158125,-0.0097624995,-0.009625
1680010472372,1190460727524331,-0.010725,-0.010725,-0.0105875
1680010472376,1190460730026716,-0.005775,-0.0158125,-0.009625
1680010472379,1190460732528870,-0.0037125,-0.0198,-0.0066
1680010472381,1190460735031101,2.75E-4,-0.0237875,-0.0056375
1680010472383,1190460737533264,-0.0037125,-0.0317625,-0.0075625
1680010472385,1190460740035648,-0.0017875,-0.03575,-0.0075625
1680010472388,1190460742537802,0.0012375,-0.044825,-0.0105875
1680010472390,1190460745039956,-0.0017875,-0.054725,-0.01155
1680010472392,1190460747542417,-0.0017875,-0.06875,-0.01265
1680010472395,1190460750044586,-0.0017875,-0.0818125,-0.0105875
1680010472398,1190460752546740,-0.00275,-0.0897875,-0.01155
1680010472400,1190460755048971,-0.005775,-0.10285,-0.01155
1680010472402,1190460757551125,2.75E-4,-0.11275,-0.0086624995
1680010472405,1190460760053279,-0.0017875,-0.12773749,-0.009625
1680010472410,1190460762555436,-0.0037125,-0.13585,-0.0105875
1680010472411,1190460765057898,-0.0048125,-0.143825,-0.01155
1680010472415,1190460767560052,-0.0037125,-0.148775,-0.01155
1680010472416,1190460770062235,2.75E-4,-0.153725,-0.013612499
1680010472419,1190460772564619,2.75E-4,-0.1588125,-0.01265
1680010472420,1190460775066773,0.0012375,-0.159775,-0.0155375
1680010472423,1190460777569004,-0.00275,-0.1607375,-0.0176
1680010472425,1190460780071389,0.0012375,-0.16775,-0.0185625
1680010472429,1190460782573537,0.0042625,-0.1698125,-0.020624999
1680010472431,1190460785075768,0.0061875,-0.16775,-0.0246125
1680010472433,1190460787577922,0.005225,-0.1667875,-0.02255
1680010472435,1190460790080076,0.0042625,-0.164725,-0.0246125
1680010472439,1190460792582249,0.0092124995,-0.1618375,-0.0265375
1680010472445,1190460795084633,0.015262499,-0.1607375,-0.0265375
1680010472449,1190460797586864,0.015262499,-0.1527625,-0.0295625
1680010472449,1190460800089018,0.0132,-0.143825,-0.0356125
1680010472453,1190460802591384,0.0132,-0.1408,-0.0356125
1680010472453,1190460805093537,0.0122375,-0.12773749,-0.0375375
1680010472454,1190460807595768,0.010175,-0.115775,-0.0386375
1680010472455,1190460810097922,0.0061875,-0.1038125,-0.0375375
1680010472458,1190460812600331,0.0042625,-0.09185,-0.0416625
1680010472460,1190460815102485,-0.0017875,-0.07975,-0.0386375
1680010472462,1190460817604638,-0.0017875,-0.066825,-0.0356125
1680010472465,1190460820106869,-0.0017875,-0.0537625,-0.0295625
1680010472468,1190460822609014,-0.0048125,-0.0378125,-0.02365
1680010472469,1190460825111399,-0.0037125,-0.0298375,-0.02255
1680010472472,1190460827613553,2.75E-4,-0.0237875,-0.0176
1680010472475,1190460830115783,-0.0017875,-0.011825,-0.0166375
1680010472478,1190460832618183,0.0012375,0.0012375,-0.0105875
1680010472481,1190460835120337,0.0031625,0.0132,-0.0066
1680010472482,1190460837622491,0.0061875,0.0251625,-0.0045375
1680010472485,1190460840124721,0.00825,0.032175,-0.003575
1680010472490,1190460842626889,0.0092124995,0.041249998,-0.003575
1680010472492,1190460845129351,0.0122375,0.0532125,-0.003575
1680010472493,1190460847631428,0.0122375,0.065175,4.125E-4
1680010472495,1190460850133658,0.0132,0.0721875,-0.00165
1680010472498,1190460852635812,0.01925,0.0801625,-5.5E-4
1680010472500,1190460855138207,0.021175,0.082225,0.0034375
1680010472502,1190460857640361,0.0251625,0.08525,0.0044
1680010472505,1190460860142592,0.0251625,0.0862125,0.0034375
1680010472508,1190460862644976,0.0281875,0.093225,0.0023375
1680010472510,1190460865147130,0.0262625,0.0911625,4.125E-4
1680010472512,1190460867649308,0.03025,0.0862125,0.0023375
1680010472515,1190460870151539,0.033275,0.08415,0.0044
1680010472519,1190460872653693,0.0342375,0.07425,0.0023375
1680010472521,1190460875155860,0.0281875,0.0721875,0.0044
1680010472523,1190460877658245,0.0281875,0.0642125,0.0064625
1680010472527,1190460880160476,0.0292875,0.0572,0.0044
1680010472530,1190460882662630,0.0312125,0.0482625,0.0053625
1680010472535,1190460885164788,0.033275,0.041249998,0.0053625
1680010472535,1190460887667173,0.0342375,0.038225,0.0064625
1680010472536,1190460890169327,0.0342375,0.03025,0.0083875
1680010472538,1190460892671789,0.0352,0.027224999,0.0053625
1680010472541,1190460895173942,0.033275,0.0242,0.0053625
1680010472542,1190460897676082,0.0352,0.01815,0.007425
1680010472545,1190460900178313,0.0352,0.016224999,0.0034375
1680010472547,1190460902680467,0.033275,0.0122375,0.0044
1680010472549,1190460905182621,0.0312125,0.00715,0.0064625
1680010472552,1190460907684789,0.0292875,0.0031625,0.0044
1680010472555,1190460910187250,0.0281875,-0.0017875,0.001375
1680010472558,1190460912689404,0.0262625,-0.0078375,0.001375
1680010472560,1190460915191558,0.021175,-0.01375,4.125E-4
1680010472564,1190460917693904,0.0202125,-0.0298375,4.125E-4
1680010472566,1190460920196058,0.0171875,-0.0378125,0.001375
1680010472569,1190460922698212,0.011275,-0.04675,-0.00165
1680010472570,1190460925200674,0.005225,-0.0537625,-0.003575
1680010472572,1190460927702828,0.0042625,-0.065725,-0.0045375
1680010472575,1190460930205072,-0.0048125,-0.066825,-0.0056375
1680010472578,1190460932707226,-0.0088,-0.0738375,-0.0066
1680010472580,1190460935209380,-0.011825,-0.0787875,-0.0045375
1680010472582,1190460937711534,-0.0177375,-0.07975,-0.0026125
1680010472585,1190460940213985,-0.0198,-0.08085,-0.0026125
1680010472588,1190460942716139,-0.0177375,-0.0837375,-0.00165
1680010472590,1190460945218293,-0.0207625,-0.08085,-5.5E-4
1680010472592,1190460947720678,-0.0177375,-0.076725,0.0034375
1680010472595,1190460950222837,-0.014712499,-0.077825,0.007425
1680010472598,1190460952724990,-0.0158125,-0.0738375,0.007425
1680010472602,1190460955227221,-0.011825,-0.06875,0.01045
1680010472603,1190460957729606,-0.0078375,-0.066825,0.0163625
1680010472606,1190460960231832,-0.0037125,-0.0647625,0.0193875
1680010472609,1190460962733985,-0.0048125,-0.06875,0.018424999
1680010472610,1190460965236139,-0.00275,-0.0748,0.0193875
1680010472612,1190460967738293,0.0031625,-0.0738375,0.02035
1680010472614,1190460970240447,0.0012375,-0.0787875,0.018424999
1680010472618,1190460972742914,-0.0017875,-0.0787875,0.0144375
1680010472619,1190460975245067,-0.0078375,-0.0858,0.0133375
1680010472622,1190460977747452,-0.0078375,-0.09075,0.00935
1680010472625,1190460980249606,-0.0127875,-0.093775,0.007425
1680010472629,1190460982751745,-0.0158125,-0.0977625,0.0034375
1680010472630,1190460985253976,-0.016775,-0.0977625,0.001375
1680010472633,1190460987756129,-0.0198,-0.10175,-0.0026125
1680010472635,1190460990258514,-0.0198,-0.1038125,-0.0066
1680010472639,1190460992760721,-0.022824999,-0.104775,-0.0105875
1680010472642,1190460995262875,-0.0237875,-0.109725,-0.01265
1680010472644,1190460997765028,-0.0237875,-0.115775,-0.0155375
1680010472645,1190461000267182,-0.022824999,-0.117837496,-0.0155375
1680010472648,1190461002769567,-0.0207625,-0.12485,-0.0166375
1680010472650,1190461005271803,-0.0237875,-0.1288375,-0.0166375
1680010472652,1190461007774187,-0.0188375,-0.13475,-0.013612499
1680010472655,1190461010276341,-0.016775,-0.142725,-0.01155
1680010472658,1190461012778495,-0.0188375,-0.1447875,-0.009625
1680010472660,1190461015280726,-0.016775,-0.15675,-0.009625
1680010472662,1190461017783120,-0.0127875,-0.16775,-0.0075625
1680010472665,1190461020285274,-0.0127875,-0.17379999,-0.0045375
1680010472668,1190461022787428,-0.010725,-0.17875,-0.003575
1680010472670,1190461025289659,-0.010725,-0.186725,-0.00165
1680010472673,1190461027791798,-0.0097624995,-0.1948375,4.125E-4
1680010472677,1190461030293952,-0.010725,-0.1997875,0.001375
1680010472679,1190461032796336,-0.011825,-0.2068,4.125E-4
1680010472682,1190461035298567,-0.0127875,-0.21175,0.001375
1680010472683,1190461037800707,-0.0198,-0.2107875,-5.5E-4
1680010472685,1190461040303091,-0.0188375,-0.21175,-0.003575
1680010472688,1190461042805245,-0.0207625,-0.209825,-0.0075625
1680010472691,1190461045307399,-0.0287375,-0.1997875,-0.009625
1680010472692,1190461047809865,-0.033825,-0.19085,-0.0155375
1680010472695,1190461050312019,-0.0408375,-0.1808125,-0.020624999
1680010472698,1190461052814172,-0.044825,-0.16885,-0.02365
1680010472700,1190461055316403,-0.0488125,-0.1588125,-0.0265375
1680010472703,1190461057818572,-0.0477125,-0.143825,-0.0325875
1680010472705,1190461060320726,-0.0518375,-0.126775,-0.0356125
1680010472709,1190461062823111,-0.054725,-0.11275,-0.0375375
1680010472710,1190461065325341,-0.05775,-0.10285,-0.0416625
1680010472714,1190461067827509,-0.058849998,-0.0897875,-0.0435875
1680010472716,1190461070329663,-0.058849998,-0.0748,-0.0435875
1680010472720,1190461072832048,-0.054725,-0.0617375,-0.0466125
1680010472722,1190461075553355,-0.0528,-0.0507375,-0.0466125
1680010472725,1190461077836418,-0.0507375,-0.03575,-0.0496375
1680010472728,1190461080338803,-0.0457875,-0.0287375,-0.0485375
1680010472730,1190461082840957,-0.0457875,-0.0237875,-0.0506
1680010472732,1190461085433649,-0.0427625,-0.0177375,-0.0496375
1680010472734,1190461087845341,-0.0347875,-0.0108624995,-0.0496375
1680010472736,1190461090347533,-0.0308,-0.011825,-0.0515625
1680010472739,1190461092849687,-0.0287375,-0.011825,-0.0515625
1680010472741,1190461095352149,-0.022824999,-0.0108624995,-0.0485375
1680010472743,1190461097854302,-0.02475,-0.0088,-0.045649998
1680010472745,1190461100356456,-0.0237875,-0.0108624995,-0.04455
1680010472748,1190461102858822,-0.0207625,-0.0158125,-0.042625
1680010472752,1190461105360976,-0.0207625,-0.016775,-0.0405625
1680010472753,1190461107863207,-0.0198,-0.0177375,-0.0396
1680010472755,1190461110365360,-0.0207625,-0.0188375,-0.0386375
1680010472759,1190461112867726,-0.0237875,-0.01485,-0.0396
1680010472762,1190461115369880,-0.02585,-0.0158125,-0.0405625
1680010472763,1190461117872111,-0.0287375,-0.0127875,-0.0375375
1680010472765,1190461120374265,-0.0347875,-0.0078375,-0.0396
1680010472768,1190461122876422,-0.038775,-0.00385,-0.04455
1680010472770,1190461125378807,-0.0397375,-0.0017875,-0.04455
1680010472773,1190461127881038,-0.043725,1.375E-4,-0.0485375
1680010472775,1190461130383192,-0.0488125,0.0031625,-0.045649998
1680010472781,1190461132885552,-0.0507375,0.0031625,-0.0496375
1680010472782,1190461135387706,-0.055825,0.005225,-0.0506
1680010472783,1190461137889860,-0.0567875,0.00825,-0.045649998
1680010472785,1190461140392091,-0.0537625,0.005225,-0.045649998
1680010472793,1190461142894221,-0.055825,0.0022,-0.045649998
1680010472794,1190461145396682,-0.05775,-0.0048125,-0.042625
1680010472795,1190461147898759,-0.0567875,-0.0088,-0.042625
1680010472796,1190461150400990,-0.0537625,-0.011825,-0.034649998
1680010472799,1190461152903144,-0.0488125,-0.0207625,-0.03355
1680010472804,1190461155405495,-0.047849998,-0.0237875,-0.036575
1680010472805,1190461157907649,-0.04675,-0.0287375,-0.0356125
1680010472806,1190461160409880,-0.0457875,-0.0328625,-0.03355
1680010472809,1190461162912265,-0.0427625,-0.03575,-0.03355
1680010472810,1190461165414418,-0.043725,-0.0378125,-0.034649998
1680010472812,1190461167916591,-0.0427625,-0.0427625,-0.0356125
1680010472815,1190461170418822,-0.0418,-0.04675,-0.0356125
1680010472818,1190461172920976,-0.0427625,-0.047849998,-0.0375375
1680010472820,1190461175423360,-0.0408375,-0.0507375,-0.0356125
1680010472823,1190461177925494,-0.0397375,-0.0537625,-0.0375375
1680010472827,1190461180427725,-0.0418,-0.0537625,-0.0375375
1680010472830,1190461182929879,-0.0408375,-0.0548625,-0.036575
1680010472832,1190461185432033,-0.0427625,-0.058849998,-0.036575
1680010472834,1190461187934397,-0.0418,-0.0617375,-0.0356125
1680010472835,1190461190436551,-0.0427625,-0.0567875,-0.034649998
1680010472838,1190461192939013,-0.044825,-0.0537625,-0.034649998
1680010472841,1190461195441167,-0.0408375,-0.049775,-0.036575
1680010472843,1190461197943321,-0.0427625,-0.04675,-0.0375375
1680010472845,1190461200445556,-0.04675,-0.03575,-0.0375375
1680010472849,1190461202947710,-0.047849998,-0.0287375,-0.0386375
1680010472850,1190461205449864,-0.0488125,-0.0207625,-0.0396
1680010472853,1190461207952249,-0.0507375,-0.01375,-0.0405625
1680010472855,1190461210454489,-0.054725,-8.25E-4,-0.0386375
1680010472858,1190461212956643,-0.055825,0.00715,-0.0356125
1680010472860,1190461215458797,-0.0567875,0.00715,-0.0325875
1680010472864,1190461217961182,-0.05775,0.0122375,-0.0295625
1680010472868,1190461220463326,-0.0567875,0.016224999,-0.025575
1680010472872,1190461222965556,-0.054725,0.016224999,-0.0246125
1680010472875,1190461225467941,-0.0567875,0.016224999,-0.0166375
1680010472876,1190461227970095,-0.0567875,0.010175,-0.01265
1680010472878,1190461230472326,-0.0567875,0.0022,-0.013612499
1680010472880,1190461232974398,-0.05775,-0.0048125,-0.0086624995
1680010472881,1190461235476628,-0.055825,-0.01375,-0.0056375
1680010472883,1190461237978782,-0.055825,-0.0218625,-0.0045375
1680010472885,1190461240481244,-0.0598125,-0.0317625,-0.0045375
1680010472888,1190461242983394,-0.0638,-0.0427625,-0.0026125
1680010472891,1190461245485547,-0.0638,-0.0507375,0.0023375
1680010472893,1190461247987932,-0.06875,-0.0638,0.001375
1680010472895,1190461250490086,-0.0727375,-0.06985,-0.0026125
1680010472898,1190461252992230,-0.071775,-0.0748,0.0023375
1680010472902,1190461255494691,-0.0738375,-0.0837375,0.0034375
1680010472904,1190461257996845,-0.0757625,-0.093775,-5.5E-4
1680010472906,1190461260499076,-0.0748,-0.095837496,0.0034375
1680010472909,1190461263001201,-0.0757625,-0.1007875,0.0044
1680010472911,1190461265503355,-0.0748,-0.1078,0.001375
1680010472913,1190461268005508,-0.0748,-0.11275,-5.5E-4
1680010472915,1190461270507893,-0.0738375,-0.1208625,0.001375
1680010472918,1190461273010124,-0.0708125,-0.12773749,-5.5E-4
1680010472922,1190461275512283,-0.06875,-0.1307625,4.125E-4
1680010472923,1190461278014667,-0.071775,-0.13585,-5.5E-4
1680010472925,1190461280516821,-0.06985,-0.1478125,-5.5E-4
1680010472929,1190461283018989,-0.06875,-0.1538625,-0.0066
1680010472931,1190461285521220,-0.0677875,-0.1637625,-0.0105875
1680010472933,1190461288023604,-0.06875,-0.16775,-0.01155
1680010472935,1190461290525758,-0.066825,-0.170775,-0.0155375
1680010472940,1190461293027994,-0.060775,-0.176825,-0.0185625
1680010472942,1190461295530148,-0.0598125,-0.181775,-0.0196625
1680010472943,1190461298032533,-0.05775,-0.17985,-0.025575
1680010472946,1190461300534456,-0.0567875,-0.1758625,-0.02255
1680010472948,1190461303036840,-0.055825,-0.1728375,-0.0246125
1680010472950,1190461305539076,-0.054725,-0.165825,-0.0265375
1680010472953,1190461308041461,-0.0518375,-0.1628,-0.025575
1680010472956,1190461310543615,-0.0518375,-0.1428625,-0.02365
1680010472958,1190461313045768,-0.0518375,-0.12773749,-0.020624999
1680010472962,1190461315548013,-0.0488125,-0.110825,-0.0196625
1680010472963,1190461318050167,-0.0488125,-0.0928125,-0.0155375
1680010472966,1190461320552552,-0.04675,-0.0738375,-0.01155
1680010472968,1190461323054782,-0.0427625,-0.049775,-0.0105875
1680010472970,1190461325556936,-0.0397375,-0.02585,-0.0045375
1680010472974,1190461328059134,-0.0427625,-0.005775,-0.00165
1680010472977,1190461330561288,-0.0427625,0.016224999,4.125E-4
1680010472979,1190461333063673,-0.0408375,0.041249998,0.0023375
1680010472982,1190461335565903,-0.044825,0.065175,0.0053625
1680010472983,1190461338068302,-0.044825,0.0862125,0.007425
1680010472985,1190461340570456,-0.0488125,0.10615,0.00935
1680010472988,1190461343072610,-0.044825,0.1211375,0.012375
1680010472991,1190461345574840,-0.043725,0.1342,0.0133375
1680010472993,1190461348076994,-0.0397375,0.1461625,0.0144375
1680010472995,1190461350579148,-0.03575,0.153175,0.0163625
1680010472999,1190461353081610,-0.036849998,0.153175,0.018424999
1680010473001,1190461355583764,-0.0347875,0.15619999,0.02035
1680010473003,1190461358085917,-0.0308,0.15125,0.023375
1680010473006,1190461360588307,-0.0268125,0.1442375,0.0224125
1680010473008,1190461363090461,-0.0268125,0.1461625,0.0303875
1680010473011,1190461365592615,-0.0237875,0.1342,0.0303875
1680010473015,1190461368094845,-0.0188375,0.122237496,0.03135
1680010473016,1190461370597230,-0.0158125,0.1122,0.0364375
1680010473019,1190461373099384,-0.010725,0.0972125,0.040425
1680010473021,1190461375601538,-0.0088,0.0881375,0.0413875
1680010473023,1190461378103769,-0.0048125,0.07315,0.0463375
1680010473026,1190461380606158,0.0022,0.06215,0.0474375
1680010473030,1190461383108312,0.0022,0.0462,0.0484
1680010473032,1190461385610543,0.0042625,0.032175,0.0493625
1680010473033,1190461388112620,0.0092124995,0.0221375,0.05335
1680010473035,1190461390614851,0.0092124995,0.00825,0.0523875
1680010473039,1190461393116989,0.0132,-0.00385,0.0493625
1680010473042,1190461395619451,0.011275,-0.0097624995,0.0474375
1680010473044,1190461398121605,0.0132,-0.01485,0.0463375
1680010473046,1190461400623745,0.014162499,-0.02585,0.04235
1680010473048,1190461403126129,0.01815,-0.0308,0.0383625
1680010473052,1190461405628283,0.015262499,-0.0347875,0.0394625
1680010473053,1190461408130437,0.01925,-0.036849998,0.0334125
1680010473055,1190461410632899,0.022275,-0.0418,0.0303875
1680010473059,1190461413135061,0.01925,-0.0378125,0.0303875
1680010473062,1190461415637215,0.01925,-0.0347875,0.0284625
1680010473063,1190461418139369,0.022275,-0.0308,0.0243375
1680010473065,1190461420641600,0.022275,-0.027775,0.0284625
1680010473068,1190461423143750,0.0251625,-0.0237875,0.029424999
1680010473070,1190461425645904,0.0242,-0.01485,0.0243375
1680010473074,1190461428148365,0.0232375,-0.0078375,0.0264
1680010473076,1190461430650519,0.0232375,-0.0067375,0.0284625
1680010473080,1190461433152913,0.0232375,0.0042625,0.0273625
1680010473081,1190461435655066,0.021175,0.0132,0.0284625
1680010473083,1190461438157220,0.022275,0.0171875,0.0273625
1680010473086,1190461440659451,0.01925,0.027224999,0.0243375
1680010473090,1190461443161831,0.014162499,0.0331375,0.0264
1680010473092,1190461445663985,0.0132,0.0372625,0.023375
1680010473093,1190461448166138,0.011275,0.0471625,0.0193875
1680010473096,1190461450668369,0.0031625,0.0562375,0.018424999
1680010473098,1190461453170514,2.75E-4,0.06325,0.0163625
1680010473101,1190461455672668,-0.00385,0.071225,0.0133375
1680010473103,1190461458175129,-0.005775,0.0771375,0.0133375
1680010473105,1190461460677283,-0.0078375,0.0801625,0.0133375
1680010473109,1190461463179422,-0.010725,0.08525,0.01045
1680010473110,1190461465681807,-0.010725,0.087175,0.0133375
1680010473113,1190461468183961,-0.0097624995,0.0881375,0.018424999
1680010473115,1190461470686191,-0.011825,0.0862125,0.0133375
1680010473120,1190461473188369,-0.010725,0.08415,0.0114124995
1680010473121,1190461475690754,-0.0088,0.0771375,0.012375
1680010473123,1190461478192908,-0.0067375,0.071225,0.0114124995
1680010473128,1190461480695138,-0.00385,0.0672375,0.01045
1680010473130,1190461483197283,-0.0048125,0.06215,0.0064625
1680010473132,1190461485699437,-0.00385,0.052249998,0.0034375
1680010473134,1190461488201822,2.75E-4,0.049225,4.125E-4
1680010473136,1190461490704053,-0.00385,0.0391875,-0.0045375
1680010473138,1190461493206206,0.0022,0.0312125,-0.0086624995
1680010473141,1190461495708581,0.0022,0.01925,-0.01265
1680010473144,1190461498210735,0.0012375,0.0132,-0.0176
1680010473145,1190461500712966,2.75E-4,0.00715,-0.0196625
1680010473149,1190461503215120,2.75E-4,-0.00275,-0.0246125
1680010473150,1190461505717254,-0.00275,-0.0088,-0.0265375
1680010473154,1190461508219639,-0.00275,-0.0158125,-0.0295625
1680010473158,1190461510721870,-0.0048125,-0.0198,-0.0286
1680010473159,1190461513224024,-0.00385,-0.0268125,-0.0295625
1680010473161,1190461515726177,-0.00385,-0.0317625,-0.0295625
1680010473164,1190461518228562,-0.00275,-0.033825,-0.025575
1680010473167,1190461520730716,-0.0048125,-0.0378125,-0.025575
1680010473169,1190461523232947,-0.00385,-0.044825,-0.025575
1680010473171,1190461525735345,-0.005775,-0.047849998,-0.02255
1680010473173,1190461528237499,-0.0067375,-0.0507375,-0.02255
1680010473176,1190461530739653,-0.005775,-0.0528,-0.020624999
1680010473178,1190461533241884,-0.0078375,-0.0507375,-0.0185625
1680010473180,1190461535744038,-0.0067375,-0.0548625,-0.0176
1680010473183,1190461538246202,-0.010725,-0.0528,-0.0176
1680010473186,1190461540748586,-0.0127875,-0.0567875,-0.020624999
1680010473189,1190461543250817,-0.0097624995,-0.0548625,-0.020624999
1680010473191,1190461545752971,-0.0097624995,-0.05775,-0.0196625
1680010473193,1190461548255340,-0.010725,-0.0488125,-0.0176
1680010473199,1190461550757494,-0.0097624995,-0.0427625,-0.0176
1680010473200,1190461553259648,-0.0067375,-0.0378125,-0.013612499
1680010473204,1190461555762129,-0.0078375,-0.0328625,-0.013612499
1680010473205,1190461558264282,-0.0097624995,-0.0237875,-0.0166375
1680010473207,1190461560766436,-0.0097624995,-0.0177375,-0.0176
1680010473210,1190461563268667,-0.0078375,-0.0088,-0.0185625
1680010473212,1190461565770821,-0.0097624995,-8.25E-4,-0.0185625
1680010473214,1190461568272994,-0.005775,0.0012375,-0.0166375
1680010473215,1190461570775378,-0.00275,0.00825,-0.01155
1680010473218,1190461573277609,-0.00385,0.0171875,-0.009625
1680010473221,1190461575779763,0.0012375,0.0221375,-0.0075625
1680010473223,1190461578281917,-0.00385,0.0281875,-0.0045375
1680010473225,1190461580784307,-0.0048125,0.0331375,-0.003575
1680010473229,1190461583286460,-0.00275,0.0342375,0.0034375
1680010473231,1190461585788691,-0.00275,0.0331375,0.007425
1680010473234,1190461588291076,-0.0048125,0.038225,0.01045
1680010473236,1190461590793245,-0.0048125,0.041249998,0.0114124995
1680010473242,1190461593295475,-0.00385,0.041249998,0.0144375
1680010473243,1190461595797629,-0.00385,0.0452375,0.0154
1680010473244,1190461598299778,-0.00275,0.0501875,0.02145
1680010473246,1190461600801932,2.75E-4,0.0471625,0.023375
1680010473249,1190461603304394,-0.0017875,0.0462,0.023375
1680010473251,1190461605806547,-0.00385,0.049225,0.0264
1680010473253,1190461608308701,2.75E-4,0.0532125,0.0284625
1680010473255,1190461610811076,0.0022,0.054175,0.032449998
1680010473258,1190461613313230,0.0031625,0.05115,0.03135
1680010473260,1190461615815384,0.0042625,0.049225,0.0303875
1680010473263,1190461618317614,0.0061875,0.0471625,0.0353375
1680010473265,1190461620819994,0.00825,0.0462,0.03135
1680010473269,1190461623322225,0.011275,0.043175,0.03135
1680010473270,1190461625824302,0.014162499,0.038225,0.03135
1680010473273,1190461628326532,0.015262499,0.0361625,0.03135
1680010473277,1190461630828696,0.01815,0.0342375,0.0303875
1680010473280,1190461633331081,0.0171875,0.02915,0.0254375
1680010473282,1190461635833312,0.0202125,0.02915,0.023375
1680010473284,1190461638335466,0.0171875,0.0281875,0.02035
1680010473288,1190461640837807,0.0171875,0.0281875,0.0193875
1680010473291,1190461643339961,0.015262499,0.027224999,0.01045
1680010473291,1190461645842115,0.0061875,0.032175,0.007425
1680010473293,1190461648344346,0.005225,0.0281875,0.0044
1680010473296,1190461650846730,0.0042625,0.0242,-5.5E-4
1680010473298,1190461653348893,-0.00385,0.0281875,-5.5E-4
1680010473301,1190461655851047,-0.005775,0.02915,-0.0056375
1680010473303,1190461658353278,-0.0078375,0.027224999,-0.0075625
1680010473309,1190461660855432,-0.010725,0.021175,-0.0066
1680010473311,1190461663357816,-0.011825,0.01925,-0.0075625
1680010473311,1190461665859970,-0.01375,0.0122375,-0.009625
1680010473315,1190461668362201,-0.01375,0.0042625,-0.0045375
1680010473317,1190461670864585,-0.016775,0.0031625,-0.003575
1680010473320,1190461673366744,-0.0158125,-0.005775,-0.003575
1680010473323,1190461675868898,-0.0177375,-0.0097624995,-0.0026125
1680010473325,1190461678371129,-0.0158125,-0.01375,0.0023375
1680010473327,1190461680873283,-0.0127875,-0.016775,0.0064625
1680010473330,1190461683375667,-0.01375,-0.0188375,0.0114124995
1680010473332,1190461685877821,-0.0177375,-0.0198,0.0133375
1680010473334,1190461688380052,-0.0177375,-0.02475,0.018424999
1680010473336,1190461690882206,-0.0177375,-0.0207625,0.02145
1680010473339,1190461693384360,-0.0177375,-0.0158125,0.0243375
1680010473341,1190461695886739,-0.021724999,-0.01375,0.0254375
1680010473343,1190461698388893,-0.021724999,-0.0048125,0.0273625
1680010473346,1190461700891355,-0.02475,0.005225,0.0284625
1680010473348,1190461703393509,-0.0308,0.0122375,0.0243375
1680010473354,1190461705895633,-0.0347875,0.0251625,0.0243375
1680010473355,1190461708397864,-0.0378125,0.0331375,0.02035
1680010473358,1190461710900018,-0.0418,0.0452375,0.02145
1680010473361,1190461713402172,-0.0457875,0.0551375,0.018424999
1680010473362,1190461715904557,-0.047849998,0.0611875,0.0163625
1680010473364,1190461718406782,-0.04675,0.06215,0.02145
1680010473366,1190461720908936,-0.0488125,0.06325,0.0163625
1680010473368,1190461723411090,-0.0488125,0.0672375,0.0144375
1680010473371,1190461725913475,-0.047849998,0.0581625,0.0163625
1680010473374,1190461728415625,-0.04675,0.0501875,0.02145
1680010473376,1190461730917855,-0.047849998,0.0441375,0.02145
1680010473380,1190461733420240,-0.047849998,0.038225,0.0193875
1680010473381,1190461735922394,-0.0457875,0.03025,0.018424999
1680010473384,1190461738424548,-0.043725,0.0202125,0.0154
1680010473385,1190461740926787,-0.0418,0.00825,0.0154
1680010473391,1190461743429172,-0.0418,0.0022,0.0144375
1680010473393,1190461745931326,-0.0408375,-0.005775,0.00935
1680010473394,1190461748433451,-0.036849998,-0.011825,0.0064625
1680010473396,1190461750935681,-0.0378125,-0.0158125,0.0034375
1680010473400,1190461753437835,-0.0378125,-0.0207625,0.0044
1680010473401,1190461755939989,-0.033825,-0.027775,0.0023375
1680010473403,1190461758442451,-0.033825,-0.033825,-5.5E-4
1680010473409,1190461760944576,-0.0347875,-0.0408375,-5.5E-4
1680010473411,1190461763446960,-0.0317625,-0.0438625,-0.0026125
1680010473412,1190461765949114,-0.0308,-0.0507375,4.125E-4
1680010473414,1190461768451268,-0.0287375,-0.0598125,0.0044
1680010473416,1190461770953499,-0.0287375,-0.0638,0.0053625
1680010473419,1190461773455883,-0.0287375,-0.06985,0.0114124995
1680010473421,1190461775958037,-0.0308,-0.0768625,0.0154
1680010473425,1190461778460191,-0.0317625,-0.0858,0.018424999
1680010473428,1190461780962422,-0.0287375,-0.09185,0.0193875
1680010473432,1190461783464576,-0.033825,-0.095837496,0.0254375
1680010473435,1190461784932206,-0.0347875,-0.0977625,0.029424999
1680010473435,1190461786401115,-0.033825,-0.1007875,0.03135
1680010473437,1190461790971345,-0.038775,-0.099825,0.032449998
1680010473442,1190461793473499,-0.036849998,-0.10285,0.0374
1680010473443,1190461795975883,-0.033825,-0.104775,0.0413875
1680010473445,1190461798478037,-0.03575,-0.10175,0.045375
1680010473446,1190461800980268,-0.03575,-0.099825,0.0444125
1680010473449,1190461803482422,-0.0347875,-0.0897875,0.0463375
1680010473451,1190461805984811,-0.0317625,-0.0848375,0.045375
1680010473453,1190461808486965,-0.033825,-0.0768625,0.040425
1680010473456,1190461810989196,-0.0317625,-0.0658625,0.0394625
1680010473459,1190461813491350,-0.027775,-0.05775,0.0383625
1680010473461,1190461815993519,-0.0268125,-0.047849998,0.0334125
1680010473465,1190461818495903,-0.021724999,-0.0287375,0.029424999
1680010473469,1190461820998057,-0.016775,-0.016775,0.0284625
1680010473471,1190461823500288,-0.01375,-0.0048125,0.0243375
1680010473472,1190461826002682,-0.0088,0.0042625,0.0224125
1680010473474,1190461828504836,2.75E-4,0.01925,0.0163625
1680010473476,1190461831007066,0.0061875,0.0352,0.0193875
1680010473480,1190461833509143,0.0122375,0.0462,0.0193875
1680010473482,1190461836011374,0.0171875,0.060225,0.02035
1680010473483,1190461838513759,0.021175,0.0702625,0.018424999
1680010473486,1190461841015912,0.0262625,0.0792,0.018424999
1680010473488,1190461843518143,0.027224999,0.0902,0.0144375
1680010473491,1190461846020297,0.0312125,0.1021625,0.012375
1680010473493,1190461848522692,0.0352,0.1131625,0.0133375
1680010473496,1190461851024846,0.033275,0.11825,0.0133375
1680010473498,1190461853526999,0.0312125,0.12925,0.0114124995
1680010473502,1190461856029476,0.033275,0.137225,0.00935
1680010473504,1190461858531630,0.02915,0.1461625,0.0064625
1680010473505,1190461861033784,0.0312125,0.148225,0.0064625
1680010473508,1190461863535938,0.0312125,0.15619999,0.007425
1680010473511,1190461866038168,0.02915,0.16225,0.007425
1680010473513,1190461868540322,0.02915,0.1672,0.0053625
1680010473516,1190461871042707,0.03025,0.1672,0.007425
1680010473520,1190461873544938,0.0262625,0.1672,0.007425
1680010473522,1190461876047091,0.0251625,0.1651375,0.0083875
1680010473524,1190461878549495,0.027224999,0.1632125,0.007425
1680010473526,1190461881051649,0.03025,0.1552375,0.0064625
1680010473529,1190461883553803,0.0281875,0.15125,0.0034375
1680010473531,1190461886056264,0.0262625,0.148225,0.0064625
1680010473534,1190461888558418,0.0312125,0.1412125,0.0044
1680010473536,1190461891060567,0.0281875,0.12815,0.0023375
1680010473540,1190461893562798,0.02915,0.11825,0.001375
1680010473542,1190461896064952,0.033275,0.1082125,-0.00165
1680010473544,1190461898567101,0.0342375,0.09515,-0.003575
1680010473546,1190461901069255,0.0361625,0.0782375,-0.003575
1680010473549,1190461903571717,0.0352,0.0682,-0.003575
1680010473551,1190461906073871,0.033275,0.0551375,-0.0056375
1680010473554,1190461908576025,0.0312125,0.0391875,-0.0066
1680010473556,1190461911078389,0.03025,0.0221375,-0.0056375
1680010473560,1190461913580543,0.0281875,0.0042625,-0.003575
1680010473561,1190461916082774,0.0251625,-0.005775,-0.0026125
1680010473563,1190461918585158,0.0232375,-0.0188375,-0.0026125
1680010473566,1190461921087346,0.01815,-0.0328625,-0.00165
1680010473568,1190461923589500,0.010175,-0.0418,-5.5E-4
1680010473571,1190461926091731,0.005225,-0.0438625,-5.5E-4
1680010473575,1190461928593885,-0.0017875,-0.0488125,0.001375
1680010473577,1190461931096068,-0.0048125,-0.0598125,4.125E-4
1680010473580,1190461933598452,-0.0088,-0.060775,-0.003575
1680010473581,1190461936100683,-0.01485,-0.0598125,-5.5E-4
1680010473583,1190461938602837,-0.0177375,-0.0617375,-0.0026125
1680010473586,1190461941105221,-0.0237875,-0.0617375,-0.0045375
1680010473588,1190461943607384,-0.0268125,-0.0598125,-0.00165
1680010473591,1190461946109538,-0.0298375,-0.058849998,-0.00165
1680010473593,1190461948611769,-0.033825,-0.05775,-0.0045375
1680010473595,1190461951114154,-0.0308,-0.0528,-0.0075625
1680010473599,1190461953616394,-0.033825,-0.049775,-0.0075625
1680010473600,1190461956118471,-0.0308,-0.0488125,-0.0086624995
1680010473603,1190461958620702,-0.0287375,-0.049775,-0.01155
1680010473606,1190461961122856,-0.027775,-0.0457875,-0.013612499
1680010473608,1190461963625241,-0.027775,-0.0418,-0.013612499
1680010473611,1190461966127476,-0.027775,-0.033825,-0.0176
1680010473615,1190461968629630,-0.0268125,-0.02585,-0.0176
1680010473617,1190461971132015,-0.022824999,-0.0158125,-0.0196625
1680010473619,1190461973634169,-0.0308,-0.011825,-0.020624999
1680010473621,1190461976136312,-0.0308,-0.005775,-0.020624999
1680010473623,1190461978638543,-0.033825,0.0031625,-0.02365
1680010473626,1190461981140697,-0.0347875,0.00825,-0.025575
1680010473629,1190461983643159,-0.03575,0.016224999,-0.0265375
1680010473631,1190461986145313,-0.0378125,0.01925,-0.02255
1680010473633,1190461988647480,-0.0418,0.0202125,-0.0215875
1680010473636,1190461991149634,-0.0457875,0.0202125,-0.020624999
1680010473639,1190461993651788,-0.036849998,0.0202125,-0.0196625
1680010473641,1190461996154173,-0.0408375,0.01925,-0.0185625
1680010473643,1190461998656403,-0.0418,0.016224999,-0.0196625
1680010473645,1190462001158788,-0.0418,0.00825,-0.01265
1680010473649,1190462003660942,-0.043725,0.00825,-0.01155
1680010473652,1190462006163077,-0.04675,0.005225,-0.0075625
1680010473654,1190462008665308,-0.0397375,-0.0017875,-0.0066
1680010473656,1190462011167461,-0.0427625,-0.0097624995,-0.003575
1680010473658,1190462013669615,-0.0488125,-0.011825,-0.00165
1680010473661,1190462016172000,-0.0427625,-0.01485,-0.003575
1680010473663,1190462018674231,-0.04675,-0.0188375,-0.0045375
1680010473666,1190462021176385,-0.0488125,-0.02475,-0.0045375
1680010473669,1190462023678538,-0.047849998,-0.02585,-0.003575
1680010473671,1190462026180923,-0.044825,-0.0308,-0.0066
1680010473674,1190462028683082,-0.0427625,-0.027775,-0.0045375
1680010473675,1190462031185543,-0.0408375,-0.0287375,-0.0056375
1680010473679,1190462033687697,-0.038775,-0.02585,-0.0086624995
1680010473681,1190462036189851,-0.036849998,-0.02475,-0.0075625
1680010473683,1190462038692082,-0.03575,-0.0198,-0.0086624995
1680010473685,1190462041194236,-0.0347875,-0.0177375,-0.0105875
1680010473690,1190462043696390,-0.0317625,-0.0127875,-0.01155
1680010473692,1190462046198774,-0.0298375,-0.005775,-0.0155375
1680010473693,1190462048701005,-0.0268125,0.0012375,-0.0155375
1680010473695,1190462051203159,-0.0268125,-8.25E-4,-0.0185625
1680010473698,1190462053705313,-0.0317625,0.014162499,-0.0176
1680010473701,1190462056207697,-0.027775,0.01925,-0.0166375
1680010473703,1190462058709851,-0.027775,0.0221375,-0.0185625
1680010473706,1190462061212010,-0.0287375,0.03025,-0.020624999
1680010473709,1190462063714472,-0.0298375,0.033275,-0.020624999
1680010473711,1190462066216625,-0.0308,0.033275,-0.0176
1680010473714,1190462068718856,-0.033825,0.038225,-0.0166375
1680010473716,1190462071221014,-0.033825,0.041249998,-0.0176
1680010473721,1190462073723168,-0.03575,0.0391875,-0.0166375
1680010473723,1190462076225322,-0.0317625,0.038225,-0.0166375
1680010473725,1190462078727783,-0.033825,0.0391875,-0.0155375
1680010473728,1190462081229937,-0.0317625,0.0342375,-0.0166375
1680010473732,1190462083731014,-0.0347875,0.0312125,-0.013612499
1680010473732,1190462086232091,-0.0347875,0.0281875,-0.013612499
1680010473734,1190462088736706,-0.03575,0.0202125,-0.01265
1680010473736,1190462091238860,-0.0347875,0.011275,-0.01155
1680010473738,1190462093740981,-0.0378125,0.00715,-0.013612499
1680010473740,1190462096243366,-0.0418,0.0031625,-0.01155
1680010473743,1190462098745520,-0.04675,-0.0017875,-0.009625
1680010473746,1190462101247673,-0.0477125,-0.010725,-0.0086624995
1680010473749,1190462103749827,-0.0488125,-0.0177375,-0.0086624995
1680010473750,1190462106252289,-0.0477125,-0.0177375,-0.0075625
1680010473754,1190462108754443,-0.0518375,-0.0268125,-0.0066
1680010473756,1190462111256596,-0.0518375,-0.0298375,-0.0026125
1680010473759,1190462113758841,-0.0537625,-0.033825,0.0023375
1680010473761,1190462116260995,-0.054725,-0.03575,0.001375
1680010473765,1190462118763149,-0.0528,-0.038775,-0.00165
1680010473768,1190462121265611,-0.0518375,-0.0408375,0.0023375
1680010473769,1190462123767764,-0.0457875,-0.043725,0.0064625
1680010473772,1190462126270149,-0.04675,-0.0488125,0.0064625
1680010473773,1190462128772303,-0.044825,-0.047849998,0.01045
1680010473776,1190462131274457,-0.0418,-0.0457875,0.012375
1680010473779,1190462133776687,-0.0397375,-0.04675,0.0144375
1680010473785,1190462136278836,-0.03575,-0.04675,0.0144375
1680010473786,1190462138781221,-0.0298375,-0.038775,0.0133375
1680010473786,1190462141283375,-0.027775,-0.0378125,0.0163625
1680010473788,1190462143785606,-0.0257125,-0.036849998,0.0163625
1680010473791,1190462146287769,-0.022824999,-0.0298375,0.0163625
1680010473793,1190462148789923,-0.0237875,-0.0237875,0.0163625
1680010473796,1190462151292308,-0.0237875,-0.0158125,0.0154
1680010473799,1190462153794539,-0.0207625,-0.0067375,0.0144375
1680010473802,1190462156296688,-0.0177375,2.75E-4,0.0144375
1680010473804,1190462158798841,-0.0198,0.0061875,0.0163625
1680010473806,1190462161301226,-0.0188375,0.0171875,0.0133375
1680010473809,1190462163803380,-0.016775,0.0281875,0.0133375
1680010473810,1190462166305534,-0.0198,0.0391875,0.0133375
1680010473813,1190462168807990,-0.0207625,0.0452375,0.01045
1680010473815,1190462171310144,-0.022824999,0.055275,0.01045
1680010473818,1190462173812375,-0.021724999,0.066275,0.0114124995
1680010473821,1190462176314529,-0.022824999,0.0682,0.012375
1680010473823,1190462178816698,-0.02475,0.076175,0.0114124995
1680010473826,1190462181319082,-0.02475,0.0801625,0.01045
1680010473830,1190462183821236,-0.022824999,0.0792,0.01045
1680010473831,1190462186323467,-0.02475,0.082225,0.0083875
1680010473833,1190462188825860,-0.022824999,0.0801625,0.0083875
1680010473836,1190462191328014,-0.0198,0.077275,0.0083875
1680010473841,1190462193830168,-0.0237875,0.07425,0.0114124995
1680010473842,1190462196332322,-0.0198,0.065175,0.012375
1680010473844,1190462198834548,-0.016775,0.0532125,0.0133375
1680010473846,1190462201336932,-0.0158125,0.0462,0.018424999
1680010473849,1190462203839163,-0.014712499,0.0352,0.02145
1680010473850,1190462206341317,-0.011825,0.0232375,0.0193875
1680010473853,1190462208843471,-0.010725,0.015262499,0.0193875
1680010473856,1190462211345851,-0.0097624995,0.0031625,0.02035
1680010473859,1190462213848004,-0.0097624995,-0.0048125,0.02035
1680010473861,1190462216350158,-0.010725,-0.0127875,0.0193875
1680010473863,1190462218852620,-0.00275,-0.0198,0.018424999
1680010473866,1190462221354794,2.75E-4,-0.02585,0.018424999
1680010473868,1190462223856947,0.0012375,-0.036849998,0.0163625
1680010473870,1190462226359101,0.0031625,-0.0457875,0.0193875
1680010473873,1190462228861332,0.005225,-0.0528,0.02035
1680010473877,1190462231363495,0.0042625,-0.060775,0.02145
1680010473881,1190462233865880,0.0012375,-0.0617375,0.023375
1680010473882,1190462236368110,0.0022,-0.065725,0.023375
1680010473885,1190462238870264,0.005225,-0.065725,0.0243375
1680010473887,1190462241372649,0.0031625,-0.0647625,0.0254375
1680010473889,1190462243874813,0.0012375,-0.0617375,0.0254375
1680010473891,1190462246376967,-0.0017875,-0.054725,0.0254375
1680010473893,1190462248879197,-0.0048125,-0.0507375,0.023375
1680010473896,1190462251381582,-0.0067375,-0.043725,0.02145
1680010473898,1190462253883745,-0.0078375,-0.0347875,0.02035
1680010473901,1190462256385899,-0.0097624995,-0.021724999,0.0163625
1680010473903,1190462258888129,-0.0127875,-0.0078375,0.0133375
1680010473906,1190462261390283,-0.014712499,0.0061875,0.00935
1680010473909,1190462263892442,-0.0207625,0.01925,0.01045
1680010473911,1190462266394904,-0.0207625,0.033275,0.0114124995
1680010473915,1190462268897057,-0.0257125,0.0471625,0.0053625
1680010473918,1190462271399211,-0.0287375,0.060225,4.125E-4
1680010473921,1190462273901582,-0.0317625,0.07315,-0.00165
1680010473922,1190462276403736,-0.033825,0.077275,-0.003575
1680010473925,1190462278905967,-0.0367125,0.0801625,-0.0056375
1680010473926,1190462281408120,-0.038775,0.0831875,-0.0066
1680010473930,1190462283910505,-0.0408375,0.0862125,-0.0075625
1680010473931,1190462286412639,-0.0418,0.0792,-0.0086624995
1680010473933,1190462288914870,-0.0378125,0.077275,-0.009625
1680010473936,1190462291417024,-0.0408375,0.0702625,-0.0105875
1680010473938,1190462293919177,-0.0378125,0.06325,-0.013612499
1680010473942,1190462296421562,-0.0397375,0.0562375,-0.01155
1680010473944,1190462298923793,-0.0418,0.049225,-0.0105875
1680010473946,1190462301425947,-0.0427625,0.0452375,-0.01265
1680010473948,1190462303928331,-0.0427625,0.04015,-0.013612499
1680010473953,1190462306430485,-0.044825,0.0312125,-0.0105875
1680010473954,1190462308932740,-0.043725,0.03025,-0.0105875
1680010473957,1190462311434817,-0.0418,0.022275,-0.0105875
1680010473960,1190462313937278,-0.0457875,0.01925,-0.01265
1680010473961,1190462316439432,-0.0457875,0.01925,-0.013612499
1680010473963,1190462318941586,-0.0427625,0.01815,-0.01155
1680010473966,1190462321443832,-0.043725,0.016224999,-0.01265
1680010473969,1190462323945986,-0.0397375,0.016224999,-0.0155375
1680010473971,1190462326448370,-0.0408375,0.0132,-0.01155
1680010473973,1190462328950524,-0.0418,0.015262499,-0.0166375
1680010473976,1190462331452774,-0.0347875,0.0171875,-0.013612499
1680010473978,1190462333955159,-0.03575,0.016224999,-0.01265
1680010473981,1190462336457312,-0.0367125,0.0202125,-0.0176
1680010473984,1190462338959466,-0.0347875,0.01815,-0.013612499
1680010473986,1190462341461625,-0.0347875,0.016224999,-0.01265
1680010473992,1190462343963856,-0.0308,0.014162499,-0.0105875
1680010473992,1190462346466241,-0.03575,0.011275,-0.0105875
1680010473997,1190462348968394,-0.0287375,0.010175,-0.003575
1680010473997,1190462351470630,-0.0317625,0.00825,-5.5E-4
1680010473999,1190462353972784,-0.0317625,0.005225,0.0044
1680010474001,1190462356475169,-0.0308,-0.0067375,0.0064625
1680010474003,1190462358977322,-0.0298375,-0.0127875,0.0144375
1680010474006,1190462361479548,-0.0287375,-0.0158125,0.02145
1680010474009,1190462363981933,-0.027775,-0.0177375,0.0264
1680010474011,1190462366484087,-0.0298375,-0.02585,0.0273625
1680010474015,1190462368986241,-0.0257125,-0.0317625,0.0334125
1680010474016,1190462371488394,-0.02475,-0.033825,0.0374
1680010474018,1190462373990610,-0.0257125,-0.03575,0.0364375
1680010474021,1190462376492764,-0.0188375,-0.036849998,0.0364375
1680010474024,1190462378995149,-0.014712499,-0.0418,0.040425
1680010474027,1190462381497374,-0.0097624995,-0.0418,0.040425
1680010474030,1190462383999528,-0.00275,-0.0408375,0.0383625
1680010474032,1190462386501682,-0.0017875,-0.0418,0.0374
1680010474034,1190462389004067,0.005225,-0.0408375,0.0374
1680010474036,1190462391506221,0.0072875,-0.043725,0.0364375
1680010474039,1190462394008658,0.0122375,-0.036849998,0.03135
1680010474041,1190462396510581,0.015262499,-0.0298375,0.032449998
1680010474043,1190462399012966,0.0171875,-0.027775,0.0284625
1680010474046,1190462401515120,0.01925,-0.02585,0.0243375
1680010474049,1190462404017351,0.0202125,-0.0177375,0.023375
1680010474051,1190462406519508,0.022275,-0.0078375,0.023375
1680010474053,1190462409021662,0.022275,0.0031625,0.02035
1680010474056,1190462411524124,0.0242,0.0122375,0.0193875
1680010474059,1190462414026278,0.0242,0.0232375,0.0154
1680010474061,1190462416528402,0.022275,0.0391875,0.0114124995
1680010474065,1190462419030787,0.0232375,0.0562375,0.00935
1680010474068,1190462421532941,0.0242,0.0702625,0.0064625
1680010474070,1190462424035172,0.0251625,0.088275,0.0023375
1680010474071,1190462426537312,0.0251625,0.1012,4.125E-4
1680010474074,1190462429039696,0.0232375,0.11715,-0.0026125
1680010474076,1190462431541850,0.0242,0.1351625,-0.0075625
1680010474079,1190462434044004,0.0232375,0.1472625,-0.0155375
1680010474081,1190462436546235,0.0242,0.154275,-0.0196625
1680010474083,1190462439048399,0.0251625,0.16225,-0.020624999
1680010474086,1190462441550783,0.0262625,0.1672,-0.0246125
1680010474089,1190462444053014,0.0262625,0.165275,-0.025575
1680010474091,1190462446555168,0.0242,0.1632125,-0.025575
1680010474093,1190462449057336,0.0251625,0.1552375,-0.0295625
1680010474096,1190462451559720,0.0251625,0.1522125,-0.0286
1680010474098,1190462454061951,0.0262625,0.148225,-0.0246125
1680010474102,1190462456564105,0.0251625,0.13915,-0.0246125
1680010474104,1190462459066268,0.0242,0.131175,-0.0246125
1680010474106,1190462461568652,0.022275,0.120175,-0.020624999
1680010474109,1190462464070806,0.021175,0.1082125,-0.020624999
1680010474111,1190462466573037,0.022275,0.09625,-0.0176
1680010474113,1190462469075422,0.0202125,0.08525,-0.0166375
1680010474116,1190462471577580,0.0182875,0.076175,-0.0155375
1680010474120,1190462474079811,0.01925,0.065175,-0.0155375
1680010474122,1190462476581965,0.0202125,0.054175,-0.0155375
1680010474123,1190462479084119,0.0182875,0.041249998,-0.0176
1680010474126,1190462481586480,0.015262499,0.033275,-0.0185625
1680010474129,1190462484088710,0.014162499,0.0232375,-0.0196625
1680010474131,1190462486590864,0.0171875,0.0171875,-0.0196625
1680010474133,1190462489093018,0.0132,0.0031625,-0.020624999
1680010474136,1190462491595403,0.0092124995,-0.0078375,-0.025575
1680010474140,1190462494097542,0.00825,-0.0158125,-0.0265375
1680010474142,1190462496599696,0.0092124995,-0.02585,-0.0265375
1680010474144,1190462499101927,0.00825,-0.0317625,-0.0265375
1680010474146,1190462501604312,0.010175,-0.0408375,-0.0286
1680010474149,1190462504106533,0.011275,-0.0418,-0.0265375
1680010474151,1190462506608686,0.0122375,-0.0457875,-0.0276375
1680010474153,1190462509110840,0.0132,-0.0567875,-0.0295625
1680010474156,1190462511613225,0.010175,-0.0617375,-0.0276375
1680010474160,1190462514115374,0.00825,-0.060775,-0.0286
1680010474161,1190462516617604,0.0061875,-0.0617375,-0.02365
1680010474164,1190462519119758,0.0092124995,-0.0638,-0.020624999
1680010474166,1190462521622143,0.0092124995,-0.0647625,-0.0185625
1680010474169,1190462524124302,0.0092124995,-0.0677875,-0.01265
1680010474171,1190462526626456,0.011275,-0.06985,-0.01155
1680010474174,1190462529128686,0.0092124995,-0.06985,-0.0066
1680010474178,1190462531630821,0.005225,-0.071775,-0.0056375
1680010474180,1190462534133283,0.0072875,-0.0748,0.001375
1680010474182,1190462536635437,0.010175,-0.0757625,0.0034375
1680010474185,1190462539137591,0.010175,-0.0787875,0.0053625
1680010474187,1190462541639975,0.014162499,-0.0787875,0.0114124995
1680010474189,1190462544142139,0.014162499,-0.08085,0.012375
1680010474193,1190462546644293,0.0132,-0.07975,0.012375
1680010474194,1190462549146524,0.014162499,-0.076725,0.0114124995
1680010474197,1190462551648908,0.015262499,-0.0757625,0.012375
1680010474200,1190462554151058,0.01925,-0.0708125,0.01045
1680010474201,1190462556653212,0.0171875,-0.071775,0.01045
1680010474203,1190462559155443,0.0182875,-0.071775,0.00935
1680010474209,1190462561657597,0.0202125,-0.066825,0.00935
1680010474209,1190462564159750,0.01925,-0.0658625,0.007425
1680010474211,1190462566662231,0.01815,-0.0638,0.0064625
1680010474215,1190462569164385,0.01925,-0.0628375,0.0053625
1680010474218,1190462571666539,0.0202125,-0.0628375,0.007425
1680010474220,1190462574168693,0.0202125,-0.05775,0.00935
1680010474222,1190462576671072,0.0232375,-0.049775,0.00935
1680010474224,1190462579173226,0.0242,-0.0438625,0.0064625
1680010474226,1190462581675688,0.0242,-0.0347875,0.0083875
1680010474230,1190462584177841,0.0262625,-0.0237875,0.0083875
1680010474231,1190462586680024,0.0251625,-0.011825,0.0064625
1680010474234,1190462589182255,0.0281875,-0.00385,0.0064625
1680010474240,1190462591684409,0.0242,0.0042625,0.0083875
1680010474240,1190462594186563,0.0262625,0.0111375,0.0053625
1680010474241,1190462596689024,0.0262625,0.0171875,0.0053625
1680010474244,1190462599191182,0.0262625,0.0232375,0.0053625
1680010474247,1190462601693336,0.0251625,0.03025,0.0034375
1680010474249,1190462604195490,0.0242,0.032175,0.001375
1680010474252,1190462606697883,0.0242,0.0361625,0.0044
1680010474254,1190462609200037,0.0251625,0.038225,0.0044
1680010474257,1190462611702191,0.0242,0.0372625,0.0044
1680010474259,1190462614204653,0.0232375,0.0342375,0.0053625
1680010474261,1190462616706807,0.0251625,0.0361625,0.0034375
1680010474263,1190462619209047,0.027224999,0.0361625,0.0023375
1680010474267,1190462621711201,0.03025,0.0372625,0.0044
1680010474269,1190462624213355,0.02915,0.032175,0.0053625
1680010474271,1190462626715740,0.03025,0.0281875,0.007425
1680010474274,1190462629217956,0.0331375,0.0242,0.00935
1680010474277,1190462631720110,0.02915,0.0251625,0.00935
1680010474280,1190462634222264,0.02915,0.0202125,0.0114124995
1680010474281,1190462636724649,0.03025,0.016224999,0.0114124995
1680010474284,1190462639226784,0.0331375,0.0171875,0.00935
1680010474287,1190462641728937,0.02915,0.0171875,0.00935
1680010474291,1190462644231168,0.02915,0.015262499,0.00935
1680010474292,1190462646733553,0.0242,0.016224999,0.0044
1680010474295,1190462649235721,0.0221375,0.014162499,0.0034375
1680010474296,1190462651737951,0.0202125,0.0122375,4.125E-4
1680010474299,1190462654240105,0.014162499,0.0111375,-0.00165
1680010474301,1190462656742259,0.0122375,0.00825,-0.0045375
1680010474304,1190462659244413,0.00715,0.0022,-0.0066
1680010474307,1190462661746880,0.00825,1.375E-4,-0.0086624995
1680010474309,1190462664249033,0.0042625,-0.00275,-0.01155
1680010474311,1190462666751418,0.0012375,-0.011825,-0.01265
1680010474313,1190462669253572,-0.0017875,-0.0127875,-0.01265
1680010474317,1190462671755726,-0.0048125,-0.0158125,-0.01155
1680010474320,1190462674257957,-0.0078375,-0.02585,-0.01155
1680010474322,1190462676760341,-0.011825,-0.033825,-0.01155
1680010474324,1190462679262495,-0.0158125,-0.0408375,-0.01265
1680010474329,1190462681764730,-0.01485,-0.044825,-0.01155
1680010474331,1190462684266884,-0.016775,-0.047849998,-0.009625
1680010474333,1190462686769268,-0.0158125,-0.0528,-0.01265
1680010474334,1190462689271422,-0.01485,-0.0537625,-0.01155
1680010474337,1190462691773576,-0.0158125,-0.0537625,-0.01265
1680010474339,1190462694275822,-0.01375,-0.0628375,-0.0105875
1680010474341,1190462696777976,-0.0127875,-0.0647625,-0.0075625
1680010474343,1190462699280360,-0.01375,-0.0598125,-0.0075625
1680010474347,1190462701782514,-0.0108624995,-0.0617375,-0.0086624995
1680010474349,1190462704284764,-0.0088,-0.0638,-0.0066
1680010474351,1190462706786918,-0.0088,-0.0598125,-0.0045375
1680010474354,1190462709289302,-0.0078375,-0.0567875,-0.003575
1680010474357,1190462711791533,-0.0048125,-0.0548625,-0.003575
1680010474360,1190462714293693,-0.0017875,-0.0457875,-0.003575
1680010474363,1190462716795847,-0.00275,-0.0457875,-0.003575
1680010474365,1190462719298231,-0.0017875,-0.036849998,4.125E-4
1680010474367,1190462721800385,1.375E-4,-0.0298375,0.001375
1680010474370,1190462724302539,1.375E-4,-0.0237875,-5.5E-4
1680010474372,1190462726804770,0.0022,-0.0177375,-5.5E-4
1680010474374,1190462729307155,1.375E-4,-0.0088,4.125E-4
1680010474377,1190462731809308,1.375E-4,-0.0017875,0.001375
1680010474379,1190462734311539,0.0012375,0.0031625,0.0023375
1680010474381,1190462736813678,-0.0017875,0.0111375,0.001375
1680010474384,1190462739315832,0.0022,0.01925,-5.5E-4
1680010474387,1190462741818293,0.0031625,0.0242,4.125E-4
1680010474389,1190462744320447,0.0031625,0.03025,-0.00165
1680010474391,1190462746822601,0.0031625,0.03025,-0.0026125
1680010474394,1190462749324755,0.0031625,0.0331375,-0.00165
1680010474397,1190462751827140,0.0042625,0.0342375,-0.0045375
1680010474400,1190462754329293,0.0061875,0.0331375,-0.0045375
1680010474403,1190462756831437,0.005225,0.0352,-0.0056375
1680010474406,1190462759333899,0.0031625,0.03025,-0.0075625
1680010474410,1190462761836053,0.005225,0.0281875,-0.0105875
1680010474410,1190462764338207,0.0031625,0.021175,-0.013612499
1680010474411,1190462766840437,0.0042625,0.015262499,-0.013612499
1680010474413,1190462769342606,0.0042625,0.0122375,-0.0166375
1680010474417,1190462771844991,1.375E-4,0.0031625,-0.020624999
1680010474419,1190462774347145,0.0042625,-0.00275,-0.0185625
1680010474421,1190462776849375,0.0022,-0.0158125,-0.0185625
1680010474425,1190462779351510,1.375E-4,-0.027775,-0.0176
1680010474428,1190462781853895,0.0012375,-0.0287375,-0.0166375
1680010474430,1190462784356049,0.0012375,-0.03575,-0.01265
1680010474431,1190462786858203,0.0022,-0.0418,-0.0056375
1680010474434,1190462789360664,1.375E-4,-0.0457875,-0.0045375
1680010474437,1190462791862822,0.0031625,-0.0528,-0.003575
1680010474441,1190462794364976,0.005225,-0.0528,0.0023375
1680010474443,1190462796867207,0.00715,-0.049775,0.0044
1680010474445,1190462799369365,0.0061875,-0.0427625,0.0034375
1680010474447,1190462801871519,0.0022,-0.036849998,0.0034375
1680010474449,1190462804373904,0.0031625,-0.0317625,0.0034375
1680010474451,1190462806876058,1.375E-4,-0.02585,0.0044
1680010474454,1190462809378289,-0.0017875,-0.0188375,4.125E-4
1680010474457,1190462811880461,1.375E-4,-0.0097624995,-5.5E-4
1680010474459,1190462814382615,1.375E-4,-0.0017875,-0.00165
1680010474461,1190462816885077,1.375E-4,0.0012375,-0.00165
1680010474464,1190462819387231,0.0012375,0.0031625,-0.003575
1680010474467,1190462821889389,0.0012375,0.010175,-0.0045375
1680010474469,1190462824391774,0.0042625,0.0122375,-0.003575
1680010474471,1190462826893928,0.0042625,0.016224999,-0.0056375
1680010474474,1190462829396159,0.0042625,0.0221375,-0.0066
1680010474479,1190462831898529,0.0061875,0.027224999,-0.0105875
1680010474481,1190462834400683,0.00715,0.03025,-0.009625
1680010474483,1190462836902837,0.0061875,0.0331375,-0.0075625
1680010474485,1190462839405068,0.0092124995,0.0361625,-0.0075625
1680010474487,1190462841907222,0.0111375,0.0441375,-0.0155375
1680010474489,1190462844409390,0.010175,0.0471625,-0.01155
1680010474491,1190462846911774,0.010175,0.0471625,-0.0075625
1680010474494,1190462849414005,0.00825,0.043175,-0.0075625
1680010474497,1190462851916159,0.00825,0.0452375,-0.0086624995
1680010474499,1190462854418543,0.0092124995,0.0482625,-0.0105875
1680010474501,1190462856920683,0.005225,0.0391875,-0.0105875
1680010474504,1190462859422837,0.0042625,0.0391875,-0.01155
1680010474507,1190462861925068,0.0061875,0.0372625,-0.01155
1680010474509,1190462864427453,0.005225,0.0372625,-0.01155
1680010474511,1190462866929577,0.0031625,0.0342375,-0.01265
1680010474516,1190462869431731,0.0031625,0.0342375,-0.013612499
1680010474518,1190462871933962,0.0031625,0.02915,-0.01265
1680010474521,1190462874436116,0.0042625,0.0251625,-0.0086624995
1680010474523,1190462876938500,0.0042625,0.0251625,-0.0086624995
1680010474524,1190462879440731,0.0031625,0.0242,-0.0045375
1680010474527,1190462881942885,0.0022,0.021175,-0.003575
1680010474530,1190462884445270,0.0012375,0.0202125,-0.003575
1680010474532,1190462886947408,0.0012375,0.01925,-0.0056375
1680010474534,1190462889449561,1.375E-4,0.0232375,-0.0075625
1680010474537,1190462891951715,0.0012375,0.0242,-0.0056375
1680010474539,1190462894453946,-0.0017875,0.027224999,-0.0045375
1680010474541,1190462896956360,-0.0017875,0.0312125,-0.0045375
1680010474544,1190462899458514,-0.005775,0.0281875,-0.0026125
1680010474547,1190462901960744,-0.0078375,0.0361625,-0.0045375
1680010474549,1190462904462898,-0.0108624995,0.04015,-0.0045375
1680010474553,1190462906965307,-0.0127875,0.04015,-0.00165
1680010474555,1190462909467461,-0.01485,0.04015,-0.00165
1680010474557,1190462911969691,-0.0177375,0.038225,-5.5E-4
1680010474560,1190462914472076,-0.0177375,0.0352,0.001375
1680010474562,1190462916974230,-0.0207625,0.03025,-0.00165
1680010474563,1190462919476389,-0.0207625,0.0251625,-5.5E-4
1680010474567,1190462921978543,-0.0207625,0.01815,4.125E-4
1680010474569,1190462924480773,-0.022824999,0.0132,-5.5E-4
1680010474571,1190462926982927,-0.02585,0.0061875,-0.0056375
1680010474574,1190462929485326,-0.027775,0.005225,-0.0086624995
1680010474577,1190462931987557,-0.027775,-0.005775,-0.0075625
1680010474579,1190462934489710,-0.0298375,-0.0097624995,-0.009625
1680010474581,1190462936991864,-0.0317625,-0.011825,-0.0166375
1680010474584,1190462939494259,-0.0298375,-0.0127875,-0.01265
1680010474587,1190462941996413,-0.0298375,-0.0158125,-0.0185625
1680010474591,1190462944498874,-0.0287375,-0.0177375,-0.0215875
1680010474592,1190462947001028,-0.0268125,-0.0237875,-0.0185625
1680010474594,1190462949503182,-0.027775,-0.0237875,-0.0155375
1680010474597,1190462952005432,-0.027775,-0.02475,-0.0155375
1680010474600,1190462954507586,-0.022824999,-0.0177375,-0.0155375
1680010474601,1190462957009740,-0.0218625,-0.01485,-0.01155
1680010474604,1190462959511893,-0.0218625,-0.01375,-0.01155
1680010474607,1190462962014355,-0.0218625,-0.0097624995,-0.01265
1680010474609,1190462964516509,-0.0207625,-0.005775,-0.013612499
1680010474611,1190462967018663,-0.0198,-8.25E-4,-0.01155
1680010474614,1190462969521047,-0.0198,0.00715,-0.01265
1680010474617,1190462972023196,-0.016775,0.0132,-0.0166375
1680010474619,1190462974525350,-0.0158125,0.0132,-0.0155375
1680010474622,1190462977027811,-0.016775,0.021175,-0.0166375
1680010474625,1190462979529965,-0.0158125,0.0242,-0.0166375
1680010474629,1190462982032109,-0.0158125,0.02915,-0.0166375
1680010474632,1190462984533186,-0.0127875,0.0361625,-0.0185625
1680010474632,1190462987034263,-0.01375,0.0372625,-0.020624999
1680010474634,1190462989538648,-0.01485,0.0372625,-0.0215875
1680010474638,1190462992041109,-0.0127875,0.0391875,-0.020624999
1680010474640,1190462994543259,-0.0177375,0.04015,-0.0215875
1680010474642,1190462997045413,-0.0158125,0.0452375,-0.020624999
1680010474644,1190462999547798,-0.0177375,0.0462,-0.0196625
1680010474647,1190463002049951,-0.016775,0.049225,-0.0215875
1680010474649,1190463004552105,-0.0177375,0.052249998,-0.0185625
1680010474652,1190463007054350,-0.0158125,0.054175,-0.0166375
1680010474654,1190463009556735,-0.0158125,0.049225,-0.01265
1680010474659,1190463012058888,-0.0158125,0.049225,-0.01265
1680010474659,1190463014561042,-0.0127875,0.049225,-0.0086624995
1680010474661,1190463017063263,-0.0097624995,0.0462,-0.003575
1680010474666,1190463019565417,-0.0088,0.041249998,0.0023375
1680010474668,1190463022067571,-0.0078375,0.04015,0.0034375
1680010474670,1190463024570032,-0.005775,0.0352,0.00935
1680010474672,1190463027072201,-0.0048125,0.032175,0.0144375
1680010474674,1190463029574586,-0.005775,0.03025,0.0193875
1680010474677,1190463032076740,-0.0067375,0.01815,0.02035
1680010474680,1190463034578894,-0.0048125,0.0111375,0.02145
1680010474682,1190463037081124,-0.005775,0.0061875,0.0254375
1680010474684,1190463039583283,-0.00385,0.0012375,0.0264
1680010474687,1190463042085668,-0.0017875,-0.0078375,0.0254375
1680010474689,1190463044587822,0.0012375,-0.01485,0.0273625
1680010474691,1190463047090052,0.0012375,-0.02475,0.029424999
1680010474694,1190463049592201,1.375E-4,-0.0298375,0.0353375
1680010474697,1190463052094355,-0.00385,-0.03575,0.0383625
1680010474699,1190463054596740,0.0012375,-0.044825,0.040425
1680010474703,1190463057098971,0.0012375,-0.0507375,0.043449998
1680010474705,1190463059601369,-0.00275,-0.0518375,0.045375
1680010474708,1190463062103523,-0.0017875,-0.0598125,0.0523875
1680010474709,1190463064605677,-0.0017875,-0.0617375,0.051425
1680010474711,1190463067107908,-0.00275,-0.0628375,0.0523875
1680010474714,1190463069610061,0.0012375,-0.0638,0.0573375
1680010474718,1190463072112432,0.0022,-0.0617375,0.0573375
1680010474721,1190463074614586,0.0061875,-0.0617375,0.0573375
1680010474723,1190463077116817,0.00825,-0.0638,0.0603625
1680010474725,1190463079618971,0.011275,-0.0617375,0.0603625
1680010474727,1190463082121128,0.015262499,-0.0567875,0.0633875
1680010474730,1190463084623513,0.01925,-0.0518375,0.06545
1680010474731,1190463087125667,0.0202125,-0.0537625,0.06545
1680010474734,1190463089627898,0.0232375,-0.0488125,0.0664125
1680010474737,1190463092130268,0.0262625,-0.043725,0.06545
1680010474741,1190463094632422,0.033275,-0.038775,0.0614625
1680010474743,1190463097134653,0.0312125,-0.0308,0.0603625
1680010474744,1190463099636730,0.0312125,-0.0207625,0.0584375
1680010474747,1190463102138928,0.0312125,-0.0127875,0.0523875
1680010474749,1190463104641312,0.0363,-0.0017875,0.0493625
1680010474751,1190463107143543,0.0352,0.011275,0.0474375
1680010474754,1190463109645697,0.0363,0.01925,0.0463375
1680010474757,1190463112147837,0.0391875,0.0281875,0.043449998
1680010474760,1190463114650221,0.0402875,0.0372625,0.0394625
1680010474761,1190463117152375,0.0391875,0.05115,0.0353375
1680010474764,1190463119654529,0.0402875,0.066275,0.0334125
1680010474767,1190463122156991,0.0391875,0.076175,0.0303875
1680010474769,1190463124659139,0.0372625,0.08525,0.0273625
1680010474771,1190463127161293,0.03025,0.09515,0.023375
1680010474776,1190463129663447,0.0281875,0.1051875,0.018424999
1680010474779,1190463132165669,0.0281875,0.120175,0.0133375
1680010474781,1190463134667823,0.0232375,0.1302125,0.0114124995
1680010474782,1190463137170207,0.01925,0.1362625,0.00935
1680010474784,1190463139672438,0.0171875,0.13915,0.0064625
1680010474787,1190463142174592,0.0132,0.1452,0.0083875
1680010474789,1190463144677005,0.0143,0.14025,0.0083875
1680010474791,1190463147179159,0.011275,0.1342,0.0114124995
1680010474794,1190463149681312,0.0092124995,0.126225,0.018424999
1680010474797,1190463152183543,0.010175,0.1142625,0.0224125
1680010474800,1190463154685948,0.011275,0.1021625,0.0224125
1680010474801,1190463157188102,0.0143,0.089237496,0.0303875
1680010474804,1190463159690255,0.0122375,0.0782375,0.0334125
1680010474808,1190463162192409,0.010175,0.060225,0.0353375
1680010474809,1190463164694871,0.0122375,0.0452375,0.0394625
1680010474812,1190463167197025,0.0122375,0.032175,0.0413875
1680010474816,1190463169699255,0.0092124995,0.0232375,0.043449998
1680010474818,1190463172201409,0.010175,0.015262499,0.045375
1680010474820,1190463174703563,0.0072875,0.005225,0.0444125
1680010474822,1190463177205948,0.010175,2.75E-4,0.0463375
1680010474825,1190463179708179,0.00825,-0.0078375,0.045375
1680010474827,1190463182210332,0.0072875,-0.005775,0.04235
1680010474830,1190463184712717,0.0042625,-0.0097624995,0.040425
1680010474832,1190463187214871,0.005225,-0.0177375,0.0383625
1680010474834,1190463189717010,0.005225,-0.0237875,0.0364375
1680010474838,1190463192219164,0.0022,-0.0287375,0.0334125
1680010474840,1190463194721625,0.0022,-0.0347875,0.0303875
1680010474842,1190463197223779,0.0022,-0.043725,0.0264
1680010474844,1190463199725947,0.0033,-0.044825,0.02145
1680010474847,1190463202228178,-0.0017875,-0.047849998,0.02035
1680010474849,1190463204730331,-0.0048125,-0.0598125,0.0144375
1680010474853,1190463207232730,-0.0088,-0.0647625,0.012375
1680010474855,1190463209734884,-0.0158125,-0.066825,0.01045
1680010474859,1190463212237115,-0.0177375,-0.06985,0.007425
1680010474859,1190463214739269,-0.0237875,-0.071775,0.0053625
1680010474861,1190463217241653,-0.0287375,-0.0738375,0.001375
1680010474864,1190463219743812,-0.033825,-0.06875,-0.00165
1680010474867,1190463222245966,-0.03575,-0.071775,-0.0026125
1680010474869,1190463224748197,-0.0397375,-0.071775,-0.00165
1680010474872,1190463227250581,-0.043725,-0.0708125,4.125E-4
1680010474874,1190463229752740,-0.044825,-0.06985,-5.5E-4
1680010474878,1190463232254971,-0.043725,-0.071775,-0.0045375
1680010474880,1190463234757125,-0.0457875,-0.0708125,4.125E-4
1680010474882,1190463237259509,-0.044825,-0.066825,0.001375
1680010474884,1190463239761663,-0.0488125,-0.065725,-5.5E-4
1680010474887,1190463242263832,-0.04675,-0.0638,0.0034375
1680010474891,1190463244766063,-0.0457875,-0.0628375,0.0044
1680010474893,1190463247268217,-0.043725,-0.0537625,0.0044
1680010474894,1190463249770582,-0.0407,-0.049775,0.0053625
1680010474897,1190463252272736,-0.044825,-0.0488125,0.0034375
1680010474899,1190463254774967,-0.0407,-0.0457875,0.0053625
1680010474902,1190463257277121,-0.0418,-0.038775,0.0083875
1680010474904,1190463259779505,-0.0397375,-0.03575,0.0083875
1680010474908,1190463262281764,-0.038775,-0.02585,0.01045
1680010474909,1190463264783918,-0.0378125,-0.0207625,0.0114124995
1680010474912,1190463267286072,-0.0378125,-0.0188375,0.012375
1680010474914,1190463269788457,-0.0347875,-0.0158125,0.01045
1680010474918,1190463272290630,-0.0317625,-0.0078375,0.01045
1680010474921,1190463274792784,-0.0347875,-0.00385,0.0114124995
1680010474922,1190463277295015,-0.0308,-0.0048125,0.0114124995
1680010474925,1190463279797400,-0.0257125,-8.25E-4,0.01045
1680010474929,1190463282299554,-0.0237875,0.005225,0.01045
1680010474931,1190463284801784,-0.0207625,0.0061875,0.0083875
1680010474933,1190463287303938,-0.0187,0.00825,0.007425
1680010474936,1190463289806096,-0.0187,0.005225,0.007425
1680010474938,1190463292308558,-0.0198,0.0061875,0.0053625
1680010474940,1190463294810711,-0.0177375,0.00825,0.0034375
1680010474942,1190463297312865,-0.014712499,0.00715,0.0044
1680010474945,1190463299815250,-0.014712499,0.00825,0.001375
1680010474948,1190463302317385,-0.016775,0.0061875,-5.5E-4
1680010474949,1190463304819539,-0.0198,0.0031625,-5.5E-4
1680010474952,1190463307321769,-0.0177375,0.0061875,-5.5E-4
1680010474954,1190463309824154,-0.0158125,0.005225,0.001375
1680010474957,1190463312326274,-0.0187,0.0031625,4.125E-4
1680010474960,1190463314828428,-0.0207625,-0.00275,4.125E-4
1680010474962,1190463317330658,-0.0177375,-0.005775,0.0053625
1680010474966,1190463319832812,-0.016775,-0.010725,0.00935
1680010474968,1190463322335168,-0.0177375,-0.01375,0.007425
1680010474970,1190463324837399,-0.0158125,-0.0198,0.01045
1680010474972,1190463327339553,-0.011825,-0.0268125,0.012375
1680010474975,1190463329841706,-0.0127875,-0.0317625,0.0163625
1680010474978,1190463332344091,-0.010725,-0.03575,0.02035
1680010474979,1190463334846231,-0.005775,-0.0427625,0.023375
1680010474982,1190463337348385,-0.0067375,-0.0457875,0.0264
1680010474984,1190463339850846,-0.0077,-0.044825,0.0303875
1680010474988,1190463342353000,-0.0037125,-0.043725,0.0353375
1680010474989,1190463344855144,2.75E-4,-0.0408375,0.0394625
1680010474993,1190463347357375,0.0033,-0.0378125,0.040425
1680010474994,1190463349859529,0.0033,-0.03575,0.043449998
1680010474997,1190463352361682,0.0042625,-0.0287375,0.0463375
1680010475000,1190463354864096,0.005225,-0.021724999,0.043449998
1680010475003,1190463357366327,0.005225,-0.01375,0.0413875
1680010475005,1190463359868481,0.0061875,-0.005775,0.0334125
1680010475009,1190463362370635,0.0061875,0.0031625,0.029424999
1680010475010,1190463364872986,0.00825,0.011275,0.0284625
1680010475012,1190463367375140,0.011275,0.0171875,0.02145
1680010475014,1190463369877371,0.010175,0.0232375,0.0144375
1680010475017,1190463372379755,0.010175,0.0372625,0.00935
1680010475019,1190463374881909,0.0072875,0.04015,0.0064625
1680010475023,1190463377384130,0.0042625,0.043175,0.0053625
1680010475025,1190463379886284,0.0042625,0.0482625,0.001375
1680010475028,1190463382388438,0.0012375,0.0452375,-5.5E-4
1680010475032,1190463384890822,-0.00275,0.038225,-0.00165
1680010475037,1190463387393058,-0.0067375,0.0361625,-0.0045375
1680010475037,1190463389895212,-0.010725,0.0312125,-0.0056375
1680010475038,1190463392397366,-0.011825,0.0251625,-0.0045375
1680010475042,1190463394899750,-0.014712499,0.0171875,-0.003575
1680010475043,1190463397401908,-0.0177375,0.011275,-0.0026125
1680010475045,1190463399904062,-0.0207625,0.0031625,-0.0045375
1680010475048,1190463402406293,-0.0207625,-0.0017875,4.125E-4
1680010475049,1190463404908678,-0.022824999,-0.0067375,4.125E-4
1680010475052,1190463407410908,-0.027775,-0.01485,0.0064625
1680010475056,1190463409913043,-0.0297,-0.02475,0.0083875
1680010475058,1190463412415197,-0.027775,-0.0298375,0.007425
1680010475059,1190463414917351,-0.027775,-0.0418,0.00935
1680010475062,1190463417419736,-0.02475,-0.0507375,0.01045
1680010475064,1190463419921971,-0.0257125,-0.0598125,0.0133375
1680010475067,1190463422424125,-0.0237875,-0.066825,0.0163625
1680010475069,1190463424926510,-0.0257125,-0.077825,0.018424999
1680010475071,1190463427428664,-0.0268125,-0.0837375,0.0224125
1680010475074,1190463429930817,-0.022824999,-0.0858,0.0243375
1680010475079,1190463432433048,-0.0268125,-0.09075,0.0273625
1680010475082,1190463434935202,-0.0268125,-0.0928125,0.03135
1680010475083,1190463437437664,-0.0268125,-0.0947375,0.03135
1680010475085,1190463439939823,-0.0308,-0.09075,0.0303875
1680010475088,1190463442441976,-0.033825,-0.0897875,0.0303875
1680010475090,1190463444944361,-0.0317625,-0.0818125,0.03135
1680010475092,1190463447446515,-0.0297,-0.0757625,0.0303875
1680010475094,1190463449948669,-0.033825,-0.0738375,0.0273625
1680010475098,1190463452450884,-0.0317625,-0.0617375,0.02145
1680010475099,1190463454953269,-0.0347875,-0.0507375,0.02035
1680010475102,1190463457455423,-0.0347875,-0.047849998,0.0163625
1680010475104,1190463459957577,-0.0308,-0.0418,0.0133375
1680010475108,1190463462459784,-0.0257125,-0.032725,0.01045
1680010475110,1190463464961937,-0.021724999,-0.0308,0.0083875
1680010475112,1190463467464091,-0.0237875,-0.02585,0.0064625
1680010475117,1190463469966553,-0.0177375,-0.02475,0.0034375
1680010475119,1190463472468722,-0.014712499,-0.016775,0.0023375
1680010475122,1190463474970876,-0.016775,-0.01375,0.0034375
1680010475124,1190463477473029,-0.011825,-0.01375,0.0053625
1680010475125,1190463479975414,-0.0077,-0.0127875,0.0034375
1680010475129,1190463482477577,-0.0077,-0.0097624995,0.0044
1680010475131,1190463484980038,-0.0077,-0.0078375,0.0023375
1680010475132,1190463487482192,-0.0088,-0.0067375,0.0023375
1680010475134,1190463489984346,-0.0077,-0.00275,0.001375
1680010475138,1190463492486577,-0.005775,0.0031625,-0.00165
1680010475140,1190463494988736,-0.005775,0.00825,-0.0026125
1680010475142,1190463497490890,-0.0077,0.015262499,-5.5E-4
1680010475145,1190463499993351,-0.010725,0.0171875,-0.00165
1680010475148,1190463502495505,-0.010725,0.0202125,-0.0026125
1680010475150,1190463504997654,-0.0127875,0.0242,-5.5E-4
1680010475154,1190463507499808,-0.0158125,0.0281875,0.0023375
1680010475155,1190463510002192,-0.014712499,0.027224999,0.001375
1680010475158,1190463512504346,-0.014712499,0.02915,0.0023375
1680010475160,1190463515006505,-0.0127875,0.0312125,0.0034375
1680010475162,1190463517508967,-0.0187,0.032175,0.0064625
1680010475164,1190463520011120,-0.0207625,0.0342375,0.012375
1680010475167,1190463522513274,-0.0187,0.0312125,0.0144375
1680010475170,1190463525015428,-0.0198,0.033275,0.0154
1680010475172,1190463527517885,-0.0187,0.0342375,0.0193875
1680010475174,1190463530020038,-0.0198,0.032175,0.023375
1680010475177,1190463532522269,-0.0187,0.032175,0.0254375
1680010475180,1190463535024346,-0.0187,0.0281875,0.0303875
1680010475182,1190463537526582,-0.021724999,0.033275,0.03135
1680010475185,1190463540028736,-0.0207625,0.03025,0.032449998
1680010475187,1190463542531197,-0.0177375,0.0242,0.03135
1680010475191,1190463545033351,-0.0198,0.022275,0.0303875
1680010475193,1190463547535510,-0.0198,0.022275,0.03135
1680010475194,1190463550037895,-0.0198,0.01815,0.0303875
1680010475198,1190463552540049,-0.016775,0.016224999,0.029424999
1680010475200,1190463555042202,-0.016775,0.01815,0.0264
1680010475202,1190463557544433,-0.01375,0.014162499,0.0243375
1680010475205,1190463560046794,-0.01375,0.0122375,0.0254375
1680010475208,1190463562548948,-0.011825,0.0132,0.0224125
1680010475210,1190463565051178,-0.0088,0.0132,0.02145
1680010475212,1190463567553332,-0.0097624995,0.00825,0.018424999
1680010475215,1190463570055461,-0.0067375,0.0031625,0.0154
1680010475218,1190463572557615,-0.0078375,0.00715,0.0193875
1680010475219,1190463575060077,-0.0067375,0.005225,0.0133375
1680010475222,1190463577562230,0.0022,0.0022,0.01045
1680010475225,1190463580064619,0.0012375,0.0012375,0.012375
1680010475230,1190463582566773,-0.00275,0.0012375,0.0114124995
1680010475232,1190463585068927,-0.0037125,0.0031625,0.00935
1680010475234,1190463587571157,-0.0017875,0.0042625,0.0083875
1680010475236,1190463590073538,-0.0017875,0.005225,0.007425
1680010475238,1190463592575692,-0.00275,0.0061875,0.0044
1680010475241,1190463595077846,-0.00275,0.010175,0.001375
1680010475243,1190463597580077,-0.0037125,0.014162499,4.125E-4
1680010475245,1190463600082230,0.0012375,0.0132,-5.5E-4
1680010475249,1190463602584379,0.0012375,0.010175,4.125E-4
1680010475250,1190463605086764,2.75E-4,0.011275,0.0023375
1680010475253,1190463607588995,-0.0037125,0.00825,0.001375
1680010475255,1190463610091379,-0.00275,0.00715,0.001375
1680010475258,1190463612593514,-0.0017875,0.00825,0.0053625
1680010475259,1190463615095668,0.0022,0.00825,0.0064625
1680010475262,1190463617597899,-0.0017875,0.0012375,0.0083875
1680010475266,1190463620100053,-0.00275,2.75E-4,0.01045
1680010475269,1190463622602451,0.0012375,-0.0017875,0.00935
1680010475275,1190463625104605,-0.0017875,-0.005775,0.01045
1680010475275,1190463627606836,-0.00275,-0.0017875,0.0114124995
1680010475275,1190463630108990,2.75E-4,0.0012375,0.012375
1680010475277,1190463632611144,2.75E-4,2.75E-4,0.01045
1680010475280,1190463635113547,2.75E-4,-8.25E-4,0.0083875
1680010475282,1190463637615701,-0.0017875,2.75E-4,0.00935
1680010475285,1190463640117932,-0.0048125,0.0031625,0.0064625
1680010475288,1190463642620311,-0.005775,0.0061875,0.0034375
1680010475289,1190463645122465,-0.0097624995,0.0042625,0.0034375
1680010475292,1190463647624696,-0.0067375,0.0031625,0.001375
1680010475295,1190463650126773,-0.010725,0.0061875,0.0023375
1680010475298,1190463652629004,-0.010725,0.00715,4.125E-4
1680010475300,1190463655131403,-0.005775,0.0012375,-5.5E-4
1680010475303,1190463657633634,-0.0067375,0.0031625,-5.5E-4
1680010475305,1190463660135788,-0.0037125,0.00715,4.125E-4
1680010475308,1190463662637942,-0.0067375,0.005225,0.0023375
1680010475310,1190463665140327,-0.0097624995,0.00825,4.125E-4
1680010475312,1190463667642480,-0.0097624995,0.0132,-0.00165
1680010475314,1190463670144634,-0.010725,0.01815,-0.0026125
1680010475318,1190463672647096,-0.0177375,0.021175,-0.0056375
1680010475320,1190463675149283,-0.0188375,0.0232375,-0.009625
1680010475322,1190463677651436,-0.02475,0.0251625,-0.013612499
1680010475324,1190463680153590,-0.0287375,0.0281875,-0.020624999
1680010475328,1190463682655821,-0.0268125,0.022275,-0.02255
1680010475330,1190463685157971,-0.0287375,0.0232375,-0.0246125
1680010475332,1190463687660356,-0.0317625,0.01925,-0.0265375
1680010475335,1190463690162586,-0.033825,0.011275,-0.0295625
1680010475338,1190463692664740,-0.027775,0.0042625,-0.0295625
1680010475341,1190463695167120,-0.027775,2.75E-4,-0.0265375
1680010475343,1190463697669274,-0.02475,-0.011825,-0.0276375
1680010475345,1190463700171428,-0.0237875,-0.0158125,-0.0295625
1680010475349,1190463702673889,-0.022824999,-0.02475,-0.0286
1680010475350,1190463705176043,-0.0177375,-0.033825,-0.0265375
1680010475352,1190463707678197,-0.014712499,-0.0378125,-0.0276375
1680010475355,1190463710180351,-0.0127875,-0.0418,-0.0276375
1680010475359,1190463712682581,-0.0097624995,-0.044825,-0.0286
1680010475360,1190463715184735,-0.010725,-0.0457875,-0.0286
1680010475362,1190463717686889,-0.010725,-0.0457875,-0.0295625
1680010475365,1190463720189351,-0.011825,-0.04675,-0.0325875
1680010475368,1190463722691504,-0.01375,-0.0457875,-0.0356125
1680010475370,1190463725193658,-0.014712499,-0.043725,-0.0356125
1680010475372,1190463727696057,-0.0158125,-0.0427625,-0.0386375
1680010475375,1190463730198211,-0.0198,-0.04675,-0.0405625
1680010475379,1190463732700442,-0.0237875,-0.0457875,-0.0405625
1680010475381,1190463735202826,-0.0237875,-0.0457875,-0.0386375
1680010475383,1190463737705010,-0.02475,-0.047849998,-0.042625
1680010475385,1190463740207164,-0.027775,-0.0488125,-0.045649998
1680010475388,1190463742709395,-0.0257125,-0.0507375,-0.0416625
1680010475390,1190463745211549,-0.022824999,-0.0528,-0.0405625
1680010475392,1190463747713702,-0.021724999,-0.0598125,-0.0396
1680010475395,1190463750216087,-0.0207625,-0.054725,-0.034649998
1680010475398,1190463752718318,-0.014712499,-0.058849998,-0.0295625
1680010475401,1190463755220472,-0.014712499,-0.0647625,-0.025575
1680010475402,1190463757722856,-0.0127875,-0.0617375,-0.02365
1680010475404,1190463760225010,-0.0097624995,-0.060775,-0.020624999
1680010475408,1190463762727245,-0.0088,-0.058849998,-0.0196625
1680010475410,1190463765229322,-0.0088,-0.0567875,-0.0185625
1680010475412,1190463767731783,-0.0067375,-0.0528,-0.0176
1680010475416,1190463770233904,-0.005775,-0.0507375,-0.0185625
1680010475419,1190463772736135,-0.005775,-0.043725,-0.0166375
1680010475421,1190463775238289,-0.0037125,-0.03575,-0.0185625
1680010475423,1190463777740443,-0.00275,-0.0287375,-0.013612499
1680010475428,1190463780242827,-0.00275,-0.021724999,-0.01265
1680010475430,1190463782745077,-0.00275,-0.0158125,-0.01265
1680010475431,1190463785247231,-0.0017875,-0.010725,-0.01265
1680010475433,1190463787749616,-0.0017875,-0.00275,-0.0105875
1680010475435,1190463790251769,0.0012375,2.75E-4,-0.009625
1680010475438,1190463792753894,2.75E-4,0.00715,-0.009625
1680010475441,1190463795256048,0.0031625,0.0171875,-0.0105875
1680010475442,1190463797758279,0.005225,0.01815,-0.0086624995
1680010475444,1190463800260664,0.0042625,0.0281875,-0.0075625
1680010475448,1190463802762803,0.0022,0.0352,-0.0075625
1680010475450,1190463805265034,2.75E-4,0.0391875,-0.0066
1680010475454,1190463807767188,0.0012375,0.044275,-0.0075625
1680010475455,1190463810269573,2.75E-4,0.0462,-0.0045375
1680010475459,1190463812771726,-0.0037125,0.044275,-0.003575
1680010475461,1190463815273957,-0.005775,0.044275,-5.5E-4
1680010475462,1190463817776342,-0.0097624995,0.0462,-0.0045375
1680010475464,1190463820278496,-0.011825,0.0391875,-0.0056375
1680010475468,1190463822780650,-0.010725,0.02915,-0.009625
1680010475469,1190463825282875,-0.0097624995,0.0232375,-0.009625
1680010475472,1190463827785029,-0.0088,0.01925,-0.0075625
1680010475477,1190463830287183,-0.0067375,0.0132,-0.0105875
1680010475478,1190463832789568,-0.0048125,0.0061875,-0.01265
1680010475481,1190463835291827,-0.00275,0.0031625,-0.01155
1680010475483,1190463837793981,-0.00275,2.75E-4,-0.01265
1680010475485,1190463840296135,-0.005775,-0.0048125,-0.01265
1680010475488,1190463842798520,-0.0067375,-0.0088,-0.0105875
1680010475493,1190463845300650,-0.0037125,-0.011825,-0.0086624995
1680010475494,1190463847803111,-0.0037125,-0.0158125,-0.0066
1680010475495,1190463850305265,-0.0048125,-0.0127875,-0.00165
1680010475498,1190463852807419,-0.0037125,-0.0158125,4.125E-4
1680010475500,1190463855309573,-0.005775,-0.0188375,0.0023375
1680010475502,1190463857811813,-0.00275,-0.0198,0.001375
1680010475505,1190463860313966,0.0012375,-0.016775,0.0064625
1680010475510,1190463862816120,0.0012375,-0.0127875,0.0064625
1680010475511,1190463865318582,0.0022,-0.0097624995,0.0053625
1680010475513,1190463867820722,0.0022,-0.0078375,0.007425
1680010475515,1190463870322875,0.0042625,-0.0048125,0.0083875
1680010475518,1190463872825260,0.0072875,-0.00275,0.0114124995
1680010475521,1190463875327414,0.0092124995,0.0042625,0.0133375
1680010475523,1190463877829659,0.0092124995,0.0122375,0.012375
1680010475525,1190463880332043,0.011275,0.01925,0.0114124995
1680010475530,1190463882833966,0.0132,0.027224999,0.0133375
1680010475532,1190463885336351,0.0132,0.0361625,0.0144375
1680010475534,1190463887855178,0.010175,0.041249998,0.0163625
1680010475536,1190463890340947,0.0092124995,0.049225,0.0193875
1680010475538,1190463892843101,0.00825,0.0562375,0.0144375
1680010475541,1190463895345255,0.00825,0.066275,0.01045
1680010475542,1190463897847486,0.0072875,0.0672375,0.012375
1680010475545,1190463900349645,0.0072875,0.071225,0.0083875
1680010475548,1190463902851799,0.0061875,0.0782375,0.0053625
1680010475550,1190463905354260,0.0022,0.076175,0.0044
1680010475553,1190463907856414,-0.0017875,0.071225,0.0023375
1680010475555,1190463910358784,0.0042625,0.066275,0.0023375
1680010475558,1190463912860707,0.0042625,0.060225,4.125E-4
1680010475561,1190463915363091,0.0042625,0.0532125,0.0034375
1680010475563,1190463917865245,0.005225,0.041249998,0.0034375
1680010475566,1190463920367476,0.0022,0.033275,0.001375
1680010475570,1190463922869861,0.0012375,0.0251625,0.0023375
1680010475571,1190463925372014,0.0022,0.015262499,0.0044
1680010475573,1190463927874245,0.0042625,0.0061875,0.0023375
1680010475575,1190463930376399,0.0012375,-0.00275,0.0044
