system_ts_ms, sensor_ts_ns, accX, accY, accZ
1680010470657,1190459008493649,-4.4560504,6.76905,4.38495
1680010470657,1190459010995880,-4.51305,6.834,4.40205
1680010470659,1190459013498265,-4.5799503,6.8149505,4.38
1680010470660,1190459016000418,-4.5919504,6.714,4.359
1680010470663,1190459018502649,-4.62405,6.6730504,4.37505
1680010470677,1190459021004793,-4.7239504,6.69495,4.4040003
1680010470678,1190459023506947,-4.7980504,6.6829505,4.38705
1680010470678,1190459026009332,-4.794,6.64905,4.4089503
1680010470678,1190459028511562,-4.8679504,6.58995,4.4160004
1680010470678,1190459031013706,-4.93305,6.57,4.56705
1680010470679,1190459033515860,-5.031,6.59205,4.668
1680010470681,1190459036018245,-5.13105,6.54195,4.67205
1680010470686,1190459038520398,-5.22195,6.5680504,4.806
1680010470687,1190459041022523,-5.2270503,6.4939504,4.7710505
1680010470690,1190459043524985,-5.2200003,6.51105,4.8349504
1680010470691,1190459046027139,-5.2489505,6.5680504,4.9450502
1680010470693,1190459048529293,-5.3089504,6.49905,4.965
1680010470695,1190459051031523,-5.26095,6.4240503,4.97205
1680010470702,1190459053533687,-5.1940503,6.5800505,4.9999504
1680010470702,1190459056036072,-5.22195,6.5340004,5.09595
1680010470703,1190459058538226,-5.0620503,6.6180005,5.13
1680010470705,1190459061040456,-4.7580004,6.9370503,4.9669504
1680010470708,1190459063542841,-4.8769503,6.6900005,5.1390004
1680010470710,1190459066045005,-4.91295,6.60195,5.1919503
1680010470713,1190459068547159,-4.9350004,6.59205,5.0479503
1680010470718,1190459071049313,-4.7310004,6.5340004,5.06505
1680010470719,1190459073551552,-4.683,6.5940003,5.142
1680010470721,1190459076053937,-4.5589504,6.5389504,5.1610503
1680010470725,1190459078556091,-4.4820004,6.5080504,5.2849503
1680010470728,1190459081058322,-4.36305,6.5130005,5.2930503
1680010470730,1190459083560481,-4.28805,6.5779505,5.32905
1680010470735,1190459086062634,-4.26195,6.4789505,5.4409504
1680010470736,1190459088565019,-4.1850004,6.5149503,5.43405
1680010470736,1190459091067173,-4.12095,6.4510503,5.54895
1680010470738,1190459093569404,-4.12995,6.3910503,5.57805
1680010470741,1190459096071552,-4.09005,6.39795,5.70195
1680010470743,1190459098573937,-4.1329503,6.42705,5.7070503
1680010470745,1190459101076091,-3.9790502,6.42,5.688
1680010470748,1190459103578322,-4.0459504,6.57,5.68305
1680010470754,1190459106080476,-4.11795,6.53205,5.65395
1680010470754,1190459108582884,-4.1659503,6.5149503,5.6140504
1680010470755,1190459111085115,-4.1350503,6.5149503,5.6400003
1680010470759,1190459113587269,-4.18995,6.54405,5.688
1680010470762,1190459116089418,-4.21605,6.46995,5.5939503
1680010470764,1190459118591802,-4.27605,6.4939504,5.5300503
1680010470770,1190459121093956,-4.2790504,6.49905,5.6449504
1680010470771,1190459123596187,-4.3309503,6.4150505,5.664
1680010470771,1190459126098341,-4.36305,6.4410005,5.5939503
1680010470774,1190459128600697,-4.34805,6.33795,5.6569505
1680010470776,1190459131102851,-4.4610004,6.4120502,5.4289503
1680010470778,1190459133605005,-4.4100003,6.30495,5.5470004
1680010470780,1190459136107236,-4.43895,6.3739505,5.5540504
1680010470786,1190459138609375,-4.5160503,6.2850003,5.499
1680010470786,1190459141111836,-4.5420003,6.216,5.5230002
1680010470788,1190459143613990,-4.4869504,6.2850003,5.4480004
1680010470790,1190459146116144,-4.55205,6.1969504,5.3479505
1680010470793,1190459148618529,-4.49205,6.2179503,5.3190002
1680010470795,1190459151120663,-4.54005,6.2179503,5.2830005
1680010470803,1190459153622817,-4.50105,6.1270504,5.31405
1680010470803,1190459156125279,-4.57095,6.2850003,5.34495
1680010470804,1190459158627414,-4.45095,6.18195,5.23005
1680010470806,1190459161129568,-4.5349503,6.1870503,5.13705
1680010470809,1190459163631721,-4.51305,6.135,5.13705
1680010470811,1190459166133952,-4.4940004,6.1249504,5.0680504
1680010470813,1190459168636106,-4.6000504,6.249,5.02395
1680010470819,1190459171138486,-4.5540004,6.288,5.0170503
1680010470819,1190459173640716,-4.52295,6.2040005,4.938
1680010470820,1190459176142870,-4.46595,6.1750503,5.05305
1680010470823,1190459178645255,-4.5420003,6.288,4.9170003
1680010470826,1190459181147409,-4.602,6.2059503,4.8690004
1680010470829,1190459183649563,-4.5880504,6.1969504,5.05305
1680010470831,1190459186151793,-4.55205,6.2850003,5.05305
1680010470837,1190459188654178,-4.59705,6.23505,4.9999504
1680010470837,1190459191156337,-4.6140003,6.22305,5.0680504
1680010470840,1190459193658491,-4.58505,6.2089505,5.1109505
1680010470842,1190459196160721,-4.6930504,6.19395,5.163
1680010470844,1190459198662875,-4.7719502,6.1990504,5.175
1680010470846,1190459201165029,-4.7790003,6.1390505,5.2110004
1680010470854,1190459203667491,-4.8300004,6.144,5.1940503
1680010470854,1190459206169645,-4.782,6.16305,5.14905
1680010470855,1190459208672029,-4.7530503,6.111,5.1730504
1680010470856,1190459211174183,-4.78905,6.0820503,5.3050504
1680010470859,1190459213676337,-4.7860503,6.1060505,5.2180505
1680010470861,1190459216178568,-4.8030005,6.0750003,5.262
1680010470863,1190459218680722,-4.92105,6.1200004,5.27295
1680010470869,1190459221182875,-4.782,6.1729503,5.38395
1680010470870,1190459223685255,-4.86105,6.1459503,5.35305
1680010470871,1190459226187409,-4.9300504,6.11805,5.3190002
1680010470875,1190459228689640,-4.854,6.1459503,5.37405
1680010470877,1190459231192024,-4.87305,6.0940504,5.3640003
1680010470880,1190459233694168,-4.887,6.1750503,5.235
1680010470888,1190459236196399,-4.7580004,6.0480003,5.3089504
1680010470889,1190459238698553,-4.81995,5.95695,5.3260503
1680010470890,1190459241200707,-4.8889503,5.94495,5.35305
1680010470891,1190459243703091,-4.7790003,5.9809504,5.32095
1680010470892,1190459246205317,-4.7959504,5.9209504,5.2540503
1680010470893,1190459248707471,-4.7410502,5.8350005,5.2759504
1680010470895,1190459251209625,-4.91295,5.6670003,5.2830005
1680010470903,1190459253712009,-4.81005,5.82105,5.307
1680010470905,1190459256214163,-4.7860503,5.7180004,5.4
1680010470906,1190459258716308,-5.03805,5.61705,5.34495
1680010470907,1190459261218539,-4.95405,5.6650505,5.39295
1680010470909,1190459263720923,-5.0160003,5.61495,5.31195
1680010470913,1190459266223163,-4.971,5.6269503,5.34495
1680010470914,1190459268725317,-5.1859503,5.5530005,5.1990004
1680010470919,1190459271227471,-4.9879503,5.6410503,5.367
1680010470920,1190459273729856,-5.07105,5.7630005,5.46705
1680010470922,1190459276232009,-4.971,5.77005,5.41695
1680010470924,1190459278734226,-5.15805,5.715,5.4360003
1680010470926,1190459281236611,-5.16195,5.73705,5.44605
1680010470929,1190459283738765,-5.1979504,5.7660003,5.3170505
1680010470931,1190459286240918,-5.1940503,5.80905,5.32905
1680010470936,1190459288743067,-5.1529503,5.8570504,5.34105
1680010470937,1190459291245298,-5.1670504,5.80905,5.3500504
1680010470938,1190459293747452,-5.2489505,5.7250504,5.3479505
1680010470941,1190459296249837,-5.21295,5.8180504,5.2450504
1680010470943,1190459298752086,-5.1550503,5.8830004,5.2930503
1680010470946,1190459301254240,-5.151,5.75895,5.3430004
1680010470952,1190459303756625,-5.04495,5.76105,5.3910003
1680010470953,1190459306258779,-5.05905,5.83995,5.34495
1680010470954,1190459308760933,-5.103,5.84205,5.3359504
1680010470956,1190459311263394,-5.06895,5.7730503,5.4529505
1680010470959,1190459313765548,-4.95405,5.6719503,5.4079504
1680010470961,1190459316267702,-5.091,5.787,5.3689504
1680010470963,1190459318769856,-5.0880003,5.87295,5.3479505
1680010470968,1190459321272086,-5.0950503,5.7730503,5.235
1680010470969,1190459323774240,-5.124,5.8350005,5.355
1680010470971,1190459326276625,-5.02605,5.98605,5.214
1680010470974,1190459328778856,-5.09805,5.92605,5.295
1680010470976,1190459331281028,-5.052,5.95305,5.1390004
1680010470978,1190459333783413,-5.0620503,5.89305,5.1870003
1680010470981,1190459336285567,-5.11695,5.9670005,5.1870003
1680010470985,1190459338787721,-5.1460505,5.9359503,5.163
1680010470987,1190459341289962,-5.1550503,5.9359503,5.1919503
1680010470990,1190459343792115,-5.23395,5.94495,5.1990004
1680010470992,1190459346294500,-5.26095,5.9479504,5.3689504
1680010470994,1190459348796654,-5.3110504,5.8950005,5.2590003
1680010470995,1190459351298885,-5.2990503,5.9209504,5.3380504
1680010471003,1190459353801039,-5.35395,6.04605,5.4150004
1680010471004,1190459356303192,-5.42805,6.0670505,5.32905
1680010471005,1190459358805654,-5.4090004,6.13005,5.532
1680010471007,1190459361307784,-5.445,6.1459503,5.47695
1680010471009,1190459363809938,-5.4550505,6.1699505,5.484
1680010471011,1190459366312322,-5.50005,6.29295,5.5540504
1680010471014,1190459368814476,-5.55,6.321,5.6899505
1680010471018,1190459371316707,-5.51205,6.2779503,5.5750504
1680010471019,1190459373818861,-5.5579505,6.2760005,5.54895
1680010471021,1190459376321245,-5.3830504,6.36705,5.46495
1680010471025,1190459378823399,-5.4949503,6.3760505,5.4700503
1680010471029,1190459381325630,-5.46705,6.4080005,5.544
1680010471031,1190459383827784,-5.41905,6.4150505,5.35995
1680010471035,1190459386329938,-5.38005,6.2590504,5.49405
1680010471036,1190459388832322,-5.35395,6.2689505,5.38395
1680010471038,1190459391334553,-5.23395,6.2850003,5.4409504
1680010471040,1190459393836707,-5.24595,6.2400002,5.556
1680010471042,1190459396339092,-5.1769505,6.228,5.5080004
1680010471044,1190459398841245,-5.14305,6.2380505,5.46705
1680010471046,1190459401343476,-5.18895,6.2040005,5.5350003
1680010471049,1190459403845644,-5.3250003,6.228,5.532
1680010471051,1190459406347798,-5.1859503,6.2299504,5.5750504
1680010471053,1190459408850183,-5.21295,6.1660504,5.5609503
1680010471056,1190459411352336,-5.23395,6.111,5.6850004
1680010471059,1190459413854567,-5.2489505,6.144,5.5680003
1680010471062,1190459416356711,-5.2699504,6.19395,5.65395
1680010471064,1190459418859096,-5.32095,5.98395,5.53905
1680010471067,1190459421361249,-5.352,5.98395,5.6059504
1680010471069,1190459423863466,-5.42595,5.8780503,5.4750004
1680010471071,1190459426365851,-5.4019504,5.9290504,5.5579505
1680010471074,1190459428868005,-5.3830504,5.8159504,5.68095
1680010471076,1190459431370159,-5.35395,5.8300505,5.736
1680010471079,1190459433872365,-5.4240003,5.8639503,5.8549504
1680010471081,1190459436374519,-5.4619503,5.79195,5.78805
1680010471083,1190459438876904,-5.4760504,5.802,5.9560504
1680010471086,1190459441379058,-5.4810004,5.742,6.0160503
1680010471089,1190459443881288,-5.565,5.859,5.8770003
1680010471091,1190459446383432,-5.5669503,5.9209504,5.9659505
1680010471093,1190459448885817,-5.505,5.8999505,5.95095
1680010471096,1190459451387971,-5.5189505,5.9929504,6.1000504
1680010471100,1190459453890125,-5.5030503,5.9430003,6.0040503
1680010471102,1190459456392566,-5.5530005,6.07695,5.90595
1680010471104,1190459458894720,-5.5290003,6.1369505,5.88705
1680010471106,1190459461396874,-5.5150504,6.10305,5.8099504
1680010471108,1190459463899105,-5.4640503,6.2520003,5.7619505
1680010471111,1190459466401258,-5.517,6.2040005,5.62095
1680010471113,1190459468903407,-5.493,6.1800003,5.7379503
1680010471116,1190459471405792,-5.5579505,6.0820503,5.7169504
1680010471120,1190459473908023,-5.4949503,6.1390505,5.5540504
1680010471122,1190459476410196,-5.4810004,6.1369505,5.736
1680010471124,1190459478912349,-5.433,6.0720005,5.6610003
1680010471126,1190459481414734,-5.4090004,6.16095,5.65395
1680010471129,1190459483916888,-5.51205,6.1080003,5.7240005
1680010471131,1190459486419119,-5.4619503,6.135,5.6470504
1680010471133,1190459488921513,-5.4859505,6.0220504,5.688
1680010471138,1190459491423667,-5.45205,6.09105,5.6950502
1680010471140,1190459493925898,-5.4640503,6.09105,5.7640505
1680010471142,1190459496428052,-5.4139504,5.9479504,5.8939505
1680010471143,1190459498930201,-5.44995,5.964,5.7910504
1680010471146,1190459501432355,-5.3830504,5.919,5.7960005
1680010471149,1190459503934816,-5.3830504,5.91405,5.709
1680010471151,1190459506436970,-5.4210005,5.85405,5.8819504
1680010471153,1190459508939124,-5.3830504,5.7900004,5.92005
1680010471156,1190459511441513,-5.36805,5.7990003,5.793
1680010471159,1190459513943667,-5.4019504,5.8279505,5.8050003
1680010471161,1190459516445821,-5.37795,5.77995,5.709
1680010471163,1190459518948283,-5.51205,5.7130504,5.6850004
1680010471166,1190459521450436,-5.493,5.8039503,5.63805
1680010471168,1190459523952667,-5.5030503,5.6599503,5.62095
1680010471171,1190459526454821,-5.47095,5.7229505,5.616
1680010471175,1190459528956975,-5.57205,5.68695,5.649
1680010471179,1190459531459167,-5.4859505,5.64795,5.676
1680010471180,1190459533961551,-5.5740004,5.7660003,5.6400003
1680010471181,1190459536463782,-5.7660003,5.7780004,5.6850004
1680010471183,1190459538965936,-5.8429503,5.7850504,5.68305
1680010471186,1190459541468321,-5.94105,5.7780004,5.721
1680010471189,1190459543970461,-6.0370502,5.8159504,5.676
1680010471191,1190459546472614,-6.0270004,5.76105,5.66895
1680010471193,1190459548974845,-6.111,5.7970505,5.7330003
1680010471196,1190459551477230,-6.1780505,5.7780004,5.7979503
1680010471199,1190459553979466,-6.11595,5.71995,5.7720003
1680010471201,1190459556481619,-6.288,5.6940002,5.8120503
1680010471203,1190459558983773,-6.3240004,5.55,5.9110503
1680010471207,1190459561486158,-6.27405,5.55705,5.86005
1680010471209,1190459563988081,-6.3790503,5.50005,5.793
1680010471212,1190459566490446,-6.255,5.433,5.8669505
1680010471214,1190459568992676,-6.23505,5.3440504,5.60895
1680010471216,1190459571495061,-6.2569504,5.2720504,5.55105
1680010471219,1190459573997215,-6.2110505,5.23395,5.4220505
1680010471221,1190459576499369,-6.063,5.2050004,5.2930503
1680010471224,1190459579001575,-6.0799503,5.1859503,5.25705
1680010471226,1190459581503960,-5.98395,5.052,5.1109505
1680010471231,1190459584006114,-6.0060005,5.136,5.1199503
1680010471232,1190459586508345,-5.8980002,5.0740504,5.12295
1680010471234,1190459589010499,-5.8380003,5.1049504,4.926
1680010471236,1190459591512662,-5.8279505,5.1550503,4.8690004
1680010471240,1190459594015124,-5.85195,5.1720004,4.809
1680010471241,1190459596517278,-5.89305,5.2390504,4.8019505
1680010471243,1190459599019432,-5.826,5.3490005,4.8570004
1680010471246,1190459601521595,-5.9170504,5.3299503,4.572
1680010471250,1190459604023979,-5.9220004,5.43795,4.677
1680010471252,1190459606526133,-5.946,5.42805,4.5529504
1680010471254,1190459609028307,-6.01305,5.478,4.689
1680010471257,1190459611530768,-5.931,5.538,4.5210004
1680010471259,1190459614032922,-6.1039505,5.5360503,4.4950504
1680010471261,1190459616535076,-6.0370502,5.48505,4.43505
1680010471263,1190459619037307,-6.09705,5.4469504,4.46595
1680010471266,1190459621539490,-6.07695,5.5140004,4.37295
1680010471269,1190459624041644,-6.04395,5.5260005,4.2510004
1680010471271,1190459626544028,-6.0529504,5.3370004,4.1449504
1680010471274,1190459629046259,-5.9100003,5.3419504,4.1530504
1680010471276,1190459631548408,-5.874,5.36805,4.086
1680010471283,1190459634050792,-5.88105,5.3710504,4.0800004
1680010471283,1190459636552946,-5.8309503,5.184,4.06605
1680010471283,1190459639055100,-5.73495,5.11695,4.02105
1680010471287,1190459641557567,-5.7010503,5.1450005,4.10505
1680010471290,1190459644059721,-5.65605,5.14095,4.143
1680010471294,1190459646561874,-5.57205,4.9900503,4.143
1680010471294,1190459649064105,-5.55,5.02995,4.15005
1680010471296,1190459651566259,-5.5030503,5.04195,4.0609503
1680010471298,1190459654068629,-5.4859505,4.9630504,4.28895
1680010471301,1190459656570782,-5.4690003,4.88205,4.21995
1680010471303,1190459659073013,-5.5459504,4.79295,4.0800004
1680010471306,1190459661575398,-5.5189505,4.75005,4.2319503
1680010471309,1190459664077321,-5.493,4.76205,4.26795
1680010471310,1190459666579706,-5.5189505,4.695,4.2169504
1680010471313,1190459669081859,-5.58405,4.65,4.2720003
1680010471316,1190459671584090,-5.5600505,4.7239504,4.30305
1680010471319,1190459674086480,-5.5480504,4.7839503,4.30305
1680010471321,1190459676588634,-5.57205,4.662,4.42605
1680010471326,1190459679090864,-5.5960503,4.7119503,4.497
1680010471329,1190459681593018,-5.6130004,4.83405,4.4539504
1680010471330,1190459684190552,-5.58195,4.77405,4.5430503
1680010471332,1190459686597321,-5.5360503,4.839,4.4689503
1680010471334,1190459689099706,-5.598,4.83195,4.52895
1680010471337,1190459691602167,-5.5410004,4.8840003,4.57905
1680010471339,1190459694104090,-5.55495,4.8679504,4.689
1680010471341,1190459696606470,-5.4690003,4.87995,4.6270504
1680010471344,1190459699108624,-5.4570003,4.83195,4.6410003
1680010471346,1190459701610855,-5.4570003,4.7190003,4.7470503
1680010471349,1190459704113008,-5.589,4.77405,4.71105
1680010471351,1190459706615393,-5.5669503,4.62795,4.6600504
1680010471354,1190459709117605,-5.5669503,4.59705,4.66995
1680010471356,1190459711619759,-5.5789504,4.401,4.7899504
1680010471359,1190459714121912,-5.61495,4.314,4.7200503
1680010471363,1190459716624297,-5.649,4.32105,4.854
1680010471365,1190459719126451,-5.6179504,4.28595,4.62405
1680010471368,1190459721628682,-5.67,4.269,4.584
1680010471370,1190459724130836,-5.6730003,4.1680503,4.53795
1680010471371,1190459726633220,-5.68905,4.1989503,4.5550504
1680010471376,1190459729135355,-5.60295,4.15395,4.4760003
1680010471378,1190459731637509,-5.67705,4.08405,4.56495
1680010471379,1190459734139740,-5.6250005,4.1680503,4.4760003
1680010471383,1190459736641894,-5.6130004,4.197,4.59795
1680010471384,1190459739144355,-5.5150504,4.12995,4.6150503
1680010471387,1190459741646533,-5.6460004,4.23495,4.53105
1680010471389,1190459744148687,-5.6989503,4.3050003,4.512
1680010471391,1190459746651071,-5.6970005,4.2330003,4.5930004
1680010471394,1190459749153225,-5.6800504,4.25895,4.5529504
1680010471398,1190459751655398,-5.7250504,4.314,4.605
1680010471402,1190459754157629,-5.7250504,4.31895,4.5690002
1680010471403,1190459756660013,-5.7400503,4.3099504,4.584
1680010471405,1190459759162167,-5.7559505,4.3240504,4.6800003
1680010471408,1190459761664321,-5.814,4.46805,4.78695
1680010471410,1190459764166543,-5.88105,4.4100003,4.73505
1680010471411,1190459766668697,-5.99595,4.446,4.809
1680010471414,1190459769171081,-6.02895,4.46805,4.8349504
1680010471417,1190459771673312,-6.123,4.45095,4.833
1680010471419,1190459774175466,-6.0150003,4.51095,4.8520503
1680010471422,1190459776677851,-6.1399503,4.5490503,5.0890503
1680010471424,1190459779179774,-6.1800003,4.49895,4.9170003
1680010471427,1190459781682158,-6.1759505,4.59,4.938
1680010471430,1190459784184307,-6.1470003,4.5990005,4.97895
1680010471432,1190459786686769,-6.2710505,4.5799503,5.02395
1680010471434,1190459789188923,-6.2640004,4.51095,4.953
1680010471440,1190459791691077,-6.2430005,4.563,4.9360504
1680010471442,1190459794193273,-6.2310004,4.5199504,5.0719504
1680010471443,1190459796695427,-6.18795,4.386,5.0869503
1680010471445,1190459799197581,-6.2089505,4.4599504,5.0680504
1680010471450,1190459801699966,-6.1729503,4.39605,5.0479503
1680010471451,1190459804202211,-6.09705,4.4029503,5.0340004
1680010471452,1190459806704596,-6.08505,4.31895,5.0080504
1680010471454,1190459809206750,-6.063,4.386,4.99095
1680010471458,1190459811708904,-5.9620504,4.401,5.06505
1680010471460,1190459814211058,-5.9550004,4.36905,5.1870003
1680010471461,1190459816713288,-5.91195,4.45095,5.2660503
1680010471464,1190459819215669,-5.9599504,4.4820004,5.33295
1680010471467,1190459821717823,-5.8830004,4.45095,5.35995
1680010471469,1190459824220054,-5.95305,4.57305,5.3359504
1680010471471,1190459826722207,-5.92395,4.5610504,5.35305
1680010471477,1190459829224356,-5.9599504,4.5679502,5.37195
1680010471478,1190459831726741,-5.9479504,4.6519504,5.2930503
1680010471481,1190459834228972,-6.01305,4.6740003,5.35995
1680010471483,1190459836731140,-6.0150003,4.5370502,5.34495
1680010471484,1190459839233524,-6.0990005,4.52505,5.4100504
1680010471487,1190459841735678,-6.1969504,4.5540004,5.214
1680010471489,1190459844237832,-6.1780505,4.386,5.2830005
1680010471491,1190459846739986,-6.2640004,4.28805,5.2450504
1680010471494,1190459849242211,-6.3,4.22295,5.2380004
1680010471497,1190459851744596,-6.2689505,4.12995,5.1660004
1680010471499,1190459854246827,-6.3360004,4.104,5.0680504
1680010471501,1190459856748981,-6.31395,3.9769502,5.103
1680010471504,1190459859251116,-6.38595,3.89805,5.07495
1680010471509,1190459861753500,-6.2430005,3.7680001,5.02395
1680010471514,1190459864255654,-6.16095,3.8830502,5.04405
1680010471514,1190459866757885,-6.2089505,3.7399502,4.965
1680010471515,1190459869260303,-6.01305,3.5359502,5.00505
1680010471518,1190459871762457,-5.99595,3.6370502,4.81395
1680010471521,1190459874264611,-5.9599504,3.4830003,4.8829503
1680010471525,1190459876766765,-5.91195,3.5670002,4.85895
1680010471526,1190459879268996,-5.8000503,3.5050502,4.7179503
1680010471528,1190459881771150,-5.79195,3.5689502,4.71105
1680010471530,1190459884273534,-5.6179504,3.61995,4.7629504
1680010471532,1190459886775765,-5.56995,3.7399502,4.73505
1680010471534,1190459889277919,-5.4859505,3.7489502,4.545
1680010471538,1190459891780313,-5.4690003,3.8040001,4.5859504
1680010471539,1190459894282466,-5.41905,3.8040001,4.5409503
1680010471541,1190459896784620,-5.36595,3.936,4.47795
1680010471544,1190459899287082,-5.373,3.8929503,4.5259504
1680010471548,1190459901789246,-5.40705,4.02495,4.335
1680010471553,1190459904291399,-5.4880505,4.09305,4.3780503
1680010471553,1190459906793553,-5.493,4.1950502,4.57695
1680010471554,1190459909295784,-5.6610003,4.1470504,4.572
1680010471557,1190459911797938,-5.68695,4.12305,4.701
1680010471560,1190459914300308,-5.8450503,4.20195,4.8180003
1680010471562,1190459916802538,-5.9890504,4.2109504,4.82595
1680010471564,1190459919304692,-6.0150003,4.1989503,4.9690504
1680010471568,1190459921807077,-6.22305,4.25895,4.91895
1680010471570,1190459924309231,-6.26205,4.36905,5.0869503
1680010471571,1190459926811395,-6.3289504,4.3309503,5.15595
1680010471575,1190459929313625,-6.453,4.3330503,5.19705
1680010471577,1190459931816010,-6.5539503,4.3429503,5.163
1680010471579,1190459934318164,-6.576,4.341,5.1109505
1680010471581,1190459936820308,-6.6910505,4.24695,5.151
1680010471584,1190459939322461,-6.762,4.32105,5.0680504
1680010471589,1190459941824923,-6.834,4.2259502,5.01
1680010471591,1190459944327068,-6.7530003,4.3500004,4.9999504
1680010471592,1190459946829222,-6.9349504,4.26405,5.03595
1680010471594,1190459949331452,-6.9040504,4.2450004,5.0389504
1680010471596,1190459951833606,-6.8440504,4.2400503,4.914
1680010471599,1190459954335760,-6.9300003,4.26405,4.965
1680010471601,1190459956838212,-6.813,4.19205,4.893
1680010471604,1190459959340366,-6.86805,4.242,4.8640504
1680010471608,1190459961842519,-6.9370503,4.13205,5.05095
1680010471609,1190459964344904,-6.9160504,4.1130004,4.9999504
1680010471611,1190459966847058,-6.834,4.077,5.08395
1680010471614,1190459969349212,-7.0189505,4.1350503,5.1060004
1680010471617,1190459971851366,-6.90105,4.0960503,5.3500504
1680010471619,1190459974353827,-6.86805,4.13205,5.33295
1680010471621,1190459976855981,-6.9349504,4.077,5.4480004
1680010471626,1190459979358212,-6.8700004,4.05795,5.4889503
1680010471629,1190459981860366,-6.8250003,4.089,5.55105
1680010471631,1190459984511366,-6.8869505,4.08705,5.7499504
1680010471632,1190459986864885,-6.88395,4.0960503,5.6520004
1680010471634,1190459989367116,-6.7960505,4.11795,5.6260505
1680010471637,1190459991869270,-6.8700004,4.1850004,5.7000003
1680010471640,1190459994371654,-6.77895,4.14195,5.56605
1680010471641,1190459996873808,-6.7240505,4.1950502,5.4409504
1680010471644,1190459999375971,-6.6570005,4.2109504,5.4030004
1680010471647,1190460001878125,-6.609,4.31895,5.3430004
1680010471649,1190460004380356,-6.597,4.353,5.34105
1680010471651,1190460006882740,-6.5160003,4.314,5.214
1680010471654,1190460009384865,-6.5230503,4.3380003,5.2110004
1680010471657,1190460011887096,-6.4890003,4.3450503,5.22795
1680010471659,1190460014389250,-6.43905,4.2780004,5.1150002
1680010471663,1190460016891634,-6.43695,4.3570504,5.0940003
1680010471665,1190460019393793,-6.4440002,4.37895,5.14905
1680010471668,1190460021896024,-6.4560003,4.446,5.0940003
1680010471669,1190460024398178,-6.3619504,4.29495,5.1919503
1680010471671,1190460026900563,-6.4150505,4.254,5.2660503
1680010471674,1190460029402716,-6.432,4.28805,5.12505
1680010471678,1190460031904860,-6.5800505,4.37895,5.3380504
1680010471680,1190460034407091,-6.5059505,4.386,5.24205
1680010471682,1190460036909476,-6.6070504,4.2979503,5.16795
1680010471685,1190460039411629,-6.6210003,4.4560504,5.3310003
1680010471687,1190460041913860,-6.6210003,4.3170004,5.17995
1680010471689,1190460044415990,-6.7500005,4.37895,5.07
1680010471691,1190460046918144,-6.76695,4.3429503,5.2060504
1680010471694,1190460049420529,-6.67605,4.341,5.2060504
1680010471697,1190460051922682,-6.834,4.341,5.0680504
1680010471701,1190460054425164,-6.8269506,4.362,5.04405
1680010471702,1190460056927318,-6.8959503,4.3450503,4.87095
1680010471704,1190460059429472,-6.873,4.362,4.9500003
1680010471708,1190460061931630,-6.95205,4.4050503,4.8780003
1680010471709,1190460064433860,-6.97095,4.2660003,4.9020004
1680010471711,1190460066936014,-6.9760504,4.27605,4.9290004
1680010471714,1190460069438399,-7.00395,4.30695,4.8970504
1680010471718,1190460071940630,-7.0330505,4.401,4.9450502
1680010471721,1190460074442822,-6.9870005,4.2330003,4.8949504
1680010471723,1190460076944976,-6.9990005,4.2190504,4.9570503
1680010471725,1190460079447361,-6.9300003,4.22295,4.9429502
1680010471728,1190460081949515,-6.8940005,4.254,4.9020004
1680010471729,1190460084451765,-6.9490504,4.12995,4.965
1680010471731,1190460086953918,-6.9199505,4.0960503,4.9960504
1680010471733,1190460089456303,-6.9420004,4.02705,5.0340004
1680010471738,1190460091958418,-6.9610505,4.06995,4.9090505
1680010471740,1190460094460649,-6.8370004,4.0140004,5.0080504
1680010471742,1190460096962802,-6.9229503,4.0459504,4.8619504
1680010471744,1190460099464956,-6.8290505,3.9259503,4.9450502
1680010471747,1190460101967418,-6.906,3.8689501,5.06295
1680010471749,1190460104469587,-6.7980003,3.8040001,4.9840503
1680010471751,1190460106971741,-6.7770004,3.7080002,4.998
1680010471753,1190460109474125,-6.813,3.7440002,5.07
1680010471758,1190460111976279,-6.8509502,3.7180502,5.151
1680010471760,1190460114478428,-6.7860003,3.663,5.1130505
1680010471762,1190460116980659,-6.76695,3.7080002,5.1780005
1680010471764,1190460119483043,-6.7770004,3.72495,5.2500005
1680010471768,1190460121985197,-6.5779505,3.7180502,5.37195
1680010471770,1190460124487351,-6.6210003,3.7440002,5.3809505
1680010471771,1190460126989611,-6.54195,3.72795,5.4100504
1680010471776,1190460129491765,-6.5830503,3.7780502,5.34495
1680010471778,1190460131994149,-6.5610003,3.9019501,5.4409504
1680010471780,1190460134496375,-6.4939504,4.017,5.5150504
1680010471782,1190460136998529,-6.4440002,3.9600003,5.4360003
1680010471784,1190460139500913,-6.405,3.96495,5.47695
1680010471787,1190460142003067,-6.4219503,3.9450002,5.5729504
1680010471790,1190460144505201,-6.4609504,3.9600003,5.5870504
1680010471792,1190460147007432,-6.453,4.005,5.544
1680010471795,1190460149509817,-6.39795,4.077,5.5870504
1680010471797,1190460152011970,-6.5470505,4.0009503,5.5150504
1680010471800,1190460154514124,-6.51105,4.0459504,5.5609503
1680010471802,1190460157016379,-6.59205,4.0350003,5.56605
1680010471804,1190460159518533,-6.6160502,4.06995,5.38395
1680010471808,1190460162020687,-6.6930003,3.9739501,5.50605
1680010471809,1190460164523071,-6.7099504,3.9859502,5.4030004
1680010471813,1190460167025287,-6.6469502,4.0740004,5.3430004
1680010471816,1190460169527672,-6.7309504,3.9930003,5.2110004
1680010471819,1190460172029826,-6.714,3.9600003,5.2260003
1680010471820,1190460174531979,-6.7050004,4.005,5.1270003
1680010471822,1190460177034210,-6.741,3.9220502,5.16795
1680010471824,1190460179536364,-6.7600503,3.8809502,5.1610503
1680010471828,1190460182038749,-6.8050504,3.936,5.12505
1680010471830,1190460184540903,-6.8509502,3.7900503,5.0170503
1680010471832,1190460187043133,-6.7960505,3.7710001,5.08395
1680010471834,1190460189545287,-6.8370004,3.7780502,5.09595
1680010471837,1190460192047441,-6.7500005,3.7440002,5.07
1680010471840,1190460194549826,-6.9589505,3.6840003,5.13705
1680010471841,1190460197051980,-6.8029504,3.6409502,5.07705
1680010471844,1190460199554441,-6.8580003,3.6100502,5.05305
1680010471847,1190460202056634,-6.7960505,3.45705,5.08395
1680010471851,1190460204558788,-6.846,3.522,5.04405
1680010471853,1190460207061019,-6.7699504,3.45705,4.9740005
1680010471855,1190460209563096,-6.8770504,3.4350002,4.965
1680010471860,1190460212065297,-6.7909503,3.387,4.953
1680010471861,1190460214567682,-6.813,3.3730502,4.9620004
1680010471862,1190460217069913,-6.714,3.31095,4.9999504
1680010471864,1190460219572067,-6.73605,3.38505,4.9759502
1680010471868,1190460222074220,-6.63495,3.34695,4.9120502
1680010471870,1190460224576605,-6.6259503,3.4399502,4.9879503
1680010471872,1190460227078759,-6.6210003,3.35205,5.2039504
1680010471875,1190460229580990,-6.63105,3.25095,5.142
1680010471877,1190460232083374,-6.64305,3.32505,5.07
1680010471880,1190460234585514,-6.5400004,3.31095,5.04405
1680010471882,1190460237087745,-6.6139503,3.4090502,5.1940503
1680010471884,1190460239589822,-6.5880003,3.3780003,5.1390004
1680010471892,1190460242092014,-6.6469502,3.3780003,5.1540003
1680010471893,1190460244594167,-6.6160502,3.354,5.1589503
1680010471894,1190460247096629,-6.62295,3.45,5.15595
1680010471895,1190460249598783,-6.63495,3.318,5.1130505
1680010471897,1190460252100937,-6.5680504,3.3420002,5.09595
1680010471899,1190460254603321,-6.5130005,3.4330502,5.0220003
1680010471902,1190460257105451,-6.5350504,3.3780003,5.14905
1680010471905,1190460259607605,-6.4080005,3.32505,5.1390004
1680010471908,1190460262110067,-6.36,3.32505,5.1060004
1680010471910,1190460264612220,-6.3460503,3.3370502,5.17995
1680010471912,1190460267114398,-6.36495,3.2680502,5.17995
1680010471914,1190460269616629,-6.2860503,3.2719502,5.1990004
1680010471918,1190460272118783,-6.228,3.2250001,5.3190002
1680010471920,1190460274620937,-6.1849504,3.3709502,5.43195
1680010471922,1190460277123096,-6.18795,3.318,5.36205
1680010471926,1190460279625557,-6.18795,3.423,5.35995
1680010471929,1190460282127711,-6.1470003,3.4039502,5.3089504
1680010471931,1190460284665249,-6.135,3.2700002,5.3980503
1680010471933,1190460287132263,-6.135,3.2650502,5.34105
1680010471935,1190460289634417,-6.195,3.3750002,5.46495
1680010471937,1190460292136648,-6.1590004,3.41595,5.3479505
1680010471939,1190460294639033,-6.32205,3.3300002,5.36205
1680010471942,1190460297141187,-6.2449503,3.4690502,5.34495
1680010471944,1190460299643398,-6.27405,3.459,5.2969503
1680010471947,1190460302145552,-6.195,3.4690502,5.2540503
1680010471951,1190460304647937,-6.3240004,3.48795,5.2780504
1680010471952,1190460307150091,-6.2860503,3.55695,5.20905
1680010471954,1190460309652321,-6.3,3.5460002,5.12295
1680010471957,1190460312154499,-6.405,3.5719502,5.06295
1680010471960,1190460314656653,-6.30495,3.5719502,5.0820003
1680010471963,1190460317159038,-6.3739505,3.5340002,5.06505
1680010471965,1190460319661206,-6.4099503,3.6150002,5.0890503
1680010471968,1190460322163436,-6.3790503,3.6030002,5.0890503
1680010471970,1190460324665821,-6.4099503,3.6720002,4.97895
1680010471972,1190460327167975,-6.36,3.627,5.00505
1680010471974,1190460329670129,-6.4099503,3.61995,5.07705
1680010471981,1190460332172335,-6.4680004,3.66,5.0560503
1680010471981,1190460334674489,-6.4440002,3.6720002,5.00295
1680010471982,1190460337176874,-6.5989504,3.6529503,5.05305
1680010471984,1190460339679028,-6.6210003,3.6169503,5.07495
1680010471987,1190460342181255,-6.64305,3.66,5.07
1680010471989,1190460344683408,-6.7890005,3.6679502,5.0599504
1680010471992,1190460347185793,-6.77895,3.7129502,5.08395
1680010471994,1190460349687947,-6.8320503,3.61995,5.175
1680010471997,1190460352190197,-6.918,3.5860503,5.06295
1680010472002,1190460354692581,-6.8440504,3.6169503,5.07705
1680010472003,1190460357194735,-6.9079504,3.6370502,5.0790005
1680010472005,1190460359696889,-7.038,3.555,5.0479503
1680010472008,1190460362199038,-7.0470004,3.6319501,5.00295
1680010472010,1190460364701269,-7.05495,3.5809503,5.0410504
1680010472012,1190460367203422,-7.0519505,3.5430002,5.01
1680010472014,1190460369705807,-7.05,3.5839503,5.0410504
1680010472017,1190460372208038,-7.1359506,3.4069502,5.0290504
1680010472019,1190460374710187,-7.2319503,3.4660501,5.046
1680010472022,1190460377212341,-7.2250504,3.4330502,5.00505
1680010472024,1190460379714725,-7.1959505,3.3630002,5.16795
1680010472028,1190460382216879,-7.1929502,3.2440503,5.1130505
1680010472030,1190460384719374,-7.3080006,3.1980002,5.2380004
1680010472032,1190460387221527,-7.2390003,3.18105,5.09595
1680010472034,1190460389723681,-7.21005,3.2010002,5.1589503
1680010472039,1190460392225835,-7.1239505,3.153,5.17995
1680010472041,1190460394728057,-7.0470004,3.0880501,5.15595
1680010472043,1190460397230211,-7.05,3.0570002,5.1940503
1680010472045,1190460399732365,-6.8749504,3.0670502,5.175
1680010472048,1190460402234826,-6.9160504,3.1339502,5.1730504
1680010472051,1190460404736980,-6.7720504,3.0690002,5.163
1680010472052,1190460407239148,-6.7980003,3.1890001,5.1990004
1680010472054,1190460409741533,-6.7120504,3.2410502,5.12295
1680010472057,1190460412243686,-6.5490003,3.3349502,5.16795
1680010472059,1190460414745917,-6.5470505,3.459,5.19
1680010472061,1190460417248326,-6.4729505,3.5050502,5.175
1680010472064,1190460419750480,-6.3100505,3.5719502,5.19705
1680010472067,1190460422252710,-6.23295,3.5310001,5.295
1680010472069,1190460424754864,-6.2520003,3.5839503,5.3190002
1680010472072,1190460427257018,-6.20205,3.55995,5.2780504
1680010472076,1190460429759191,-6.1470003,3.6439502,5.1990004
1680010472079,1190460432261576,-6.09705,3.6409502,5.4960003
1680010472081,1190460434763806,-6.2140503,3.6030002,5.5129504
1680010472083,1190460437265951,-6.1800003,3.6150002,5.532
1680010472085,1190460439768336,-6.32205,3.66,5.51805
1680010472087,1190460442270490,-6.3480005,3.5839503,5.6470504
1680010472091,1190460444772644,-6.3790503,3.69405,5.6779504
1680010472092,1190460447274874,-6.432,3.6150002,5.6260505
1680010472095,1190460449777235,-6.5560503,3.6409502,5.6569505
1680010472098,1190460452279389,-6.4750504,3.6840003,5.5030503
1680010472099,1190460454781543,-6.5280004,3.62895,5.5030503
1680010472102,1190460457283773,-6.537,3.5430002,5.50605
1680010472104,1190460459785927,-6.6160502,3.6370502,5.38395
1680010472108,1190460462288302,-6.6400504,3.627,5.28105
1680010472110,1190460464790533,-6.54195,3.5689502,5.1319504
1680010472113,1190460467292687,-6.6589503,3.5670002,5.08395
1680010472115,1190460469795071,-6.66405,3.5050502,5.01195
1680010472118,1190460472297225,-6.7189503,3.5410502,4.8850503
1680010472121,1190460474799379,-6.7260003,3.5050502,4.8450003
1680010472123,1190460477301610,-6.85305,3.5050502,4.7389503
1680010472125,1190460479803763,-6.8100004,3.4980001,4.6320004
1680010472128,1190460482306162,-6.88005,3.3679502,4.6870503
1680010472131,1190460484808316,-6.9370503,3.423,4.557
1680010472133,1190460487310547,-6.98295,3.3730502,4.584
1680010472134,1190460489812701,-7.0020003,3.3709502,4.61205
1680010472137,1190460492314849,-7.0399504,3.3349502,4.7179503
1680010472139,1190460494817234,-7.038,3.2650502,4.82805
1680010472142,1190460497319465,-7.1070004,3.2050502,4.8109503
1680010472144,1190460499821849,-7.0980005,3.22005,4.9170003
1680010472148,1190460502324008,-7.0740004,3.153,4.9290004
1680010472151,1190460504826162,-7.05705,3.0880501,5.0220003
1680010472153,1190460507328393,-7.1310005,3.1309502,4.938
1680010472155,1190460509830547,-7.1239505,3.10695,4.9879503
1680010472158,1190460512332706,-7.00395,3.0190501,4.9669504
1680010472161,1190460514835090,-7.0260005,3.0550501,4.9840503
1680010472162,1190460517337321,-6.97095,3.0900002,5.12295
1680010472165,1190460519839475,-7.0470004,3.1720502,5.103
1680010472170,1190460522341595,-6.8700004,3.0190501,5.19705
1680010472171,1190460524843979,-6.84105,3.1380002,5.14905
1680010472172,1190460527346133,-6.83895,3.153,5.1319504
1680010472175,1190460529848364,-6.7890005,3.1930501,5.262
1680010472180,1190460532350730,-6.7530003,3.2629502,5.23995
1680010472181,1190460534852883,-6.7240505,3.3280501,5.2830005
1680010472183,1190460537355114,-6.7980003,3.249,5.2830005
1680010472185,1190460539857268,-6.8560505,3.5070002,5.451
1680010472189,1190460542359412,-6.8580003,3.3970501,5.4079504
1680010472192,1190460544861873,-6.9559503,3.4620001,5.3809505
1680010472194,1190460547364027,-6.9949503,3.5170503,5.39295
1680010472196,1190460549866181,-7.07805,3.5359502,5.4199505
1680010472201,1190460552368335,-7.0690503,3.5770502,5.3569503
1680010472201,1190460554870725,-7.09005,3.5070002,5.43195
1680010472205,1190460557372878,-7.0399504,3.66,5.47695
1680010472208,1190460559875032,-7.0470004,3.522,5.41695
1680010472211,1190460562377494,-7.1530504,3.486,5.4630003
1680010472215,1190460564879648,-7.0470004,3.4470003,5.37195
1680010472216,1190460567381874,-7.09005,3.37995,5.4030004
1680010472218,1190460569884027,-7.0590005,3.3370502,5.2830005
1680010472219,1190460572386181,-6.9990005,3.3679502,5.3430004
1680010472221,1190460574888335,-6.8700004,3.3040502,5.2380004
1680010472222,1190460577390792,-6.9160504,3.35595,5.295
1680010472226,1190460579892945,-6.8770504,3.2290502,5.1780005
1680010472230,1190460582395099,-6.88395,3.1930501,5.0340004
1680010472232,1190460583874887,-6.8290505,3.22005,5.05305
1680010472232,1190460585355942,-6.8220005,3.2989502,4.9620004
1680010472234,1190460589901788,-6.76695,3.25605,4.9759502
1680010472238,1190460592404018,-6.7960505,3.186,4.9960504
1680010472240,1190460594906403,-6.7699504,3.17895,5.02395
1680010472242,1190460597408557,-6.801,3.28905,4.97205
1680010472244,1190460599910773,-6.88395,3.2290502,4.9669504
1680010472247,1190460602412927,-6.88395,3.354,4.9020004
1680010472249,1190460604915080,-6.9079504,3.318,4.893
1680010472252,1190460607417234,-6.9870005,3.2770503,4.92105
1680010472255,1190460609919696,-6.94005,3.4429502,5.04405
1680010472258,1190460612421850,-7.05,3.423,5.0340004
1680010472259,1190460614924234,-7.05,3.41595,4.91895
1680010472263,1190460617426388,-7.083,3.39,4.91895
1680010472265,1190460619928547,-7.00395,3.5359502,4.998
1680010472268,1190460622430778,-7.0519505,3.4429502,5.0220003
1680010472270,1190460624933162,-7.0740004,3.522,4.938
1680010472272,1190460627435316,-7.122,3.5050502,4.965
1680010472274,1190460629937547,-7.2169504,3.5119503,5.03595
1680010472277,1190460632439730,-7.1670003,3.486,5.09595
1680010472280,1190460634941884,-7.1070004,3.4620001,5.12505
1680010472282,1190460637444268,-7.1670003,3.39,5.04405
1680010472284,1190460639946422,-7.1580005,3.4069502,5.0560503
1680010472287,1190460642448643,-7.14795,3.4380002,5.1130505
1680010472290,1190460644950797,-7.0740004,3.41595,5.08395
1680010472292,1190460647453181,-7.1380506,3.4780502,5.06295
1680010472294,1190460649955335,-7.1860504,3.52395,5.14905
1680010472298,1190460652457552,-7.2010503,3.4660501,5.07705
1680010472301,1190460654959706,-7.1260505,3.4980001,5.20905
1680010472302,1190460657462090,-7.155,3.4140003,5.0410504
1680010472304,1190460659964244,-7.1020503,3.4950001,5.02395
1680010472308,1190460662466475,-7.07805,3.49305,5.07495
1680010472310,1190460664968552,-7.14795,3.45,5.0989504
1680010472312,1190460667471014,-7.0399504,3.4759502,4.9669504
1680010472314,1190460669973167,-6.9370503,3.45405,4.998
1680010472317,1190460672475393,-6.9229503,3.4660501,4.9020004
1680010472320,1190460674977547,-6.97095,3.4660501,4.99095
1680010472322,1190460677479701,-6.9540005,3.3709502,4.9690504
1680010472325,1190460679982086,-6.94395,3.3709502,4.9669504
1680010472328,1190460682484239,-6.9490504,3.39,5.0149503
1680010472330,1190460684986470,-6.9640503,3.38505,4.9879503
1680010472332,1190460687488855,-6.9160504,3.4020002,5.07705
1680010472334,1190460689991009,-6.94395,3.34905,5.01195
1680010472339,1190460692493254,-7.0210505,3.3970501,4.96005
1680010472341,1190460694995408,-6.98295,3.2940001,5.01195
1680010472343,1190460697497562,-6.9280505,3.3439503,5.03205
1680010472344,1190460699999947,-6.9079504,3.34695,5.01195
1680010472348,1190460702502101,-6.9970503,3.28005,5.0479503
1680010472350,1190460705004345,-6.9949503,3.249,5.0410504
1680010472352,1190460707506499,-6.9970503,3.2920501,4.97205
1680010472354,1190460710008884,-6.9660006,3.2749503,5.08395
1680010472358,1190460712511038,-6.9559503,3.18405,5.07705
1680010472360,1190460715013178,-6.9250503,3.249,4.99305
1680010472362,1190460717515639,-6.90105,3.2370002,5.0220003
1680010472364,1190460720017793,-7.0230002,3.1909502,5.046
1680010472368,1190460722519947,-6.9949503,3.18105,5.07
1680010472369,1190460725022178,-6.9420004,3.213,5.2759504
1680010472372,1190460727524331,-6.9760504,3.21705,5.19
1680010472376,1190460730026716,-7.038,3.28695,5.1919503
1680010472378,1190460732528870,-7.0189505,3.2370002,5.15595
1680010472381,1190460735031101,-7.07805,3.2370002,5.06295
1680010472383,1190460737533264,-6.9370503,3.2290502,5.0479503
1680010472384,1190460740035648,-7.011,3.25605,4.965
1680010472388,1190460742537802,-6.9229503,3.1290002,4.99095
1680010472389,1190460745039956,-6.873,3.2370002,5.046
1680010472392,1190460747542417,-6.8890505,3.2290502,4.9879503
1680010472395,1190460750044586,-6.8629503,3.141,4.9090505
1680010472398,1190460752546740,-6.9160504,3.1960502,4.85895
1680010472400,1190460755048971,-6.9199505,3.1579502,4.8180003
1680010472402,1190460757551125,-6.85305,3.1050003,4.8520503
1680010472405,1190460760053279,-6.8100004,3.1669502,4.76595
1680010472409,1190460762555436,-6.8290505,3.14805,4.8019505
1680010472411,1190460765057898,-6.8220005,3.0619502,4.76595
1680010472414,1190460767560052,-6.762,3.07095,4.76805
1680010472415,1190460770062235,-6.762,3.1309502,4.7730002
1680010472418,1190460772564619,-6.8700004,3.05205,4.8109503
1680010472420,1190460775066773,-6.7980003,3.1260002,4.7509503
1680010472422,1190460777569004,-6.7530003,2.973,4.854
1680010472425,1190460780071389,-6.7980003,3.1240501,4.9500003
1680010472428,1190460782573537,-6.8320503,3.081,4.90005
1680010472431,1190460785075768,-6.80805,3.0900002,4.9120502
1680010472433,1190460787577922,-6.7819505,3.1050003,4.88805
1680010472435,1190460790080076,-6.762,3.1620002,4.85895
1680010472438,1190460792582249,-6.834,3.14805,4.94805
1680010472445,1190460795084633,-6.7840505,3.1890001,4.9960504
1680010472445,1190460797586864,-6.8650503,3.249,5.0220003
1680010472446,1190460800089018,-6.762,3.31095,4.833
1680010472452,1190460802591384,-6.834,3.3400502,4.88805
1680010472453,1190460805093537,-6.85305,3.39,4.938
1680010472454,1190460807595768,-6.8749504,3.3349502,4.938
1680010472455,1190460810097922,-6.9079504,3.4759502,4.9759502
1680010472458,1190460812600331,-6.9640503,3.45405,4.842
1680010472459,1190460815102485,-6.97305,3.3709502,4.9879503
1680010472462,1190460817604638,-6.9900002,3.42105,5.0149503
1680010472465,1190460820106869,-7.0399504,3.3780003,5.0340004
1680010472467,1190460822609014,-7.038,3.3439503,5.0170503
1680010472469,1190460825111399,-7.0090504,3.318,5.05305
1680010472472,1190460827613553,-7.01595,3.28395,5.14905
1680010472474,1190460830115783,-7.04505,3.3130503,5.18205
1680010472478,1190460832618168,-6.91095,3.1600502,5.06505
1680010472481,1190460835120337,-6.9370503,3.1740003,5.23005
1680010472482,1190460837622491,-6.93195,3.1620002,5.235
1680010472484,1190460840124721,-6.8749504,3.14805,5.0989504
1680010472489,1190460842626889,-6.9660006,3.0979502,5.19
1680010472491,1190460845129351,-6.95205,3.0280502,5.2260003
1680010472493,1190460847631428,-6.9199505,3.0670502,5.247
1680010472495,1190460850133658,-6.873,3.0259502,5.25705
1680010472498,1190460852635812,-6.89895,3.0550501,5.31405
1680010472500,1190460855138207,-6.88005,3.1740003,5.07705
1680010472502,1190460857640361,-6.93195,3.0979502,5.29995
1680010472505,1190460860142592,-6.8290505,3.078,5.3050504
1680010472508,1190460862644976,-6.9250503,3.0880501,5.29995
1680010472510,1190460865147130,-6.7890005,3.10995,5.12295
1680010472512,1190460867649308,-6.8749504,3.141,5.2780504
1680010472514,1190460870151539,-6.8770504,3.114,5.1990004
1680010472518,1190460872653693,-6.8370004,3.21495,5.1199503
1680010472521,1190460875155860,-6.7650003,3.213,5.1199503
1680010472522,1190460877658245,-6.8509502,3.3130503,5.26905
1680010472526,1190460880160476,-6.8490005,3.31605,5.17005
1680010472529,1190460882662630,-6.7980003,3.2269502,5.1870003
1680010472535,1190460885164788,-6.9610505,3.3420002,5.2060504
1680010472535,1190460887667173,-6.8869505,3.3370502,5.2830005
1680010472535,1190460890169327,-6.8440504,3.354,5.1870003
1680010472538,1190460892671789,-6.9300003,3.2920501,5.34105
1680010472539,1190460895173942,-6.9300003,3.3130503,5.2519503
1680010472542,1190460897676082,-6.9610505,3.2220001,5.2180505
1680010472544,1190460900178313,-6.97305,3.4090502,5.2830005
1680010472547,1190460902680467,-6.8920503,3.3349502,5.25705
1680010472549,1190460905182621,-6.9679503,3.4140003,5.2330503
1680010472552,1190460907684789,-6.8770504,3.4279501,5.2830005
1680010472555,1190460910187250,-6.9229503,3.4690502,5.1540003
1680010472558,1190460912689404,-6.9799504,3.3709502,5.1730504
1680010472560,1190460915191558,-6.8920503,3.3300002,5.2639503
1680010472564,1190460917693904,-6.9229503,3.41895,5.1780005
1680010472566,1190460920196058,-6.84105,3.4660501,5.08395
1680010472568,1190460922698212,-6.8269506,3.45,5.091
1680010472570,1190460925200674,-6.8560505,3.5359502,5.05095
1680010472572,1190460927702828,-6.8509502,3.4350002,5.118
1680010472574,1190460930205072,-6.7500005,3.45,5.142
1680010472577,1190460932707226,-6.8700004,3.5310001,5.1540003
1680010472580,1190460935209380,-6.7960505,3.5479503,5.1130505
1680010472582,1190460937711534,-6.8050504,3.48795,5.1319504
1680010472585,1190460940213985,-6.88395,3.45405,5.2450504
1680010472588,1190460942716139,-6.8250003,3.3630002,5.19
1680010472590,1190460945218293,-6.9229503,3.4759502,5.2060504
1680010472592,1190460947720678,-6.9540005,3.45705,5.247
1680010472594,1190460950222832,-6.91095,3.4429502,5.28795
1680010472597,1190460952724990,-6.91095,3.39,5.355
1680010472602,1190460955227221,-6.9199505,3.3349502,5.4199505
1680010472603,1190460957729606,-6.91305,3.3660002,5.19705
1680010472605,1190460960231832,-6.8610005,3.25305,5.223
1680010472608,1190460962733985,-6.8650503,3.3079503,5.1390004
1680010472610,1190460965236139,-6.8890505,3.2580001,5.202
1680010472612,1190460967738293,-6.8220005,3.28395,5.10795
1680010472614,1190460970240447,-6.918,3.25095,5.07705
1680010472617,1190460972742914,-6.834,3.39,5.08395
1680010472619,1190460975245067,-6.94395,3.2650502,5.03595
1680010472622,1190460977747452,-6.8580003,3.3079503,4.9570503
1680010472625,1190460980249606,-6.88005,3.2340002,5.02395
1680010472628,1190460982751745,-6.8610005,3.2920501,4.9549503
1680010472630,1190460985253976,-7.0069504,3.3300002,5.0599504
1680010472632,1190460987756129,-6.9949503,3.38295,5.0560503
1680010472634,1190460990258514,-7.1190004,3.2749503,5.1130505
1680010472639,1190460992760721,-7.0740004,3.35205,5.091
1680010472642,1190460995262875,-7.08795,3.21,5.06295
1680010472643,1190460997765028,-7.0980005,3.2650502,5.0869503
1680010472645,1190461000267182,-7.17705,3.28905,5.0890503
1680010472648,1190461002769567,-7.22205,3.2650502,5.0599504
1680010472650,1190461005271803,-7.2460504,3.2269502,5.1130505
1680010472652,1190461007774187,-7.1929502,3.22005,5.23995
1680010472654,1190461010276341,-7.18905,3.2920501,5.1660004
1680010472658,1190461012778495,-7.1260505,3.2719502,5.223
1680010472660,1190461015280726,-7.155,3.21,5.1319504
1680010472662,1190461017783120,-7.11,3.2080503,5.1469502
1680010472665,1190461020285274,-7.0470004,3.25605,5.03595
1680010472668,1190461022787428,-6.9870005,3.4380002,5.046
1680010472669,1190461025289659,-6.918,3.4780502,5.1010504
1680010472673,1190461027791798,-6.9900002,3.4350002,5.13495
1680010472677,1190461030293952,-6.94395,3.48795,5.0220003
1680010472679,1190461032796336,-6.9040504,3.5140502,5.1130505
1680010472681,1190461035298567,-6.7650003,3.5479503,5.06505
1680010472683,1190461037800707,-6.83895,3.5140502,5.02395
1680010472685,1190461040303091,-6.7930503,3.5479503,4.9410005
1680010472688,1190461042805245,-6.801,3.627,5.0680504
1680010472691,1190461045307399,-6.741,3.6220503,5.06295
1680010472692,1190461047809865,-6.801,3.5959501,5.13
1680010472694,1190461050312019,-6.8610005,3.5119503,5.151
1680010472697,1190461052814172,-6.8100004,3.5650501,5.08395
1680010472699,1190461055316403,-6.8149505,3.55695,5.1469502
1680010472702,1190461057818557,-6.86805,3.4309502,5.17995
1680010472705,1190461060320726,-6.97095,3.45705,5.1780005
1680010472708,1190461062823111,-6.8869505,3.4690502,5.295
1680010472710,1190461065325341,-7.011,3.45195,5.23995
1680010472714,1190461067827509,-6.9229503,3.39,5.2330503
1680010472716,1190461070329663,-6.9660006,3.387,5.3500504
1680010472720,1190461072832048,-7.0399504,3.3750002,5.3190002
1680010472722,1190461075553355,-6.9949503,3.2629502,5.3880005
1680010472724,1190461077836418,-7.083,3.3589501,5.5350003
1680010472727,1190461080338803,-7.0309505,3.3040502,5.4289503
1680010472730,1190461082840957,-6.9610505,3.3780003,5.31405
1680010472731,1190461085433649,-6.9300003,3.31095,5.38395
1680010472734,1190461087845341,-6.9280505,3.3780003,5.43405
1680010472735,1190461090347533,-6.9559503,3.423,5.43195
1680010472738,1190461092849687,-6.88005,3.4279501,5.2660503
1680010472741,1190461095352149,-6.9900002,3.31995,5.2540503
1680010472743,1190461097854302,-6.9079504,3.4429502,5.307
1680010472745,1190461100356456,-6.94395,3.4279501,5.235
1680010472748,1190461102858822,-6.8580003,3.4069502,5.2110004
1680010472751,1190461105360976,-6.8170505,3.3990002,5.20905
1680010472753,1190461107863207,-6.7770004,3.4810503,5.1610503
1680010472755,1190461110365360,-6.76695,3.41595,5.1589503
1680010472758,1190461112867726,-6.74805,3.45,5.08395
1680010472761,1190461115369880,-6.6589503,3.3630002,5.05305
1680010472763,1190461117872111,-6.7240505,3.35205,5.06505
1680010472765,1190461120374265,-6.6139503,3.4330502,5.0719504
1680010472768,1190461122876422,-6.6910505,3.3630002,5.118
1680010472770,1190461125378807,-6.6859503,3.4090502,5.0149503
1680010472772,1190461127881038,-6.7170005,3.4039502,5.0869503
1680010472775,1190461130383192,-6.6979504,3.3990002,5.0149503
1680010472780,1190461132885552,-6.7819505,3.3949502,5.175
1680010472781,1190461135387706,-6.76695,3.4140003,5.046
1680010472783,1190461137889860,-6.95205,3.38295,5.1270003
1680010472785,1190461140392091,-6.91305,3.3420002,5.1130505
1680010472793,1190461142894221,-6.97305,3.213,5.2060504
1680010472794,1190461145396682,-6.9589505,3.2580001,5.2450504
1680010472795,1190461147898759,-7.0669503,3.2080503,5.2830005
1680010472796,1190461150400990,-7.11,3.2440503,5.2210503
1680010472798,1190461152903144,-7.05495,3.2050502,5.20905
1680010472803,1190461155405495,-7.1359506,3.2719502,5.3310003
1680010472804,1190461157907649,-7.0230002,3.1720502,5.32095
1680010472806,1190461160409880,-7.11705,3.21495,5.3479505
1680010472809,1190461162912265,-7.0230002,3.1360502,5.26905
1680010472810,1190461165414418,-7.1340003,3.1600502,5.2450504
1680010472812,1190461167916591,-7.038,3.2580001,5.3569503
1680010472815,1190461170418822,-6.9870005,3.2220001,5.3569503
1680010472818,1190461172920976,-7.0140004,3.1650002,5.3809505
1680010472820,1190461175423360,-7.0690503,3.2290502,5.532
1680010472823,1190461177925494,-6.9970503,3.2029502,5.499
1680010472827,1190461180427725,-6.9280505,3.249,5.4409504
1680010472830,1190461182929879,-6.91305,3.2680502,5.4480004
1680010472832,1190461185432033,-6.906,3.28695,5.3809505
1680010472834,1190461187934397,-6.8629503,3.3300002,5.367
1680010472835,1190461190436551,-6.7240505,3.4039502,5.3910003
1680010472838,1190461192939013,-6.7930503,3.3949502,5.4030004
1680010472841,1190461195441167,-6.669,3.2370002,5.32905
1680010472842,1190461197943321,-6.67605,3.3130503,5.3910003
1680010472845,1190461200445556,-6.59205,3.282,5.4910502
1680010472848,1190461202947710,-6.6520505,3.2320502,5.2930503
1680010472850,1190461205449864,-6.7380004,3.3439503,5.26905
1680010472852,1190461207952249,-6.7219505,3.2749503,5.38605
1680010472855,1190461210454489,-6.6570005,3.282,5.31405
1680010472858,1190461212956643,-6.69495,3.2220001,5.35305
1680010472860,1190461215458797,-6.6790504,3.2410502,5.235
1680010472864,1190461217961182,-6.6859503,3.1720502,5.367
1680010472867,1190461220463326,-6.57105,3.177,5.3190002
1680010472871,1190461222965556,-6.60405,3.21495,5.34105
1680010472874,1190461225467941,-6.525,3.2680502,5.262
1680010472876,1190461227970095,-6.5659504,3.32505,5.2540503
1680010472878,1190461230472326,-6.609,3.2010002,5.3310003
1680010472879,1190461232974398,-6.4939504,3.22005,5.235
1680010472881,1190461235476628,-6.5179505,3.249,5.151
1680010472883,1190461237978782,-6.4489503,3.3420002,5.0989504
1680010472885,1190461240481244,-6.49695,3.2959502,5.2330503
1680010472888,1190461242983394,-6.4939504,3.2580001,5.12505
1680010472891,1190461245485547,-6.4750504,3.28695,5.223
1680010472893,1190461247987932,-6.5200505,3.2959502,5.13495
1680010472895,1190461250490086,-6.6190505,3.3349502,5.295
1680010472898,1190461252992230,-6.564,3.354,5.12505
1680010472901,1190461255494691,-6.4819503,3.2719502,5.1660004
1680010472903,1190461257996845,-6.63495,3.117,5.1610503
1680010472906,1190461260499076,-6.597,3.2010002,5.223
1680010472908,1190461263001201,-6.7380004,3.17895,5.1870003
1680010472910,1190461265503355,-6.7260003,3.1219501,5.07495
1680010472912,1190461268005508,-6.66405,3.1720502,5.18205
1680010472915,1190461270507893,-6.6930003,3.11205,5.08395
1680010472918,1190461273010124,-6.834,3.0640502,5.0719504
1680010472921,1190461275512283,-6.7909503,3.1020002,5.06505
1680010472923,1190461278014667,-6.702,2.9950502,4.998
1680010472925,1190461280516821,-6.729,3.0310502,5.1390004
1680010472928,1190461283018989,-6.6979504,2.9989502,5.0479503
1680010472930,1190461285521220,-6.6859503,3.03795,5.091
1680010472933,1190461288023604,-6.7099504,3.05205,5.14905
1680010472935,1190461290525758,-6.6859503,3.00705,5.19705
1680010472939,1190461293027994,-6.6499505,3.1000502,5.17005
1680010472942,1190461295530148,-6.6450005,3.10695,5.0940003
1680010472943,1190461298032533,-6.609,2.9899502,5.2330503
1680010472946,1190461300534456,-6.6160502,3.0619502,5.2830005
1680010472948,1190461303036840,-6.6280503,3.21495,5.29995
1680010472950,1190461305539076,-6.64305,3.1600502,5.4
1680010472952,1190461308041461,-6.6589503,3.2440503,5.2930503
1680010472955,1190461310543615,-6.5850005,3.1980002,5.2930503
1680010472958,1190461313045768,-6.6469502,3.31995,5.4630003
1680010472961,1190461315548013,-6.6469502,3.282,5.5230002
1680010472963,1190461318050167,-6.5950503,3.35205,5.5300503
1680010472965,1190461320552552,-6.6139503,3.34905,5.616
1680010472968,1190461323054782,-6.6070504,3.4470003,5.61105
1680010472970,1190461325556936,-6.564,3.2650502,5.7169504
1680010472973,1190461328059134,-6.5059505,3.2320502,5.6610003
1680010472977,1190461330561288,-6.63495,3.213,5.60895
1680010472979,1190461333063673,-6.60405,3.2719502,5.649
1680010472982,1190461335565903,-6.564,3.2220001,5.7240005
1680010472983,1190461338068288,-6.52995,3.1930501,5.6400003
1680010472985,1190461340570456,-6.4870505,3.1260002,5.6470504
1680010472988,1190461343072610,-6.5560503,3.1290002,5.75505
1680010472990,1190461345574840,-6.5280004,3.1720502,5.7070503
1680010472993,1190461348076994,-6.60405,3.1339502,5.59005
1680010472995,1190461350579148,-6.525,3.1600502,5.59005
1680010472998,1190461353081610,-6.4750504,3.153,5.511
1680010473000,1190461355583764,-6.5400004,3.0619502,5.3809505
1680010473002,1190461358085917,-6.5680504,3.117,5.47695
1680010473005,1190461360588307,-6.5989504,3.14295,5.451
1680010473008,1190461363090461,-6.6070504,3.153,5.4079504
1680010473010,1190461365592615,-6.6280503,3.0640502,5.3359504
1680010473014,1190461368094845,-6.6070504,3.117,5.41695
1680010473016,1190461370597230,-6.762,3.2029502,5.3640003
1680010473018,1190461373099384,-6.73605,3.17895,5.3430004
1680010473020,1190461375601538,-6.8320503,3.0690002,5.27295
1680010473023,1190461378103769,-6.834,3.1339502,5.3310003
1680010473025,1190461380606158,-6.9040504,3.153,5.3640003
1680010473029,1190461383108312,-6.8749504,3.04695,5.33295
1680010473031,1190461385610543,-6.9079504,3.0859501,5.2849503
1680010473033,1190461388112620,-6.93195,3.0190501,5.3959503
1680010473035,1190461390614851,-7.04505,2.9680502,5.38395
1680010473039,1190461393116989,-6.9760504,3.0259502,5.4289503
1680010473042,1190461395619451,-6.9900002,3.0229502,5.439
1680010473043,1190461398121605,-6.9919505,3.0040503,5.37405
1680010473045,1190461400623759,-6.9490504,2.94,5.5939503
1680010473048,1190461403126129,-6.9919505,3.0040503,5.61105
1680010473052,1190461405628283,-6.9760504,3.00195,5.66895
1680010473053,1190461408130437,-7.0020003,3.0670502,5.7070503
1680010473055,1190461410632899,-7.0620003,3.08295,5.7000003
1680010473058,1190461413135061,-6.9919505,3.0259502,5.84595
1680010473061,1190461415637215,-7.07595,3.0330002,5.88705
1680010473063,1190461418139369,-7.05495,2.9520001,5.82
1680010473065,1190461420641600,-6.9799504,3.0499501,5.9419503
1680010473068,1190461423143750,-6.9900002,3.1000502,5.841
1680010473070,1190461425645904,-6.9420004,3.0259502,5.7910504
1680010473073,1190461428148365,-6.9079504,3.0330002,5.9440503
1680010473076,1190461430650519,-6.88005,3.1290002,5.90805
1680010473079,1190461433152913,-6.906,3.0670502,6.0040503
1680010473081,1190461435655066,-6.88005,3.117,5.8669505
1680010473083,1190461438157220,-6.83895,3.17895,5.80305
1680010473085,1190461440659451,-6.7909503,3.2050502,5.90805
1680010473090,1190461443161831,-6.741,3.354,5.769
1680010473092,1190461445663985,-6.7050004,3.1669502,5.7979503
1680010473093,1190461448166138,-6.7380004,3.3010502,5.78595
1680010473096,1190461450668369,-6.6259503,3.31605,5.676
1680010473098,1190461453170514,-6.7309504,3.2749503,5.769
1680010473100,1190461455672668,-6.6880503,3.2010002,5.7330003
1680010473103,1190461458175129,-6.7650003,3.2650502,5.67105
1680010473105,1190461460677283,-6.8029504,3.2029502,5.74095
1680010473108,1190461463179422,-6.7260003,3.1740003,5.8390503
1680010473110,1190461465681807,-6.7500005,3.25095,5.7840004
1680010473113,1190461468183961,-6.8050504,3.177,5.736
1680010473115,1190461470686191,-6.801,3.14595,5.6590505
1680010473119,1190461473188369,-6.7260003,3.1600502,5.7169504
1680010473121,1190461475690754,-6.7840505,3.0690002,5.676
1680010473123,1190461478192908,-6.70695,3.04695,5.59695
1680010473127,1190461480695138,-6.7309504,3.0550501,5.7169504
1680010473130,1190461483197283,-6.8560505,3.00705,5.55105
1680010473132,1190461485699437,-6.7840505,3.0979502,5.5800004
1680010473134,1190461488201822,-6.7600503,2.9869502,5.50605
1680010473135,1190461490704053,-6.7890005,3.081,5.37195
1680010473138,1190461493206206,-6.8700004,3.0259502,5.4
1680010473140,1190461495708581,-6.7980003,3.0589502,5.427
1680010473143,1190461498210735,-6.9079504,3.11205,5.2330503
1680010473145,1190461500712966,-6.9079504,3.0550501,5.2780504
1680010473148,1190461503215120,-6.80805,3.05205,5.3500504
1680010473150,1190461505717254,-6.9199505,3.0310502,5.2930503
1680010473153,1190461508219639,-6.9559503,3.01605,5.262
1680010473158,1190461510721870,-6.9660006,3.0349503,5.2519503
1680010473159,1190461513224024,-6.8820004,2.9659503,5.202
1680010473160,1190461515726177,-6.9160504,3.0210001,5.33295
1680010473164,1190461518228562,-6.9610505,2.9920502,5.262
1680010473167,1190461520730716,-6.9349504,2.94195,5.3430004
1680010473169,1190461523232947,-6.8580003,3.01395,5.3170505
1680010473171,1190461525735345,-6.8749504,3.07605,5.2260003
1680010473173,1190461528237499,-6.8749504,2.97495,5.2759504
1680010473175,1190461530739653,-6.8869505,2.94,5.1990004
1680010473178,1190461533241884,-6.8959503,3.04305,5.2519503
1680010473180,1190461535744038,-6.8490005,3.0190501,5.2930503
1680010473183,1190461538246202,-6.8290505,3.0690002,5.38395
1680010473185,1190461540748586,-6.8320503,3.2010002,5.4580503
1680010473188,1190461543250817,-6.7819505,3.14805,5.4289503
1680010473190,1190461545752971,-6.8490005,3.1050003,5.5129504
1680010473193,1190461548255355,-6.83895,3.1189501,5.5630503
1680010473197,1190461550757494,-6.7890005,3.14295,5.52495
1680010473200,1190461553259648,-6.8250003,3.177,5.58195
1680010473204,1190461555762129,-6.76695,3.2389503,5.5729504
1680010473205,1190461558264282,-6.7549505,3.213,5.53695
1680010473207,1190461560766436,-6.714,3.2029502,5.6329503
1680010473209,1190461563268667,-6.813,3.2389503,5.68305
1680010473211,1190461565770821,-6.7909503,3.186,5.6569505
1680010473213,1190461568272994,-6.8100004,3.2080503,5.68095
1680010473215,1190461570775378,-6.7530003,3.2080503,5.5579505
1680010473218,1190461573277609,-6.7170005,3.177,5.6449504
1680010473220,1190461575779763,-6.741,3.17895,5.57805
1680010473222,1190461578281917,-6.7429504,3.246,5.46705
1680010473225,1190461580784307,-6.6670504,3.2650502,5.3500504
1680010473229,1190461583286460,-6.7699504,3.213,5.41695
1680010473231,1190461585788691,-6.6709504,3.1600502,5.439
1680010473234,1190461588291076,-6.63105,3.0640502,5.47905
1680010473235,1190461590793245,-6.6570005,3.14595,5.4079504
1680010473241,1190461593295475,-6.7699504,3.186,5.3640003
1680010473243,1190461595797629,-6.74595,3.1050003,5.3569503
1680010473244,1190461598299778,-6.6280503,3.1290002,5.3980503
1680010473246,1190461600801932,-6.5830503,3.0190501,5.36205
1680010473248,1190461603304394,-6.64305,3.0900002,5.46
1680010473250,1190461605806547,-6.6859503,2.832,5.367
1680010473253,1190461608308701,-6.5800505,2.8939502,5.3809505
1680010473255,1190461610811076,-6.66195,2.8459501,5.55105
1680010473258,1190461613313230,-6.6450005,2.868,5.4559503
1680010473260,1190461615815384,-6.6259503,2.877,5.46495
1680010473262,1190461618317614,-6.6520505,2.88,5.5939503
1680010473265,1190461620819999,-6.6930003,2.7910502,5.53695
1680010473268,1190461623322225,-6.6589503,2.8870502,5.5939503
1680010473270,1190461625824302,-6.6589503,2.80305,5.4960003
1680010473273,1190461628326532,-6.51105,2.8249502,5.472
1680010473277,1190461630828696,-6.6379504,2.8129501,5.54895
1680010473280,1190461633331081,-6.6210003,2.8819501,5.3260503
1680010473282,1190461635833312,-6.6570005,2.91105,5.3640003
1680010473284,1190461638335466,-6.6880503,2.8990502,5.4360003
1680010473288,1190461640837807,-6.63495,2.9350502,5.3190002
1680010473290,1190461643339961,-6.6930003,3.0040503,5.3310003
1680010473291,1190461645842115,-6.62295,2.9970002,5.2710004
1680010473293,1190461648344346,-6.70695,3.0259502,5.28105
1680010473295,1190461650846730,-6.74805,3.0589502,5.2930503
1680010473298,1190461653348893,-6.7909503,3.05205,5.2519503
1680010473300,1190461655851047,-6.70695,3.0349503,5.21595
1680010473303,1190461658353278,-6.7000504,3.078,5.25705
1680010473309,1190461660855432,-6.6880503,3.1290002,5.30205
1680010473310,1190461663357816,-6.7530003,3.2220001,5.3239503
1680010473311,1190461665859970,-6.7530003,3.117,5.23005
1680010473314,1190461668362201,-6.7770004,3.10995,5.2330503
1680010473317,1190461670864585,-6.7530003,3.117,5.1270003
1680010473320,1190461673366744,-6.7600503,3.15,5.17995
1680010473323,1190461675868898,-6.67605,3.21705,5.1130505
1680010473325,1190461678371129,-6.73395,3.1600502,5.09595
1680010473327,1190461680873283,-6.66405,3.2599502,5.091
1680010473330,1190461683375667,-6.6709504,3.3010502,5.14905
1680010473332,1190461685877821,-6.7549505,3.213,4.97895
1680010473334,1190461688380052,-6.7600503,3.2370002,4.9960504
1680010473335,1190461690882206,-6.714,3.2770503,5.1610503
1680010473338,1190461693384360,-6.6930003,3.282,5.02395
1680010473341,1190461695886739,-6.5950503,3.1380002,5.1919503
1680010473343,1190461698388893,-6.5680504,3.246,5.19
1680010473345,1190461700891355,-6.6670504,3.1960502,5.2210503
1680010473348,1190461703393509,-6.64305,3.10995,5.3089504
1680010473354,1190461705895633,-6.6139503,3.0979502,5.2660503
1680010473355,1190461708397864,-6.58995,3.1189501,5.2849503
1680010473357,1190461710900018,-6.5850005,3.1189501,5.3689504
1680010473360,1190461713402172,-6.6330004,3.01395,5.3260503
1680010473362,1190461715904557,-6.73605,3.0550501,5.34105
1680010473363,1190461718406782,-6.6979504,2.9989502,5.35995
1680010473366,1190461720908936,-6.6589503,3.1050003,5.4079504
1680010473368,1190461723411090,-6.74595,3.05205,5.44395
1680010473371,1190461725913475,-6.8050504,3.1020002,5.3910003
1680010473373,1190461728415629,-6.74805,3.1240501,5.46495
1680010473375,1190461730917855,-6.741,3.0670502,5.4100504
1680010473379,1190461733420240,-6.7980003,3.213,5.44605
1680010473381,1190461735922394,-6.8320503,3.15,5.4529505
1680010473383,1190461738424548,-6.7930503,3.2650502,5.4630003
1680010473385,1190461740926787,-6.8560505,3.2749503,5.52495
1680010473391,1190461743429172,-6.729,3.4069502,5.4360003
1680010473393,1190461745931326,-6.7099504,3.486,5.379
1680010473394,1190461748433451,-6.8370004,3.486,5.32905
1680010473396,1190461750935681,-6.7699504,3.52905,5.34495
1680010473399,1190461753437835,-6.834,3.6169503,5.247
1680010473401,1190461755939989,-6.8490005,3.6510003,5.2500005
1680010473403,1190461758442451,-6.8610005,3.7350001,5.2519503
1680010473408,1190461760944576,-6.9229503,3.7129502,5.118
1680010473410,1190461763446960,-6.906,3.7420502,5.0989504
1680010473412,1190461765949114,-6.9900002,3.72495,5.06295
1680010473413,1190461768451268,-6.9660006,3.7399502,4.9290004
1680010473415,1190461770953499,-6.97305,3.831,4.9879503
1680010473418,1190461773455883,-6.9870005,3.7440002,4.9360504
1680010473421,1190461775958037,-7.0330505,3.7510502,4.88805
1680010473423,1190461778460191,-7.0350003,3.732,4.84695
1680010473427,1190461780962422,-7.0330505,3.7510502,4.76595
1680010473431,1190461783464576,-7.00395,3.6750002,4.7200503
1680010473434,1190461784932206,-6.9900002,3.5770502,4.84695
1680010473434,1190461786401115,-7.00395,3.5310001,4.7710505
1680010473437,1190461790971345,-7.05495,3.5770502,4.854
1680010473440,1190461793473499,-7.07595,3.49005,4.8850503
1680010473443,1190461795975883,-7.0690503,3.423,4.9360504
1680010473444,1190461798478037,-7.0620003,3.4620001,4.938
1680010473446,1190461800980268,-7.0020003,3.3439503,4.8949504
1680010473449,1190461803482422,-7.0620003,3.1549501,5.18205
1680010473451,1190461805984811,-6.978,3.1960502,5.09595
1680010473453,1190461808486965,-6.9799504,3.0619502,5.1270003
1680010473455,1190461810989196,-6.9900002,3.0979502,5.2260003
1680010473458,1190461813491350,-6.9760504,3.0550501,5.2180505
1680010473460,1190461815993519,-7.0230002,3.10695,5.30205
1680010473465,1190461818495903,-6.9349504,2.98305,5.5009503
1680010473469,1190461820998057,-6.9799504,2.94195,5.4240003
1680010473470,1190461823500288,-6.9469504,2.98005,5.5920005
1680010473472,1190461826002682,-6.978,2.9869502,5.484
1680010473474,1190461828504836,-6.94395,2.97795,5.5800004
1680010473476,1190461831007066,-6.90105,2.9970002,5.59005
1680010473479,1190461833509143,-6.9589505,3.141,5.5350003
1680010473481,1190461836011374,-6.9469504,3.1740003,5.5609503
1680010473483,1190461838513759,-6.90105,3.2050502,5.4630003
1680010473485,1190461841015912,-6.88005,3.3300002,5.5270505
1680010473488,1190461843518143,-6.8749504,3.3679502,5.44395
1680010473491,1190461846020297,-6.8959503,3.3010502,5.36205
1680010473493,1190461848522692,-6.8629503,3.42105,5.2780504
1680010473495,1190461851024846,-6.8200502,3.4110003,5.17005
1680010473498,1190461853526999,-6.89895,3.48795,5.2260003
1680010473502,1190461856029476,-6.8920503,3.45705,5.151
1680010473504,1190461858531630,-6.88005,3.3709502,5.20905
1680010473505,1190461861033784,-6.9040504,3.3630002,5.1469502
1680010473508,1190461863535938,-6.9870005,3.45,5.18205
1680010473510,1190461866038168,-6.873,3.4690502,5.3239503
1680010473513,1190461868540322,-6.94395,3.34695,5.2930503
1680010473516,1190461871042707,-7.05,3.318,5.2330503
1680010473519,1190461873544938,-7.01595,3.3010502,5.25705
1680010473522,1190461876047091,-7.00395,3.35205,5.32095
1680010473524,1190461878549495,-6.9160504,3.25095,5.223
1680010473526,1190461881051649,-6.9990005,3.3630002,5.32095
1680010473529,1190461883553803,-6.9990005,3.3130503,5.4289503
1680010473531,1190461886056264,-6.95205,3.38505,5.37405
1680010473533,1190461888558418,-6.97305,3.3780003,5.38605
1680010473535,1190461891060567,-6.9900002,3.3349502,5.2500005
1680010473540,1190461893562798,-6.98295,3.4309502,5.3809505
1680010473541,1190461896064952,-6.978,3.3919501,5.2780504
1680010473544,1190461898567105,-7.0309505,3.3919501,5.3430004
1680010473546,1190461901069255,-6.9900002,3.3919501,5.31405
1680010473548,1190461903571717,-6.95205,3.459,5.2830005
1680010473551,1190461906073871,-7.0189505,3.4330502,5.20905
1680010473553,1190461908576025,-6.9589505,3.52605,5.247
1680010473556,1190461911078389,-7.0399504,3.5119503,5.235
1680010473560,1190461913580543,-6.9250503,3.5380502,5.1660004
1680010473561,1190461916082774,-6.9589505,3.5050502,5.214
1680010473563,1190461918585158,-6.846,3.5650501,5.23995
1680010473566,1190461921087346,-6.91305,3.52905,5.1780005
1680010473568,1190461923589500,-6.9229503,3.6370502,5.19705
1680010473570,1190461926091731,-6.906,3.52605,5.23005
1680010473574,1190461928593885,-6.9589505,3.48795,5.1919503
1680010473577,1190461931096068,-6.91305,3.5359502,5.2519503
1680010473580,1190461933598452,-6.8920503,3.4069502,5.3380504
1680010473581,1190461936100683,-6.906,3.3750002,5.35305
1680010473583,1190461938602837,-6.80805,3.459,5.439
1680010473585,1190461941105221,-6.7890005,3.3319502,5.38395
1680010473588,1190461943607384,-6.8560505,3.2290502,5.44395
1680010473591,1190461946109538,-6.8560505,3.2580001,5.51805
1680010473593,1190461948611769,-6.85305,3.1720502,5.62995
1680010473595,1190461951114154,-6.8050504,3.1980002,5.57805
1680010473599,1190461953616394,-6.8269506,3.2719502,5.62305
1680010473600,1190461956118471,-6.8370004,3.15,5.58195
1680010473603,1190461958620702,-6.774,3.141,5.64195
1680010473605,1190461961122856,-6.8770504,3.0979502,5.62095
1680010473608,1190461963625241,-6.8220005,3.1720502,5.62305
1680010473610,1190461966127476,-6.7909503,3.1620002,5.59905
1680010473614,1190461968629630,-6.8770504,3.15,5.61105
1680010473617,1190461971132015,-6.8100004,3.14295,5.6470504
1680010473619,1190461973634169,-6.846,3.25095,5.4199505
1680010473621,1190461976136312,-6.7600503,3.2010002,5.472
1680010473623,1190461978638543,-6.7530003,3.2680502,5.46705
1680010473626,1190461981140697,-6.8250003,3.17895,5.4480004
1680010473629,1190461983643159,-6.90105,3.17895,5.35305
1680010473630,1190461986145313,-6.76695,3.25605,5.30205
1680010473633,1190461988647480,-6.8490005,3.2650502,5.4100504
1680010473635,1190461991149634,-6.8200502,3.34695,5.41695
1680010473639,1190461993651788,-6.7600503,3.3660002,5.3310003
1680010473641,1190461996154173,-6.774,3.3750002,5.28795
1680010473643,1190461998656403,-6.7530003,3.34695,5.31405
1680010473645,1190462001158788,-6.7120504,3.4090502,5.23995
1680010473649,1190462003660942,-6.7579503,3.42105,5.3310003
1680010473652,1190462006163077,-6.77895,3.3420002,5.1439505
1680010473654,1190462008665308,-6.7960505,3.4429502,5.08395
1680010473656,1190462011167461,-6.8029504,3.3730502,5.1199503
1680010473658,1190462013669615,-6.7860003,3.3010502,5.0680504
1680010473660,1190462016172000,-6.74805,3.38295,5.14905
1680010473663,1190462018674231,-6.7980003,3.3610501,5.202
1680010473665,1190462021176385,-6.7909503,3.39,5.13495
1680010473668,1190462023678538,-6.77895,3.249,5.16795
1680010473670,1190462026180923,-6.7549505,3.2650502,5.2500005
1680010473673,1190462028683082,-6.85305,3.1909502,5.17005
1680010473675,1190462031185543,-6.846,3.2080503,5.2930503
1680010473679,1190462033687697,-6.8650503,3.1189501,5.2759504
1680010473681,1190462036189851,-6.8370004,3.14595,5.34495
1680010473683,1190462038692082,-6.873,3.0880501,5.35995
1680010473685,1190462041194236,-6.8700004,3.14295,5.3430004
1680010473690,1190462043696390,-6.8269506,3.0979502,5.41695
1680010473692,1190462046198774,-6.8770504,3.0949502,5.35995
1680010473693,1190462048701005,-6.88005,3.1690502,5.3809505
1680010473695,1190462051203159,-6.8269506,3.17895,5.32095
1680010473698,1190462053705313,-6.9250503,3.0589502,5.33295
1680010473701,1190462056207697,-6.9250503,3.081,5.4
1680010473703,1190462058709851,-6.873,3.07095,5.3239503
1680010473706,1190462061212010,-6.8650503,3.01095,5.35305
1680010473709,1190462063714472,-6.8940005,3.0880501,5.3689504
1680010473711,1190462066216625,-6.9250503,3.081,5.4889503
1680010473713,1190462068718856,-6.8890505,2.9850001,5.3980503
1680010473716,1190462071221014,-6.8580003,2.9899502,5.499
1680010473720,1190462073723168,-6.8700004,2.97795,5.37195
1680010473722,1190462076225322,-6.88005,2.9250002,5.30205
1680010473725,1190462078727783,-6.8770504,2.97495,5.4750004
1680010473728,1190462081229937,-6.8610005,3.0259502,5.439
1680010473731,1190462083731014,-6.7600503,2.98305,5.367
1680010473731,1190462086232091,-6.7980003,3.0589502,5.355
1680010473733,1190462088736706,-6.8050504,3.0259502,5.5030503
1680010473736,1190462091238860,-6.7699504,3.0330002,5.3380504
1680010473738,1190462093740981,-6.741,3.1000502,5.4289503
1680010473740,1190462096243366,-6.7699504,3.1020002,5.4750004
1680010473743,1190462098745520,-6.7840505,3.1579502,5.3910003
1680010473745,1190462101247673,-6.7840505,3.141,5.3359504
1680010473748,1190462103749827,-6.762,3.14805,5.46495
1680010473750,1190462106252289,-6.8629503,3.186,5.34105
1680010473753,1190462108754443,-6.8290505,3.18405,5.4529505
1680010473755,1190462111256596,-6.8100004,3.2250001,5.4820504
1680010473759,1190462113758841,-6.7260003,3.05205,5.4079504
1680010473761,1190462116260995,-6.7840505,3.1339502,5.4289503
1680010473765,1190462118763149,-6.73605,3.0979502,5.4100504
1680010473768,1190462121265611,-6.7960505,3.0930002,5.44395
1680010473769,1190462123767764,-6.6670504,3.177,5.4820504
1680010473771,1190462126270149,-6.7240505,3.0979502,5.472
1680010473773,1190462128772303,-6.729,3.0310502,5.55105
1680010473775,1190462131274457,-6.7120504,3.0900002,5.3310003
1680010473778,1190462133776687,-6.7000504,3.07095,5.46
1680010473785,1190462136278836,-6.7530003,3.1690502,5.5150504
1680010473786,1190462138781221,-6.67605,3.10695,5.4889503
1680010473786,1190462141283375,-6.7120504,3.114,5.47905
1680010473788,1190462143785606,-6.597,3.05205,5.41695
1680010473790,1190462146287769,-6.69495,3.1650002,5.3689504
1680010473793,1190462148789923,-6.729,3.1650002,5.35995
1680010473796,1190462151292308,-6.6570005,3.0310502,5.34495
1680010473799,1190462153794539,-6.702,3.0330002,5.33295
1680010473802,1190462156296688,-6.6109505,3.1720502,5.3479505
1680010473804,1190462158798841,-6.6880503,3.0349503,5.427
1680010473806,1190462161301226,-6.74595,3.0859501,5.4079504
1680010473809,1190462163803380,-6.7240505,3.114,5.3809505
1680010473810,1190462166305534,-6.7170005,3.1669502,5.38605
1680010473813,1190462168807990,-6.83895,3.08295,5.4700503
1680010473815,1190462171310144,-6.83895,3.07395,5.3430004
1680010473818,1190462173812375,-6.762,3.081,5.4
1680010473820,1190462176314529,-6.741,3.141,5.472
1680010473823,1190462178816698,-6.8440504,3.078,5.439
1680010473826,1190462181319082,-6.8629503,3.04005,5.3260503
1680010473830,1190462183821236,-6.8200502,3.0589502,5.5230002
1680010473831,1190462186323467,-6.813,3.078,5.44605
1680010473833,1190462188825851,-6.73605,3.0900002,5.532
1680010473835,1190462191328014,-6.8580003,3.0280502,5.38395
1680010473840,1190462193830168,-6.8650503,3.0040503,5.4289503
1680010473842,1190462196332322,-6.88005,3.081,5.4220505
1680010473844,1190462198834548,-6.90105,3.07095,5.3500504
1680010473846,1190462201336932,-6.8629503,2.9850001,5.28795
1680010473848,1190462203839163,-6.8869505,2.9850001,5.2710004
1680010473850,1190462206341317,-6.7579503,2.9640002,5.1990004
1680010473853,1190462208843471,-6.834,3.00195,5.295
1680010473855,1190462211345851,-6.7770004,2.9680502,5.2180505
1680010473858,1190462213848004,-6.7909503,3.00705,5.27295
1680010473860,1190462216350158,-6.774,2.9850001,5.33295
1680010473863,1190462218852620,-6.73395,3.0349503,5.30205
1680010473865,1190462221354794,-6.7240505,3.03795,5.31405
1680010473868,1190462223856947,-6.7980003,3.04005,5.1870003
1680010473870,1190462226359101,-6.714,3.114,5.40495
1680010473873,1190462228861332,-6.7000504,3.0310502,5.31195
1680010473877,1190462231363495,-6.8050504,3.0930002,5.2830005
1680010473880,1190462233865880,-6.70695,3.078,5.2710004
1680010473882,1190462236368110,-6.813,3.1219501,5.40495
1680010473884,1190462238870264,-6.8610005,3.10695,5.5009503
1680010473887,1190462241372649,-6.7720504,3.1720502,5.4079504
1680010473889,1190462243874813,-6.7840505,3.2029502,5.544
1680010473891,1190462246376967,-6.8170505,3.10695,5.55105
1680010473893,1190462248879197,-6.89895,3.3079503,5.6730003
1680010473895,1190462251381582,-6.88395,3.2080503,5.688
1680010473898,1190462253883745,-6.89895,3.2370002,5.5270505
1680010473901,1190462256385899,-6.8610005,3.21,5.62995
1680010473903,1190462258888129,-6.9799504,3.17895,5.8290005
1680010473906,1190462261390283,-6.9229503,3.1740003,5.7910504
1680010473908,1190462263892442,-6.9919505,3.2220001,5.736
1680010473911,1190462266394904,-6.95205,3.14595,5.9010005
1680010473914,1190462268897057,-6.9250503,3.2320502,5.841
1680010473918,1190462271399211,-6.9870005,3.177,5.76
1680010473920,1190462273901582,-6.9949503,3.153,5.8000503
1680010473922,1190462276403736,-6.9610505,3.1980002,5.8170004
1680010473925,1190462278905967,-6.98505,3.1720502,5.769
1680010473926,1190462281408120,-7.0279503,3.1650002,5.8429503
1680010473929,1190462283910505,-7.0090504,3.1050003,5.74095
1680010473931,1190462286412639,-7.0230002,3.1620002,5.7640505
1680010473933,1190462288914870,-6.9300003,3.17895,5.6950502
1680010473936,1190462291417024,-6.8959503,3.21,5.7310505
1680010473938,1190462293919177,-6.8770504,3.1240501,5.6779504
1680010473942,1190462296421562,-6.8869505,3.2220001,5.7120004
1680010473943,1190462298923793,-6.7909503,3.0979502,5.58195
1680010473946,1190462301425947,-6.74805,3.141,5.4960003
1680010473948,1190462303928331,-6.6520505,3.1740003,5.4409504
1680010473952,1190462306430485,-6.66405,3.1240501,5.37195
1680010473954,1190462308932740,-6.5950503,3.114,5.5030503
1680010473956,1190462311434817,-6.6210003,3.1579502,5.4
1680010473959,1190462313937278,-6.52995,3.1240501,5.44395
1680010473961,1190462316439432,-6.42,3.0330002,5.33295
1680010473963,1190462318941586,-6.5059505,3.05205,5.2830005
1680010473965,1190462321443832,-6.4219503,3.0330002,5.3310003
1680010473968,1190462323945986,-6.4680004,3.1050003,5.2930503
1680010473971,1190462326448370,-6.3430505,3.07095,5.29005
1680010473973,1190462328950524,-6.3960004,3.10995,5.23995
1680010473976,1190462331452774,-6.4870505,3.21,5.20905
1680010473978,1190462333955159,-6.453,3.2290502,5.1540003
1680010473981,1190462336457312,-6.4630504,3.17895,5.175
1680010473983,1190462338959466,-6.5680504,3.21705,5.2519503
1680010473986,1190462341461625,-6.59205,3.2440503,5.12295
1680010473990,1190462343963856,-6.6880503,3.34905,5.04405
1680010473992,1190462346466241,-6.60195,3.2290502,5.1390004
1680010473997,1190462348968394,-6.741,3.1579502,4.953
1680010473997,1190462351470630,-6.7549505,3.2320502,4.9690504
1680010473999,1190462353972784,-6.8269506,3.1620002,4.9290004
1680010474001,1190462356475169,-6.8200502,3.0949502,5.01
1680010474003,1190462358977322,-6.8250003,3.07395,4.97895
1680010474006,1190462361479548,-6.88395,3.1290002,4.9879503
1680010474009,1190462363981933,-6.9540005,3.07605,5.0220003
1680010474011,1190462366484087,-6.9370503,3.2010002,5.1469502
1680010474013,1190462368986241,-6.97095,3.0570002,5.175
1680010474016,1190462371488394,-6.9250503,3.1000502,5.16795
1680010474018,1190462373990610,-6.8820004,3.1360502,5.20905
1680010474020,1190462376492764,-6.8890505,3.1020002,5.2590003
1680010474023,1190462378995149,-6.9990005,3.0550501,5.27295
1680010474027,1190462381497374,-6.9079504,3.14805,5.34495
1680010474030,1190462383999528,-6.9280505,3.0619502,5.43195
1680010474032,1190462386501682,-7.0519505,3.1380002,5.3430004
1680010474034,1190462389004067,-7.05495,3.1000502,5.38605
1680010474035,1190462391506221,-6.9760504,3.03795,5.37195
1680010474039,1190462394008658,-7.0330505,3.05205,5.36205
1680010474041,1190462396510581,-7.0690503,3.0619502,5.46495
1680010474043,1190462399012966,-7.01595,3.117,5.3310003
1680010474046,1190462401515120,-7.07805,3.03795,5.52495
1680010474048,1190462404017351,-7.1340003,3.00195,5.4030004
1680010474050,1190462406519508,-7.1140504,3.141,5.46495
1680010474053,1190462409021662,-7.05705,3.07095,5.56995
1680010474056,1190462411524124,-7.1290503,3.114,5.5579505
1680010474059,1190462414026278,-7.083,3.07395,5.6850004
1680010474060,1190462416528402,-7.0260005,3.11205,5.62095
1680010474065,1190462419030787,-7.038,3.07395,5.60895
1680010474068,1190462421532941,-7.0639505,3.0690002,5.6280003
1680010474069,1190462424035172,-6.9160504,3.153,5.56995
1680010474071,1190462426537312,-7.0020003,3.1380002,5.5849504
1680010474073,1190462429039696,-6.94395,3.114,5.65395
1680010474076,1190462431541850,-6.906,3.1339502,5.56995
1680010474079,1190462434044004,-6.8250003,3.2050502,5.484
1680010474081,1190462436546235,-6.8959503,3.10995,5.44605
1680010474083,1190462439048399,-6.9589505,3.2029502,5.4030004
1680010474085,1190462441550783,-6.86805,3.2010002,5.3190002
1680010474088,1190462444053014,-6.7819505,3.282,5.25705
1680010474090,1190462446555168,-6.85305,3.2370002,5.1870003
1680010474093,1190462449057336,-6.8650503,3.25605,5.05305
1680010474096,1190462451559720,-6.7960505,3.2389503,5.1270003
1680010474098,1190462454061951,-6.91305,3.2410502,5.05095
1680010474102,1190462456564105,-6.9349504,3.2290502,5.058
1680010474104,1190462459066268,-6.8100004,3.2650502,5.01
1680010474106,1190462461568652,-6.8290505,3.1980002,5.0560503
1680010474108,1190462464070806,-6.834,3.1960502,5.1270003
1680010474111,1190462466573037,-6.7909503,3.141,5.0340004
1680010474113,1190462469075422,-6.7650003,3.1669502,5.06295
1680010474116,1190462471577580,-6.7890005,3.1579502,4.9879503
1680010474120,1190462474079811,-6.7189503,3.186,5.058
1680010474121,1190462476581965,-6.8200502,3.15,4.9840503
1680010474123,1190462479084119,-6.7240505,3.0900002,5.1589503
1680010474126,1190462481586480,-6.7380004,3.0330002,5.0560503
1680010474129,1190462484088710,-6.7860003,3.1260002,5.0890503
1680010474131,1190462486590864,-6.7699504,3.081,5.19705
1680010474133,1190462489093018,-6.7600503,3.11205,5.15595
1680010474136,1190462491595403,-6.8490005,3.177,5.31195
1680010474140,1190462494097542,-6.7240505,3.1260002,5.2660503
1680010474142,1190462496599696,-6.813,3.1600502,5.33295
1680010474143,1190462499101927,-6.7309504,3.1579502,5.3430004
1680010474146,1190462501604312,-6.69495,3.186,5.36205
1680010474149,1190462504106533,-6.6859503,3.114,5.4220505
1680010474151,1190462506608686,-6.69495,3.0900002,5.32095
1680010474153,1190462509110840,-6.7050004,3.153,5.27295
1680010474156,1190462511613225,-6.7120504,3.213,5.3380504
1680010474159,1190462514115374,-6.6210003,3.2080503,5.3170505
1680010474161,1190462516617604,-6.6589503,3.1690502,5.3760004
1680010474163,1190462519119758,-6.6450005,3.078,5.451
1680010474166,1190462521622143,-6.7050004,3.117,5.2519503
1680010474169,1190462524124302,-6.74805,3.0640502,5.247
1680010474171,1190462526626456,-6.73605,3.2220001,5.35305
1680010474173,1190462529128686,-6.681,3.1690502,5.29005
1680010474177,1190462531630821,-6.73395,3.14805,5.2180505
1680010474180,1190462534133283,-6.6930003,3.1260002,5.3910003
1680010474182,1190462536635437,-6.714,3.2250001,5.427
1680010474184,1190462539137591,-6.76695,3.186,5.35995
1680010474186,1190462541639975,-6.76695,3.17895,5.34105
1680010474189,1190462544142139,-6.84105,3.1740003,5.3910003
1680010474191,1190462546644293,-6.9199505,3.2250001,5.37195
1680010474194,1190462549146524,-6.8170505,3.2080503,5.4150004
1680010474197,1190462551648908,-6.9370503,3.21,5.3479505
1680010474199,1190462554151058,-7.00395,3.2650502,5.2500005
1680010474201,1190462556653212,-6.9660006,3.2389503,5.4079504
1680010474203,1190462559155443,-6.9870005,3.2650502,5.412
1680010474209,1190462561657597,-7.05495,3.2920501,5.379
1680010474209,1190462564159750,-7.0669503,3.2220001,5.427
1680010474211,1190462566662231,-7.1190004,3.282,5.4150004
1680010474215,1190462569164385,-7.1290503,3.3040502,5.4750004
1680010474217,1190462571666539,-7.1650505,3.3010502,5.35995
1680010474219,1190462574168693,-7.1310005,3.2320502,5.5030503
1680010474221,1190462576671072,-7.1359506,3.2389503,5.5230002
1680010474223,1190462579173226,-7.1620502,3.11205,5.511
1680010474226,1190462581675688,-7.1310005,3.1020002,5.53905
1680010474229,1190462584177841,-7.0740004,3.1600502,5.4870005
1680010474231,1190462586680024,-7.0309505,3.07605,5.56995
1680010474234,1190462589182255,-7.0930505,3.153,5.49405
1680010474239,1190462591684409,-7.011,3.1690502,5.44395
1680010474239,1190462594186563,-6.98505,3.0979502,5.3809505
1680010474241,1190462596689024,-6.8749504,3.1260002,5.4480004
1680010474243,1190462599191182,-6.91305,3.117,5.46
1680010474247,1190462601693336,-6.7960505,3.1050003,5.29005
1680010474249,1190462604195490,-6.8320503,3.1000502,5.235
1680010474252,1190462606697883,-6.8029504,3.114,5.32095
1680010474254,1190462609200037,-6.7240505,3.081,5.3260503
1680010474257,1190462611702191,-6.7170005,3.03795,5.235
1680010474259,1190462614204653,-6.7240505,3.14295,5.2060504
1680010474261,1190462616706807,-6.6520505,3.141,5.3050504
1680010474263,1190462619209047,-6.66195,3.07395,5.295
1680010474267,1190462621711201,-6.6330004,3.1720502,5.30205
1680010474269,1190462624213355,-6.5989504,3.1890001,5.295
1680010474271,1190462626715740,-6.609,3.18105,5.23995
1680010474273,1190462629217956,-6.6379504,3.1960502,5.25705
1680010474277,1190462631720110,-6.63495,3.25095,5.27295
1680010474279,1190462634222264,-6.6190505,3.186,5.2380004
1680010474281,1190462636724649,-6.6210003,3.4279501,5.24205
1680010474283,1190462639226784,-6.609,3.3040502,5.2110004
1680010474287,1190462641728937,-6.6109505,3.28005,5.23005
1680010474290,1190462644231168,-6.6139503,3.2389503,5.22795
1680010474292,1190462646733553,-6.76695,3.2340002,5.1660004
1680010474294,1190462649235721,-6.6880503,3.2700002,5.223
1680010474296,1190462651737951,-6.7170005,3.3370502,5.21595
1680010474299,1190462654240105,-6.7650003,3.3370502,5.15595
1680010474301,1190462656742259,-6.8440504,3.25095,5.262
1680010474303,1190462659244413,-6.9229503,3.2749503,5.26905
1680010474307,1190462661746880,-6.89895,3.25305,5.2590003
1680010474309,1190462664249033,-6.9610505,3.3970501,5.17005
1680010474311,1190462666751418,-6.9870005,3.3010502,5.3050504
1680010474313,1190462669253572,-7.0639505,3.3349502,5.3050504
1680010474317,1190462671755726,-7.0189505,3.17895,5.33295
1680010474319,1190462674257957,-6.9610505,3.18105,5.30205
1680010474321,1190462676760341,-7.01595,3.1650002,5.295
1680010474324,1190462679262495,-6.9760504,3.25095,5.247
1680010474328,1190462681764730,-6.978,3.249,5.3170505
1680010474330,1190462684266884,-6.9559503,3.1720502,5.355
1680010474332,1190462686769268,-6.93195,3.1579502,5.29005
1680010474334,1190462689271422,-6.9199505,3.078,5.3170505
1680010474336,1190462691773576,-6.8629503,3.15,5.31195
1680010474339,1190462694275822,-6.813,3.11205,5.2639503
1680010474341,1190462696777976,-6.89895,3.1020002,5.3689504
1680010474343,1190462699280360,-6.90105,3.1189501,5.39295
1680010474347,1190462701782514,-6.7960505,3.1549501,5.39295
1680010474349,1190462704284745,-6.76695,3.1050003,5.379
1680010474351,1190462706786918,-6.7500005,3.1189501,5.29995
1680010474353,1190462709289302,-6.6790504,3.21,5.4240003
1680010474357,1190462711791533,-6.6670504,3.1740003,5.379
1680010474359,1190462714293693,-6.64305,3.2290502,5.4580503
1680010474362,1190462716795847,-6.6670504,3.213,5.36205
1680010474365,1190462719298231,-6.6520505,3.22005,5.46
1680010474367,1190462721800385,-6.6880503,3.2440503,5.3880005
1680010474369,1190462724302539,-6.67395,3.2080503,5.38395
1680010474372,1190462726804770,-6.7099504,3.2580001,5.2930503
1680010474374,1190462729307155,-6.8250003,3.14295,5.439
1680010474377,1190462731809308,-6.8100004,3.17895,5.3430004
1680010474379,1190462734311539,-6.762,3.2599502,5.3239503
1680010474381,1190462736813678,-6.8149505,3.22005,5.4870005
1680010474383,1190462739315832,-6.8250003,3.22005,5.4480004
1680010474387,1190462741818293,-6.8820004,3.2010002,5.37195
1680010474389,1190462744320447,-6.77895,3.28695,5.4960003
1680010474391,1190462746822601,-6.9300003,3.25305,5.4240003
1680010474393,1190462749324755,-6.9469504,3.2650502,5.556
1680010474397,1190462751827140,-6.9970503,3.28395,5.34105
1680010474400,1190462754329293,-6.8580003,3.2770503,5.3880005
1680010474403,1190462756831437,-6.89895,3.3730502,5.29005
1680010474404,1190462759333899,-6.8580003,3.4350002,5.3190002
1680010474410,1190462761836053,-6.906,3.3949502,5.23005
1680010474410,1190462764338207,-6.8269506,3.4639502,5.2519503
1680010474411,1190462766840437,-6.8700004,3.3420002,5.1870003
1680010474413,1190462769342606,-6.91305,3.39,5.1390004
1680010474417,1190462771844991,-6.90105,3.4309502,5.0269504
1680010474419,1190462774347145,-6.9970503,3.4110003,5.0719504
1680010474421,1190462776849375,-6.9949503,3.5070002,5.17995
1680010474424,1190462779351510,-7.0399504,3.4660501,5.06295
1680010474427,1190462781853895,-7.083,3.4429502,5.03595
1680010474429,1190462784356049,-7.04505,3.426,5.0340004
1680010474431,1190462786858203,-6.9949503,3.3679502,5.1870003
1680010474434,1190462789360664,-7.0210505,3.41895,5.03595
1680010474437,1190462791862822,-6.9420004,3.3439503,5.0890503
1680010474441,1190462794364976,-6.91305,3.3730502,5.1870003
1680010474443,1190462796867207,-6.8920503,3.2680502,5.0890503
1680010474445,1190462799369365,-6.94005,3.3280501,5.1780005
1680010474447,1190462801871519,-6.7980003,3.1579502,5.1990004
1680010474449,1190462804373904,-6.7840505,3.31095,5.28795
1680010474451,1190462806876058,-6.873,3.246,5.28105
1680010474454,1190462809378289,-6.7429504,3.2320502,5.29005
1680010474457,1190462811880461,-6.69495,3.153,5.44395
1680010474459,1190462814382615,-6.813,3.1339502,5.3380504
1680010474461,1190462816885077,-6.7840505,3.1020002,5.3640003
1680010474463,1190462819387231,-6.8029504,3.078,5.41695
1680010474467,1190462821889389,-6.8149505,3.0900002,5.4910502
1680010474469,1190462824391774,-6.8629503,3.07395,5.46705
1680010474471,1190462826893928,-6.8250003,3.15,5.4910502
1680010474474,1190462829396159,-6.88005,3.07095,5.6020503
1680010474479,1190462831898529,-6.846,3.0280502,5.44605
1680010474481,1190462834400683,-6.873,3.01095,5.6179504
1680010474483,1190462836902837,-7.0260005,2.97495,5.6260505
1680010474485,1190462839405068,-6.9589505,3.0499501,5.616
1680010474487,1190462841907222,-7.0140004,2.9250002,5.5540504
1680010474489,1190462844409390,-6.9349504,3.07095,5.4100504
1680010474491,1190462846911774,-6.9420004,2.98305,5.5800004
1680010474493,1190462849414005,-7.0090504,3.0259502,5.439
1680010474497,1190462851916159,-6.9229503,2.98005,5.4
1680010474499,1190462854418543,-7.0189505,3.10695,5.484
1680010474501,1190462856920683,-6.9660006,3.10695,5.4750004
1680010474503,1190462859422837,-6.9160504,3.1260002,5.5129504
1680010474507,1190462861925068,-6.8629503,3.1650002,5.50605
1680010474509,1190462864427453,-6.83895,3.0550501,5.56605
1680010474511,1190462866929577,-6.9370503,3.1260002,5.5009503
1680010474515,1190462869431731,-6.9040504,3.1890001,5.4820504
1680010474518,1190462871933962,-6.93195,3.1339502,5.451
1680010474521,1190462874436116,-6.9300003,3.14805,5.427
1680010474523,1190462876938500,-7.0470004,3.1620002,5.499
1680010474524,1190462879440731,-6.98295,3.1890001,5.44395
1680010474527,1190462881942885,-6.97095,3.1309502,5.50605
1680010474529,1190462884445270,-6.9760504,3.246,5.4150004
1680010474532,1190462886947408,-6.9469504,3.07095,5.47905
1680010474534,1190462889449561,-6.9679503,3.1600502,5.44605
1680010474537,1190462891951715,-6.9760504,3.0979502,5.49405
1680010474539,1190462894453946,-7.04295,3.0880501,5.3910003
1680010474541,1190462896956331,-7.0069504,3.1020002,5.3959503
1680010474544,1190462899458514,-6.978,3.1020002,5.4220505
1680010474547,1190462901960744,-7.038,3.0499501,5.5300503
1680010474549,1190462904462898,-7.0350003,3.0619502,5.39295
1680010474553,1190462906965307,-7.0639505,3.07095,5.60895
1680010474554,1190462909467461,-6.9870005,3.078,5.46705
1680010474557,1190462911969691,-6.9760504,3.045,5.5729504
1680010474560,1190462914472076,-6.90105,2.9299502,5.499
1680010474561,1190462916974230,-6.8869505,2.913,5.46705
1680010474563,1190462919476389,-6.9199505,2.8650002,5.4
1680010474567,1190462921978543,-6.8629503,2.9659503,5.4409504
1680010474569,1190462924480773,-6.834,3.0310502,5.5129504
1680010474571,1190462926982927,-6.74595,3.045,5.4
1680010474573,1190462929485312,-6.8200502,2.9610002,5.43195
1680010474577,1190462931987557,-6.7170005,3.1020002,5.4150004
1680010474579,1190462934489710,-6.7770004,2.97495,5.44605
1680010474581,1190462936991864,-6.7189503,2.901,5.3479505
1680010474584,1190462939494249,-6.7260003,2.9680502,5.21595
1680010474587,1190462941996413,-6.7240505,2.8939502,5.1390004
1680010474590,1190462944498874,-6.7860003,2.90805,5.2039504
1680010474592,1190462947001028,-6.7699504,2.8870502,5.19
1680010474594,1190462949503182,-6.7189503,2.8290002,5.1109505
1680010474597,1190462952005432,-6.7860003,2.868,5.118
1680010474599,1190462954507586,-6.6930003,2.8459501,5.06295
1680010474601,1190462957009740,-6.67395,2.6500502,5.1589503
1680010474603,1190462959511893,-6.6550503,2.80305,5.20905
1680010474607,1190462962014355,-6.5800505,2.832,5.1589503
1680010474609,1190462964516509,-6.669,2.74305,5.0560503
1680010474611,1190462967018663,-6.6550503,2.80095,5.13495
1680010474613,1190462969521047,-6.609,2.7139502,5.0820003
1680010474617,1190462972023196,-6.7189503,2.83395,5.13495
1680010474619,1190462974525350,-6.66195,2.9179502,5.17995
1680010474621,1190462977027811,-6.67605,2.8560002,5.202
1680010474625,1190462979529965,-6.6450005,2.80095,5.1150002
1680010474629,1190462982032109,-6.63105,2.841,5.05095
1680010474631,1190462984533186,-6.6400504,2.9539502,5.1060004
1680010474632,1190462987034263,-6.70695,2.98305,5.1660004
1680010474634,1190462989538648,-6.7500005,3.0040503,5.0820003
1680010474637,1190462992041109,-6.7500005,2.9299502,5.13495
1680010474640,1190462994543259,-6.6979504,2.937,5.02005
1680010474642,1190462997045413,-6.6930003,2.8609502,5.0940003
1680010474644,1190462999547798,-6.762,2.9539502,5.202
1680010474647,1190463002049951,-6.6400504,3.0310502,5.08395
1680010474649,1190463004552105,-6.7170005,2.9520001,5.142
1680010474651,1190463007054350,-6.7600503,3.0330002,5.12295
1680010474654,1190463009556735,-6.7840505,3.0190501,5.01195
1680010474657,1190463012058888,-6.7240505,3.1339502,5.10795
1680010474659,1190463014561042,-6.7240505,3.1000502,5.06295
1680010474661,1190463017063273,-6.6790504,3.114,5.14905
1680010474666,1190463019565417,-6.6379504,3.0259502,5.0389504
1680010474668,1190463022067571,-6.7050004,3.04005,5.202
1680010474670,1190463024570032,-6.7050004,3.04305,5.091
1680010474672,1190463027072201,-6.6450005,3.0589502,5.15595
1680010474674,1190463029574586,-6.60405,3.1380002,5.0479503
1680010474677,1190463032076740,-6.5280004,3.1309502,4.9090505
1680010474679,1190463034578894,-6.609,3.1600502,5.10795
1680010474682,1190463037081124,-6.5779505,3.2220001,5.06505
1680010474684,1190463039583283,-6.5400004,3.22005,4.998
1680010474687,1190463042085668,-6.5059505,3.2719502,5.0340004
1680010474689,1190463044587822,-6.6880503,3.21495,5.10795
1680010474691,1190463047090052,-6.6670504,3.3780003,4.9410005
1680010474693,1190463049592201,-6.7000504,3.249,4.87095
1680010474697,1190463052094355,-6.7099504,3.22005,5.02395
1680010474699,1190463054596740,-6.7170005,3.3130503,4.9549503
1680010474703,1190463057098971,-6.7260003,3.318,4.9500003
1680010474704,1190463059601369,-6.8250003,3.3300002,5.02005
1680010474708,1190463062103523,-6.91305,3.25305,5.0080504
1680010474709,1190463064605677,-6.8440504,3.2440503,5.0869503
1680010474711,1190463067107908,-6.98295,3.22005,5.0820003
1680010474713,1190463069610061,-7.0260005,3.1549501,5.0869503
1680010474717,1190463072112432,-7.0690503,3.141,5.0719504
1680010474721,1190463074614586,-7.0999503,3.04695,5.1199503
1680010474722,1190463077116817,-7.0230002,3.1240501,5.3239503
1680010474725,1190463079618971,-7.14795,3.0499501,5.262
1680010474727,1190463082121128,-7.14795,3.0670502,5.20905
1680010474729,1190463084623513,-7.15005,2.9490001,5.3050504
1680010474731,1190463087125667,-7.1380506,2.9200501,5.3569503
1680010474733,1190463089627898,-7.155,2.94705,5.4150004
1680010474737,1190463092130268,-7.1410503,3.009,5.367
1680010474740,1190463094632422,-7.1260505,2.94,5.49405
1680010474743,1190463097134653,-7.0980005,3.0190501,5.5129504
1680010474744,1190463099636730,-7.1050506,3.0040503,5.6140504
1680010474747,1190463102138961,-7.122,2.97495,5.5939503
1680010474749,1190463104641312,-7.1050506,3.009,5.62995
1680010474751,1190463107143543,-7.083,2.9280002,5.688
1680010474754,1190463109645697,-7.0470004,3.01395,5.6400003
1680010474757,1190463112147851,-7.0620003,3.0979502,5.7259502
1680010474760,1190463114650221,-7.0330505,3.14295,5.6400003
1680010474761,1190463117152375,-7.00395,3.0349503,5.6329503
1680010474764,1190463119654529,-6.9679503,3.22005,5.556
1680010474767,1190463122156991,-6.93195,3.1579502,5.65395
1680010474769,1190463124659139,-6.9610505,3.14805,5.5920005
1680010474771,1190463127161293,-6.83895,3.21,5.604
1680010474776,1190463129663447,-6.8200502,3.2940001,5.46495
1680010474779,1190463132165669,-6.84105,3.2220001,5.5129504
1680010474780,1190463134667823,-6.88395,3.354,5.41695
1680010474782,1190463137170207,-6.90105,3.3679502,5.532
1680010474784,1190463139672438,-6.83895,3.37995,5.38395
1680010474787,1190463142174592,-6.84105,3.3780003,5.3689504
1680010474789,1190463144677005,-6.8940005,3.2940001,5.355
1680010474791,1190463147179159,-6.8940005,3.3280501,5.3190002
1680010474794,1190463149681312,-6.9589505,3.31995,5.26905
1680010474797,1190463152183543,-6.94395,3.28695,5.18505
1680010474800,1190463154685948,-6.95205,3.1260002,5.16795
1680010474801,1190463157188102,-6.8890505,3.1309502,5.18205
1680010474804,1190463159690255,-6.9349504,3.10695,5.163
1680010474808,1190463162192409,-6.9280505,3.1050003,5.0790005
1680010474809,1190463164694871,-6.9160504,3.04695,5.14905
1680010474811,1190463167197025,-6.89895,3.03795,5.1150002
1680010474815,1190463169699255,-6.9040504,2.98305,5.1439505
1680010474818,1190463172201409,-6.8050504,3.00705,5.1940503
1680010474820,1190463174703563,-6.978,2.97495,5.31195
1680010474822,1190463177205948,-6.8770504,2.9899502,5.307
1680010474824,1190463179708179,-6.94395,2.8920002,5.3359504
1680010474827,1190463182210332,-6.9300003,2.94705,5.43405
1680010474830,1190463184712717,-6.9300003,2.9850001,5.5350003
1680010474832,1190463187214871,-6.9229503,3.0210001,5.5870504
1680010474834,1190463189717010,-6.88005,3.0229502,5.51805
1680010474837,1190463192219164,-6.93195,3.0280502,5.532
1680010474840,1190463194721625,-6.918,3.2010002,5.59695
1680010474842,1190463197223779,-6.9469504,3.1960502,5.71395
1680010474844,1190463199725947,-6.873,3.2029502,5.7640505
1680010474847,1190463202228178,-6.83895,3.2440503,5.62095
1680010474849,1190463204730331,-6.83895,3.3730502,5.5729504
1680010474853,1190463207232730,-6.8580003,3.35595,5.6179504
1680010474855,1190463209734884,-6.9300003,3.4350002,5.4750004
1680010474857,1190463212237115,-6.9280505,3.45405,5.6850004
1680010474859,1190463214739269,-6.9990005,3.45405,5.63805
1680010474861,1190463217241653,-7.0140004,3.459,5.5350003
1680010474864,1190463219743812,-7.0639505,3.4140003,5.53695
1680010474867,1190463222245966,-7.0639505,3.423,5.4870005
1680010474869,1190463224748197,-7.0210505,3.4980001,5.499
1680010474871,1190463227250581,-7.0620003,3.459,5.532
1680010474874,1190463229752735,-7.0069504,3.4399502,5.46705
1680010474877,1190463232254971,-7.05,3.4110003,5.4559503
1680010474880,1190463234757125,-6.9900002,3.3709502,5.4289503
1680010474882,1190463237259509,-6.9679503,3.3280501,5.4199505
1680010474884,1190463239761663,-6.9760504,3.2719502,5.37195
1680010474887,1190463242263832,-6.9199505,3.3040502,5.2849503
1680010474891,1190463244766063,-6.94395,3.3370502,5.32095
1680010474893,1190463247268217,-6.9079504,3.318,5.28105
1680010474894,1190463249770582,-6.8580003,3.2050502,5.21595
1680010474897,1190463252272736,-6.8700004,3.2029502,5.2849503
1680010474899,1190463254774967,-6.91095,3.1600502,5.2759504
1680010474901,1190463257277121,-6.89895,3.1579502,5.28105
1680010474904,1190463259779505,-6.7549505,3.2050502,5.3479505
1680010474908,1190463262281764,-6.77895,3.1669502,5.295
1680010474909,1190463264783918,-6.6790504,3.177,5.2180505
1680010474911,1190463267286072,-6.7860003,3.2250001,5.262
1680010474914,1190463269788457,-6.6880503,3.153,5.3239503
1680010474918,1190463272290630,-6.7960505,3.15,5.307
1680010474920,1190463274792784,-6.73395,3.17895,5.38605
1680010474922,1190463277295015,-6.7120504,3.3130503,5.36205
1680010474924,1190463279797400,-6.729,3.18405,5.30205
1680010474929,1190463282299554,-6.6979504,3.3040502,5.3190002
1680010474931,1190463284801784,-6.774,3.31095,5.3050504
1680010474933,1190463287303938,-6.741,3.31095,5.30205
1680010474935,1190463289806092,-6.66405,3.4279501,5.27295
1680010474937,1190463292308558,-6.7240505,3.3079503,5.1940503
1680010474939,1190463294810711,-6.7099504,3.4380002,5.202
1680010474941,1190463297312865,-6.8029504,3.41595,5.28795
1680010474945,1190463299815250,-6.7380004,3.423,5.1660004
1680010474947,1190463302317385,-6.762,3.37995,5.1660004
1680010474949,1190463304819539,-6.8290505,3.4110003,5.151
1680010474951,1190463307321769,-6.8890505,3.4429502,5.2039504
1680010474954,1190463309824154,-6.88395,3.4830003,5.0599504
1680010474957,1190463312326274,-6.8959503,3.4710002,5.1109505
1680010474960,1190463314828428,-6.8890505,3.354,5.19
1680010474962,1190463317330658,-6.9079504,3.4279501,5.17005
1680010474966,1190463319832812,-6.8920503,3.4039502,5.1660004
1680010474968,1190463322335168,-6.9370503,3.3610501,5.118
1680010474970,1190463324837399,-6.9760504,3.2940001,5.1589503
1680010474972,1190463327339553,-6.8869505,3.3919501,5.058
1680010474974,1190463329841706,-6.9079504,3.3370502,5.0940003
1680010474977,1190463332344091,-7.038,3.42105,5.1469502
1680010474979,1190463334846231,-6.8940005,3.2599502,5.17995
1680010474982,1190463337348385,-7.0260005,3.2389503,5.1990004
1680010474984,1190463339850846,-6.9469504,3.177,5.1940503
1680010474987,1190463342353000,-7.11,3.25095,5.3089504
1680010474989,1190463344855144,-7.0189505,3.186,5.1990004
1680010474993,1190463347357375,-6.9949503,3.17895,5.33295
1680010474994,1190463349859529,-6.9970503,3.0880501,5.30205
1680010474997,1190463352361682,-6.9660006,3.141,5.3760004
1680010475000,1190463354864096,-6.90105,3.0949502,5.37195
1680010475003,1190463357366327,-6.8220005,3.07605,5.484
1680010475005,1190463359868481,-6.9300003,3.0880501,5.532
1680010475009,1190463362370635,-6.8869505,3.10995,5.44605
1680010475010,1190463364873019,-6.91095,3.0310502,5.5200005
1680010475011,1190463367375140,-6.8940005,3.1960502,5.6610003
1680010475014,1190463369877371,-6.8869505,3.0859501,5.5870504
1680010475017,1190463372379755,-6.8220005,3.177,5.5540504
1680010475019,1190463374881909,-6.89895,3.213,5.511
1680010475023,1190463377384130,-6.7980003,3.2440503,5.4750004
1680010475025,1190463379886284,-6.906,3.249,5.451
1680010475028,1190463382388438,-6.8490005,3.3319502,5.484
1680010475031,1190463384890822,-6.8490005,3.41595,5.379
1680010475036,1190463387393058,-6.8170505,3.3079503,5.39295
1680010475037,1190463389895212,-6.906,3.34695,5.4480004
1680010475038,1190463392397366,-6.8269506,3.3730502,5.4100504
1680010475041,1190463394899750,-6.7819505,3.34905,5.32095
1680010475043,1190463397401908,-6.8580003,3.3010502,5.2330503
1680010475045,1190463399904062,-6.7579503,3.2719502,5.262
1680010475048,1190463402406293,-6.7549505,3.32505,5.3479505
1680010475049,1190463404908678,-6.774,3.3060002,5.3050504
1680010475051,1190463407410908,-6.7170005,3.35205,5.1870003
1680010475056,1190463409913043,-6.681,3.41595,5.262
1680010475057,1190463412415197,-6.6859503,3.2719502,5.223
1680010475059,1190463414917351,-6.6910505,3.28005,5.1660004
1680010475061,1190463417419736,-6.6139503,3.1930501,5.2540503
1680010475064,1190463419921971,-6.5880003,3.2680502,5.15595
1680010475067,1190463422424125,-6.4819503,3.318,5.151
1680010475069,1190463424926510,-6.4129505,3.28395,5.12505
1680010475071,1190463427428664,-6.564,3.186,5.06295
1680010475074,1190463429930817,-6.5470505,3.2629502,5.163
1680010475079,1190463432433048,-6.5560503,3.17895,5.091
1680010475081,1190463434935202,-6.6670504,3.14805,5.1319504
1680010475083,1190463437437664,-6.5520005,3.1890001,5.175
1680010475085,1190463439939823,-6.5680504,3.07095,5.10795
1680010475087,1190463442441976,-6.6450005,3.0499501,5.2450504
1680010475089,1190463444944361,-6.609,3.0619502,5.26905
1680010475092,1190463447446515,-6.60195,3.07095,5.2830005
1680010475094,1190463449948669,-6.55905,3.141,5.43195
1680010475097,1190463452450884,-6.6550503,3.0930002,5.37195
1680010475099,1190463454953269,-6.7309504,2.9970002,5.5009503
1680010475102,1190463457455423,-6.6979504,3.01095,5.4870005
1680010475104,1190463459957577,-6.813,3.0310502,5.5750504
1680010475107,1190463462459784,-6.8610005,3.0349503,5.439
1680010475109,1190463464961937,-6.7980003,3.03795,5.5080004
1680010475112,1190463467464091,-6.7650003,3.07095,5.43405
1680010475117,1190463469966553,-6.8269506,3.0349503,5.5030503
1680010475119,1190463472468722,-6.89895,3.0979502,5.3980503
1680010475121,1190463474970876,-6.834,3.0499501,5.43195
1680010475123,1190463477473029,-6.8490005,2.9590502,5.29995
1680010475125,1190463479975414,-6.8890505,3.0900002,5.4150004
1680010475128,1190463482477577,-6.84105,3.078,5.3689504
1680010475130,1190463484980038,-6.7840505,3.18105,5.3959503
1680010475132,1190463487482192,-6.8580003,3.1339502,5.3239503
1680010475134,1190463489984346,-6.762,3.2050502,5.3380504
1680010475137,1190463492486577,-6.681,3.3130503,5.2660503
1680010475140,1190463494988736,-6.80805,3.1960502,5.3380504
1680010475142,1190463497490890,-6.74595,3.2989502,5.24205
1680010475144,1190463499993351,-6.6930003,3.39,5.24205
1680010475148,1190463502495505,-6.7309504,3.4330502,5.2660503
1680010475150,1190463504997654,-6.6930003,3.387,5.1109505
1680010475153,1190463507499808,-6.6829505,3.423,5.12295
1680010475155,1190463510002192,-6.6589503,3.4620001,5.103
1680010475158,1190463512504346,-6.702,3.519,5.1660004
1680010475160,1190463515006505,-6.7600503,3.4429502,5.1589503
1680010475162,1190463517508967,-6.70695,3.56205,5.1060004
1680010475164,1190463520011120,-6.714,3.4350002,5.06505
1680010475167,1190463522513274,-6.7189503,3.4740002,5.13
1680010475170,1190463525015428,-6.69495,3.4470003,5.175
1680010475172,1190463527517885,-6.6910505,3.4690502,5.08395
1680010475174,1190463530020038,-6.813,3.3280501,5.163
1680010475177,1190463532522269,-6.741,3.282,5.2519503
1680010475179,1190463535024346,-6.813,3.3750002,5.2540503
1680010475182,1190463537526582,-6.7120504,3.3400502,5.1990004
1680010475184,1190463540028736,-6.6670504,3.354,5.142
1680010475187,1190463542531197,-6.74595,3.4110003,5.2540503
1680010475191,1190463545033351,-6.6979504,3.34905,5.30205
1680010475192,1190463547535510,-6.7720504,3.3730502,5.22795
1680010475194,1190463550037895,-6.7099504,3.4140003,5.3190002
1680010475198,1190463552540049,-6.7219505,3.31605,5.43405
1680010475200,1190463555042202,-6.8170505,3.3319502,5.44395
1680010475202,1190463557544433,-6.8170505,3.318,5.4409504
1680010475204,1190463560046794,-6.88395,3.45705,5.5420504
1680010475207,1190463562548948,-6.774,3.31995,5.4240003
1680010475209,1190463565051178,-6.8650503,3.354,5.44605
1680010475212,1190463567553332,-6.8869505,3.4140003,5.4700503
1680010475214,1190463570055461,-6.8869505,3.3439503,5.37195
1680010475218,1190463572557615,-6.88395,3.354,5.4289503
1680010475219,1190463575060077,-6.8250003,3.3679502,5.3260503
1680010475222,1190463577562230,-6.8770504,3.354,5.2930503
1680010475225,1190463580064619,-6.8770504,3.4450502,5.2930503
1680010475229,1190463582566773,-6.7840505,3.35595,5.2180505
1680010475231,1190463585068927,-6.8370004,3.3420002,5.2500005
1680010475234,1190463587571157,-6.8370004,3.354,5.2639503
1680010475236,1190463590073538,-6.8370004,3.4350002,5.32905
1680010475238,1190463592575692,-6.7930503,3.4350002,5.3050504
1680010475241,1190463595077846,-6.77895,3.4350002,5.1940503
1680010475243,1190463597580077,-6.7819505,3.45,5.20905
1680010475245,1190463600082230,-6.7840505,3.3970501,5.1610503
1680010475248,1190463602584379,-6.8509502,3.4759502,5.23005
1680010475249,1190463605086764,-6.8290505,3.4350002,5.2519503
1680010475253,1190463607588995,-6.774,3.354,5.214
1680010475254,1190463610091379,-6.8610005,3.3709502,5.2519503
1680010475257,1190463612593514,-6.7309504,3.4020002,5.2260003
1680010475259,1190463615095668,-6.80805,3.3709502,5.1469502
1680010475262,1190463617597899,-6.7309504,3.3130503,5.19
1680010475266,1190463620100053,-6.7890005,3.37995,5.17995
1680010475269,1190463622602451,-6.7720504,3.32505,5.30205
1680010475272,1190463625104605,-6.7840505,3.28695,5.2180505
1680010475275,1190463627606836,-6.7380004,3.2920501,5.1940503
1680010475275,1190463630108990,-6.73395,3.3040502,5.4
1680010475277,1190463632611144,-6.7189503,3.2410502,5.27295
1680010475280,1190463635113547,-6.83895,3.0900002,5.295
1680010475282,1190463637615701,-6.8250003,3.1740003,5.307
1680010475285,1190463640117932,-6.7380004,3.1740003,5.34105
1680010475288,1190463642620311,-6.7840505,3.1000502,5.27295
1680010475289,1190463645122465,-6.8370004,3.0670502,5.4480004
1680010475292,1190463647624696,-6.88395,3.1000502,5.46
1680010475294,1190463650126773,-6.9280505,3.1600502,5.5849504
1680010475297,1190463652629004,-6.9160504,3.1240501,5.556
1680010475299,1190463655131403,-6.90105,3.1240501,5.67105
1680010475303,1190463657633634,-6.9610505,3.10695,5.5750504
1680010475305,1190463660135788,-6.9900002,3.00195,5.6449504
1680010475308,1190463662637942,-6.9870005,3.04695,5.6179504
1680010475310,1190463665140327,-6.906,3.0259502,5.6449504
1680010475312,1190463667642480,-6.8820004,3.0570002,5.7840004
1680010475314,1190463670144634,-6.91305,3.07395,5.89095
1680010475318,1190463672647096,-6.88005,3.2050502,5.8549504
1680010475320,1190463675149283,-6.8370004,3.117,5.81505
1680010475322,1190463677651436,-6.9559503,3.141,5.736
1680010475324,1190463680153590,-6.83895,3.246,5.7330003
1680010475328,1190463682655821,-6.9300003,3.28395,5.87505
1680010475330,1190463685157971,-6.9660006,3.2749503,5.8510504
1680010475332,1190463687660356,-6.9679503,3.1690502,5.7910504
1680010475335,1190463690162586,-6.98295,3.2700002,5.7450004
1680010475337,1190463692664740,-7.0090504,3.2320502,5.7379503
1680010475341,1190463695167120,-6.9799504,3.2440503,5.7910504
1680010475343,1190463697669274,-6.9160504,3.1690502,5.6730003
1680010475345,1190463700171428,-7.0090504,3.1740003,5.67105
1680010475348,1190463702673889,-6.9640503,3.1960502,5.7379503
1680010475350,1190463705176043,-6.9679503,3.186,5.5800004
1680010475352,1190463707678197,-6.9870005,3.1960502,5.5150504
1680010475355,1190463710180351,-6.978,3.282,5.58195
1680010475357,1190463712682581,-7.011,3.21705,5.4889503
1680010475360,1190463715184735,-6.97305,3.249,5.37195
1680010475362,1190463717686889,-6.97305,3.2320502,5.32095
1680010475365,1190463720189351,-6.9280505,3.14805,5.26905
1680010475367,1190463722691504,-6.9559503,3.1720502,5.355
1680010475370,1190463725193658,-6.9949503,3.117,5.2540503
1680010475372,1190463727696043,-6.9420004,3.153,5.2039504
1680010475374,1190463730198211,-6.94395,3.14805,5.33295
1680010475379,1190463732700442,-6.9370503,3.0589502,5.2830005
1680010475381,1190463735202826,-6.9199505,3.03795,5.1990004
1680010475382,1190463737705010,-6.9250503,2.9950502,5.15595
1680010475384,1190463740207164,-6.9370503,2.9680502,5.1990004
1680010475387,1190463742709395,-6.9420004,2.98305,5.2660503
1680010475390,1190463745211549,-6.8920503,2.8939502,5.2110004
1680010475392,1190463747713702,-6.8320503,2.9560502,5.31195
1680010475395,1190463750216087,-6.7890005,2.94705,5.34495
1680010475397,1190463752718318,-6.7840505,2.9680502,5.38605
1680010475400,1190463755220472,-6.8560505,2.913,5.33295
1680010475402,1190463757722856,-6.66195,2.94405,5.3760004
1680010475404,1190463760225010,-6.66405,2.9659503,5.25705
1680010475408,1190463762727245,-6.62295,2.913,5.2540503
1680010475409,1190463765229322,-6.6139503,2.9299502,5.4030004
1680010475412,1190463767731783,-6.6210003,3.0310502,5.379
1680010475416,1190463770233904,-6.5470505,3.0589502,5.355
1680010475418,1190463772736135,-6.5560503,3.0640502,5.38605
1680010475420,1190463775238289,-6.63495,2.9659503,5.3310003
1680010475422,1190463777740443,-6.6709504,2.94,5.3310003
1680010475427,1190463780242827,-6.6499505,2.913,5.40495
1680010475430,1190463782745077,-6.5800505,3.0690002,5.4100504
1680010475431,1190463785247231,-6.64305,3.0640502,5.3980503
1680010475433,1190463787749616,-6.63105,3.1020002,5.56995
1680010475435,1190463790251769,-6.7260003,3.0330002,5.4360003
1680010475438,1190463792753894,-6.70695,3.1020002,5.53695
1680010475440,1190463795256048,-6.7170005,3.18405,5.4910502
1680010475442,1190463797758279,-6.7579503,3.045,5.46
1680010475444,1190463800260664,-6.8490005,3.1050003,5.4750004
1680010475448,1190463802762803,-6.7819505,3.078,5.43405
1680010475449,1190463805265034,-6.9610505,3.04005,5.472
1680010475453,1190463807767188,-6.94005,3.0550501,5.5870504
1680010475455,1190463810269573,-6.9370503,2.9560502,5.43405
1680010475458,1190463812771726,-6.9160504,2.9850001,5.5729504
1680010475461,1190463815273957,-6.94395,2.9869502,5.46
1680010475462,1190463817776342,-6.8629503,2.9680502,5.5849504
1680010475464,1190463820278496,-6.834,2.9989502,5.4529505
1680010475467,1190463822780650,-6.7960505,3.0190501,5.6329503
1680010475469,1190463825282875,-6.7909503,3.0589502,5.52495
1680010475472,1190463827785029,-6.83895,3.0640502,5.5579505
1680010475474,1190463830287183,-6.7000504,2.98005,5.5750504
1680010475478,1190463832789568,-6.702,2.9970002,5.3910003
1680010475480,1190463835291827,-6.66405,3.00705,5.37195
1680010475482,1190463837793981,-6.5730004,3.05205,5.3569503
1680010475484,1190463840296135,-6.7099504,2.9970002,5.2210503
1680010475487,1190463842798520,-6.63105,2.9970002,5.247
1680010475492,1190463845300650,-6.6280503,3.0859501,5.22795
1680010475494,1190463847803111,-6.5160003,2.9590502,5.2759504
1680010475495,1190463850305265,-6.52995,3.0310502,5.202
1680010475498,1190463852807419,-6.6139503,3.0190501,5.1610503
1680010475500,1190463855309573,-6.4750504,2.9989502,5.1990004
1680010475502,1190463857811813,-6.5280004,2.9680502,5.2780504
1680010475505,1190463860313966,-6.54195,3.0190501,5.1060004
1680010475509,1190463862816120,-6.5200505,2.9970002,5.1150002
1680010475510,1190463865318582,-6.5850005,3.07095,5.08395
1680010475513,1190463867820722,-6.5350504,3.114,5.17995
1680010475515,1190463870322875,-6.6280503,3.0619502,5.103
1680010475518,1190463872825260,-6.6979504,3.141,5.12295
1680010475521,1190463875327414,-6.7120504,3.0259502,5.16795
1680010475523,1190463877829659,-6.7549505,3.0900002,5.17995
1680010475525,1190463880332043,-6.7890005,2.9299502,5.163
1680010475530,1190463882833966,-6.8560505,3.1219501,5.20905
1680010475532,1190463885336351,-6.9199505,3.07395,5.2830005
1680010475534,1190463887855178,-6.9970503,3.1240501,5.27295
1680010475535,1190463890340947,-6.9970503,3.0640502,5.26905
1680010475538,1190463892843101,-7.038,2.9899502,5.4
1680010475540,1190463895345255,-7.0690503,3.07095,5.35995
1680010475542,1190463897847486,-7.1460004,3.0259502,5.295
1680010475545,1190463900349645,-7.0980005,2.9659503,5.484
1680010475548,1190463902851799,-7.1140504,3.04305,5.412
1680010475550,1190463905354260,-7.11705,3.0259502,5.4150004
1680010475552,1190463907856414,-7.1190004,2.9950502,5.3980503
1680010475555,1190463910358799,-7.155,2.9850001,5.39295
1680010475558,1190463912860707,-7.0519505,2.98305,5.4559503
1680010475561,1190463915363091,-7.0020003,3.0670502,5.379
1680010475562,1190463917865245,-6.9280505,3.0259502,5.367
1680010475566,1190463920367476,-6.9280505,3.01095,5.4100504
1680010475569,1190463922869861,-6.9160504,3.0259502,5.33295
1680010475571,1190463925372014,-6.813,3.10695,5.3310003
1680010475572,1190463927874245,-6.801,3.15,5.37405
1680010475574,1190463930376399,-6.7909503,3.0900002,5.2450504
1680010475577,1190463932878543,-6.774,3.1380002,5.30205
1680010475580,1190463935380928,-6.6570005,3.0930002,5.3260503
1680010475582,1190463937883158,-6.6400504,3.0349503,5.2780504
1680010475585,1190463940385312,-6.6709504,3.1339502,5.19705
1680010475588,1190463942887712,-6.7309504,3.1579502,5.223
1680010475590,1190463945389866,-6.681,3.07095,5.19705
1680010475592,1190463947892019,-6.729,3.15,5.24205
1680010475595,1190463950394173,-6.7309504,3.0859501,5.19705
1680010475597,1190463952896404,-6.84105,3.1020002,5.27295
1680010475600,1190463955398779,-6.7699504,3.114,5.1870003
1680010475604,1190463957901010,-6.8490005,3.0900002,5.37195
1680010475605,1190463960403163,-6.8320503,3.14805,5.235
1680010475608,1190463962905346,-6.8440504,3.14295,5.3260503
1680010475610,1190463965407731,-6.8149505,3.22005,5.3959503
1680010475612,1190463967909885,-6.7960505,3.1600502,5.35995
1680010475615,1190463970412115,-6.834,3.1740003,5.3980503
1680010475618,1190463972914269,-6.84105,3.18105,5.34105
1680010475620,1190463975416654,-6.88395,3.25605,5.3980503
1680010475622,1190463977918808,-6.9229503,3.28695,5.532
1680010475625,1190463980420962,-6.8770504,3.3610501,5.41695
1680010475628,1190463982923192,-6.9250503,3.31095,5.4030004
1680010475630,1190463985425331,-6.9229503,3.34905,5.3239503
1680010475632,1190463987927793,-6.8869505,3.4780502,5.4
1680010475635,1190463990429947,-6.873,3.4620001,5.34495
1680010475637,1190463992932101,-6.94395,3.4069502,5.34105
1680010475642,1190463995434485,-7.011,3.4350002,5.35995
1680010475644,1190463997936408,-6.9490504,3.3990002,5.2849503
1680010475646,1190464000438793,-6.9760504,3.459,5.27295
1680010475649,1190464002941024,-7.0620003,3.4309502,5.3239503
1680010475651,1190464005443408,-6.9900002,3.38505,5.28795
1680010475653,1190464007945534,-6.9660006,3.3970501,5.31195
1680010475655,1190464010447688,-6.9280505,3.3040502,5.35305
1680010475660,1190464012949919,-6.8959503,3.3130503,5.32095
1680010475660,1190464015452073,-6.9160504,3.2269502,5.427
1680010475662,1190464017954457,-6.8580003,3.3750002,5.223
1680010475664,1190464020456702,-6.8490005,3.2250001,5.202
1680010475667,1190464022958856,-6.7260003,3.318,5.1540003
1680010475669,1190464025461240,-6.74805,3.2290502,5.235
1680010475672,1190464027963394,-6.67395,3.246,5.35305
1680010475674,1190464030465548,-6.6880503,3.2370002,5.17005
1680010475679,1190464032967702,-6.6450005,3.186,5.2660503
1680010475682,1190464035470164,-6.67395,3.177,5.16795
1680010475683,1190464037972317,-6.67395,3.1360502,5.16795
1680010475685,1190464040474485,-6.6259503,3.15,5.2519503
1680010475688,1190464042976716,-6.6570005,3.14805,5.1660004
1680010475690,1190464045478870,-6.681,3.1690502,5.427
1680010475692,1190464047981024,-6.7000504,3.1240501,5.37405
1680010475694,1190464050483485,-6.7000504,3.153,5.3050504
1680010475697,1190464052985649,-6.73605,3.1620002,5.2830005
1680010475700,1190464055487803,-6.702,3.1050003,5.427
1680010475702,1190464057990188,-6.77895,3.081,5.499
1680010475705,1190464060492341,-6.741,3.081,5.5080004
1680010475708,1190464062994495,-6.7120504,3.0330002,5.5030503
1680010475710,1190464065496649,-6.7930503,3.1240501,5.50605
1680010475712,1190464067999111,-6.7909503,3.10995,5.52495
1680010475716,1190464070501265,-6.7770004,3.177,5.5920005
1680010475720,1190464073003475,-6.7980003,3.21,5.56605
1680010475723,1190464078005629,-6.8440504,3.186,5.6020503
1680010475725,1190464079331935,-6.8220005,3.22005,5.5729504
1680010475725,1190464080664322,-6.8820004,3.3130503,5.5630503
1680010475728,1190464083012398,-6.9079504,3.4069502,5.5150504
1680010475730,1190464085514548,-6.93195,3.3949502,5.5030503
1680010475732,1190464088016702,-6.89895,3.39,5.52495
1680010475735,1190464090519087,-6.8220005,3.4759502,5.46495
1680010475737,1190464093021241,-6.8940005,3.4759502,5.3500504
1680010475740,1190464095523394,-6.9559503,3.5050502,5.427
1680010475742,1190464098025856,-6.8940005,3.4380002,5.3569503
1680010475745,1190464100528010,-6.9370503,3.42105,5.2330503
1680010475747,1190464103030164,-6.9640503,3.45705,5.2180505
1680010475750,1190464105532394,-7.0309505,3.4279501,5.23005
1680010475754,1190464108034552,-6.9949503,3.4350002,5.0599504
1680010475755,1190464110536937,-7.0740004,3.35595,5.12505
1680010475758,1190464113038860,-6.98505,3.45,5.0869503
1680010475761,1190464115541322,-6.9870005,3.35595,5.1870003
1680010475763,1190464118043706,-6.9900002,3.3970501,5.1540003
1680010475765,1190464120545856,-6.9280505,3.4039502,5.03205
1680010475767,1190464123048010,-6.94395,3.34695,5.1109505
1680010475769,1190464125550164,-6.94395,3.3630002,5.06295
1680010475772,1190464128052395,-6.9420004,3.34905,4.9759502
1680010475775,1190464130554783,-6.9280505,3.3949502,5.1319504
