system_ts_ms, sensor_ts_ns, gyrX, gyrY, gyrZ
1680020366049,1200354399993599,0.002475,0.0774125,-0.0163625
1680020366049,1200354402495984,0.0064625,0.0814,-0.017324999
1680020366050,1200354404998215,0.0064625,0.0823625,-0.017324999
1680020366052,1200354407500599,0.0114124995,0.0823625,-0.0133375
1680020366067,1200354410002836,0.0154,0.0804375,-0.0133375
1680020366067,1200354412505221,0.0193875,0.0804375,-0.017324999
1680020366067,1200354415007682,0.02145,0.0774125,-0.0163625
1680020366067,1200354417509937,0.018424999,0.07645,-0.0182875
1680020366068,1200354420012091,0.0174625,0.0743875,-0.0193875
1680020366070,1200354422514475,0.0154,0.0694375,-0.0163625
1680020366070,1200354425016706,0.01045,0.0704,-0.02035
1680020366074,1200354427519091,0.0044,0.06545,-0.022275
1680020366075,1200354430021340,-0.0015125,0.0633875,-0.0243375
1680020366078,1200354432523724,-0.0066,0.0603625,-0.0264
1680020366080,1200354435025955,-0.0125124995,0.062425,-0.0243375
1680020366082,1200354437528340,-0.0176,0.0584375,-0.022275
1680020366085,1200354440030575,-0.0155375,0.0614625,-0.022275
1680020366091,1200354442532960,-0.019524999,0.057475,-0.0253
1680020366091,1200354445035422,-0.019524999,0.0554125,-0.0253
1680020366093,1200354447537575,-0.0204875,0.05335,-0.0243375
1680020366095,1200354450039797,-0.0185625,0.0523875,-0.022275
1680020366098,1200354452542182,-0.019524999,0.046475,-0.0213125
1680020366102,1200354455044413,-0.0185625,0.0493625,-0.02035
1680020366104,1200354457546797,-0.0165,0.046475,-0.02035
1680020366108,1200354460049273,-0.0155375,0.040425,-0.017324999
1680020366108,1200354462551503,-0.0185625,0.0374,-0.0154
1680020366110,1200354465053657,-0.0165,0.0383625,-0.017324999
1680020366112,1200354467556042,-0.0204875,0.040425,-0.0133375
1680020366115,1200354470058273,-0.02255,0.0444125,-0.0133375
1680020366118,1200354472560681,-0.02255,0.0444125,-0.011275
1680020366120,1200354475063143,-0.0235125,0.0444125,-0.0154
1680020366124,1200354477565297,-0.0246125,0.046475,-0.017324999
1680020366125,1200354480067528,-0.0235125,0.043449998,-0.0163625
1680020366128,1200354482569897,-0.0246125,0.046475,-0.0154
1680020366132,1200354485072128,-0.030524999,0.0484,-0.0163625
1680020366132,1200354487574513,-0.0295625,0.0474375,-0.012375
1680020366134,1200354490076743,-0.0275,0.043449998,-0.0133375
1680020366141,1200354492579191,-0.0286,0.0484,-0.0163625
1680020366142,1200354495081575,-0.0314875,0.0504625,-0.011275
1680020366144,1200354497583729,-0.0325875,0.0504625,-0.012375
1680020366146,1200354500085960,-0.0246125,0.0523875,-0.0103124995
1680020366149,1200354502588345,-0.0286,0.0523875,-0.012375
1680020366150,1200354505090504,-0.0295625,0.054449998,-0.0154
1680020366153,1200354507592965,-0.025575,0.05335,-0.0154
1680020366157,1200354510095196,-0.025575,0.05335,-0.0163625
1680020366158,1200354512597581,-0.0246125,0.0554125,-0.0182875
1680020366160,1200354515099816,-0.0235125,0.0554125,-0.02035
1680020366162,1200354517602201,-0.0235125,0.0554125,-0.0182875
1680020366165,1200354520104432,-0.0235125,0.054449998,-0.0193875
1680020366167,1200354522606893,-0.0204875,0.0554125,-0.022275
1680020366169,1200354525109047,-0.0165,0.056375,-0.02035
1680020366174,1200354527611417,-0.0155375,0.0584375,-0.0213125
1680020366176,1200354530113647,-0.0165,0.06435,-0.0243375
1680020366179,1200354532616032,-0.014575,0.0664125,-0.0253
1680020366181,1200354535118196,-0.013612499,0.0603625,-0.0253
1680020366183,1200354537620657,-0.0155375,0.0584375,-0.0243375
1680020366185,1200354540122888,-0.014575,0.056375,-0.023375
1680020366191,1200354542625273,-0.0155375,0.0554125,-0.0243375
1680020366192,1200354545127504,-0.0165,0.054449998,-0.0273625
1680020366192,1200354547629878,-0.0165,0.0523875,-0.023375
1680020366195,1200354550132109,-0.0165,0.0523875,-0.023375
1680020366198,1200354552634494,-0.0165,0.054449998,-0.023375
1680020366200,1200354555136724,-0.0185625,0.0554125,-0.0253
1680020366202,1200354557639095,-0.0215875,0.051425,-0.0273625
1680020366209,1200354560141326,-0.0215875,0.051425,-0.0273625
1680020366210,1200354562643787,-0.0185625,0.05335,-0.0303875
1680020366211,1200354565146172,-0.0185625,0.0603625,-0.0273625
1680020366214,1200354567648322,-0.0165,0.062425,-0.0253
1680020366216,1200354570150553,-0.014575,0.062425,-0.0264
1680020366219,1200354572652937,-0.0165,0.068475,-0.0264
1680020366222,1200354575155168,-0.013612499,0.0704,-0.023375
1680020366223,1200354577657322,-0.01155,0.0774125,-0.0253
1680020366227,1200354580159777,-0.008525,0.0834625,-0.0264
1680020366231,1200354582662162,-0.0075625,0.089375,-0.0253
1680020366231,1200354585164393,-0.0075625,0.09845,-0.0253
1680020366232,1200354587666777,-0.0055,0.1034,-0.0264
1680020366235,1200354590169003,-0.0055,0.111375,-0.0264
1680020366240,1200354592671388,-0.0045375,0.12045,-0.0273625
1680020366241,1200354595173619,-0.0015125,0.12045,-0.0264
1680020366242,1200354597676003,-0.0055,0.122375,-0.0292875
1680020366247,1200354600178219,-0.003575,0.133375,-0.0323125
1680020366249,1200354602680604,-0.0045375,0.1384625,-0.0323125
1680020366252,1200354605182834,-0.0045375,0.1403875,-0.0273625
1680020366261,1200354610184988,-0.0075625,0.144375,-0.0303875
1680020366261,1200354610340619,-0.0066,0.1494625,-0.0303875
1680020366263,1200354612689849,-0.0066,0.14739999,-0.028324999
1680020366264,1200354615192080,-0.0075625,0.15345,-0.034375
1680020366265,1200354617694465,-0.0045375,0.15235,-0.0353375
1680020366266,1200354620196696,-0.0045375,0.156475,-0.0353375
1680020366268,1200354622699070,-0.003575,0.161425,-0.0353375
1680020366270,1200354625201301,-0.0055,0.1623875,-0.0363
1680020366274,1200354627703686,-0.0055,0.166375,-0.0374
1680020366275,1200354630205916,4.125E-4,0.1684375,-0.0402875
1680020366279,1200354632708296,-0.0015125,0.1703625,-0.0402875
1680020366280,1200354635210527,-5.5E-4,0.1703625,-0.0383625
1680020366282,1200354637712911,0.0015125,0.1684375,-0.0402875
1680020366285,1200354640215142,0.0034375,0.172425,-0.0463375
1680020366290,1200354642717518,0.0044,0.177375,-0.0484
1680020366291,1200354645219749,0.0083875,0.17847499,-0.0433125
1680020366293,1200354647722133,0.007425,0.1804,-0.04235
1680020366296,1200354650224364,0.0125124995,0.1794375,-0.0402875
1680020366298,1200354652726749,0.0154,0.1804,-0.0463375
1680020366301,1200354655228911,0.013475,0.183425,-0.044275
1680020366303,1200354657731373,0.0154,0.18645,-0.044275
1680020366307,1200354660233604,0.0174625,0.1824625,-0.0463375
1680020366308,1200354662735988,0.0165,0.183425,-0.0463375
1680020366310,1200354665238219,0.018424999,0.1813625,-0.0484
1680020366314,1200354667740595,0.0165,0.17435,-0.0463375
1680020366315,1200354670242826,0.013475,0.1733875,-0.0463375
1680020366318,1200354672745210,0.0154,0.166375,-0.0463375
1680020366320,1200354675247441,0.013475,0.1593625,-0.0463375
1680020366324,1200354677749830,0.0125124995,0.150425,-0.0484
1680020366329,1200354680252060,0.0114124995,0.144375,-0.050325
1680020366330,1200354682754214,0.0083875,0.1364,-0.0493625
1680020366333,1200354685256599,0.0094875,0.123475,-0.0493625
1680020366333,1200354687759065,0.0064625,0.113437496,-0.0512875
1680020366335,1200354690261296,0.0083875,0.1054625,-0.050325
1680020366341,1200354692763681,0.0064625,0.09845,-0.0493625
1680020366342,1200354695265912,0.0044,0.091437496,-0.045375
1680020366343,1200354697768296,0.0055,0.090475,-0.0433125
1680020366345,1200354700270527,0.0055,0.0853875,-0.044275
1680020366349,1200354702772912,0.002475,0.0834625,-0.0413875
1680020366350,1200354705275142,0.0055,0.0823625,-0.0353375
1680020366352,1200354707777527,0.0064625,0.0804375,-0.0292875
1680020366358,1200354710279744,0.007425,0.079475,-0.028324999
1680020366361,1200354712782128,0.007425,0.079475,-0.0253
1680020366361,1200354715284282,0.01045,0.079475,-0.023375
1680020366364,1200354717786763,0.013475,0.0804375,-0.022275
1680020366366,1200354720288994,0.0174625,0.078375,-0.0193875
1680020366368,1200354722791378,0.0174625,0.0804375,-0.017324999
1680020366370,1200354725293609,0.0165,0.0834625,-0.0182875
1680020366374,1200354727795994,0.0174625,0.079475,-0.0193875
1680020366375,1200354730298147,0.0174625,0.0743875,-0.0163625
1680020366378,1200354732800378,0.0174625,0.0724625,-0.012375
1680020366381,1200354735302840,0.0165,0.073425,-0.0103124995
1680020366383,1200354737805224,0.018424999,0.073425,-0.012375
1680020366385,1200354740307460,0.0174625,0.073425,-0.0083875
1680020366391,1200354742809845,0.0165,0.073425,-0.0072875
1680020366391,1200354745312076,0.0165,0.073425,-0.0044
1680020366392,1200354747814460,0.018424999,0.0704,-0.0033
1680020366395,1200354750316697,0.0193875,0.0713625,-0.001375
1680020366398,1200354752819082,0.0193875,0.0694375,0.004675
1680020366401,1200354755321312,0.02145,0.0724625,0.009625
1680020366403,1200354757823697,0.024475,0.0724625,0.009625
1680020366407,1200354760325851,0.0275,0.0713625,0.0077
1680020366408,1200354762828082,0.0254375,0.0694375,0.0077
1680020366410,1200354765330543,0.0224125,0.0664125,0.0086624995
1680020366412,1200354767832928,0.0193875,0.0633875,0.009625
1680020366414,1200354770335159,0.018424999,0.05335,0.0086624995
1680020366418,1200354772837557,0.0193875,0.045375,0.0056375
1680020366420,1200354775339788,0.0165,0.046475,0.0026125
1680020366424,1200354777841942,0.018424999,0.0504625,0.00165
1680020366425,1200354780344403,0.0193875,0.054449998,6.875E-4
1680020366428,1200354782846801,0.0193875,0.0523875,-0.0023375
1680020366430,1200354785349032,0.024475,0.056375,-0.0053625
1680020366432,1200354787851416,0.0275,0.06435,-0.006325
1680020366435,1200354790353647,0.0334125,0.084425,-0.0072875
1680020366439,1200354792856042,0.040425,0.1054625,-0.0083875
1680020366441,1200354795358272,0.046475,0.123475,-0.0044
1680020366443,1200354797860657,0.0565125,0.144375,6.875E-4
1680020366445,1200354800362888,0.0675125,0.1684375,0.0066
1680020366448,1200354802865273,0.073425,0.1874125,0.014712499
1680020366450,1200354805367517,0.079475,0.2094125,0.021724999
1680020366453,1200354807869671,0.084425,0.2234375,0.0286
1680020366455,1200354810372056,0.0834625,0.2143625,0.0336875
1680020366458,1200354812874517,0.0724625,0.18645,0.0336875
1680020366460,1200354815376758,0.057475,0.1544125,0.0336875
1680020366462,1200354817879143,0.0424875,0.122375,0.031625
1680020366464,1200354820381373,0.0314875,0.090475,0.0297
1680020366468,1200354822883758,0.0204875,0.06435,0.031625
1680020366470,1200354825385912,0.0125124995,0.045375,0.0286
1680020366472,1200354827888387,0.0114124995,0.029424999,0.0306625
1680020366476,1200354830390618,0.0055,0.0174625,0.0306625
1680020366480,1200354832893003,0.002475,0.002475,0.0297
1680020366481,1200354835395157,4.125E-4,-0.003575,0.0286
1680020366483,1200354837897642,-5.5E-4,-0.0075625,0.031625
1680020366484,1200354840399796,0.0044,-0.009625,0.032725
1680020366488,1200354842902258,0.0055,-0.009625,0.0336875
1680020366490,1200354845404488,0.0034375,-0.008525,0.0356125
1680020366492,1200354847906873,0.0055,-0.0056375,0.037675
1680020366495,1200354850409114,0.0055,-0.0056375,0.0386375
1680020366498,1200354852911498,0.0083875,-0.0026125,0.042625
1680020366501,1200354855413652,0.01045,-0.0066,0.0416625
1680020366502,1200354857916114,0.0154,-0.0056375,0.0396
1680020366505,1200354860418355,0.0174625,-0.0066,0.0416625
1680020366508,1200354862920739,0.0174625,-0.0075625,0.0386375
1680020366510,1200354865422970,0.0193875,-0.008525,0.042625
1680020366514,1200354867925355,0.018424999,-0.0066,0.042625
1680020366515,1200354870427599,0.02145,-0.008525,0.0416625
1680020366520,1200354872929753,0.0224125,-0.01265,0.042625
1680020366521,1200354875700215,0.0193875,-0.014575,0.042625
1680020366523,1200354877934599,0.0193875,-0.014575,0.0407
1680020366525,1200354880436830,0.02145,-0.014575,0.0407
1680020366528,1200354882938998,0.02145,-0.013612499,0.0396
1680020366530,1200354885441383,0.0204875,-0.0155375,0.043725
1680020366532,1200354887943613,0.02145,-0.014575,0.0407
1680020366535,1200354890446075,0.0204875,-0.009625,0.0396
1680020366538,1200354892948456,0.0224125,-0.0066,0.0416625
1680020366540,1200354895450686,0.0224125,-0.0056375,0.042625
1680020366542,1200354897953071,0.02145,-0.0026125,0.043725
1680020366545,1200354900455302,0.0193875,0.0034375,0.045649998
1680020366548,1200354902957451,0.0193875,0.0064625,0.0477125
1680020366552,1200354905459912,0.0163625,0.007425,0.048675
1680020366553,1200354907962297,0.0174625,0.0114124995,0.0517
1680020366555,1200354910464528,0.0163625,0.0174625,0.048675
1680020366558,1200354912966921,0.0163625,0.018424999,0.0477125
1680020366560,1200354915469152,0.013475,0.0193875,0.0496375
1680020366563,1200354917971537,0.01045,0.024475,0.0526625
1680020366566,1200354920473767,0.01045,0.0254375,0.0526625
1680020366568,1200354922976152,0.0154,0.029424999,0.048675
1680020366570,1200354925478383,0.01045,0.0284625,0.048675
1680020366573,1200354927980767,0.01045,0.0284625,0.0477125
1680020366575,1200354930482921,0.0064625,0.0273625,0.0466125
1680020366578,1200354932985152,0.007425,0.024475,0.0446875
1680020366581,1200354935487523,0.007425,0.024475,0.0477125
1680020366582,1200354937989984,0.0064625,0.023375,0.042625
1680020366585,1200354940492215,0.0083875,0.0174625,0.0407
1680020366589,1200354942994600,0.007425,0.0114124995,0.043725
1680020366591,1200354945496801,0.0053625,0.0083875,0.0396
1680020366593,1200354947999186,0.0053625,0.0083875,0.037675
1680020366595,1200354950501340,0.0044,0.0053625,0.0367125
1680020366598,1200354953003801,0.0034375,0.001375,0.0367125
1680020366600,1200354955506032,0.001375,-0.00165,0.0356125
1680020366602,1200354958008407,0.002475,-0.003575,0.0336875
1680020366605,1200354960510561,0.0044,-0.008525,0.0367125
1680020366608,1200354963013022,0.0064625,-0.01155,0.031625
1680020366610,1200354965515253,0.007425,-0.0105875,0.0336875
1680020366613,1200354968017638,0.0094875,-0.0155375,0.031625
1680020366615,1200354970519868,0.01045,-0.019524999,0.0336875
1680020366618,1200354973022253,0.0083875,-0.02365,0.0336875
1680020366621,1200354975524484,0.01045,-0.020624999,0.031625
1680020366622,1200354978026629,0.013475,-0.0265375,0.032725
1680020366627,1200354980529013,0.01045,-0.0246125,0.032725
1680020366630,1200354983031475,0.007425,-0.0265375,0.031625
1680020366631,1200354985533706,0.0114124995,-0.0295625,0.0306625
1680020366632,1200354988036070,0.0114124995,-0.034649998,0.0306625
1680020366634,1200354990538301,0.0094875,-0.031625,0.032725
1680020366637,1200354993040686,0.0154,-0.030524999,0.032725
1680020366640,1200354995542916,0.013475,-0.0286,0.0306625
1680020366642,1200354998045301,0.0163625,-0.030524999,0.031625
1680020366645,1200355000547518,0.018424999,-0.0295625,0.0336875
1680020366648,1200355003049902,0.0174625,-0.031625,0.0306625
1680020366650,1200355005552133,0.0174625,-0.0265375,0.0306625
1680020366653,1200355008054287,0.018424999,-0.0276375,0.0306625
1680020366655,1200355010556644,0.0174625,-0.0265375,0.032725
1680020366659,1200355013058874,0.018424999,-0.020624999,0.0336875
1680020366660,1200355015561336,0.018424999,-0.019524999,0.0336875
1680020366665,1200355018063706,0.0193875,-0.0185625,0.0336875
1680020366666,1200355020565936,0.018424999,-0.0176,0.032725
1680020366669,1200355023068321,0.0224125,-0.0105875,0.032725
1680020366674,1200355025570552,0.0204875,-0.0105875,0.032725
1680020366674,1200355028072706,0.018424999,-0.01155,0.0336875
1680020366674,1200355030575158,0.0193875,-0.0075625,0.0336875
1680020366677,1200355033077543,0.0193875,-0.0056375,0.0336875
1680020366679,1200355035579774,0.0163625,-0.0045375,0.0367125
1680020366682,1200355038082158,0.0154,0.002475,0.037675
1680020366685,1200355040584374,0.012375,0.0034375,0.0386375
1680020366688,1200355043086759,0.0114124995,0.0064625,0.0386375
1680020366689,1200355045588989,0.0094875,0.0064625,0.037675
1680020366692,1200355048091374,0.013475,0.001375,0.032725
1680020366695,1200355050593605,0.0154,0.0044,0.0336875
1680020366698,1200355053095989,0.01045,0.01045,0.0367125
1680020366702,1200355055598143,0.012375,0.01045,0.0367125
1680020366703,1200355058100374,0.012375,0.0053625,0.0356125
1680020366705,1200355060602836,0.01045,0.007425,0.0356125
1680020366708,1200355063105220,0.0114124995,0.0083875,0.032725
1680020366710,1200355065607451,0.012375,0.0083875,0.032725
1680020366714,1200355068109836,0.0154,0.007425,0.0367125
1680020366715,1200355070612066,0.0163625,0.012375,0.0336875
1680020366718,1200355073114456,0.0163625,0.0144375,0.031625
1680020366720,1200355075616610,0.0193875,0.0053625,0.031625
1680020366722,1200355078119071,0.0193875,0.007425,0.0336875
1680020366724,1200355080621302,0.02145,0.0083875,0.0356125
1680020366728,1200355083123663,0.0193875,0.0064625,0.031625
1680020366730,1200355085625893,0.0224125,0.0064625,0.031625
1680020366732,1200355088128047,0.02145,0.0053625,0.032725
1680020366735,1200355090630509,0.023375,0.0064625,0.031625
1680020366740,1200355093132878,0.023375,0.002475,0.0306625
1680020366743,1200355095633993,0.024475,0.002475,0.031625
1680020366743,1200355098135108,0.0264,-5.5E-4,0.0336875
1680020366745,1200355100639724,0.0314875,-0.0026125,0.031625
1680020366748,1200355103141878,0.029424999,-0.003575,0.0306625
1680020366750,1200355105644262,0.0284625,-5.5E-4,0.0306625
1680020366752,1200355108146739,0.0334125,-0.0056375,0.0306625
1680020366755,1200355110648969,0.034375,-0.0056375,0.031625
1680020366758,1200355113151123,0.035475,-0.008525,0.031625
1680020366760,1200355115653508,0.0374,-0.01155,0.0356125
1680020366763,1200355118155998,0.0394625,-0.01265,0.0336875
1680020366765,1200355120658229,0.0413875,-0.013612499,0.0356125
1680020366768,1200355123160614,0.040425,-0.009625,0.0367125
1680020366770,1200355125662845,0.0424875,-0.01155,0.0356125
1680020366772,1200355128165229,0.0394625,-0.008525,0.0356125
1680020366777,1200355130667460,0.0394625,-0.0045375,0.037675
1680020366780,1200355133169845,0.0383625,-0.0105875,0.0356125
1680020366782,1200355135672075,0.0383625,-0.009625,0.0336875
1680020366784,1200355138174455,0.0413875,-0.008525,0.0306625
1680020366785,1200355140676609,0.0424875,-0.01265,0.0276375
1680020366788,1200355143178840,0.0394625,-0.014575,0.026675
1680020366790,1200355145681224,0.0374,-0.014575,0.0226875
1680020366793,1200355148183686,0.0394625,-0.014575,0.0257125
1680020366795,1200355150685907,0.0394625,-0.014575,0.0257125
1680020366798,1200355153188291,0.040425,-0.01265,0.02365
1680020366800,1200355155690522,0.0383625,-0.008525,0.0196625
1680020366802,1200355158192907,0.0413875,-0.0075625,0.0196625
1680020366805,1200355160695076,0.0383625,-0.0066,0.021724999
1680020366808,1200355163197306,0.0383625,-0.0066,0.0196625
1680020366810,1200355165699768,0.0394625,-0.0026125,0.021724999
1680020366814,1200355168202152,0.0394625,0.0034375,0.021724999
1680020366815,1200355170704320,0.034375,0.012375,0.0246125
1680020366819,1200355173206551,0.0374,0.0163625,0.0257125
1680020366820,1200355175708936,0.035475,0.018424999,0.021724999
1680020366822,1200355178211166,0.0334125,0.023375,0.020624999
1680020366825,1200355180713628,0.0314875,0.024475,0.020624999
1680020366828,1200355183216032,0.0314875,0.0254375,0.020624999
1680020366830,1200355185718262,0.029424999,0.0284625,0.0226875
1680020366832,1200355188220647,0.0254375,0.035475,0.0226875
1680020366835,1200355190722801,0.024475,0.0374,0.0166375
1680020366838,1200355193225037,0.0254375,0.0383625,0.0166375
1680020366840,1200355195727498,0.023375,0.040425,0.0257125
1680020366843,1200355198229883,0.0193875,0.0474375,0.0286
1680020366846,1200355200732114,0.0204875,0.0444125,0.0276375
1680020366848,1200355203234498,0.0193875,0.043449998,0.0246125
1680020366852,1200355205736729,0.018424999,0.046475,0.0257125
1680020366854,1200355208238883,0.018424999,0.0474375,0.0276375
1680020366856,1200355210741344,0.0193875,0.045375,0.0276375
1680020366859,1200355213243743,0.02145,0.040425,0.0297
1680020366861,1200355215745974,0.0204875,0.0394625,0.0286
1680020366864,1200355218248128,0.02145,0.034375,0.0306625
1680020366865,1200355220750512,0.0204875,0.032449998,0.0306625
1680020366868,1200355223252738,0.0193875,0.032449998,0.031625
1680020366870,1200355225755200,0.0204875,0.0284625,0.0356125
1680020366872,1200355228257584,0.0193875,0.0254375,0.0356125
1680020366875,1200355230759815,0.0154,0.02145,0.037675
1680020366878,1200355233262172,0.0163625,0.0193875,0.0416625
1680020366880,1200355235764402,0.018424999,0.0154,0.0416625
1680020366882,1200355238266556,0.02145,0.0163625,0.043725
1680020366885,1200355240768941,0.0163625,0.01045,0.0466125
1680020366890,1200355243271392,0.013475,0.0044,0.043725
1680020366891,1200355245773623,0.013475,0.001375,0.0477125
1680020366893,1200355248276008,0.018424999,-0.00165,0.0496375
1680020366895,1200355250778239,0.0174625,-0.0075625,0.0466125
1680020366899,1200355253280392,0.0204875,-0.0155375,0.0407
1680020366900,1200355255782796,0.0204875,-0.019524999,0.0396
1680020366902,1200355258285258,0.0193875,-0.0295625,0.0407
1680020366905,1200355260787488,0.02145,-0.03355,0.0396
1680020366908,1200355263289873,0.018424999,-0.030524999,0.0386375
1680020366910,1200355265792027,0.0154,-0.036575,0.0386375
1680020366913,1200355268294263,0.013475,-0.0405625,0.0367125
1680020366915,1200355270796647,0.0154,-0.0405625,0.0367125
1680020366918,1200355273299109,0.0154,-0.0435875,0.0356125
1680020366920,1200355275801340,0.0154,-0.0466125,0.031625
1680020366923,1200355278303719,0.013475,-0.04455,0.0297
1680020366927,1200355280805950,0.012375,-0.0466125,0.0286
1680020366930,1200355283308335,0.0094875,-0.04455,0.0297
1680020366931,1200355285810488,0.0094875,-0.0435875,0.0276375
1680020366933,1200355288312950,0.01045,-0.0435875,0.02365
1680020366935,1200355290815181,0.0094875,-0.0496375,0.0166375
1680020366939,1200355293317565,0.0083875,-0.045649998,0.0196625
1680020366940,1200355295819719,0.01045,-0.041525,0.02365
1680020366943,1200355298321950,0.0094875,-0.0375375,0.0226875
1680020366945,1200355300824330,0.007425,-0.034649998,0.0226875
1680020366948,1200355303326791,0.007425,-0.036575,0.0187
1680020366950,1200355305829022,0.007425,-0.03355,0.020624999
1680020366953,1200355308331407,0.0053625,-0.0286,0.0166375
1680020366955,1200355310833637,0.0044,-0.0276375,0.015675
1680020366958,1200355313335810,0.002475,-0.0215875,0.01265
1680020366961,1200355315838195,0.0034375,-0.019524999,0.0056375
1680020366964,1200355318340426,0.002475,-0.013612499,0.0077
1680020366966,1200355320842897,0.002475,-0.0166375,0.010725
1680020366969,1200355323345282,0.0034375,-0.009625,0.010725
1680020366970,1200355325847513,0.0044,-0.0045375,0.010725
1680020366973,1200355328349897,0.0044,-0.0026125,0.0066
1680020366975,1200355330852128,0.0053625,-5.5E-4,0.0037125
1680020366979,1200355333354277,0.0053625,0.0034375,0.0037125
1680020366981,1200355335856738,0.0053625,0.0044,0.0066
1680020366983,1200355338359123,0.0053625,0.007425,0.0037125
1680020366985,1200355340861354,0.0044,0.01045,0.0026125
1680020366988,1200355343363494,0.0034375,0.0114124995,0.00165
1680020366990,1200355345865878,0.002475,0.0083875,0.0026125
1680020366993,1200355348368109,4.125E-4,0.01045,6.875E-4
1680020366996,1200355350870571,4.125E-4,0.013475,-0.0044
1680020366998,1200355353372931,-0.0045375,0.007425,-0.006325
1680020367002,1200355355875162,-0.0045375,0.0044,-0.006325
1680020367004,1200355358377547,-0.0105875,0.007425,-0.0072875
1680020367006,1200355360879700,-0.009625,0.0044,-0.0072875
1680020367008,1200355363381940,-0.0105875,0.0034375,-0.0083875
1680020367010,1200355365884402,-0.014575,4.125E-4,-0.0103124995
1680020367013,1200355368386786,-0.0166375,4.125E-4,-0.011275
1680020367015,1200355370889017,-0.0176,-0.00165,-0.011275
1680020367019,1200355373391152,-0.0155375,-0.0056375,-0.012375
1680020367020,1200355375893613,-0.0176,-0.0075625,-0.011275
1680020367023,1200355378395998,-0.0204875,-0.0075625,-0.0072875
1680020367025,1200355380898152,-0.0204875,-0.008525,-0.0072875
1680020367028,1200355383400614,-0.0185625,-0.0125124995,-0.0072875
1680020367030,1200355385902830,-0.0215875,-0.0105875,-0.0053625
1680020367032,1200355388405215,-0.0235125,-0.0105875,-0.0023375
1680020367035,1200355390907369,-0.019524999,-0.009625,0.0026125
1680020367039,1200355393409600,-0.0204875,-0.009625,0.0026125
1680020367041,1200355395911984,-0.0165,-0.0075625,0.0037125
1680020367043,1200355398414446,-0.0185625,-0.0075625,0.004675
1680020367046,1200355400916676,-0.019524999,-0.0105875,0.009625
1680020367049,1200355403419061,-0.0176,-0.009625,0.0086624995
1680020367051,1200355405921292,-0.0155375,-0.0075625,0.009625
1680020367053,1200355408423704,-0.01155,-0.008525,0.01265
1680020367056,1200355410925858,-0.0105875,-0.008525,0.010725
1680020367059,1200355413428320,-0.0105875,-0.0026125,0.014712499
1680020367060,1200355415930551,-0.008525,-0.0026125,0.014712499
1680020367062,1200355418432705,-0.0045375,-5.5E-4,0.009625
1680020367066,1200355420935089,-0.0045375,-0.0026125,0.009625
1680020367068,1200355423437320,-0.0055,-0.0026125,0.0086624995
1680020367071,1200355425939705,-0.0015125,4.125E-4,0.0066
1680020367073,1200355428442157,-5.5E-4,0.0044,0.0066
1680020367077,1200355430944388,0.0015125,0.0083875,0.004675
1680020367080,1200355433446772,0.0015125,0.01045,0.0026125
1680020367081,1200355435949003,0.0044,0.0083875,0.00165
1680020367083,1200355438451152,0.0034375,0.01045,6.875E-4
1680020367085,1200355440953537,0.0044,0.0174625,0.0026125
1680020367088,1200355443455998,0.0055,0.0193875,0.00165
1680020367090,1200355445958229,0.0055,0.0144375,6.875E-4
1680020367093,1200355448460614,0.0114124995,0.012375,-0.001375
1680020367096,1200355450962834,0.0125124995,0.0154,-0.0033
1680020367099,1200355453465219,0.013475,0.0163625,-0.006325
1680020367100,1200355455967373,0.013475,0.0114124995,-0.0072875
1680020367103,1200355458469604,0.0154,0.013475,-0.011275
1680020367106,1200355460972056,0.013475,0.0144375,-0.012375
1680020367108,1200355463474441,0.0125124995,0.01045,-0.0133375
1680020367110,1200355465976595,0.0154,0.0163625,-0.0182875
1680020367114,1200355468478810,0.0125124995,0.0174625,-0.022275
1680020367116,1200355470981195,0.0083875,0.018424999,-0.0243375
1680020367119,1200355473483426,0.007425,0.018424999,-0.0264
1680020367121,1200355475985887,0.0064625,0.018424999,-0.0264
1680020367123,1200355478488272,0.0064625,0.02145,-0.0273625
1680020367125,1200355480990503,0.0064625,0.023375,-0.0253
1680020367128,1200355483492887,0.0055,0.0273625,-0.034375
1680020367130,1200355485995041,0.002475,0.0273625,-0.0323125
1680020367133,1200355488497272,0.0015125,0.0284625,-0.034375
1680020367135,1200355490999729,0.0015125,0.0284625,-0.034375
1680020367139,1200355493502113,4.125E-4,0.032449998,-0.033275
1680020367141,1200355496004344,-0.0015125,0.0334125,-0.034375
1680020367143,1200355498506729,-0.0075625,0.029424999,-0.034375
1680020367146,1200355501008950,-0.0045375,0.034375,-0.033275
1680020367148,1200355503511104,-0.0045375,0.0303875,-0.034375
1680020367152,1200355506013566,-0.0075625,0.032449998,-0.0353375
1680020367154,1200355508515950,-0.008525,0.034375,-0.0303875
1680020367156,1200355511018181,-0.008525,0.029424999,-0.0243375
1680020367159,1200355513520566,-0.0105875,0.0314875,-0.022275
1680020367160,1200355516022720,-0.0105875,0.0334125,-0.022275
1680020367163,1200355518524950,-0.0125124995,0.0303875,-0.022275
1680020367165,1200355521027412,-0.01155,0.029424999,-0.02035
1680020367168,1200355523529801,-0.013612499,0.029424999,-0.012375
1680020367171,1200355526032031,-0.01155,0.0224125,-0.0133375
1680020367173,1200355528534416,-0.01155,0.023375,-0.0154
1680020367175,1200355531036647,-0.01155,0.02145,-0.011275
1680020367179,1200355533538787,-0.0094875,0.0154,-0.00935
1680020367181,1200355536041171,-0.0075625,0.0163625,-0.006325
1680020367183,1200355538543633,-0.0055,0.0154,-0.0023375
1680020367185,1200355541045864,-0.0015125,0.013475,-0.006325
1680020367190,1200355543548036,4.125E-4,0.007425,-0.0023375
1680020367191,1200355546050421,0.0034375,0.0053625,-0.0044
1680020367193,1200355548552652,0.0044,0.001375,6.875E-4
1680020367195,1200355551055036,0.0055,-0.0045375,0.0037125
1680020367198,1200355553557498,0.0094875,-5.5E-4,0.00165
1680020367200,1200355556059729,0.01045,-0.0056375,0.0037125
1680020367203,1200355558562113,0.013475,-0.01155,0.0056375
1680020367205,1200355561064344,0.0154,-0.013612499,0.0056375
1680020367208,1200355563566498,0.0204875,-0.014575,0.009625
1680020367211,1200355566068883,0.02145,-0.0125124995,0.010725
1680020367213,1200355568571344,0.0254375,-0.01155,0.0086624995
1680020367215,1200355571073575,0.0275,-0.0125124995,0.010725
1680020367219,1200355573575960,0.0254375,-0.01155,0.0116875
1680020367220,1200355576078190,0.0284625,-0.01155,0.010725
1680020367223,1200355578580575,0.029424999,-0.013612499,0.0116875
1680020367227,1200355581082729,0.0284625,-0.0125124995,0.010725
1680020367230,1200355583585190,0.0275,-0.008525,0.0116875
1680020367231,1200355586087421,0.029424999,-0.009625,0.014712499
1680020367234,1200355588589806,0.0334125,-0.0075625,0.013612499
1680020367240,1200355591091960,0.0334125,-0.0075625,0.013612499
1680020367240,1200355593594190,0.0345125,-0.0056375,0.0116875
1680020367241,1200355596096575,0.0364375,-0.003575,0.01265
1680020367243,1200355598598806,0.0345125,-0.0015125,0.01265
1680020367247,1200355601101267,0.0314875,0.002475,0.015675
1680020367249,1200355603603667,0.0345125,0.0034375,0.014712499
1680020367251,1200355606105898,0.0364375,0.0053625,0.015675
1680020367253,1200355608608282,0.0385,0.007425,0.0196625
1680020367256,1200355611110436,0.0385,0.013475,0.021724999
1680020367259,1200355613612667,0.0385,0.018424999,0.0196625
1680020367261,1200355616115129,0.040425,0.0193875,0.021724999
1680020367265,1200355618617513,0.0394625,0.0254375,0.026675
1680020367267,1200355621119667,0.0413875,0.032449998,0.021724999
1680020367269,1200355623621889,0.040425,0.034375,0.02365
1680020367271,1200355626124273,0.040425,0.0383625,0.031625
1680020367273,1200355628626504,0.0394625,0.040425,0.0336875
1680020367275,1200355631128966,0.040425,0.040425,0.0336875
1680020367279,1200355633631350,0.040425,0.045375,0.0367125
1680020367281,1200355636133581,0.0394625,0.0504625,0.037675
1680020367283,1200355638635735,0.040425,0.054449998,0.0396
1680020367285,1200355641138120,0.040425,0.054449998,0.0416625
1680020367288,1200355643640350,0.0424875,0.0523875,0.0386375
1680020367290,1200355646142797,0.043449998,0.0523875,0.0416625
1680020367294,1200355648645182,0.043449998,0.0523875,0.0446875
1680020367296,1200355651147412,0.0424875,0.0554125,0.0466125
1680020367299,1200355653649566,0.0444125,0.056375,0.0466125
1680020367303,1200355656152014,0.0444125,0.051425,0.045649998
1680020367304,1200355658654168,0.0455125,0.0534875,0.045649998
1680020367306,1200355661156629,0.0495,0.0493625,0.045649998
1680020367309,1200355663659014,0.046475,0.046475,0.048675
1680020367310,1200355666161244,0.051425,0.043449998,0.0466125
1680020367314,1200355668663398,0.0534875,0.040425,0.0477125
1680020367316,1200355671165783,0.0523875,0.035475,0.048675
1680020367319,1200355673668014,0.051425,0.032449998,0.0496375
1680020367320,1200355676170398,0.0504625,0.0314875,0.0517
1680020367323,1200355678672845,0.0495,0.0254375,0.0496375
1680020367326,1200355681175076,0.0504625,0.0254375,0.048675
1680020367328,1200355683677230,0.051425,0.0224125,0.0477125
1680020367330,1200355686179614,0.051425,0.0174625,0.0517
1680020367333,1200355688682091,0.051425,0.0154,0.0517
1680020367336,1200355691184321,0.051425,0.01045,0.048675
1680020367341,1200355693686706,0.051425,0.0044,0.0526625
1680020367342,1200355696188937,0.0495,0.0053625,0.054725
1680020367344,1200355698691321,0.0484,0.0053625,0.0556875
1680020367346,1200355701193475,0.0504625,0.002475,0.054725
1680020367349,1200355703695937,0.0444125,0.0034375,0.0587125
1680020367351,1200355706198168,0.046475,-5.5E-4,0.0556875
1680020367353,1200355708700552,0.0424875,-0.0045375,0.0587125
1680020367356,1200355711202686,0.040425,-0.003575,0.064625
1680020367358,1200355713704917,0.043449998,-0.0015125,0.0697125
1680020367361,1200355716207302,0.0385,-0.003575,0.073699996
1680020367363,1200355718709763,0.0385,-0.0026125,0.0776875
1680020367366,1200355721212009,0.035475,-0.0015125,0.073699996
1680020367368,1200355723714393,0.0334125,-0.0045375,0.07865
1680020367370,1200355726216624,0.0334125,-0.0015125,0.0856625
1680020367373,1200355728719009,0.035475,-0.0026125,0.087725
1680020367377,1200355731221149,0.029424999,-0.0026125,0.0906125
1680020367380,1200355733723610,0.029424999,-0.0045375,0.0946
1680020367382,1200355736225841,0.0275,-0.0015125,0.095699996
1680020367384,1200355738728226,0.0235125,0.001375,0.0946
1680020367386,1200355741230456,0.024475,0.0044,0.095699996
1680020367389,1200355743732845,0.024475,0.002475,0.093637496
1680020367390,1200355746235076,0.02145,0.0034375,0.0966625
1680020367393,1200355748737460,0.0204875,0.001375,0.097625
1680020367396,1200355751239691,0.0224125,4.125E-4,0.1016125
1680020367398,1200355753742100,0.0235125,4.125E-4,0.0996875
1680020367400,1200355756244331,0.0254375,-0.0015125,0.097625
1680020367403,1200355758746484,0.0254375,-0.0045375,0.095699996
1680020367406,1200355761248869,0.0284625,-5.5E-4,0.0966625
1680020367408,1200355763751100,0.0275,-0.0066,0.093637496
1680020367411,1200355766253561,0.0314875,-0.0105875,0.093637496
1680020367415,1200355768755946,0.0345125,-0.0125124995,0.092675
1680020367416,1200355771258177,0.0284625,-0.0125124995,0.0886875
1680020367420,1200355773760546,0.032449998,-0.0166375,0.0856625
1680020367422,1200355776262777,0.0334125,-0.0215875,0.0856625
1680020367424,1200355778764931,0.032449998,-0.020624999,0.0847
1680020367426,1200355781267393,0.032449998,-0.0215875,0.07865
1680020367428,1200355783769777,0.035475,-0.0235125,0.075625
1680020367430,1200355786271931,0.0345125,-0.0215875,0.0716375
1680020367433,1200355788774162,0.0345125,-0.020624999,0.0716375
1680020367436,1200355791276546,0.032449998,-0.0246125,0.065725
1680020367438,1200355793778777,0.032449998,-0.0265375,0.0616
1680020367440,1200355796281244,0.032449998,-0.0265375,0.056649998
1680020367443,1200355798783628,0.0334125,-0.025575,0.053625
1680020367446,1200355801285859,0.032449998,-0.0246125,0.0517
1680020367449,1200355803788244,0.0334125,-0.019524999,0.0466125
1680020367452,1200355806290398,0.0334125,-0.019524999,0.0446875
1680020367454,1200355808792628,0.029424999,-0.019524999,0.0396
1680020367456,1200355811295090,0.0275,-0.0155375,0.037675
1680020367459,1200355813797475,0.0275,-0.013612499,0.031625
1680020367461,1200355816299705,0.0264,-0.008525,0.0286
1680020367463,1200355818802114,0.0235125,-0.0045375,0.0257125
1680020367466,1200355821304345,0.0224125,0.001375,0.020624999
1680020367468,1200355823806729,0.0224125,0.0034375,0.0226875
1680020367471,1200355826308883,0.0193875,0.01045,0.021724999
1680020367473,1200355828811354,0.0154,0.0174625,0.0196625
1680020367475,1200355831313585,0.0114124995,0.0163625,0.015675
1680020367478,1200355833815969,0.01045,0.0193875,0.0116875
1680020367480,1200355836318123,0.0083875,0.0224125,0.01265
1680020367483,1200355838820354,0.0083875,0.0254375,0.013612499
1680020367487,1200355841322748,0.0083875,0.0303875,0.014712499
1680020367490,1200355843825210,0.0055,0.032449998,0.013612499
1680020367491,1200355846327441,0.002475,0.032449998,0.015675
1680020367493,1200355848829825,0.0034375,0.034375,0.015675
1680020367495,1200355851332051,0.0044,0.0394625,0.0196625
1680020367499,1200355853834205,0.002475,0.043449998,0.020624999
1680020367501,1200355856336590,4.125E-4,0.0413875,0.0166375
1680020367503,1200355858839051,-0.0015125,0.043449998,0.014712499
1680020367505,1200355861341282,-0.003575,0.0484,0.0187
1680020367509,1200355863843667,-0.003575,0.043449998,0.020624999
1680020367511,1200355866345897,-0.0045375,0.0383625,0.0226875
1680020367513,1200355868848282,-0.0066,0.0364375,0.0257125
1680020367516,1200355871350508,-0.0045375,0.035475,0.0246125
1680020367520,1200355873852892,-0.0055,0.0364375,0.0246125
1680020367521,1200355876355123,-0.0045375,0.0334125,0.0286
1680020367523,1200355878857508,-5.5E-4,0.0303875,0.032725
1680020367527,1200355881359744,-0.003575,0.024475,0.0356125
1680020367531,1200355883861897,-0.0015125,0.024475,0.0336875
1680020367532,1200355886364282,4.125E-4,0.0154,0.031625
1680020367533,1200355888866744,0.002475,0.012375,0.0306625
1680020367536,1200355891368974,4.125E-4,0.0053625,0.0336875
1680020367539,1200355893871316,0.0034375,0.0053625,0.0356125
1680020367541,1200355896373547,0.0045375,-0.0015125,0.0356125
1680020367543,1200355898875931,0.0055,-0.0045375,0.037675
1680020367546,1200355901378085,0.0045375,-0.0056375,0.0396
1680020367549,1200355903880325,0.0045375,-0.0105875,0.0396
1680020367551,1200355906382787,0.007425,-0.0105875,0.037675
1680020367553,1200355908885171,0.008525,-0.014575,0.0386375
1680020367555,1200355911387325,0.0064625,-0.0185625,0.0396
1680020367558,1200355913889556,0.0034375,-0.0176,0.0416625
1680020367561,1200355916391907,0.0045375,-0.019524999,0.0416625
1680020367565,1200355918894138,0.0064625,-0.0215875,0.037675
1680020367567,1200355921396600,0.002475,-0.020624999,0.037675
1680020367569,1200355923898984,0.002475,-0.0246125,0.0367125
1680020367571,1200355926401196,0.0055,-0.025575,0.0386375
1680020367574,1200355928903581,0.002475,-0.0235125,0.0396
1680020367576,1200355931405735,0.0045375,-0.025575,0.0407
1680020367579,1200355933907965,0.002475,-0.0235125,0.0396
1680020367581,1200355936410427,0.0064625,-0.0235125,0.0356125
1680020367583,1200355938912812,0.01045,-0.0265375,0.032725
1680020367586,1200355941415042,0.0094875,-0.0246125,0.026675
1680020367588,1200355943917427,0.0064625,-0.0276375,0.0257125
1680020367591,1200355946419581,0.0045375,-0.0265375,0.0246125
1680020367593,1200355948921807,0.0064625,-0.0265375,0.0246125
1680020367596,1200355951424268,0.008525,-0.0276375,0.0286
1680020367598,1200355953926653,0.0064625,-0.025575,0.0276375
1680020367603,1200355956428883,0.007425,-0.0215875,0.026675
1680020367604,1200355958931056,0.0045375,-0.0235125,0.0257125
1680020367606,1200355961433441,0.0064625,-0.0246125,0.0276375
1680020367609,1200355963935672,0.0064625,-0.020624999,0.0286
1680020367610,1200355966438133,0.0034375,-0.019524999,0.0257125
1680020367613,1200355968940518,0.0045375,-0.0176,0.0276375
1680020367616,1200355971442744,0.002475,-0.014575,0.0297
1680020367619,1200355973945128,0.0045375,-0.0176,0.0306625
1680020367621,1200355976447359,0.0034375,-0.0155375,0.032725
1680020367623,1200355978949513,4.125E-4,-0.0155375,0.0356125
1680020367626,1200355981451927,-0.003575,-0.013612499,0.032725
1680020367628,1200355983954388,-0.0045375,-0.0166375,0.037675
1680020367631,1200355986456619,-0.0045375,-0.019524999,0.0396
1680020367633,1200355988958773,-0.0075625,-0.0185625,0.0416625
1680020367636,1200355991461133,-0.0094875,-0.0235125,0.043725
1680020367640,1200355993963364,-0.0075625,-0.019524999,0.0416625
1680020367642,1200355996465749,-0.0075625,-0.020624999,0.0466125
1680020367644,1200355998968210,-0.014575,-0.0185625,0.0526625
1680020367647,1200356001470445,-0.01155,-0.0166375,0.056649998
1680020367649,1200356003972830,-0.0094875,-0.014575,0.0587125
1680020367652,1200356006474984,-0.014575,-0.013612499,0.0606375
1680020367654,1200356008977214,-0.0155375,-0.008525,0.0627
1680020367656,1200356011479599,-0.013475,-0.003575,0.0666875
1680020367659,1200356013982065,-0.0125124995,-0.003575,0.0697125
1680020367661,1200356016484296,-0.0105875,-0.0056375,0.0726
1680020367663,1200356018986681,-0.0125124995,4.125E-4,0.073699996
1680020367666,1200356021488912,-0.0125124995,-0.0045375,0.075625
1680020367669,1200356023991316,-0.0125124995,-0.0075625,0.07865
1680020367671,1200356026493470,-0.01155,-0.0026125,0.0796125
1680020367673,1200356028995932,-0.0105875,-0.0015125,0.0807125
1680020367677,1200356031498157,-0.0105875,-5.5E-4,0.07865
1680020367680,1200356034000542,-0.01155,-0.0015125,0.0807125
1680020367682,1200356036502696,-0.0125124995,0.001375,0.0826375
1680020367683,1200356039004927,-0.0105875,-0.003575,0.086625
1680020367686,1200356041507311,-0.0105875,-0.003575,0.0856625
1680020367688,1200356044009537,-0.013475,-0.0015125,0.0847
1680020367691,1200356046511999,-0.0105875,-0.0045375,0.0807125
1680020367693,1200356049014383,-0.0125124995,-0.0026125,0.0807125
1680020367696,1200356051516614,-0.0125124995,-0.0045375,0.0807125
1680020367699,1200356054018778,-0.0155375,-5.5E-4,0.0807125
1680020367701,1200356056521163,-0.0185625,-0.0026125,0.0776875
1680020367703,1200356059023393,-0.0155375,-0.0056375,0.0796125
1680020367706,1200356061525855,-0.0174625,-0.0056375,0.0796125
1680020367708,1200356064028239,-0.0174625,-0.003575,0.0807125
1680020367711,1200356066530513,-0.0155375,-0.0045375,0.0847
1680020367716,1200356069032667,-0.0204875,-0.003575,0.0826375
1680020367719,1200356071535052,-0.0185625,-0.0045375,0.0807125
1680020367720,1200356074037282,-0.0185625,-0.0015125,0.081675
1680020367721,1200356076539734,-0.0165,-0.003575,0.0796125
1680020367723,1200356079042119,-0.0185625,-0.0056375,0.075625
1680020367726,1200356081544349,-0.0185625,-0.0045375,0.0746625
1680020367729,1200356084046503,-0.0204875,-0.0075625,0.0746625
1680020367731,1200356086548888,-0.019524999,-0.008525,0.0716375
1680020367734,1200356089051143,-0.019524999,-0.013612499,0.0726
1680020367736,1200356091553604,-0.0174625,-0.0166375,0.0726
1680020367739,1200356094055989,-0.019524999,-0.0166375,0.0666875
1680020367741,1200356096558220,-0.0204875,-0.0215875,0.064625
1680020367744,1200356099060599,-0.0174625,-0.0215875,0.0636625
1680020367746,1200356101562753,-0.0165,-0.0235125,0.0627
1680020367749,1200356104064984,-0.0185625,-0.0235125,0.0576125
1680020367752,1200356106567445,-0.019524999,-0.0246125,0.0587125
1680020367754,1200356109069840,-0.019524999,-0.0286,0.056649998
1680020367756,1200356111571994,-0.0165,-0.0276375,0.056649998
1680020367759,1200356114074225,-0.0165,-0.0265375,0.054725
1680020367761,1200356116576609,-0.0155375,-0.0246125,0.048675
1680020367763,1200356119078840,-0.0174625,-0.0246125,0.0496375
1680020367766,1200356121581239,-0.0185625,-0.025575,0.0517
1680020367768,1200356124083700,-0.019524999,-0.0246125,0.0496375
1680020367771,1200356126585931,-0.0185625,-0.0155375,0.0477125
1680020367773,1200356129088316,-0.0215875,-0.0166375,0.0526625
1680020367776,1200356131590455,-0.0215875,-0.013612499,0.048675
1680020367779,1200356134092686,-0.0174625,-0.0105875,0.0517
1680020367781,1200356136595071,-0.019524999,-0.01155,0.048675
1680020367784,1200356139097532,-0.0185625,-0.0075625,0.048675
1680020367786,1200356141599763,-0.02255,-0.003575,0.0526625
1680020367790,1200356144102153,-0.02255,-0.0056375,0.048675
1680020367792,1200356146604384,-0.019524999,-0.0066,0.0496375
1680020367794,1200356149106537,-0.02255,-0.0045375,0.0477125
1680020367796,1200356151608922,-0.024475,-5.5E-4,0.048675
1680020367798,1200356154111374,-0.0265375,0.0053625,0.0556875
1680020367801,1200356156613604,-0.025575,0.0053625,0.053625
1680020367803,1200356159115989,-0.0265375,-5.5E-4,0.0556875
1680020367806,1200356161618143,-0.0284625,0.0034375,0.0556875
1680020367809,1200356164120388,-0.0314875,0.0034375,0.054725
1680020367811,1200356166622772,-0.0284625,0.001375,0.053625
1680020367814,1200356169125234,-0.024475,0.007425,0.053625
1680020367816,1200356171627465,-0.0314875,0.012375,0.056649998
1680020367819,1200356174129850,-0.03355,0.01045,0.0526625
1680020367821,1200356176632081,-0.0325875,0.007425,0.0517
1680020367823,1200356179134235,-0.0325875,0.01045,0.0517
1680020367828,1200356181636628,-0.0375375,0.012375,0.048675
1680020367830,1200356184139090,-0.036575,0.0064625,0.0496375
1680020367832,1200356186641321,-0.0375375,0.0044,0.0496375
1680020367833,1200356189143475,-0.0405625,0.0064625,0.0526625
1680020367836,1200356191645936,-0.0394625,0.0053625,0.0556875
1680020367839,1200356194148085,-0.041525,4.125E-4,0.054725
1680020367841,1200356196650470,-0.041525,4.125E-4,0.0517
1680020367843,1200356199152700,-0.0394625,4.125E-4,0.0477125
1680020367846,1200356201655162,-0.0394625,-0.0015125,0.0477125
1680020367849,1200356204157533,-0.0385,-0.0026125,0.048675
1680020367851,1200356206659763,-0.0424875,-0.0056375,0.0466125
1680020367853,1200356209161917,-0.0405625,-0.003575,0.0446875
1680020367856,1200356211664302,-0.04455,-0.0015125,0.0477125
1680020367860,1200356214166523,-0.0455125,-0.0045375,0.045649998
1680020367861,1200356216668984,-0.0435875,-0.0015125,0.042625
1680020367865,1200356219171369,-0.0435875,-5.5E-4,0.043725
1680020367868,1200356221673600,-0.0424875,-5.5E-4,0.0446875
1680020367869,1200356224175975,-0.0405625,0.002475,0.042625
1680020367874,1200356226678129,-0.0405625,0.0034375,0.043725
1680020367874,1200356229180360,-0.04455,0.01045,0.0446875
1680020367876,1200356231682821,-0.0385,0.0114124995,0.048675
1680020367879,1200356234185206,-0.03355,0.013475,0.0526625
1680020367881,1200356236687340,-0.030524999,0.0144375,0.0576125
1680020367884,1200356239189571,-0.025575,0.012375,0.0576125
1680020367886,1200356241691955,-0.02255,0.0083875,0.059675
1680020367888,1200356244194186,-0.019524999,0.0064625,0.0627
1680020367891,1200356246696676,-0.014575,0.0064625,0.064625
1680020367894,1200356249199061,-0.0075625,0.0053625,0.064625
1680020367897,1200356251701292,-0.0045375,0.0034375,0.0636625
1680020367899,1200356254203446,-0.0055,4.125E-4,0.0616
1680020367903,1200356256705907,-0.003575,-0.0045375,0.0606375
1680020367905,1200356259208292,0.0015125,-0.0105875,0.054725
1680020367907,1200356261710523,0.008525,-0.013612499,0.048675
1680020367909,1200356264212677,0.0064625,-0.0176,0.045649998
1680020367911,1200356266715061,0.0064625,-0.0246125,0.0416625
1680020367914,1200356269217297,0.008525,-0.0276375,0.037675
1680020367916,1200356271719682,0.008525,-0.0265375,0.0306625
1680020367920,1200356274221912,0.0094875,-0.0325875,0.026675
1680020367922,1200356276724297,0.01045,-0.0375375,0.015675
1680020367923,1200356279226523,0.0125124995,-0.0466125,0.0116875
1680020367926,1200356281728907,0.018424999,-0.0496375,0.0056375
1680020367929,1200356284231138,0.018424999,-0.0506,-2.75E-4
1680020367931,1200356286733523,0.019524999,-0.0466125,-0.0053625
1680020367933,1200356289235999,0.019524999,-0.047575,-0.0133375
1680020367936,1200356291738230,0.0235125,-0.0496375,-0.0182875
1680020367941,1200356294240384,0.029424999,-0.047575,-0.028324999
1680020367943,1200356296742769,0.032449998,-0.0466125,-0.028324999
1680020367945,1200356299244989,0.035475,-0.042625,-0.0292875
1680020367948,1200356301747374,0.0364375,-0.041525,-0.0363
1680020367950,1200356304249835,0.0424875,-0.0466125,-0.039325
1680020367952,1200356306752066,0.0444125,-0.04455,-0.044275
1680020367953,1200356309254451,0.0455125,-0.042625,-0.0523875
1680020367956,1200356311756586,0.0455125,-0.04455,-0.0543125
1680020367958,1200356314258817,0.046475,-0.04455,-0.056375
1680020367961,1200356316761201,0.046475,-0.041525,-0.0594
1680020367963,1200356319263663,0.0444125,-0.0386375,-0.0594
1680020367966,1200356321765822,0.041525,-0.0375375,-0.0594
1680020367968,1200356324268052,0.0375375,-0.0405625,-0.061325
1680020367971,1200356326770437,0.035475,-0.0375375,-0.0603625
1680020367974,1200356329272668,0.0345125,-0.031625,-0.056375
1680020367978,1200356331775033,0.032449998,-0.031625,-0.0543125
1680020367981,1200356334277495,0.0254375,-0.025575,-0.055275
1680020367983,1200356336779726,0.024475,-0.0235125,-0.0543125
1680020367985,1200356339282110,0.0224125,-0.020624999,-0.050325
1680020367987,1200356341784264,0.0204875,-0.0155375,-0.0463375
1680020367989,1200356344286495,0.0204875,-0.009625,-0.045375
1680020367991,1200356346788880,0.0165,-0.003575,-0.044275
1680020367993,1200356349291110,0.0174625,-0.0015125,-0.039325
1680020367997,1200356351793495,0.018424999,4.125E-4,-0.04235
1680020367999,1200356354295711,0.013475,0.012375,-0.0413875
1680020368001,1200356356798095,0.0125124995,0.012375,-0.0413875
1680020368004,1200356359300326,0.013475,0.0174625,-0.039325
1680020368006,1200356361802711,0.0125124995,0.0254375,-0.0383625
1680020368008,1200356364304941,0.008525,0.0284625,-0.0374
1680020368011,1200356366807394,0.007425,0.0314875,-0.0383625
1680020368015,1200356369309779,0.0114124995,0.0364375,-0.0353375
1680020368018,1200356371811932,0.0094875,0.0383625,-0.034375
1680020368020,1200356374314182,0.0114124995,0.0374,-0.0303875
1680020368022,1200356376816567,0.013475,0.035475,-0.033275
1680020368024,1200356379318798,0.012375,0.0383625,-0.034375
1680020368026,1200356381821259,0.0094875,0.032449998,-0.033275
1680020368028,1200356384323644,0.0094875,0.029424999,-0.0303875
1680020368031,1200356386825889,0.0094875,0.0303875,-0.0292875
1680020368034,1200356389328042,0.007425,0.029424999,-0.0264
1680020368036,1200356391830427,0.0064625,0.0303875,-0.0213125
1680020368039,1200356394332658,0.0055,0.032449998,-0.017324999
1680020368041,1200356396835148,0.0044,0.034375,-0.0133375
1680020368044,1200356399337302,0.0055,0.032449998,-0.00935
1680020368047,1200356401839687,0.0044,0.03135,-0.0103124995
1680020368049,1200356404341918,0.0064625,0.0303875,-0.0103124995
1680020368053,1200356406844312,0.0094875,0.024475,-0.0103124995
1680020368054,1200356409346543,0.012375,0.0284625,-0.011275
1680020368057,1200356411849005,0.012375,0.02145,-0.0133375
1680020368060,1200356414351389,0.0114124995,0.0163625,-0.0163625
1680020368062,1200356416853620,0.0154,0.0154,-0.0182875
1680020368064,1200356419355759,0.0174625,0.0083875,-0.0213125
1680020368066,1200356421858143,0.0193875,-5.5E-4,-0.0243375
1680020368069,1200356424360374,0.02145,-0.0056375,-0.028324999
1680020368071,1200356426862759,0.023375,-0.013612499,-0.0303875
1680020368074,1200356429364990,0.0204875,-0.014575,-0.033275
1680020368076,1200356431867369,0.023375,-0.0185625,-0.034375
1680020368079,1200356434369600,0.0254375,-0.0215875,-0.0383625
1680020368081,1200356436871985,0.0264,-0.0265375,-0.0374
1680020368084,1200356439374215,0.0284625,-0.0356125,-0.0374
1680020368086,1200356441876591,0.0275,-0.0356125,-0.0402875
1680020368090,1200356444379053,0.029424999,-0.042625,-0.044275
1680020368092,1200356446881206,0.0314875,-0.047575,-0.0463375
1680020368094,1200356449383441,0.034375,-0.0515625,-0.04235
1680020368096,1200356451885826,0.034375,-0.058575,-0.0463375
1680020368099,1200356454388057,0.0334125,-0.0616,-0.050325
1680020368101,1200356456890441,0.035475,-0.0616,-0.0512875
1680020368104,1200356459392888,0.034375,-0.064625,-0.050325
1680020368106,1200356461895119,0.0314875,-0.0625625,-0.0463375
1680020368109,1200356464397503,0.032449998,-0.0606375,-0.050325
1680020368111,1200356466899657,0.0314875,-0.056649998,-0.0493625
1680020368114,1200356469401888,0.0264,-0.052525,-0.0463375
1680020368116,1200356471904277,0.0254375,-0.045649998,-0.0463375
1680020368119,1200356474406739,0.02145,-0.034649998,-0.0433125
1680020368121,1200356476908893,0.018424999,-0.02365,-0.0413875
1680020368124,1200356479411124,0.012375,-0.01155,-0.0413875
1680020368128,1200356481913527,0.0094875,-0.00165,-0.0374
1680020368130,1200356484415758,0.007425,0.0083875,-0.0363
1680020368132,1200356486918143,0.001375,0.02145,-0.0353375
1680020368134,1200356489420373,4.125E-4,0.034375,-0.034375
1680020368136,1200356491922835,-5.5E-4,0.0484,-0.0323125
1680020368140,1200356494424994,-0.003575,0.0633875,-0.034375
1680020368141,1200356496927378,-0.0066,0.0724625,-0.033275
1680020368144,1200356499429609,-0.008525,0.0814,-0.0353375
1680020368147,1200356501931994,-0.0075625,0.0933625,-0.0374
1680020368149,1200356504434148,-0.008525,0.101475,-0.0402875
1680020368151,1200356506936705,-0.009625,0.112475,-0.0402875
1680020368154,1200356509438859,-0.0125124995,0.1214125,-0.0413875
1680020368156,1200356511941244,-0.0125124995,0.128425,-0.04235
1680020368159,1200356514443474,-0.013612499,0.134475,-0.0433125
1680020368161,1200356516945854,-0.0165,0.1373625,-0.0484
1680020368165,1200356519448085,-0.019524999,0.1384625,-0.0463375
1680020368168,1200356521950546,-0.019524999,0.1403875,-0.0484
1680020368170,1200356524452700,-0.019524999,0.1384625,-0.0512875
1680020368171,1200356526955071,-0.019524999,0.134475,-0.0543125
1680020368174,1200356529457302,-0.02255,0.134475,-0.055275
1680020368177,1200356531959686,-0.0235125,0.133375,-0.05335
1680020368180,1200356534461917,-0.0235125,0.1274625,-0.0543125
1680020368182,1200356536964392,-0.02255,0.11935,-0.055275
1680020368184,1200356539466777,-0.0275,0.10835,-0.0573375
1680020368186,1200356541969008,-0.0295625,0.1043625,-0.055275
1680020368189,1200356544471162,-0.0286,0.095425,-0.056375
1680020368191,1200356546973527,-0.0246125,0.0823625,-0.0603625
1680020368194,1200356549475758,-0.0246125,0.0774125,-0.0594
1680020368196,1200356551978143,-0.025575,0.067375,-0.0583
1680020368199,1200356554480374,-0.0265375,0.0603625,-0.0583
1680020368203,1200356556982748,-0.025575,0.0493625,-0.0594
1680020368204,1200356559484979,-0.025575,0.0383625,-0.056375
1680020368207,1200356561987364,-0.0235125,0.0303875,-0.0594
1680020368209,1200356564489594,-0.02255,0.0193875,-0.0622875
1680020368211,1200356566991979,-0.0235125,0.0083875,-0.0622875
1680020368214,1200356569494426,-0.0246125,-5.5E-4,-0.0633875
1680020368217,1200356571996580,-0.0275,-0.0066,-0.0622875
1680020368220,1200356574498811,-0.0265375,-0.013612499,-0.0633875
1680020368221,1200356577001196,-0.0246125,-0.025575,-0.066275
1680020368223,1200356579503422,-0.0235125,-0.031625,-0.066275
1680020368227,1200356582005806,-0.02255,-0.0356125,-0.0633875
1680020368229,1200356584508037,-0.02255,-0.0375375,-0.067375
1680020368231,1200356587010422,-0.0246125,-0.041525,-0.066275
1680020368233,1200356589512652,-0.0265375,-0.041525,-0.0622875
1680020368237,1200356592015052,-0.0265375,-0.0386375,-0.0603625
1680020368240,1200356594517283,-0.0286,-0.0325875,-0.0573375
1680020368242,1200356597019667,-0.031625,-0.034649998,-0.0523875
1680020368245,1200356599521898,-0.031625,-0.0246125,-0.0463375
1680020368248,1200356602024283,-0.0356125,-0.019524999,-0.04235
1680020368250,1200356604526514,-0.0356125,-0.0075625,-0.0323125
1680020368252,1200356607028898,-0.0375375,-0.00165,-0.0292875
1680020368254,1200356609531129,-0.0375375,0.0114124995,-0.0163625
1680020368256,1200356612033513,-0.0385,0.018424999,-0.0083875
1680020368260,1200356614535974,-0.0396,0.0303875,-0.0044
1680020368262,1200356617038205,-0.042625,0.040425,6.875E-4
1680020368264,1200356619540359,-0.0405625,0.0484,0.0056375
1680020368267,1200356622042734,-0.0396,0.0603625,0.0116875
1680020368269,1200356624544965,-0.042625,0.06435,0.0187
1680020368271,1200356627047350,-0.041525,0.06545,0.021724999
1680020368274,1200356629549580,-0.0405625,0.0704,0.0246125
1680020368279,1200356632051971,-0.0405625,0.079475,0.0286
1680020368281,1200356634554202,-0.0405625,0.078375,0.0306625
1680020368282,1200356637056587,-0.041525,0.0804375,0.0336875
1680020368284,1200356639558817,-0.036575,0.0804375,0.0336875
1680020368287,1200356642061202,-0.0375375,0.0774125,0.031625
1680020368289,1200356644563452,-0.0356125,0.079475,0.0297
1680020368293,1200356647065836,-0.03355,0.07645,0.0306625
1680020368294,1200356649568067,-0.0325875,0.073425,0.0306625
1680020368298,1200356652070452,-0.030524999,0.0724625,0.031625
1680020368300,1200356654572696,-0.031625,0.0743875,0.0297
1680020368302,1200356657075081,-0.031625,0.0664125,0.0297
1680020368304,1200356659577312,-0.0295625,0.06435,0.0286
1680020368307,1200356662079773,-0.0246125,0.057475,0.02365
1680020368309,1200356664582158,-0.0215875,0.054449998,0.0257125
1680020368311,1200356667084288,-0.02255,0.0484,0.026675
1680020368316,1200356669586519,-0.02255,0.0484,0.021724999
1680020368324,1200356672088903,-0.020624999,0.0413875,0.0196625
1680020368324,1200356674591134,-0.019524999,0.035475,0.0187
1680020368324,1200356677093519,-0.0185625,0.03135,0.013612499
1680020368324,1200356679595749,-0.0185625,0.03135,0.013612499
1680020368327,1200356682098134,-0.0176,0.0273625,0.013612499
1680020368329,1200356684600365,-0.019524999,0.018424999,0.0086624995
1680020368331,1200356687102749,-0.0185625,0.0154,0.0086624995
1680020368334,1200356689604985,-0.013612499,0.0174625,0.009625
1680020368337,1200356692107447,-0.0155375,0.012375,0.0086624995
1680020368340,1200356694609831,-0.0176,0.007425,0.0086624995
1680020368342,1200356697111985,-0.0155375,0.002475,0.0066
1680020368344,1200356699614245,-0.0155375,-5.5E-4,0.0037125
1680020368347,1200356702116630,-0.0155375,-0.0045375,0.0037125
1680020368350,1200356704618784,-0.013612499,-0.008525,0.004675
1680020368353,1200356707121014,-0.0155375,-0.01155,0.0056375
1680020368355,1200356709623480,-0.0165,-0.0045375,0.0056375
1680020368357,1200356712125864,-0.0125124995,-0.0026125,0.0077
1680020368359,1200356714628095,-0.014575,-0.003575,0.009625
1680020368361,1200356717130480,-0.013612499,-5.5E-4,0.0116875
1680020368364,1200356719632711,-0.01155,-0.003575,0.01265
1680020368368,1200356722135114,-0.01155,4.125E-4,0.015675
1680020368369,1200356724637345,-0.0105875,-0.00165,0.0166375
1680020368371,1200356727139730,-0.01155,-0.0026125,0.0196625
1680020368377,1200356729641960,-0.0105875,-0.0056375,0.0187
1680020368379,1200356732144345,-0.0075625,-0.0105875,0.0166375
1680020368380,1200356734646576,-0.009625,-0.01155,0.015675
1680020368383,1200356737148960,-0.008525,-0.0105875,0.020624999
1680020368384,1200356739651422,-0.0075625,-0.0166375,0.021724999
1680020368387,1200356742153653,-0.0055,-0.0166375,0.02365
1680020368391,1200356744655821,-0.0015125,-0.0176,0.0226875
1680020368393,1200356747158205,4.125E-4,-0.019524999,0.020624999
1680020368394,1200356749660436,0.001375,-0.02365,0.0226875
1680020368398,1200356752162821,0.0044,-0.0265375,0.026675
1680020368399,1200356754665065,0.007425,-0.02365,0.026675
1680020368402,1200356757167450,0.0094875,-0.0215875,0.0286
1680020368404,1200356759669681,0.0165,-0.02365,0.031625
1680020368407,1200356762172065,0.0193875,-0.019524999,0.0336875
1680020368409,1200356764674282,0.018424999,-0.0155375,0.043725
1680020368411,1200356767176667,0.018424999,-0.0176,0.0466125
1680020368414,1200356769679128,0.0174625,-0.0155375,0.048675
1680020368417,1200356772181282,0.0193875,-0.0155375,0.053625
1680020368420,1200356774683513,0.0174625,-0.0166375,0.054725
1680020368422,1200356777185898,0.012375,-0.013612499,0.0587125
1680020368424,1200356779688128,0.012375,-0.01155,0.059675
1680020368430,1200356782190527,0.0094875,-0.01265,0.0576125
1680020368431,1200356784692758,0.0034375,-0.0105875,0.056649998
1680020368433,1200356787195142,-0.003575,-0.014575,0.0556875
1680020368435,1200356789697373,-0.0075625,-0.013612499,0.0526625
1680020368438,1200356792199758,-0.0105875,-0.009625,0.053625
1680020368440,1200356794701989,-0.0125124995,-0.0045375,0.0477125
1680020368442,1200356797204373,-0.013612499,-0.0045375,0.0446875
1680020368445,1200356799706604,-0.020624999,-0.0056375,0.045649998
1680020368448,1200356802208989,-0.0215875,-0.003575,0.0407
1680020368450,1200356804711219,-0.0275,-0.00165,0.037675
1680020368452,1200356807213604,-0.0356125,0.0044,0.0356125
1680020368454,1200356809715835,-0.0356125,0.0064625,0.0306625
1680020368459,1200356812218219,-0.036575,0.007425,0.0257125
1680020368461,1200356814720436,-0.0385,0.0144375,0.0226875
1680020368462,1200356817222898,-0.0405625,0.0144375,0.0187
1680020368466,1200356819725052,-0.042625,0.018424999,0.013612499
1680020368468,1200356822227436,-0.0485375,0.024475,0.010725
1680020368470,1200356824729667,-0.0455125,0.0273625,0.0086624995
1680020368472,1200356827232033,-0.0455125,0.029424999,0.0066
1680020368474,1200356829734263,-0.052525,0.035475,0.0037125
1680020368479,1200356832236725,-0.0576125,0.0374,0.00165
1680020368481,1200356834738879,-0.0595375,0.0374,-0.0033
1680020368482,1200356837241272,-0.0595375,0.0364375,-0.006325
1680020368484,1200356839743503,-0.058575,0.0374,-0.0044
1680020368489,1200356842245965,-0.0625625,0.0374,-0.0072875
1680020368491,1200356844748119,-0.063525,0.0383625,-0.0103124995
1680020368492,1200356847250503,-0.063525,0.0364375,-0.011275
1680020368495,1200356849752734,-0.064625,0.035475,-0.0154
1680020368499,1200356852255119,-0.063525,0.0374,-0.0133375
1680020368501,1200356854757349,-0.0605,0.034375,-0.012375
1680020368504,1200356857259797,-0.0625625,0.0303875,-0.0154
1680020368506,1200356859762181,-0.0595375,0.0303875,-0.0193875
1680020368509,1200356862264412,-0.0605,0.0273625,-0.02035
1680020368510,1200356864766566,-0.0616,0.023375,-0.02035
1680020368512,1200356867268951,-0.0605,0.0273625,-0.0193875
1680020368515,1200356869771168,-0.0605,0.023375,-0.0193875
1680020368519,1200356872273321,-0.0616,0.024475,-0.017324999
1680020368522,1200356874775783,-0.0616,0.0303875,-0.017324999
1680020368524,1200356877278168,-0.063525,0.0224125,-0.0163625
1680020368525,1200356879780388,-0.0616,0.0224125,-0.0163625
1680020368528,1200356882282773,-0.0625625,0.0193875,-0.0133375
1680020368531,1200356884785004,-0.0625625,0.0224125,-0.0103124995
1680020368533,1200356887287388,-0.0605,0.0254375,-0.0103124995
1680020368534,1200356889789846,-0.063525,0.0204875,-0.0072875
1680020368538,1200356892292000,-0.063525,0.0273625,-0.0023375
1680020368542,1200356894794231,-0.0625625,0.0303875,-2.75E-4
1680020368545,1200356897296615,-0.0644875,0.032449998,-2.75E-4
1680020368547,1200356899798841,-0.0625625,0.0334125,0.0037125
1680020368557,1200356902301226,-0.058575,0.0303875,0.0056375
1680020368557,1200356904803687,-0.0625625,0.035475,0.0066
1680020368557,1200356907305841,-0.0625625,0.0413875,0.0066
1680020368557,1200356909808072,-0.063525,0.0413875,0.0116875
1680020368558,1200356912310437,-0.063525,0.0444125,0.014712499
1680020368560,1200356914812668,-0.0605,0.0484,0.0116875
1680020368562,1200356917315053,-0.0605,0.0474375,0.01265
1680020368564,1200356919817283,-0.0595375,0.046475,0.01265
1680020368567,1200356922319648,-0.0605,0.043449998,0.014712499
1680020368569,1200356924821879,-0.0625625,0.045375,0.0166375
1680020368572,1200356927324264,-0.063525,0.0493625,0.0166375
1680020368574,1200356929826494,-0.058575,0.0493625,0.013612499
1680020368579,1200356932328865,-0.057475,0.0484,0.013612499
1680020368582,1200356934831096,-0.058575,0.0484,0.014712499
1680020368583,1200356937333557,-0.0545875,0.0504625,0.0166375
1680020368585,1200356939835711,-0.0534875,0.0504625,0.015675
1680020368588,1200356942338096,-0.052525,0.0493625,0.014712499
1680020368590,1200356944840312,-0.0495,0.0474375,0.013612499
1680020368593,1200356947342697,-0.0506,0.046475,0.010725
1680020368595,1200356949844851,-0.0485375,0.0444125,0.009625
1680020368598,1200356952347312,-0.047575,0.0374,0.0086624995
1680020368599,1200356954849543,-0.0485375,0.035475,0.010725
1680020368602,1200356957351913,-0.0455125,0.0383625,0.010725
1680020368604,1200356959854144,-0.046475,0.0374,0.0066
1680020368608,1200356962356528,-0.0495,0.034375,0.0066
1680020368610,1200356964858759,-0.0495,0.034375,0.0066
1680020368612,1200356967361134,-0.047575,0.0314875,0.009625
1680020368616,1200356969863364,-0.0485375,0.0334125,0.009625
1680020368619,1200356972365749,-0.0485375,0.0254375,0.0086624995
1680020368621,1200356974867980,-0.047575,0.0273625,0.013612499
1680020368623,1200356977370374,-0.0506,0.0254375,0.0116875
1680020368625,1200356979872605,-0.047575,0.02145,0.01265
1680020368628,1200356982375067,-0.046475,0.02145,0.015675
1680020368630,1200356984877221,-0.0455125,0.0273625,0.020624999
1680020368631,1200356987379605,-0.0506,0.0224125,0.021724999
1680020368635,1200356989881846,-0.0506,0.024475,0.020624999
1680020368638,1200356992384231,-0.0495,0.0284625,0.0246125
1680020368639,1200356994886461,-0.0506,0.0254375,0.0246125
1680020368642,1200356997388846,-0.0534875,0.0284625,0.0257125
1680020368645,1200356999891072,-0.0534875,0.0303875,0.026675
1680020368648,1200357002393456,-0.0506,0.0284625,0.0297
1680020368650,1200357004895687,-0.05555,0.032449998,0.0286
1680020368653,1200357007398072,-0.0545875,0.035475,0.0286
1680020368656,1200357009900288,-0.0534875,0.035475,0.0297
1680020368659,1200357012402672,-0.0545875,0.0364375,0.0306625
1680020368661,1200357014905134,-0.0534875,0.0394625,0.0286
1680020368663,1200357017407288,-0.0506,0.043449998,0.0276375
1680020368665,1200357019909518,-0.0506,0.043449998,0.0286
1680020368668,1200357022411903,-0.052525,0.0444125,0.0297
1680020368669,1200357024914134,-0.0495,0.043449998,0.0306625
1680020368672,1200357027416288,-0.0485375,0.0444125,0.0276375
1680020368675,1200357029918749,-0.0455125,0.040425,0.0286
1680020368677,1200357032421129,-0.046475,0.0444125,0.0297
1680020368679,1200357034923360,-0.0424875,0.0444125,0.0306625
1680020368682,1200357037425744,-0.0385,0.045375,0.0356125
1680020368684,1200357039927975,-0.0385,0.045375,0.0367125
1680020368688,1200357042430356,-0.0385,0.0484,0.0336875
1680020368691,1200357044932586,-0.035475,0.0484,0.0356125
1680020368693,1200357047434971,-0.03355,0.0474375,0.037675
1680020368694,1200357049937202,-0.0314875,0.0523875,0.0396
1680020368698,1200357052439586,-0.030524999,0.0504625,0.0396
1680020368700,1200357054941817,-0.030524999,0.0504625,0.0396
1680020368702,1200357057444202,-0.0286,0.046475,0.0396
1680020368704,1200357059946663,-0.0286,0.0484,0.0386375
1680020368707,1200357062448884,-0.0286,0.0474375,0.0396
1680020368709,1200357064951038,-0.0286,0.043449998,0.0367125
1680020368712,1200357067453423,-0.0286,0.040425,0.0336875
1680020368714,1200357069955653,-0.025575,0.040425,0.0356125
1680020368718,1200357072458072,-0.0235125,0.043449998,0.0336875
1680020368719,1200357074960303,-0.024475,0.0374,0.032725
1680020368722,1200357077462687,-0.0265375,0.034375,0.0306625
1680020368724,1200357079964918,-0.0235125,0.0314875,0.0297
1680020368729,1200357082467298,-0.0215875,0.032449998,0.0276375
1680020368731,1200357084969529,-0.0215875,0.029424999,0.0286
1680020368732,1200357087471913,-0.0204875,0.0254375,0.0286
1680020368734,1200357089974144,-0.0165,0.0284625,0.026675
1680020368737,1200357092476529,-0.0185625,0.029424999,0.0226875
1680020368740,1200357094978763,-0.0176,0.023375,0.0226875
1680020368742,1200357097481148,-0.019524999,0.0224125,0.02365
1680020368744,1200357099983379,-0.0165,0.024475,0.0257125
1680020368748,1200357102485763,-0.0176,0.0284625,0.0226875
1680020368749,1200357104987917,-0.0176,0.0303875,0.02365
1680020368752,1200357107490461,-0.0155375,0.029424999,0.0226875
1680020368754,1200357109992615,-0.0185625,0.029424999,0.0196625
1680020368757,1200357112494999,-0.0176,0.0334125,0.021724999
1680020368759,1200357114997230,-0.0165,0.034375,0.021724999
1680020368762,1200357117499630,-0.019524999,0.032449998,0.0187
1680020368766,1200357120001860,-0.0176,0.032449998,0.015675
1680020368768,1200357122504245,-0.0204875,0.0334125,0.0196625
1680020368770,1200357125006476,-0.019524999,0.035475,0.0187
1680020368772,1200357127508860,-0.0204875,0.034375,0.020624999
1680020368774,1200357130011091,-0.024475,0.035475,0.0166375
1680020368778,1200357132513476,-0.024475,0.0334125,0.0166375
1680020368780,1200357135015707,-0.0235125,0.035475,0.0166375
1680020368782,1200357137518168,-0.024475,0.0374,0.015675
1680020368784,1200357140020341,-0.024475,0.034375,0.0116875
1680020368788,1200357142522726,-0.0235125,0.032449998,0.01265
1680020368790,1200357145024956,-0.0215875,0.0314875,0.0116875
1680020368792,1200357147527341,-0.02255,0.0303875,0.010725
1680020368794,1200357150029485,-0.0235125,0.029424999,0.0116875
1680020368798,1200357152531716,-0.024475,0.0314875,0.009625
1680020368799,1200357155034177,-0.0275,0.0314875,0.0086624995
1680020368803,1200357157536562,-0.0275,0.032449998,0.009625
1680020368805,1200357160038788,-0.0265375,0.0284625,0.010725
1680020368808,1200357162541172,-0.025575,0.0224125,0.0086624995
1680020368809,1200357165043403,-0.024475,0.0154,0.0026125
1680020368811,1200357167545788,-0.024475,0.013475,6.875E-4
1680020368815,1200357170048018,-0.025575,0.01045,0.0056375
1680020368818,1200357172550422,-0.0215875,0.0064625,0.0037125
1680020368820,1200357175052653,-0.0204875,-0.0026125,-0.0023375
1680020368822,1200357177555037,-0.024475,-0.008525,-0.0044
1680020368824,1200357180057268,-0.02255,-0.0105875,-2.75E-4
1680020368828,1200357182559451,-0.0235125,-0.0125124995,-0.0023375
1680020368829,1200357185061912,-0.0215875,-0.0166375,-0.0083875
1680020368832,1200357187564297,-0.0204875,-0.0215875,-0.006325
1680020368835,1200357190066528,-0.02255,-0.030524999,-0.00935
1680020368837,1200357192568913,-0.0215875,-0.0325875,-0.006325
1680020368841,1200357195071143,-0.02255,-0.030524999,-0.0044
1680020368843,1200357197573297,-0.0185625,-0.031625,-0.0044
1680020368845,1200357200075759,-0.02255,-0.0325875,-0.0053625
1680020368849,1200357202578163,-0.0235125,-0.0345125,-0.0044
1680020368851,1200357205080394,-0.0235125,-0.0356125,6.875E-4
1680020368852,1200357207582779,-0.0215875,-0.036575,0.00165
1680020368854,1200357210085009,-0.0235125,-0.036575,-0.0023375
1680020368858,1200357212587394,-0.02255,-0.0405625,0.00165
1680020368860,1200357215089874,-0.0235125,-0.041525,0.0056375
1680020368862,1200357217592028,-0.0275,-0.042625,0.0026125
1680020368864,1200357220094258,-0.0286,-0.04455,-0.001375
1680020368868,1200357222596643,-0.0265375,-0.0455125,-0.001375
1680020368870,1200357225098874,-0.0275,-0.04455,6.875E-4
1680020368872,1200357227601267,-0.0286,-0.042625,0.004675
1680020368874,1200357230103421,-0.030524999,-0.041525,0.0066
1680020368880,1200357232605883,-0.0314875,-0.041525,0.0026125
1680020368881,1200357235108113,-0.030524999,-0.041525,-2.75E-4
1680020368882,1200357237610513,-0.030524999,-0.0455125,-0.0033
1680020368884,1200357240112744,-0.0265375,-0.04455,-0.0053625
1680020368887,1200357242615128,-0.0265375,-0.0496375,-0.0072875
1680020368889,1200357245117282,-0.025575,-0.0506,-0.00935
1680020368892,1200357247619744,-0.0265375,-0.047575,-0.0083875
1680020368894,1200357250121956,-0.0295625,-0.0515625,-0.012375
1680020368897,1200357252624340,-0.0295625,-0.0515625,-0.0154
1680020368900,1200357255126571,-0.0286,-0.0435875,-0.011275
1680020368902,1200357257628956,-0.0295625,-0.042625,-0.0163625
1680020368904,1200357260131186,-0.0295625,-0.0405625,-0.0193875
1680020368907,1200357262633571,-0.030524999,-0.042625,-0.022275
1680020368910,1200357265135802,-0.0295625,-0.041525,-0.0243375
1680020368912,1200357267638186,-0.0295625,-0.031625,-0.02035
1680020368916,1200357270140403,-0.035475,-0.0325875,-0.023375
1680020368919,1200357272642788,-0.03355,-0.031625,-0.0253
1680020368921,1200357275144942,-0.036575,-0.0295625,-0.0253
1680020368923,1200357277647403,-0.0405625,-0.025575,-0.0243375
1680020368924,1200357280149634,-0.0405625,-0.0185625,-0.0213125
1680020368928,1200357282652028,-0.0385,-0.0155375,-0.0213125
1680020368930,1200357285154258,-0.0405625,-0.0215875,-0.0253
1680020368932,1200357287656643,-0.0424875,-0.0215875,-0.0273625
1680020368934,1200357290158874,-0.041525,-0.0176,-0.0264
1680020368938,1200357292661258,-0.0385,-0.0125124995,-0.023375
1680020368940,1200357295163489,-0.0385,-0.0155375,-0.0253
1680020368942,1200357297665874,-0.0405625,-0.013612499,-0.0253
1680020368945,1200357300168105,-0.0405625,-0.01155,-0.023375
1680020368948,1200357302670503,-0.036575,-0.01155,-0.02035
1680020368950,1200357305172734,-0.0325875,-0.0075625,-0.022275
1680020368954,1200357307674888,-0.03355,-0.0125124995,-0.022275
1680020368955,1200357310177349,-0.035475,-0.0056375,-0.02035
1680020368958,1200357312679734,-0.0325875,-0.003575,-0.0163625
1680020368960,1200357315181965,-0.0295625,-0.009625,-0.0182875
1680020368962,1200357317684349,-0.0265375,-0.0056375,-0.0182875
1680020368965,1200357320186580,-0.0286,-0.0066,-0.0163625
1680020368968,1200357322688734,-0.0265375,-0.0075625,-0.0163625
1680020368970,1200357325191196,-0.02255,-0.0045375,-0.0163625
1680020368972,1200357327693580,-0.0235125,-0.0056375,-0.0154
1680020368974,1200357330195811,-0.02255,-0.003575,-0.0163625
1680020368978,1200357332698201,-0.0204875,-0.003575,-0.017324999
1680020368981,1200357335200431,-0.019524999,-0.0015125,-0.017324999
1680020368982,1200357337702816,-0.0215875,-0.0045375,-0.017324999
1680020368984,1200357340205278,-0.0215875,-0.0075625,-0.0163625
1680020368988,1200357342707421,-0.0204875,-0.0066,-0.0154
1680020368991,1200357345209652,-0.0185625,-0.0045375,-0.0154
1680020368993,1200357347712037,-0.0176,-0.0056375,-0.0133375
1680020368995,1200357350214191,-0.0176,-0.0045375,-0.012375
1680020368998,1200357352716408,-0.0185625,-0.0056375,-0.0154
1680020368999,1200357355218870,-0.0185625,-0.0045375,-0.0163625
1680020369002,1200357357721255,-0.0185625,-0.003575,-0.0163625
1680020369005,1200357360223485,-0.019524999,-0.0045375,-0.0133375
1680020369008,1200357362725870,-0.0185625,-0.0066,-0.0154
1680020369010,1200357365228101,-0.019524999,-0.0056375,-0.0154
1680020369012,1200357367730485,-0.019524999,-0.0026125,-0.011275
1680020369015,1200357370232639,-0.019524999,-0.0015125,-0.0133375
1680020369018,1200357372735101,-0.019524999,-0.0015125,-0.0182875
1680020369021,1200357375237317,-0.019524999,0.001375,-0.0193875
1680020369022,1200357377739701,-0.0215875,0.0044,-0.0193875
1680020369025,1200357380241855,-0.0165,0.0053625,-0.0193875
1680020369029,1200357382744317,-0.0165,0.007425,-0.022275
1680020369031,1200357385246542,-0.0176,0.0083875,-0.017324999
1680020369033,1200357387748927,-0.019524999,0.013475,-0.0193875
1680020369035,1200357390251158,-0.0185625,0.0174625,-0.02035
1680020369038,1200357392753312,-0.0185625,0.0174625,-0.0154
1680020369039,1200357395255696,-0.019524999,0.0224125,-0.0163625
1680020369042,1200357397758139,-0.0176,0.0204875,-0.0163625
1680020369045,1200357400260370,-0.0176,0.02145,-0.012375
1680020369048,1200357402762754,-0.0204875,0.023375,-0.011275
1680020369050,1200357405264985,-0.019524999,0.023375,-0.00935
1680020369052,1200357407767139,-0.0176,0.0284625,-0.0072875
1680020369054,1200357410269538,-0.0176,0.0314875,-0.006325
1680020369058,1200357412772000,-0.019524999,0.029424999,-0.0033
1680020369060,1200357415274231,-0.019524999,0.0284625,6.875E-4
1680020369062,1200357417776385,-0.0235125,0.0314875,0.0037125
1680020369066,1200357420278855,-0.0246125,0.032449998,0.0037125
1680020369069,1200357422781009,-0.0235125,0.0303875,0.004675
1680020369071,1200357425283394,-0.025575,0.029424999,0.0077
1680020369072,1200357427785874,-0.0275,0.0314875,0.009625
1680020369074,1200357430288105,-0.025575,0.034375,0.013612499
1680020369078,1200357432790490,-0.025575,0.0334125,0.014712499
1680020369080,1200357435292720,-0.0265375,0.0364375,0.0187
1680020369082,1200357437794874,-0.030524999,0.0374,0.0187
1680020369085,1200357440297278,-0.0265375,0.0374,0.0166375
1680020369088,1200357442799739,-0.02255,0.0364375,0.0166375
1680020369089,1200357445301970,-0.0265375,0.035475,0.014712499
1680020369092,1200357447804355,-0.0246125,0.032449998,0.015675
1680020369095,1200357450306586,-0.025575,0.0303875,0.0166375
1680020369098,1200357452808970,-0.0235125,0.034375,0.0196625
1680020369100,1200357455311201,-0.0215875,0.0334125,0.014712499
1680020369104,1200357457813355,-0.0204875,0.0364375,0.010725
1680020369106,1200357460315830,-0.0215875,0.032449998,0.009625
1680020369109,1200357462818215,-0.0215875,0.0314875,0.0086624995
1680020369111,1200357465320369,-0.02255,0.029424999,0.0056375
1680020369112,1200357467822600,-0.0185625,0.023375,0.0037125
1680020369115,1200357470324984,-0.0155375,0.0204875,6.875E-4
1680020369118,1200357472827201,-0.019524999,0.0174625,-2.75E-4
1680020369120,1200357475329662,-0.0185625,0.0154,-0.001375
1680020369122,1200357477832047,-0.0165,0.012375,-0.0053625
1680020369125,1200357480334278,-0.0155375,0.0064625,-0.0044
1680020369128,1200357482836672,-0.0155375,0.0044,-0.0053625
1680020369129,1200357485338825,-0.013612499,-5.5E-4,-0.0053625
1680020369132,1200357487841056,-0.0155375,-0.0075625,-0.0083875
1680020369135,1200357490343518,-0.0185625,-0.0066,-0.00935
1680020369138,1200357492845913,-0.0155375,-0.008525,-0.0072875
1680020369142,1200357495348144,-0.014575,-0.0105875,-0.0072875
1680020369144,1200357497850529,-0.013612499,-0.0125124995,-0.0044
1680020369146,1200357500352683,-0.0125124995,-0.013612499,-0.0033
1680020369149,1200357502854898,-0.013612499,-0.0155375,-0.001375
1680020369151,1200357505357360,-0.01155,-0.0166375,-2.75E-4
1680020369152,1200357507859745,-0.0105875,-0.014575,-2.75E-4
1680020369155,1200357510361975,-0.013612499,-0.0155375,6.875E-4
1680020369158,1200357512864129,-0.0105875,-0.014575,0.00165
1680020369160,1200357515366514,-0.0094875,-0.0155375,0.0037125
1680020369162,1200357517868745,-0.0075625,-0.0155375,0.0056375
1680020369165,1200357520371206,-0.0094875,-0.0155375,0.0086624995
1680020369168,1200357522873591,-0.008525,-0.013612499,0.0086624995
1680020369172,1200357525375807,-0.0105875,-0.013612499,0.009625
1680020369174,1200357527878192,-0.0066,-0.0125124995,0.009625
1680020369175,1200357530380423,-0.008525,-0.009625,0.0066
1680020369179,1200357532882577,-0.0055,-0.008525,0.0066
1680020369182,1200357535384966,-0.008525,-0.0105875,0.0086624995
1680020369183,1200357537887428,-0.0105875,-0.0125124995,0.0086624995
1680020369185,1200357540389659,-0.0094875,-0.008525,0.0066
1680020369188,1200357542892043,-0.0075625,-0.0056375,0.0037125
1680020369190,1200357545394211,-0.008525,-0.0045375,0.0077
1680020369192,1200357547896442,-0.0125124995,-0.0026125,0.009625
1680020369194,1200357550398827,-0.014575,4.125E-4,0.014712499
1680020369198,1200357552901288,-0.0125124995,-5.5E-4,0.0196625
1680020369199,1200357555403519,-0.013612499,4.125E-4,0.0196625
1680020369202,1200357557905893,-0.014575,0.0064625,0.0257125
1680020369204,1200357560408124,-0.0165,0.01045,0.0297
1680020369208,1200357562910278,-0.0165,0.0053625,0.0286
1680020369209,1200357565412663,-0.013612499,0.01045,0.0276375
1680020369212,1200357567915153,-0.013612499,0.01045,0.0276375
1680020369216,1200357570417384,-0.014575,0.012375,0.0286
1680020369219,1200357572919769,-0.0155375,0.0114124995,0.0257125
1680020369222,1200357575421923,-0.0125124995,0.012375,0.0257125
1680020369223,1200357577924153,-0.0125124995,0.012375,0.0246125
1680020369225,1200357580426538,-0.0125124995,0.01045,0.020624999
1680020369228,1200357582928999,-0.0155375,0.007425,0.014712499
1680020369230,1200357585431230,-0.0165,0.0083875,0.0116875
1680020369232,1200357587933605,-0.0155375,0.007425,0.010725
1680020369235,1200357590435759,-0.0155375,0.0114124995,0.0056375
1680020369238,1200357592937989,-0.0155375,0.01045,-2.75E-4
1680020369240,1200357595440374,-0.0155375,0.0064625,-2.75E-4
1680020369243,1200357597942610,-0.0165,0.01045,-0.0053625
1680020369245,1200357600445071,-0.0165,0.01045,-0.0133375
1680020369248,1200357602947456,-0.014575,0.0053625,-0.017324999
1680020369250,1200357605449687,-0.0125124995,0.001375,-0.0243375
1680020369254,1200357607952047,-0.0155375,-5.5E-4,-0.0303875
1680020369256,1200357610454201,-0.0176,-0.0045375,-0.0363
1680020369259,1200357612956432,-0.0165,-0.009625,-0.04235
1680020369261,1200357615458894,-0.0155375,-0.0105875,-0.0493625
1680020369265,1200357617961278,-0.0125124995,-0.013612499,-0.0512875
1680020369265,1200357620463442,-0.0155375,-0.0176,-0.05335
1680020369268,1200357622965673,-0.019524999,-0.0235125,-0.056375
1680020369270,1200357625468057,-0.0185625,-0.0235125,-0.05335
1680020369272,1200357627970288,-0.019524999,-0.0265375,-0.0543125
1680020369275,1200357630472750,-0.0215875,-0.0295625,-0.0523875
1680020369278,1200357632975134,-0.0215875,-0.031625,-0.0463375
1680020369280,1200357635477365,-0.0215875,-0.0345125,-0.0433125
1680020369282,1200357637979519,-0.02255,-0.03355,-0.0363
1680020369285,1200357640481908,-0.0246125,-0.03355,-0.0303875
1680020369288,1200357642984138,-0.0246125,-0.0356125,-0.0243375
1680020369291,1200357645486600,-0.0215875,-0.0345125,-0.0182875
1680020369293,1200357647988985,-0.019524999,-0.031625,-0.0103124995
1680020369295,1200357650491211,-0.0204875,-0.0345125,-0.0023375
1680020369298,1200357652993365,-0.0215875,-0.0286,6.875E-4
1680020369300,1200357655495750,-0.0185625,-0.0235125,0.009625
1680020369302,1200357657997981,-0.0185625,-0.0215875,0.0116875
1680020369305,1200357660500442,-0.0204875,-0.0246125,0.010725
1680020369308,1200357663002782,-0.0165,-0.0235125,0.014712499
1680020369310,1200357665504936,-0.0165,-0.025575,0.0187
1680020369313,1200357668007166,-0.0185625,-0.0276375,0.0187
1680020369315,1200357670509551,-0.0185625,-0.0246125,0.0187
1680020369318,1200357673011797,-0.0204875,-0.0185625,0.014712499
1680020369320,1200357675514181,-0.0235125,-0.0185625,0.014712499
1680020369322,1200357678016643,-0.02255,-0.0235125,0.01265
1680020369325,1200357680518874,-0.0215875,-0.025575,0.010725
1680020369329,1200357683021243,-0.0235125,-0.020624999,0.0077
1680020369333,1200357685523397,-0.025575,-0.0235125,0.0056375
1680020369333,1200357688025628,-0.030524999,-0.025575,0.0026125
1680020369334,1200357690528013,-0.030524999,-0.019524999,6.875E-4
1680020369339,1200357693030474,-0.0325875,-0.0185625,-0.0033
1680020369340,1200357695532638,-0.0356125,-0.019524999,-0.0044
1680020369342,1200357698034869,-0.036575,-0.0185625,-0.001375
1680020369345,1200357700537253,-0.0385,-0.020624999,0.004675
1680020369348,1200357703039484,-0.036575,-0.0176,0.0077
1680020369350,1200357705541869,-0.0375375,-0.0155375,0.0086624995
1680020369352,1200357708044325,-0.0385,-0.013612499,0.010725
1680020369354,1200357710546556,-0.03355,-0.0105875,0.01265
1680020369358,1200357713048941,-0.036575,-0.0075625,0.015675
1680020369360,1200357715551095,-0.0356125,-0.0075625,0.015675
1680020369362,1200357718053330,-0.0356125,-0.0056375,0.0166375
1680020369366,1200357720555715,-0.0356125,-0.0056375,0.0226875
1680020369369,1200357723058177,-0.0325875,-0.0045375,0.021724999
1680020369371,1200357725560407,-0.0325875,-0.0045375,0.02365
1680020369372,1200357728062796,-0.0314875,-0.003575,0.02365
1680020369375,1200357730565027,-0.0325875,-5.5E-4,0.020624999
1680020369378,1200357733067181,-0.0325875,-0.0056375,0.0226875
1680020369380,1200357735569565,-0.0325875,-0.0105875,0.0226875
1680020369382,1200357738072027,-0.0314875,-0.0105875,0.0226875
1680020369385,1200357740574230,-0.0275,-0.009625,0.020624999
1680020369388,1200357743076383,-0.0286,-0.01155,0.014712499
1680020369390,1200357745578768,-0.0275,-0.01155,0.01265
1680020369392,1200357748080999,-0.0295625,-0.013612499,0.009625
1680020369395,1200357750583378,-0.0235125,-0.0155375,0.0077
1680020369398,1200357753085609,-0.0215875,-0.0176,0.0026125
1680020369400,1200357755588071,-0.0165,-0.0246125,-0.0053625
1680020369404,1200357758090474,-0.014575,-0.0286,-0.011275
1680020369406,1200357760592705,-0.01155,-0.030524999,-0.017324999
1680020369408,1200357763094859,-0.0105875,-0.0375375,-0.022275
1680020369410,1200357765597244,-0.0075625,-0.0435875,-0.028324999
1680020369412,1200357768099474,-0.0045375,-0.0455125,-0.0292875
1680020369415,1200357770601921,-5.5E-4,-0.052525,-0.033275
1680020369419,1200357773104306,-5.5E-4,-0.0545875,-0.034375
1680020369421,1200357775606536,-5.5E-4,-0.0606375,-0.034375
1680020369423,1200357778108690,0.002475,-0.0616,-0.0374
1680020369425,1200357780611085,0.002475,-0.063525,-0.034375
1680020369428,1200357783113316,0.0064625,-0.069575,-0.0273625
1680020369430,1200357785615777,0.0114124995,-0.0686125,-0.0193875
1680020369433,1200357788118162,0.0094875,-0.06655,-0.006325
1680020369436,1200357790620306,0.0094875,-0.064625,-0.001375
1680020369438,1200357793122536,0.0114124995,-0.0545875,0.0056375
1680020369442,1200357795624921,0.013475,-0.0466125,0.014712499
1680020369444,1200357798127152,0.0094875,-0.0405625,0.026675
1680020369446,1200357800629585,0.01045,-0.0325875,0.0306625
1680020369449,1200357803131970,0.01045,-0.0235125,0.0386375
1680020369451,1200357805634201,0.0064625,-0.020624999,0.037675
1680020369453,1200357808136585,0.0055,-0.0166375,0.0416625
1680020369455,1200357810638739,0.0064625,-0.008525,0.0407
1680020369460,1200357813140979,0.0055,-0.009625,0.0407
1680020369461,1200357815643364,0.0064625,-0.0026125,0.0416625
1680020369463,1200357818145825,0.0034375,4.125E-4,0.0396
1680020369465,1200357820647979,0.0064625,0.0053625,0.037675
1680020369468,1200357823150201,0.0055,0.007425,0.037675
1680020369470,1200357825652585,0.0055,0.0083875,0.0386375
1680020369473,1200357828154816,0.0064625,0.0114124995,0.0367125
1680020369475,1200357830657201,0.0055,0.0163625,0.0367125
1680020369481,1200357833159696,0.0044,0.0193875,0.037675
1680020369482,1200357835661927,0.0055,0.0273625,0.0367125
1680020369483,1200357838164081,0.007425,0.029424999,0.0306625
1680020369485,1200357840666466,0.0083875,0.0273625,0.0286
1680020369488,1200357843168696,0.007425,0.029424999,0.026675
1680020369490,1200357845671076,0.0064625,0.035475,0.0226875
1680020369493,1200357848173537,0.0094875,0.0314875,0.0226875
1680020369495,1200357850675768,0.007425,0.034375,0.020624999
1680020369499,1200357853178153,0.0055,0.032449998,0.0187
1680020369500,1200357855680327,0.007425,0.032449998,0.015675
1680020369503,1200357858182557,0.0034375,0.035475,0.013612499
1680020369505,1200357860684942,0.0044,0.034375,0.015675
1680020369508,1200357863187404,0.0044,0.0303875,0.01265
1680020369510,1200357865689634,0.0015125,0.0334125,0.009625
1680020369513,1200357868191788,4.125E-4,0.0273625,0.0116875
1680020369517,1200357870694173,-0.0045375,0.0273625,0.01265
1680020369521,1200357873196404,-0.0075625,0.0254375,0.0116875
1680020369522,1200357875698788,-0.0066,0.0254375,0.013612499
1680020369524,1200357878215788,-0.0055,0.023375,0.014712499
1680020369526,1200357880703481,-0.008525,0.02145,0.014712499
1680020369529,1200357883205865,-0.008525,0.018424999,0.0166375
1680020369531,1200357885708096,-0.0075625,0.012375,0.0196625
1680020369533,1200357888210250,-0.0066,0.0144375,0.0196625
1680020369535,1200357890712629,-0.0055,0.0114124995,0.020624999
1680020369539,1200357893214860,-0.0055,0.0044,0.0187
1680020369541,1200357895717322,-0.008525,-5.5E-4,0.0166375
1680020369542,1200357898219476,-0.0066,0.002475,0.021724999
1680020369545,1200357900721855,-0.0055,-0.003575,0.0196625
1680020369548,1200357903224086,-0.0066,-0.0075625,0.0166375
1680020369550,1200357905726471,-0.0066,-0.01265,0.015675
1680020369554,1200357908228686,-0.0066,-0.0105875,0.014712499
1680020369556,1200357910731148,-0.008525,-0.008525,0.0166375
1680020369558,1200357913233533,-0.01155,-0.0155375,0.0166375
1680020369560,1200357915735686,-0.01155,-0.013612499,0.0187
1680020369563,1200357918237917,-0.009625,-0.01265,0.0166375
1680020369566,1200357920740274,-0.0105875,-0.0176,0.0187
1680020369568,1200357923242505,-0.0125124995,-0.0176,0.015675
1680020369570,1200357925744966,-0.0125124995,-0.014575,0.014712499
1680020369572,1200357928247351,-0.009625,-0.0176,0.0166375
1680020369575,1200357930749495,-0.0105875,-0.0246125,0.015675
1680020369579,1200357933251956,-0.0125124995,-0.02365,0.013612499
1680020369581,1200357935754110,-0.008525,-0.0185625,0.01265
1680020369583,1200357938256341,-0.01155,-0.02365,0.0116875
1680020369586,1200357940758802,-0.0125124995,-0.0215875,0.009625
1680020369588,1200357943260956,-0.0105875,-0.0215875,0.01265
1680020369592,1200357945763341,-0.009625,-0.020624999,0.015675
1680020369594,1200357948265572,-0.0125124995,-0.020624999,0.015675
1680020369596,1200357950767946,-0.009625,-0.02365,0.013612499
1680020369598,1200357953270177,-0.008525,-0.0246125,0.013612499
1680020369600,1200357955772639,-0.014575,-0.02365,0.0116875
1680020369602,1200357958275023,-0.014575,-0.0276375,0.01265
1680020369606,1200357960777269,-0.014575,-0.0246125,0.013612499
1680020369608,1200357963279423,-0.013612499,-0.02365,0.0116875
1680020369610,1200357965781884,-0.0165,-0.0215875,0.010725
1680020369613,1200357968284269,-0.0165,-0.019524999,0.009625
1680020369616,1200357970786500,-0.0176,-0.020624999,0.0086624995
1680020369619,1200357973288884,-0.0125124995,-0.0185625,0.0066
1680020369621,1200357975791115,-0.0155375,-0.0185625,0.004675
1680020369623,1200357978293269,-0.0185625,-0.0185625,0.0066
1680020369625,1200357980795654,-0.0176,-0.0185625,0.0056375
1680020369630,1200357983298115,-0.019524999,-0.0215875,0.0037125
1680020369631,1200357985800269,-0.019524999,-0.020624999,0.0037125
1680020369633,1200357988302500,-0.0235125,-0.0185625,0.004675
1680020369635,1200357990804884,-0.0235125,-0.0185625,0.004675
1680020369638,1200357993307110,-0.0275,-0.0155375,-2.75E-4
1680020369640,1200357995809495,-0.0275,-0.0166375,0.0037125
1680020369643,1200357998311956,-0.0275,-0.014575,-0.001375
1680020369646,1200358000814171,-0.0295625,-0.013612499,-0.0072875
1680020369649,1200358003316556,-0.0286,-0.0075625,-0.006325
1680020369651,1200358005818710,-0.0295625,-0.013612499,-0.0053625
1680020369653,1200358008320940,-0.0286,-0.0155375,-0.0033
1680020369656,1200358010823330,-0.0356125,-0.01155,0.00165
1680020369659,1200358013325792,-0.0295625,-0.008525,0.00165
1680020369661,1200358015827945,-0.036575,-0.009625,-0.0023375
1680020369663,1200358018330176,-0.0375375,-0.008525,-0.0033
1680020369667,1200358020832561,-0.0356125,-0.008525,-0.0053625
1680020369670,1200358023334792,-0.0375375,-0.009625,-0.006325
1680020369671,1200358025837176,-0.036575,-0.0105875,-0.0023375
1680020369673,1200358028339638,-0.03355,-0.0056375,-0.0033
1680020369676,1200358030841869,-0.031625,-0.0045375,-0.0023375
1680020369678,1200358033344253,-0.030524999,-0.0056375,-2.75E-4
1680020369680,1200358035846407,-0.0356125,-0.003575,-0.0023375
1680020369683,1200358038348638,-0.0356125,-5.5E-4,0.0037125
1680020369685,1200358040851022,-0.0295625,-5.5E-4,0.0056375
1680020369688,1200358043353253,-0.0265375,4.125E-4,0.004675
1680020369690,1200358045855715,-0.0295625,0.0034375,0.0086624995
1680020369693,1200358048357869,-0.0246125,0.0053625,0.010725
1680020369696,1200358050860253,-0.02255,0.0053625,0.009625
1680020369699,1200358053362484,-0.02255,0.0034375,0.004675
1680020369701,1200358055864869,-0.019524999,-5.5E-4,0.0077
1680020369704,1200358058367099,-0.0176,-0.003575,0.0086624995
1680020369706,1200358060869561,-0.019524999,0.002475,0.010725
1680020369709,1200358063371710,-0.0235125,-5.5E-4,0.0077
1680020369711,1200358065874094,-0.0185625,-0.0026125,0.0077
1680020369713,1200358068376325,-0.0176,-0.003575,0.0077
1680020369716,1200358070878710,-0.0185625,-0.003575,0.0086624995
1680020369719,1200358073380941,-0.0185625,-0.0075625,0.0086624995
1680020369720,1200358075883446,-0.0165,-0.009625,0.010725
1680020369723,1200358078385831,-0.0185625,-0.0105875,0.0116875
1680020369726,1200358080888061,-0.0176,-0.013612499,0.013612499
1680020369728,1200358083390215,-0.0185625,-0.014575,0.01265
1680020369731,1200358085892609,-0.0215875,-0.019524999,0.014712499
1680020369733,1200358088394840,-0.019524999,-0.0166375,0.01265
1680020369735,1200358090897301,-0.0185625,-0.0185625,0.013612499
1680020369739,1200358093399455,-0.020624999,-0.0185625,0.015675
1680020369742,1200358095901821,-0.020624999,-0.0215875,0.0187
1680020369744,1200358098404052,-0.0185625,-0.020624999,0.0226875
1680020369747,1200358100906436,-0.0165,-0.020624999,0.0246125
1680020369749,1200358103408667,-0.0165,-0.02365,0.0257125
1680020369751,1200358105911128,-0.0185625,-0.0246125,0.0286
1680020369753,1200358108413503,-0.020624999,-0.0215875,0.0297
1680020369756,1200358110915657,-0.019524999,-0.020624999,0.0286
1680020369762,1200358113417888,-0.019524999,-0.0185625,0.0306625
1680020369762,1200358115920272,-0.02255,-0.0166375,0.0356125
1680020369763,1200358118422527,-0.0265375,-0.019524999,0.032725
1680020369766,1200358120924912,-0.0275,-0.020624999,0.0306625
1680020369768,1200358123427373,-0.0286,-0.019524999,0.0306625
1680020369770,1200358125929604,-0.031625,-0.020624999,0.0297
1680020369773,1200358128431980,-0.0295625,-0.0185625,0.0297
1680020369776,1200358130934134,-0.0325875,-0.0176,0.0306625
1680020369781,1200358133436364,-0.03355,-0.020624999,0.026675
1680020369782,1200358135938749,-0.036575,-0.019524999,0.0276375
1680020369784,1200358138441224,-0.0375375,-0.0166375,0.026675
1680020369786,1200358140943378,-0.0385,-0.0176,0.02365
1680020369788,1200358143445609,-0.0405625,-0.019524999,0.026675
1680020369791,1200358145947994,-0.041525,-0.014575,0.0246125
1680020369793,1200358148450224,-0.0405625,-0.0166375,0.020624999
1680020369796,1200358150952619,-0.0385,-0.0166375,0.0187
1680020369801,1200358153455081,-0.0396,-0.0166375,0.015675
1680020369801,1200358155957311,-0.0385,-0.0155375,0.0196625
1680020369803,1200358158459465,-0.0385,-0.0155375,0.0196625
1680020369805,1200358160961850,-0.0435875,-0.013612499,0.015675
1680020369808,1200358163464081,-0.04455,-0.019524999,0.014712499
1680020369810,1200358165966465,-0.0455125,-0.0215875,0.015675
1680020369813,1200358168468927,-0.0435875,-0.020624999,0.0187
1680020369817,1200358170971096,-0.042625,-0.0155375,0.014712499
1680020369820,1200358173473326,-0.04455,-0.0176,0.015675
1680020369822,1200358175975711,-0.0455125,-0.0176,0.015675
1680020369823,1200358178477942,-0.0466125,-0.014575,0.0166375
1680020369825,1200358180980326,-0.0485375,-0.0166375,0.0196625
1680020369829,1200358183482778,-0.047575,-0.019524999,0.020624999
1680020369830,1200358185985009,-0.0485375,-0.0185625,0.020624999
1680020369832,1200358188487163,-0.0466125,-0.019524999,0.0196625
1680020369835,1200358190989547,-0.047575,-0.0176,0.0196625
1680020369838,1200358193491774,-0.047575,-0.0215875,0.021724999
1680020369840,1200358195994159,-0.0466125,-0.0215875,0.02365
1680020369843,1200358198496389,-0.047575,-0.02365,0.0226875
1680020369846,1200358200998851,-0.0485375,-0.02365,0.021724999
1680020369849,1200358203501226,-0.0506,-0.0246125,0.020624999
1680020369850,1200358206003456,-0.0506,-0.02365,0.021724999
1680020369854,1200358208505610,-0.0485375,-0.0215875,0.020624999
1680020369857,1200358211007995,-0.047575,-0.0215875,0.020624999
1680020369860,1200358213510226,-0.0485375,-0.019524999,0.0196625
1680020369862,1200358216012610,-0.0485375,-0.014575,0.020624999
1680020369864,1200358218514841,-0.0455125,-0.0166375,0.0166375
1680020369865,1200358221017226,-0.0435875,-0.0176,0.013612499
1680020369868,1200358223519456,-0.0435875,-0.01265,0.01265
1680020369870,1200358226021827,-0.041525,-0.008525,0.0116875
1680020369873,1200358228524058,-0.0405625,-0.0056375,0.009625
1680020369875,1200358231026519,-0.0396,-5.5E-4,0.0086624995
1680020369878,1200358233528904,-0.0356125,0.001375,0.0086624995
1680020369880,1200358236031077,-0.0356125,0.007425,0.0056375
1680020369883,1200358238533308,-0.036575,0.0114124995,0.0037125
1680020369885,1200358241035692,-0.031625,0.0154,0.00165
1680020369888,1200358243537923,-0.031625,0.02035,0.0037125
1680020369892,1200358246040370,-0.0325875,0.029424999,0.00165
1680020369894,1200358248542523,-0.0325875,0.0383625,6.875E-4
1680020369895,1200358251044985,-0.031625,0.0444125,0.00165
1680020369899,1200358253547370,-0.030524999,0.0504625,0.0037125
1680020369900,1200358256049523,-0.031625,0.057475,0.0037125
1680020369903,1200358258551764,-0.030524999,0.0584375,0.00165
1680020369905,1200358261054149,-0.031625,0.068475,-0.001375
1680020369908,1200358263556380,-0.031625,0.07645,-0.0023375
1680020369910,1200358266058764,-0.030524999,0.0774125,-0.0033
1680020369913,1200358268561024,-0.03355,0.079475,-0.0033
1680020369915,1200358271063409,-0.031625,0.0853875,-0.0023375
1680020369918,1200358273565639,-0.0295625,0.08745,-0.006325
1680020369920,1200358276068024,-0.03355,0.091437496,-0.0072875
1680020369923,1200358278570495,-0.036575,0.090475,-0.006325
1680020369925,1200358281072725,-0.0356125,0.0933625,-0.0072875
1680020369929,1200358283574879,-0.036575,0.090475,-0.0083875
1680020369931,1200358286077264,-0.0325875,0.090475,-0.0083875
1680020369933,1200358288579495,-0.030524999,0.0884125,-0.0083875
1680020369935,1200358291081879,-0.0325875,0.089375,-0.011275
1680020369939,1200358293584110,-0.031625,0.089375,-0.0103124995
1680020369941,1200358296086495,-0.031625,0.0884125,-0.0072875
1680020369943,1200358298588721,-0.0295625,0.0834625,-0.0103124995
1680020369945,1200358301091106,-0.0286,0.07645,-0.0103124995
1680020369948,1200358303593337,-0.0265375,0.078375,-0.012375
1680020369950,1200358306095721,-0.0246125,0.073425,-0.012375
1680020369953,1200358308598183,-0.0235125,0.068475,-0.011275
1680020369955,1200358311100337,-0.0235125,0.06545,-0.0103124995
1680020369958,1200358313602568,-0.020624999,0.062425,-0.00935
1680020369960,1200358316104952,-0.019524999,0.057475,-0.0072875
1680020369963,1200358318607183,-0.0185625,0.054449998,-0.011275
1680020369967,1200358321109558,-0.020624999,0.0493625,-0.012375
1680020369969,1200358323612019,-0.0215875,0.0493625,-0.011275
1680020369971,1200358326114250,-0.0185625,0.0444125,-0.00935
1680020369973,1200358328616635,-0.019524999,0.043449998,-0.0103124995
1680020369975,1200358331118806,-0.020624999,0.0374,-0.0083875
1680020369979,1200358333621037,-0.02255,0.032449998,-0.0044
1680020369981,1200358336123422,-0.020624999,0.0284625,-0.0053625
1680020369983,1200358338625653,-0.0215875,0.024475,-0.0053625
1680020369985,1200358341128043,-0.0235125,0.02145,-0.0072875
1680020369988,1200358343630274,-0.020624999,0.02145,-0.0072875
1680020369990,1200358346132659,-0.0215875,0.0154,-0.0053625
1680020369993,1200358348634889,-0.0185625,0.018424999,-0.0044
1680020369996,1200358351137283,-0.020624999,0.013475,-0.0053625
1680020369998,1200358353639514,-0.0215875,0.013475,-0.0072875
1680020370000,1200358356141975,-0.0235125,0.013475,-0.0072875
1680020370005,1200358358644360,-0.0235125,0.013475,-0.0053625
1680020370006,1200358361146524,-0.02255,0.0163625,-0.0033
1680020370008,1200358363648755,-0.019524999,0.0174625,-0.0023375
1680020370010,1200358366151139,-0.019524999,0.0154,-0.0023375
1680020370013,1200358368653370,-0.020624999,0.0174625,-0.0023375
1680020370015,1200358371155831,-0.0185625,0.02035,0.00165
1680020370019,1200358373657990,-0.0185625,0.02035,0.0037125
1680020370021,1200358376160375,-0.019524999,0.02145,0.00165
1680020370023,1200358378662606,-0.020624999,0.0224125,0.00165
1680020370026,1200358381164990,-0.02145,0.0254375,0.0026125
1680020370028,1200358383667206,-0.02145,0.0254375,0.0037125
1680020370031,1200358386169668,-0.0204875,0.0254375,0.0077
1680020370033,1200358388671822,-0.0204875,0.023375,0.0026125
1680020370035,1200358391174206,-0.0204875,0.0303875,0.0037125
1680020370038,1200358393676466,-0.024475,0.0334125,0.0077
1680020370042,1200358396178851,-0.02255,0.034375,0.0056375
1680020370044,1200358398681081,-0.019524999,0.032449998,0.0056375
1680020370047,1200358401183543,-0.024475,0.0314875,0.0056375
1680020370050,1200358403685913,-0.02145,0.034375,0.0086624995
1680020370052,1200358406188144,-0.0165,0.0374,0.0086624995
1680020370054,1200358408690298,-0.0204875,0.0334125,0.009625
1680020370055,1200358411192683,-0.02255,0.032449998,0.010725
1680020370059,1200358413694914,-0.02255,0.0385,0.0116875
1680020370061,1200358416197298,-0.0204875,0.0364375,0.009625
1680020370063,1200358418699529,-0.0204875,0.032449998,0.0066
1680020370066,1200358421201914,-0.0185625,0.0284625,0.0056375
1680020370068,1200358423704144,-0.019524999,0.0284625,0.010725
1680020370070,1200358426206524,-0.02145,0.0275,0.0086624995
1680020370073,1200358428708755,-0.0204875,0.0314875,0.010725
1680020370076,1200358431211139,-0.0204875,0.029424999,0.0066
1680020370080,1200358433713601,-0.025575,0.0254375,0.0077
1680020370081,1200358436215707,-0.0235125,0.02145,0.0056375
1680020370083,1200358438717937,-0.0174625,0.0224125,0.0037125
1680020370086,1200358441220322,-0.0185625,0.02145,0.0026125
1680020370089,1200358443722553,-0.019524999,0.0154,0.0026125
1680020370091,1200358446224938,-0.02145,0.0144375,0.0037125
1680020370093,1200358448727379,-0.0204875,0.0144375,0.0037125
1680020370096,1200358451229533,-0.02145,0.0154,0.0026125
1680020370100,1200358453731764,-0.02255,0.0154,0.004675
1680020370101,1200358456234148,-0.02145,0.0144375,0.0077
1680020370103,1200358458736374,-0.0235125,0.0165,0.0086624995
1680020370106,1200358461238759,-0.0295625,0.0204875,0.010725
1680020370108,1200358463741220,-0.02145,0.0165,0.009625
1680020370111,1200358466243374,-0.0204875,0.0114124995,0.0037125
1680020370113,1200358468745596,-0.019524999,0.01045,0.0037125
1680020370118,1200358471247980,-0.0174625,0.0083875,0.004675
1680020370120,1200358473750211,-0.0185625,0.0055,0.0066
1680020370122,1200358476252596,-0.019524999,0.0144375,0.0077
1680020370124,1200358478754827,-0.02145,0.012375,0.009625
1680020370126,1200358481257288,-0.0185625,0.0144375,0.0086624995
1680020370129,1200358483759442,-0.019524999,0.0144375,0.0086624995
1680020370131,1200358486261827,-0.0165,0.0083875,0.0086624995
1680020370133,1200358488764057,-0.014575,0.007425,0.004675
1680020370136,1200358491266447,-0.014575,0.01045,0.0066
1680020370140,1200358493768601,-0.014575,0.0114124995,0.0086624995
1680020370141,1200358496271139,-0.013475,0.007425,0.0077
1680020370143,1200358498773293,-0.0125124995,0.0064625,0.0077
1680020370147,1200358501275673,-0.008525,0.0055,0.0077
1680020370149,1200358503777904,-0.0064625,0.001375,0.0037125
1680020370151,1200358506280288,-0.0055,-0.0026125,0.0037125
1680020370155,1200358508782519,-0.0045375,-0.0015125,0.0037125
1680020370158,1200358511284976,-0.0055,-0.0055,0.0026125
1680020370160,1200358513787129,-0.003575,-0.0066,0.00165
1680020370162,1200358516289514,-0.003575,-0.0066,0.0026125
1680020370163,1200358518791745,-0.003575,-0.01155,0.0026125
1680020370166,1200358521294129,5.5E-4,-0.0155375,6.875E-4
1680020370168,1200358523796345,-0.003575,-0.0165,-2.75E-4
1680020370171,1200358526298807,5.5E-4,-0.0176,0.0037125
1680020370173,1200358528801191,-5.5E-4,-0.0165,0.0056375
1680020370176,1200358531303345,-5.5E-4,-0.0215875,0.004675
1680020370179,1200358533805499,-5.5E-4,-0.020624999,0.004675
1680020370181,1200358536307961,-5.5E-4,-0.0215875,0.0037125
1680020370184,1200358538810191,-0.0055,-0.025575,0.0037125
1680020370186,1200358541312576,-0.0094875,-0.0265375,0.004675
1680020370189,1200358543814807,-0.0094875,-0.0265375,0.0056375
1680020370192,1200358546317201,-0.008525,-0.030524999,0.004675
1680020370195,1200358548819432,-0.0045375,-0.0295625,0.0037125
1680020370196,1200358551321817,-0.0055,-0.0286,0.0066
1680020370199,1200358553824048,-0.0075625,-0.0246125,0.0077
1680020370201,1200358556326432,-0.0094875,-0.025575,0.0066
1680020370203,1200358558828663,-0.01045,-0.0265375,0.0086624995
1680020370206,1200358561331048,-0.01155,-0.0265375,0.004675
1680020370209,1200358563833278,-0.008525,-0.0215875,0.0077
1680020370211,1200358566335663,-0.01045,-0.019524999,0.0066
1680020370214,1200358568838115,-0.013475,-0.0235125,0.0056375
1680020370216,1200358571340268,-0.0125124995,-0.0235125,6.875E-4
1680020370219,1200358573842499,-0.013475,-0.0235125,0.00165
1680020370221,1200358576344884,-0.013475,-0.0235125,-2.75E-4
1680020370223,1200358578847106,-0.0155375,-0.0185625,-0.001375
1680020370226,1200358581349259,-0.02145,-0.0176,-0.001375
1680020370230,1200358583851721,-0.0165,-0.0176,-2.75E-4
1680020370232,1200358586354106,-0.0165,-0.014575,-0.0033
1680020370234,1200358588856336,-0.019524999,-0.01155,-0.0044
1680020370236,1200358591358721,-0.0204875,-0.0125124995,-0.0033
1680020370239,1200358593860952,-0.02145,-0.0125124995,-0.0023375
1680020370241,1200358596363336,-0.0204875,-0.01155,-0.006325
1680020370244,1200358598865571,-0.02145,-0.01155,-0.0083875
1680020370247,1200358601367956,-0.0235125,-0.0125124995,-0.0072875
1680020370249,1200358603870187,-0.025575,-0.0066,-0.006325
1680020370251,1200358606372571,-0.0275,-0.0066,-0.011275
1680020370253,1200358608874802,-0.0265375,-0.0075625,-0.0083875
1680020370256,1200358611376990,-0.024475,-0.0066,-0.00935
1680020370260,1200358613879451,-0.025575,-0.003575,-0.0103124995
1680020370261,1200358616381836,-0.024475,-0.008525,-0.012375
1680020370263,1200358618884067,-0.024475,-0.0105875,-0.012375
1680020370267,1200358621386475,-0.0265375,-0.0125124995,-0.0163625
1680020370270,1200358623888706,-0.0265375,-0.01155,-0.0154
1680020370272,1200358626391091,-0.025575,-0.01155,-0.0154
1680020370274,1200358628893322,-0.02255,-0.009625,-0.02035
1680020370276,1200358631395706,-0.02255,-0.013612499,-0.0193875
1680020370278,1200358633897932,-0.0235125,-0.014575,-0.017324999
1680020370281,1200358636400317,-0.0235125,-0.0185625,-0.02035
1680020370283,1200358638902547,-0.02145,-0.0165,-0.022275
1680020370286,1200358641404932,-0.02145,-0.01155,-0.0213125
1680020370288,1200358643907163,-0.0204875,-0.014575,-0.023375
1680020370291,1200358646409557,-0.0185625,-0.0165,-0.022275
1680020370293,1200358648911788,-0.019524999,-0.0165,-0.022275
1680020370296,1200358651414173,-0.019524999,-0.0176,-0.022275
1680020370299,1200358653916385,-0.0185625,-0.0125124995,-0.022275
1680020370301,1200358656418538,-0.0185625,-0.013612499,-0.022275
1680020370305,1200358658921000,-0.0165,-0.0165,-0.0182875
1680020370307,1200358661423385,-0.0185625,-0.014575,-0.0193875
1680020370309,1200358663925624,-0.0155375,-0.0155375,-0.0163625
1680020370311,1200358666428009,-0.0125124995,-0.0155375,-0.0154
1680020370313,1200358668930240,-0.014575,-0.013612499,-0.0133375
1680020370316,1200358671432624,-0.0174625,-0.014575,-0.00935
1680020370319,1200358673934855,-0.014575,-0.0185625,-0.00935
1680020370321,1200358676437226,-0.013475,-0.0176,-0.0072875
1680020370323,1200358678939457,-0.014575,-0.0125124995,-0.0033
1680020370326,1200358681441841,-0.013475,-0.0155375,-0.0044
1680020370329,1200358683944072,-0.01045,-0.019524999,-0.001375
1680020370331,1200358686446441,-0.01155,-0.0185625,-0.0023375
1680020370333,1200358688948671,-0.0155375,-0.0176,-2.75E-4
1680020370336,1200358691451133,-0.014575,-0.019524999,-2.75E-4
1680020370339,1200358693953287,-0.014575,-0.0215875,-2.75E-4
1680020370343,1200358696455671,-0.0155375,-0.025575,-0.001375
1680020370345,1200358698957902,-0.019524999,-0.0265375,6.875E-4
1680020370348,1200358701460287,-0.013475,-0.0265375,-2.75E-4
1680020370350,1200358703962441,-0.0174625,-0.0325875,-2.75E-4
1680020370352,1200358706464671,-0.019524999,-0.031625,-0.001375
1680020370354,1200358708967119,-0.0185625,-0.036575,0.00165
1680020370356,1200358711469504,-0.02255,-0.041525,6.875E-4
1680020370358,1200358713971734,-0.024475,-0.0405625,6.875E-4
1680020370361,1200358716474119,-0.024475,-0.0435875,6.875E-4
1680020370363,1200358718976340,-0.0235125,-0.04455,0.00165
1680020370366,1200358721478724,-0.0235125,-0.0455125,0.0037125
1680020370368,1200358723980955,-0.0275,-0.042625,0.0056375
1680020370371,1200358726483340,-0.0275,-0.041525,0.0077
1680020370373,1200358728985570,-0.0265375,-0.042625,0.0066
1680020370376,1200358731487955,-0.0295625,-0.042625,0.0077
1680020370382,1200358733990186,-0.0275,-0.041525,0.0086624995
1680020370383,1200358736492340,-0.032449998,-0.042625,0.0116875
1680020370385,1200358738994801,-0.032449998,-0.0385,0.009625
1680020370387,1200358741497196,-0.032449998,-0.0345125,0.010725
1680020370389,1200358743999427,-0.035475,-0.03355,0.01265
1680020370391,1200358746501811,-0.032449998,-0.036575,0.013612499
1680020370393,1200358749004042,-0.030524999,-0.036575,0.01265
1680020370396,1200358751506196,-0.0314875,-0.030524999,0.0116875
1680020370399,1200358754008671,-0.03355,-0.0325875,0.0116875
1680020370401,1200358756511056,-0.030524999,-0.031625,0.010725
1680020370403,1200358759013287,-0.036575,-0.030524999,0.0086624995
1680020370406,1200358761515671,-0.036575,-0.031625,0.0066
1680020370409,1200358764017907,-0.0375375,-0.031625,0.004675
1680020370411,1200358766520292,-0.03355,-0.030524999,0.004675
1680020370414,1200358769022753,-0.036575,-0.0325875,0.0037125
1680020370418,1200358771524907,-0.036575,-0.0345125,0.0026125
1680020370421,1200358774027138,-0.032449998,-0.0375375,-0.001375
1680020370423,1200358776529523,-0.030524999,-0.041525,6.875E-4
1680020370428,1200358779031753,-0.0314875,-0.0405625,6.875E-4
1680020370428,1200358781533907,-0.03355,-0.036575,6.875E-4
1680020370429,1200358784036292,-0.030524999,-0.041525,-2.75E-4
1680020370431,1200358786538753,-0.030524999,-0.041525,0.00165
1680020370433,1200358789040984,-0.0265375,-0.041525,0.0037125
1680020370436,1200358791543369,-0.0275,-0.0405625,0.0037125
1680020370439,1200358794045600,-0.030524999,-0.0385,0.004675
1680020370441,1200358796547960,-0.0265375,-0.042625,0.004675
1680020370444,1200358799050191,-0.0204875,-0.042625,0.004675
1680020370447,1200358801552576,-0.024475,-0.041525,0.0026125
1680020370449,1200358804054806,-0.025575,-0.0375375,0.00165
1680020370451,1200358806557196,-0.02145,-0.031625,-2.75E-4
1680020370455,1200358809059427,-0.02255,-0.0275,0.00165
1680020370458,1200358811561811,-0.0204875,-0.0215875,0.00165
1680020370460,1200358814063965,-0.0204875,-0.0176,0.0026125
1680020370462,1200358816566436,-0.019524999,-0.009625,-2.75E-4
1680020370464,1200358819068667,-0.0204875,-0.0015125,0.0026125
1680020370466,1200358821571051,-0.0204875,0.0034375,0.00165
1680020370468,1200358824073282,-0.0185625,0.0114124995,-0.0033
1680020370471,1200358826575667,-0.0185625,0.0165,-0.0053625
1680020370473,1200358829077844,-0.0165,0.02145,-0.0044
1680020370476,1200358831580306,-0.0155375,0.024475,-0.011275
1680020370479,1200358834082537,-0.0185625,0.029424999,-0.00935
1680020370481,1200358836584921,-0.0165,0.0374,-0.011275
1680020370484,1200358839087118,-0.0155375,0.0413875,-0.0103124995
1680020370486,1200358841589503,-0.0185625,0.045375,-0.0083875
1680020370489,1200358844091734,-0.019524999,0.0484,-0.0103124995
1680020370493,1200358846594195,-0.0174625,0.0495,-0.0103124995
1680020370494,1200358849096335,-0.019524999,0.0534875,-0.0103124995
1680020370497,1200358851598720,-0.0174625,0.054449998,-0.00935
1680020370499,1200358854100950,-0.02145,0.0534875,-0.00935
1680020370501,1200358856603104,-0.02145,0.056375,-0.0083875
1680020370503,1200358859105489,-0.019524999,0.057475,-0.0072875
1680020370506,1200358861607940,-0.0204875,0.056375,-0.006325
1680020370508,1200358864110171,-0.0204875,0.054449998,-0.0053625
1680020370511,1200358866612556,-0.0204875,0.056375,-0.0044
1680020370514,1200358869114787,-0.02255,0.0504625,-0.0033
1680020370516,1200358871617195,-0.0235125,0.0495,-0.001375
1680020370520,1200358874119426,-0.02145,0.0484,-0.0023375
1680020370522,1200358876621580,-0.024475,0.0444125,6.875E-4
1680020370524,1200358879124041,-0.024475,0.0394625,0.00165
1680020370526,1200358881626426,-0.0265375,0.0364375,0.00165
1680020370531,1200358884128653,-0.0265375,0.0314875,6.875E-4
1680020370532,1200358886631037,-0.024475,0.0193875,0.0026125
1680020370534,1200358889133268,-0.024475,0.0204875,0.0026125
1680020370536,1200358891635422,-0.019524999,0.0204875,0.0026125
1680020370539,1200358894137908,-0.0215875,0.012375,0.0037125
1680020370541,1200358896640292,-0.0235125,0.01045,0.004675
1680020370543,1200358899142523,-0.0215875,0.0053625,0.0026125
1680020370547,1200358901644908,-0.0235125,0.0034375,6.875E-4
1680020370549,1200358904147157,-0.0215875,-5.5E-4,0.00165
1680020370551,1200358906649311,-0.019524999,-0.0015125,0.0056375
1680020370553,1200358909151773,-0.019524999,-0.0056375,6.875E-4
1680020370556,1200358911654157,-0.019524999,-0.0075625,6.875E-4
1680020370559,1200358914156378,-0.0165,-0.0105875,6.875E-4
1680020370561,1200358916658763,-0.013475,-0.0105875,-0.001375
1680020370563,1200358919160994,-0.014575,-0.008525,-2.75E-4
1680020370568,1200358921663388,-0.01155,-0.0105875,-0.001375
1680020370570,1200358924165542,-0.0105875,-0.0075625,-0.001375
1680020370572,1200358926668004,-0.0125124995,-0.0056375,0.00165
1680020370574,1200358929170234,-0.01155,-0.0075625,-0.0023375
1680020370576,1200358931672619,-0.0094875,-0.0056375,-0.001375
1680020370579,1200358934174850,-0.0075625,-0.0026125,-0.0033
1680020370581,1200358936677004,-0.0055,-0.0026125,-0.0072875
1680020370584,1200358939179388,-0.003575,0.001375,-0.006325
1680020370587,1200358941681927,-5.5E-4,0.002475,-0.006325
1680020370589,1200358944184081,-5.5E-4,0.007425,-0.0083875
1680020370591,1200358946686479,4.125E-4,0.01045,-0.011275
1680020370594,1200358949188710,0.002475,0.0053625,-0.0103124995
1680020370597,1200358951691095,0.0055,0.01045,-0.0133375
1680020370599,1200358954193248,0.008525,0.01045,-0.017324999
1680020370601,1200358956695710,0.0094875,0.01045,-0.0163625
1680020370605,1200358959197941,0.01045,0.0114124995,-0.017324999
1680020370608,1200358961700325,0.0154,0.012375,-0.0182875
1680020370610,1200358964202556,0.0125124995,0.007425,-0.0193875
1680020370611,1200358966704941,0.0154,0.01045,-0.0213125
1680020370614,1200358969207182,0.013475,0.0114124995,-0.02035
1680020370616,1200358971709566,0.0165,0.0114124995,-0.0213125
1680020370619,1200358974211797,0.0224125,0.0083875,-0.023375
1680020370621,1200358976714182,0.0204875,0.0064625,-0.023375
1680020370623,1200358979216407,0.0254375,0.0053625,-0.0253
1680020370627,1200358981718561,0.0254375,0.01045,-0.0273625
1680020370629,1200358984220946,0.0235125,0.007425,-0.0264
1680020370631,1200358986723407,0.024475,0.0114124995,-0.0273625
1680020370634,1200358989225643,0.0275,0.01045,-0.0292875
1680020370636,1200358991728028,0.0284625,0.0114124995,-0.0292875
1680020370639,1200358994230259,0.0254375,0.0083875,-0.0273625
1680020370643,1200358996732643,0.029424999,0.012375,-0.028324999
1680020370645,1200358999234869,0.0345125,0.0144375,-0.0303875
1680020370648,1200359001737023,0.032449998,0.0144375,-0.0323125
1680020370650,1200359004239484,0.0284625,0.013475,-0.033275
1680020370652,1200359006741869,0.0314875,0.0144375,-0.0323125
1680020370653,1200359009244100,0.0334125,0.013475,-0.0323125
1680020370656,1200359011746508,0.032449998,0.0163625,-0.0323125
1680020370659,1200359014248739,0.0314875,0.0163625,-0.0323125
1680020370661,1200359016751124,0.035475,0.0174625,-0.033275
1680020370663,1200359019253354,0.035475,0.018424999,-0.033275
1680020370666,1200359021755744,0.0334125,0.018424999,-0.033275
1680020370668,1200359024257975,0.032449998,0.0174625,-0.0353375
1680020370671,1200359026760360,0.0334125,0.0163625,-0.0353375
1680020370673,1200359029262513,0.035475,0.0193875,-0.0353375
1680020370676,1200359031764783,0.0334125,0.018424999,-0.033275
1680020370681,1200359034267245,0.0334125,0.0154,-0.0303875
1680020370682,1200359036769629,0.0364375,0.013475,-0.0363
1680020370684,1200359039271860,0.0364375,0.012375,-0.034375
1680020370686,1200359041774245,0.0345125,0.01045,-0.0303875
1680020370688,1200359044276470,0.032449998,0.013475,-0.0323125
1680020370691,1200359046778855,0.0334125,0.0083875,-0.033275
1680020370693,1200359049281086,0.0314875,0.0064625,-0.033275
1680020370696,1200359051783470,0.0284625,0.0034375,-0.034375
1680020370700,1200359054285711,0.0275,0.001375,-0.0353375
1680020370701,1200359056788096,0.0275,-0.003575,-0.033275
1680020370703,1200359059290327,0.0275,-0.0066,-0.0363
1680020370706,1200359061792481,0.024475,-0.0105875,-0.0363
1680020370709,1200359064294923,0.0235125,-0.0155375,-0.0363
1680020370711,1200359066797308,0.0254375,-0.014575,-0.0374
1680020370714,1200359069299538,0.0224125,-0.013612499,-0.039325
1680020370718,1200359071801918,0.0235125,-0.0215875,-0.0383625
1680020370721,1200359074304149,0.019524999,-0.0265375,-0.0402875
1680020370722,1200359076841918,0.018424999,-0.0235125,-0.0413875
1680020370724,1200359079308687,0.018424999,-0.0246125,-0.0413875
1680020370726,1200359081811149,0.013475,-0.0215875,-0.0402875
1680020370729,1200359084313370,0.0125124995,-0.025575,-0.04235
1680020370731,1200359086815754,0.0125124995,-0.0276375,-0.04235
1680020370734,1200359089317985,0.0114124995,-0.019524999,-0.0402875
1680020370736,1200359091820370,0.0125124995,-0.0185625,-0.0383625
1680020370740,1200359094322590,0.0125124995,-0.0166375,-0.0413875
1680020370741,1200359096824975,0.008525,-0.0155375,-0.0383625
1680020370744,1200359099327206,0.008525,-0.0155375,-0.0374
1680020370746,1200359101829590,0.0094875,-0.0155375,-0.0383625
1680020370750,1200359104331740,0.0055,-0.014575,-0.0363
1680020370751,1200359106834202,0.0044,-0.014575,-0.0353375
1680020370755,1200359109336433,0.002475,-0.0166375,-0.033275
1680020370758,1200359111838817,0.002475,-0.0185625,-0.0323125
1680020370760,1200359114341048,4.125E-4,-0.020624999,-0.0353375
1680020370761,1200359116843433,-0.0015125,-0.020624999,-0.0323125
1680020370764,1200359119345663,-0.0015125,-0.0215875,-0.0253
1680020370766,1200359121848048,-0.0015125,-0.025575,-0.0273625
1680020370769,1200359124350279,-0.0015125,-0.0265375,-0.0253
1680020370771,1200359126852663,-5.5E-4,-0.019524999,-0.023375
1680020370773,1200359129354894,-0.0055,-0.0185625,-0.022275
1680020370776,1200359131857279,-0.0045375,-0.0185625,-0.022275
1680020370779,1200359134359510,-0.008525,-0.014575,-0.02035
1680020370781,1200359136861980,-0.0075625,-0.013612499,-0.02035
1680020370784,1200359139364134,-0.0055,-0.013612499,-0.02035
1680020370786,1200359141866519,-0.0075625,-0.014575,-0.0193875
1680020370789,1200359144368749,-0.008525,-0.0075625,-0.0182875
1680020370793,1200359146871120,-0.008525,-0.0105875,-0.017324999
1680020370795,1200359149373274,-0.0066,-0.0075625,-0.02035
1680020370797,1200359151875505,-0.0075625,-0.008525,-0.0213125
1680020370799,1200359154377966,-0.008525,-0.01155,-0.02035
1680020370801,1200359156880351,-0.008525,-0.01155,-0.02035
1680020370804,1200359159382582,-0.0066,-0.0075625,-0.0182875
1680020370806,1200359161884966,-0.0055,-0.0056375,-0.0182875
1680020370809,1200359164387197,-0.0055,-0.0026125,-0.0193875
1680020370811,1200359166889582,-0.0055,-0.0026125,-0.0193875
1680020370815,1200359169391812,-5.5E-4,-0.003575,-0.02035
1680020370816,1200359171894197,-0.003575,-0.0015125,-0.023375
1680020370820,1200359174396428,-0.0094875,-5.5E-4,-0.023375
1680020370822,1200359176898812,-0.0075625,4.125E-4,-0.022275
1680020370824,1200359179401052,-0.0075625,-0.0015125,-0.023375
1680020370826,1200359181903206,-0.0045375,0.002475,-0.023375
1680020370830,1200359184405668,-0.003575,0.0034375,-0.0213125
1680020370832,1200359186908052,-0.0075625,0.0083875,-0.0213125
1680020370834,1200359189410293,-0.0066,0.0083875,-0.022275
1680020370837,1200359191912678,-0.0075625,0.01045,-0.022275
1680020370839,1200359194414908,-0.003575,0.012375,-0.022275
1680020370842,1200359196917062,-0.0075625,0.0144375,-0.0243375
1680020370844,1200359199419524,-0.0066,0.0163625,-0.0213125
1680020370847,1200359201921883,-0.0045375,0.018424999,-0.022275
1680020370849,1200359204424114,-0.0055,0.0204875,-0.022275
1680020370851,1200359206926499,-0.0066,0.0204875,-0.0193875
1680020370854,1200359209428730,-0.0066,0.0284625,-0.0182875
1680020370856,1200359211931109,-0.008525,0.029424999,-0.0182875
1680020370859,1200359214433571,-0.0045375,0.029424999,-0.0182875
1680020370861,1200359216935725,-0.0066,0.0314875,-0.0182875
1680020370864,1200359219437955,-0.0066,0.0413875,-0.0163625
1680020370868,1200359221940345,-0.0055,0.0474375,-0.0154
1680020370870,1200359224442576,-0.0045375,0.0444125,-0.0133375
1680020370872,1200359226944730,-0.0066,0.0444125,-0.012375
1680020370874,1200359229447114,-0.0066,0.0484,-0.012375
1680020370876,1200359231949576,-5.5E-4,0.0484,-0.0133375
1680020370879,1200359234451812,4.125E-4,0.0523875,-0.011275
1680020370881,1200359236954196,-0.0045375,0.051425,-0.00935
1680020370884,1200359239456427,-0.0045375,0.0504625,-0.0072875
1680020370887,1200359241958812,-0.0015125,0.0554125,-0.0083875
1680020370889,1200359244460950,-0.0055,0.054449998,-0.0083875
1680020370891,1200359246963412,-0.0055,0.051425,-0.0083875
1680020370894,1200359249465643,-0.0045375,0.051425,-0.0083875
1680020370897,1200359251968027,-0.0045375,0.057475,-0.006325
1680020370900,1200359254470263,-0.0066,0.0484,-0.0072875
1680020370902,1200359256972648,-0.0094875,0.0504625,-0.0023375
1680020370905,1200359259474879,-0.0105875,0.0504625,-0.0033
1680020370908,1200359261977340,-0.0055,0.0444125,-0.0053625
1680020370910,1200359264479489,-0.008525,0.046475,-0.0033
1680020370912,1200359266981874,-0.0105875,0.043449998,-0.0023375
1680020370914,1200359269484104,-0.01155,0.0413875,-0.001375
1680020370917,1200359271986489,-0.0075625,0.0374,-2.75E-4
1680020370919,1200359274488643,-0.0075625,0.0303875,0.0026125
1680020370921,1200359276991109,-0.01155,0.0284625,0.00165
1680020370924,1200359279493340,-0.0094875,0.0273625,0.0037125
1680020370927,1200359281995725,-0.01155,0.0273625,0.0037125
1680020370930,1200359284497956,-0.0125124995,0.023375,0.0056375
1680020370931,1200359287000340,-0.0125124995,0.0174625,0.0056375
1680020370934,1200359289502571,-0.01155,0.013475,0.0066
1680020370938,1200359292004956,-0.0125124995,0.0053625,0.0056375
1680020370940,1200359294507186,-0.0125124995,0.0034375,0.004675
1680020370944,1200359297009571,-0.0125124995,4.125E-4,0.004675
1680020370946,1200359299511802,-0.013475,-0.0056375,0.004675
1680020370948,1200359302014186,-0.013475,-0.01155,0.0056375
1680020370951,1200359304516417,-0.0125124995,-0.0155375,0.004675
1680020370952,1200359307018802,-0.0125124995,-0.019524999,0.004675
1680020370954,1200359309521037,-0.01155,-0.0215875,0.004675
1680020370957,1200359312023422,-0.014575,-0.025575,0.0077
1680020370959,1200359314525653,-0.013475,-0.030524999,0.009625
1680020370962,1200359317028038,-0.0105875,-0.0286,0.0077
1680020370964,1200359319530268,-0.0125124995,-0.030524999,0.0066
1680020370967,1200359322032441,-0.0125124995,-0.03355,0.0086624995
