system_ts_ms, sensor_ts_ns, accX, accY, accZ
1680020366049,1200354399993599,-2.2999501,8.7640505,2.601
1680020366049,1200354402495984,-2.23305,8.925,2.7280502
1680020366050,1200354404998215,-2.4439502,8.925,2.538
1680020366052,1200354407500599,-2.2999501,8.956051,2.4859502
1680020366067,1200354410002836,-2.2999501,8.961,2.46705
1680020366067,1200354412505221,-2.33205,8.938951,2.5069501
1680020366067,1200354415007682,-2.32395,9.02295,2.4430501
1680020366067,1200354417509937,-2.43705,8.997001,2.4090002
1680020366068,1200354420012091,-2.3749502,8.956051,2.33505
1680020366070,1200354422514475,-2.4390001,8.973001,2.3850002
1680020366070,1200354425016706,-2.4850502,8.946,2.28195
1680020366074,1200354427519091,-2.394,8.953051,2.3130002
1680020366075,1200354430021340,-2.4750001,8.958,2.2699502
1680020366077,1200354432523724,-2.559,8.953051,2.33505
1680020366080,1200354435025955,-2.499,8.944051,2.33205
1680020366082,1200354437528340,-2.4820502,8.917951,2.3400002
1680020366084,1200354440030575,-2.4850502,8.961,2.39205
1680020366091,1200354442532960,-2.5570502,8.88195,2.36595
1680020366091,1200354445035422,-2.5420501,8.84805,2.4829502
1680020366092,1200354447537575,-2.52795,8.944051,2.4400501
1680020366095,1200354450039806,-2.60205,8.88195,2.35395
1680020366098,1200354452542182,-2.59995,8.817,2.43105
1680020366102,1200354455044413,-2.5759501,8.817,2.35395
1680020366104,1200354457546797,-2.5420501,8.865001,2.4160502
1680020366108,1200354460049273,-2.4750001,8.962951,2.39895
1680020366108,1200354462551503,-2.5140002,8.785951,2.32305
1680020366110,1200354465053657,-2.559,8.84805,2.2770002
1680020366112,1200354467556042,-2.502,8.90295,2.29905
1680020366114,1200354470058273,-2.49195,8.89095,2.24895
1680020366118,1200354472560681,-2.50605,8.86005,2.1700501
1680020366120,1200354475063143,-2.5830002,8.7949505,2.232
1680020366124,1200354477565297,-2.5849502,8.70405,2.292
1680020366124,1200354480067528,-2.6140501,8.800051,2.2369502
1680020366127,1200354482569912,-2.5159502,8.743051,2.4070501
1680020366132,1200354485072128,-2.5879502,8.74695,2.39205
1680020366132,1200354487574513,-2.63805,8.769,2.457
1680020366134,1200354490076743,-2.6839502,8.79105,2.3779502
1680020366141,1200354492579191,-2.5810502,8.865001,2.42595
1680020366142,1200354495081575,-2.463,8.74995,2.4109502
1680020366144,1200354497583729,-2.52795,8.75895,2.3830502
1680020366146,1200354500085960,-2.4750001,8.773951,2.3440502
1680020366148,1200354502588345,-2.463,8.89095,2.35905
1680020366150,1200354505090504,-2.46795,8.85,2.4379501
1680020366152,1200354507592965,-2.463,8.85,2.42595
1680020366157,1200354510095196,-2.5399501,8.841001,2.4829502
1680020366158,1200354512597581,-2.5780501,8.680051,2.361
1680020366159,1200354515099816,-2.49195,8.767051,2.46405
1680020366162,1200354517602201,-2.4780002,8.77095,2.39895
1680020366164,1200354520104432,-2.49405,8.84805,2.4760501
1680020366167,1200354522606893,-2.49705,8.85,2.5410001
1680020366169,1200354525109047,-2.46105,8.974951,2.502
1680020366174,1200354527611417,-2.4750001,8.818951,2.57205
1680020366176,1200354530113647,-2.43195,8.901,2.526
1680020366178,1200354532616032,-2.5210502,8.910001,2.46405
1680020366181,1200354535118196,-2.53005,8.950951,2.4379501
1680020366183,1200354537620657,-2.6190002,8.99895,2.4109502
1680020366185,1200354540122888,-2.4109502,9.01605,2.46405
1680020366191,1200354542625273,-2.4150002,9.03195,2.493
1680020366192,1200354545127504,-2.4850502,8.938951,2.38995
1680020366192,1200354547629878,-2.46105,9.00405,2.421
1680020366195,1200354550132109,-2.4490502,8.953051,2.5890002
1680020366198,1200354552634494,-2.47305,8.941051,2.46705
1680020366200,1200354555136724,-2.6260502,8.862,2.57205
1680020366202,1200354557639095,-2.4750001,9.052051,2.538
1680020366209,1200354560141326,-2.49405,8.950951,2.5459502
1680020366210,1200354562643787,-2.52795,9.04905,2.5459502
1680020366211,1200354565146172,-2.4850502,9.03495,2.5740001
1680020366214,1200354567648322,-2.538,8.953051,2.70105
1680020366216,1200354570150553,-2.5759501,8.925,2.5740001
1680020366218,1200354572652937,-2.502,8.98005,2.59095
1680020366222,1200354575155168,-2.56605,8.986951,2.60295
1680020366223,1200354577657322,-2.50395,8.934,2.7109501
1680020366227,1200354580159777,-2.4780002,9.021001,2.526
1680020366228,1200354582662162,-2.4490502,9.078,2.66295
1680020366231,1200354585164393,-2.4850502,9.01605,2.59605
1680020366232,1200354587666777,-2.3719501,9.04395,2.56695
1680020366234,1200354590169008,-2.52795,8.989051,2.562
1680020366240,1200354592671388,-2.42505,9.06795,2.5170002
1680020366241,1200354595173619,-2.571,8.877001,2.529
1680020366242,1200354597676003,-2.4439502,8.965051,2.5459502
1680020366245,1200354600178219,-2.463,8.961,2.364
1680020366248,1200354602680604,-2.4540002,8.99895,2.4520502
1680020366252,1200354605182834,-2.53005,8.958,2.35395
1680020366260,1200354610184988,-2.4420002,8.98005,2.36595
1680020366261,1200354610340619,-2.49195,9.01605,2.3830502
1680020366262,1200354612689849,-2.39595,8.86695,2.31795
1680020366264,1200354615192080,-2.5540502,8.89605,2.36805
1680020366265,1200354617694465,-2.5140002,8.85795,2.36595
1680020366266,1200354620196696,-2.5849502,8.946,2.3160002
1680020366268,1200354622699070,-2.64105,8.84805,2.352
1680020366270,1200354625201301,-2.6119502,8.901,2.3160002
1680020366274,1200354627703686,-2.6239502,8.842951,2.33205
1680020366274,1200354630205916,-2.502,8.743051,2.32995
1680020366278,1200354632708296,-2.59695,8.797951,2.364
1680020366280,1200354635210527,-2.5810502,8.809951,2.46705
1680020366282,1200354637712911,-2.5810502,8.69505,2.3779502
1680020366284,1200354640215142,-2.559,8.83395,2.32005
1680020366290,1200354642717518,-2.6260502,8.7640505,2.29395
1680020366291,1200354645219749,-2.6089501,8.818951,2.28195
1680020366293,1200354647722133,-2.6880002,8.75205,2.2680001
1680020366295,1200354650224364,-2.70795,8.769,2.22
1680020366298,1200354652726749,-2.63595,8.769,2.2410002
1680020366301,1200354655228911,-2.7150002,8.7310505,2.22
1680020366302,1200354657731373,-2.62905,8.71395,2.217
1680020366307,1200354660233604,-2.6239502,8.75205,2.11395
1680020366308,1200354662735988,-2.5780501,8.82195,2.2800002
1680020366310,1200354665238219,-2.6550002,8.647051,2.046
1680020366312,1200354667740595,-2.6910002,8.61795,2.1700501
1680020366314,1200354670242826,-2.6170502,8.6640005,2.09805
1680020366318,1200354672745210,-2.63595,8.668051,2.05905
1680020366320,1200354675247441,-2.631,8.72805,2.217
1680020366324,1200354677749830,-2.66895,8.6970005,2.05905
1680020366328,1200354680252060,-2.5900502,8.812051,2.1769502
1680020366329,1200354682754214,-2.5729501,8.755051,2.12205
1680020366333,1200354685256599,-2.631,8.661,2.1700501
1680020366333,1200354687759065,-2.56395,8.7310505,2.08305
1680020366335,1200354690261296,-2.65995,8.69505,2.11395
1680020366341,1200354692763681,-2.6839502,8.70405,2.1769502
1680020366342,1200354695265912,-2.6839502,8.688001,2.22705
1680020366343,1200354697768296,-2.7480001,8.700001,2.21295
1680020366345,1200354700270527,-2.69295,8.60595,2.32995
1680020366348,1200354702772912,-2.7120001,8.7619505,2.2800002
1680020366350,1200354705275142,-2.7510002,8.65905,2.35605
1680020366352,1200354707777527,-2.7150002,8.73795,2.33505
1680020366358,1200354710279744,-2.736,8.647051,2.4810002
1680020366360,1200354712782128,-2.63295,8.70705,2.50005
1680020366361,1200354715284282,-2.6569502,8.688001,2.35605
1680020366364,1200354717786763,-2.5780501,8.776051,2.2770002
1680020366365,1200354720288994,-2.6239502,8.862,2.39895
1680020366368,1200354722791378,-2.664,8.773951,2.35395
1680020366370,1200354725293609,-2.5780501,8.98005,2.3419502
1680020366374,1200354727795994,-2.5879502,8.886001,2.35605
1680020366375,1200354730298147,-2.74095,8.901,2.33505
1680020366378,1200354732800378,-2.63295,8.934,2.4469502
1680020366380,1200354735302840,-2.66895,8.944051,2.4190502
1680020366383,1200354737805224,-2.64105,8.917951,2.328
1680020366384,1200354740307455,-2.6790001,8.917951,2.289
1680020366390,1200354742809845,-2.71005,8.937,2.397
1680020366391,1200354745312076,-2.7529502,8.817,2.4190502
1680020366392,1200354747814460,-2.76495,8.7949505,2.29605
1680020366394,1200354750316691,-2.7120001,8.98005,2.38995
1680020366398,1200354752819082,-2.6170502,8.946,2.39205
1680020366401,1200354755321312,-2.47305,9.030001,2.328
1680020366403,1200354757823697,-2.59995,8.985001,2.35905
1680020366407,1200354760325851,-2.7120001,8.977051,2.35395
1680020366408,1200354762828082,-2.7120001,8.989051,2.2680001
1680020366409,1200354765330543,-2.6809502,8.946,2.2680001
1680020366412,1200354767832928,-2.66205,8.956051,2.2410002
1680020366414,1200354770335159,-2.60505,8.99895,2.25105
1680020366417,1200354772837557,-2.7240002,9.04395,2.28195
1680020366420,1200354775339788,-2.63295,8.962951,2.2840502
1680020366424,1200354777841942,-2.7550502,8.97,2.26095
1680020366425,1200354780344403,-2.7480001,8.910001,2.1790502
1680020366427,1200354782846801,-2.7480001,8.88405,2.29605
1680020366429,1200354785349032,-2.7120001,8.986951,2.4709501
1680020366432,1200354787851416,-2.8200002,8.989051,2.5170002
1680020366434,1200354790353647,-2.87295,8.87205,2.43105
1680020366439,1200354792856042,-2.9160001,8.973001,2.43495
1680020366441,1200354795358272,-2.9260502,8.85495,2.3850002
1680020366443,1200354797860657,-2.9299502,8.862,2.39895
1680020366445,1200354800362888,-2.8459501,8.86695,2.3490002
1680020366448,1200354802865273,-2.87805,8.973001,2.364
1680020366450,1200354805367517,-2.8990502,8.853001,2.22195
1680020366452,1200354807869671,-2.63805,8.986951,1.8460501
1680020366455,1200354810372056,-2.739,8.985001,1.5850501
1680020366458,1200354812874517,-2.7120001,9.052051,1.57305
1680020366460,1200354815376758,-2.6880002,9.078,1.6110001
1680020366462,1200354817879143,-2.73405,9.0400505,1.623
1680020366464,1200354820381373,-2.6910002,9.00405,1.695
1680020366467,1200354822883758,-2.5930502,8.953051,1.794
1680020366469,1200354825385912,-2.7529502,9.02505,1.8750001
1680020366472,1200354827888387,-2.77005,8.87895,1.9879501
1680020366476,1200354830390618,-2.7220502,8.922001,2.028
1680020366479,1200354832893003,-2.7840002,8.862,2.16
1680020366481,1200354835395157,-2.91105,8.85,2.15505
1680020366483,1200354837897642,-2.844,8.793,2.12895
1680020366484,1200354840399796,-2.8579502,8.79105,2.26305
1680020366488,1200354842902258,-2.9020503,8.809951,2.253
1680020366490,1200354845404488,-2.8459501,8.779051,2.33205
1680020366492,1200354847906873,-2.69805,8.812051,2.32995
1680020366495,1200354850409114,-2.8249502,8.800051,2.28195
1680020366498,1200354852911498,-2.80095,8.724,2.3760002
1680020366500,1200354855413652,-2.7199502,8.805,2.35395
1680020366502,1200354857916114,-2.6520002,8.736,2.184
1680020366504,1200354860418345,-2.772,8.809951,2.361
1680020366507,1200354862920739,-2.676,8.7949505,2.2369502
1680020366509,1200354865422970,-2.7,8.7619505,2.29395
1680020366513,1200354867925355,-2.56605,8.806951,2.2369502
1680020366515,1200354870427599,-2.5470002,8.85495,2.3440502
1680020366519,1200354872929753,-2.5930502,8.70405,2.22195
1680020366521,1200354875700215,-2.5900502,8.901,2.24895
1680020366523,1200354877934599,-2.595,8.812051,2.39505
1680020366524,1200354880436830,-2.67405,8.812051,2.32995
1680020366528,1200354882938998,-2.5729501,8.962951,2.2369502
1680020366529,1200354885441383,-2.6520002,8.89395,2.3370001
1680020366532,1200354887943613,-2.6500502,8.829,2.32005
1680020366534,1200354890446075,-2.63295,8.937,2.2680001
1680020366538,1200354892948456,-2.70495,8.994,2.18595
1680020366540,1200354895450686,-2.6569502,8.85495,2.229
1680020366542,1200354897953071,-2.7529502,8.85,2.328
1680020366545,1200354900455302,-2.6809502,8.889001,2.29905
1680020366548,1200354902957451,-2.6500502,8.920051,2.2770002
1680020366552,1200354905459912,-2.7220502,8.90295,2.32995
1680020366553,1200354907962297,-2.73195,8.925,2.184
1680020366555,1200354910464528,-2.6809502,8.941051,2.112
1680020366558,1200354912966912,-2.6569502,8.89095,2.184
1680020366560,1200354915469152,-2.66895,8.950951,2.1409502
1680020366562,1200354917971537,-2.6209502,8.977051,2.25795
1680020366565,1200354920473767,-2.5210502,8.944051,2.265
1680020366568,1200354922976152,-2.56605,9.03195,2.18205
1680020366570,1200354925478383,-2.5879502,9.0060005,2.1649501
1680020366572,1200354927980767,-2.63805,8.917951,2.055
1680020366575,1200354930482921,-2.6430001,9.01305,2.13105
1680020366578,1200354932985152,-2.6170502,9.054001,2.22705
1680020366581,1200354935487523,-2.6089501,8.98005,2.18895
1680020366582,1200354937989984,-2.6479502,8.946,2.09805
1680020366584,1200354940492215,-2.6089501,8.87895,2.2410002
1680020366589,1200354942994600,-2.571,9.03495,2.1379502
1680020366591,1200354945496801,-2.62905,9.018001,2.1000001
1680020366593,1200354947999186,-2.6860502,8.92695,2.1000001
1680020366594,1200354950501340,-2.595,8.917951,2.229
1680020366598,1200354953003801,-2.667,8.989051,2.3040001
1680020366600,1200354955506032,-2.64105,8.929951,2.1430502
1680020366602,1200354958008407,-2.6449502,8.961,2.2840502
1680020366605,1200354960510561,-2.6140501,8.937,2.2390501
1680020366608,1200354963013022,-2.6910002,8.89095,2.33205
1680020366610,1200354965515253,-2.67195,8.84595,2.1790502
1680020366612,1200354968017638,-2.7199502,8.89095,2.22195
1680020366615,1200354970519868,-2.63805,8.925,2.2840502
1680020366618,1200354973022253,-2.70495,8.905951,2.35605
1680020366620,1200354975524484,-2.7169502,8.85,2.18895
1680020366622,1200354978026629,-2.6809502,8.85795,2.18895
1680020366626,1200354980529013,-2.6520002,9.00405,2.2390501
1680020366629,1200354983031475,-2.71005,8.99895,2.1739502
1680020366631,1200354985533706,-2.7150002,8.962951,2.2680001
1680020366632,1200354988036070,-2.7940502,8.84595,2.29905
1680020366634,1200354990538301,-2.6479502,8.874001,2.2390501
1680020366637,1200354993040686,-2.67195,8.87205,2.421
1680020366639,1200354995542916,-2.67405,8.99895,2.35905
1680020366642,1200354998045301,-2.67405,8.97,2.2770002
1680020366645,1200355000547518,-2.6520002,8.946,2.352
1680020366648,1200355003049902,-2.676,8.946,2.33205
1680020366650,1200355005552133,-2.6569502,8.950951,2.35905
1680020366652,1200355008054287,-2.6430001,8.946,2.3710501
1680020366655,1200355010556644,-2.6449502,8.950951,2.28705
1680020366659,1200355013058874,-2.6119502,8.938951,2.193
1680020366660,1200355015561336,-2.60505,8.99895,2.3130002
1680020366665,1200355018063706,-2.7199502,8.99205,2.2390501
1680020366666,1200355020565936,-2.6170502,8.937,2.39205
1680020366668,1200355023068321,-2.6089501,9.05595,2.2080002
1680020366674,1200355025570552,-2.7270002,8.97,2.2750502
1680020366674,1200355028072706,-2.62905,8.99895,2.2030501
1680020366674,1200355030575158,-2.6239502,9.02505,2.3440502
1680020366677,1200355033077543,-2.5810502,9.01605,2.15295
1680020366679,1200355035579774,-2.6430001,9.12405,2.3040001
1680020366682,1200355038082158,-2.6140501,9.04905,2.18895
1680020366685,1200355040584374,-2.5540502,9.042001,2.25795
1680020366687,1200355043086759,-2.676,8.908051,2.29395
1680020366689,1200355045588989,-2.60205,9.01605,2.25795
1680020366692,1200355048091374,-2.6479502,8.920051,2.26095
1680020366694,1200355050593605,-2.6260502,8.989051,2.2390501
1680020366698,1200355053095989,-2.6089501,8.941051,2.31795
1680020366701,1200355055598143,-2.52795,9.04695,2.217
1680020366703,1200355058100374,-2.6170502,8.944051,2.26095
1680020366705,1200355060602836,-2.6119502,8.982,2.3110502
1680020366708,1200355063105220,-2.607,9.052051,2.229
1680020366710,1200355065607451,-2.6170502,8.941051,2.22195
1680020366713,1200355068109836,-2.6170502,8.92695,2.39205
1680020366715,1200355070612066,-2.6500502,8.941051,2.364
1680020366718,1200355073114456,-2.664,8.901,2.24895
1680020366720,1200355075616610,-2.67195,8.956051,2.3800502
1680020366722,1200355078119071,-2.66205,9.00405,2.3040001
1680020366724,1200355080621302,-2.6239502,8.986951,2.3040001
1680020366727,1200355083123663,-2.6239502,9.052051,2.2390501
1680020366730,1200355085625893,-2.56905,9.01605,2.32995
1680020366732,1200355088128047,-2.607,9.1039505,2.2840502
1680020366735,1200355090630509,-2.5780501,9.03495,2.256
1680020366740,1200355093132878,-2.73405,9.030001,2.3160002
1680020366743,1200355095633993,-2.5519502,9.03195,2.4019501
1680020366743,1200355098135108,-2.6190002,9.06795,2.3490002
1680020366745,1200355100639724,-2.607,8.917951,2.232
1680020366748,1200355103141878,-2.6449502,9.01605,2.22495
1680020366750,1200355105644262,-2.6140501,9.02505,2.33205
1680020366752,1200355108146739,-2.6860502,9.01605,2.3400002
1680020366755,1200355110648969,-2.607,8.997001,2.148
1680020366758,1200355113151123,-2.6839502,9.02805,2.3370001
1680020366759,1200355115653508,-2.6550002,9.042001,2.2680001
1680020366763,1200355118155998,-2.56395,8.950951,2.1700501
1680020366765,1200355120658229,-2.6140501,9.03195,2.2800002
1680020366767,1200355123160614,-2.6790001,8.98005,2.292
1680020366769,1200355125662845,-2.6910002,9.042001,2.2099502
1680020366772,1200355128165229,-2.523,8.98005,2.35605
1680020366776,1200355130667460,-2.66895,9.018001,2.22705
1680020366780,1200355133169845,-2.535,8.905951,2.2729502
1680020366782,1200355135672075,-2.526,8.910001,2.2099502
1680020366783,1200355138174455,-2.5879502,8.910001,2.1720002
1680020366785,1200355140676609,-2.5210502,8.917951,2.2459502
1680020366788,1200355143178840,-2.4490502,9.0060005,2.18205
1680020366790,1200355145681224,-2.47005,8.929951,2.2150502
1680020366792,1200355148183686,-2.5140002,9.02295,2.32305
1680020366795,1200355150685907,-2.43495,8.973001,2.1720002
1680020366798,1200355153188291,-2.4490502,8.908051,2.24895
1680020366800,1200355155690522,-2.526,8.862,2.29905
1680020366802,1200355158192907,-2.367,8.89095,2.217
1680020366805,1200355160695061,-2.4510002,8.87895,2.196
1680020366808,1200355163197306,-2.5570502,8.953051,2.2440002
1680020366810,1200355165699768,-2.47305,8.88195,2.18895
1680020366814,1200355168202152,-2.4540002,8.934,2.16
1680020366815,1200355170704320,-2.4850502,8.944051,2.22495
1680020366819,1200355173206551,-2.40105,8.86695,2.2750502
1680020366820,1200355175708936,-2.427,9.0730505,2.256
1680020366822,1200355178211166,-2.367,8.91495,2.25105
1680020366825,1200355180713628,-2.5140002,8.934,2.1769502
1680020366827,1200355183216032,-2.45895,8.920051,2.2099502
1680020366830,1200355185718262,-2.47005,9.04695,2.26305
1680020366832,1200355188220647,-2.4390001,8.985001,2.11395
1680020366835,1200355190722801,-2.4180002,9.01605,2.14995
1680020366838,1200355193225037,-2.47305,9.042001,2.1720002
1680020366840,1200355195727498,-2.36505,8.985001,2.2770002
1680020366843,1200355198229883,-2.5180502,9.01305,2.08605
1680020366845,1200355200732114,-2.49405,8.965051,2.193
1680020366848,1200355203234498,-2.5759501,9.05595,2.1070502
1680020366852,1200355205736729,-2.5399501,9.01095,2.26095
1680020366854,1200355208238883,-2.5420501,9.02295,2.2410002
1680020366855,1200355210741344,-2.6089501,8.946,2.25795
1680020366859,1200355213243743,-2.5500002,8.989051,2.1460502
1680020366861,1200355215745974,-2.6089501,8.962951,2.28705
1680020366864,1200355218248128,-2.6089501,9.05895,2.2840502
1680020366865,1200355220750512,-2.6190002,9.009001,2.24895
1680020366868,1200355223252738,-2.6520002,8.96805,2.29395
1680020366870,1200355225755200,-2.62905,9.009001,2.112
1680020366872,1200355228257584,-2.6860502,8.953051,2.26095
1680020366875,1200355230759815,-2.69295,9.078,2.22495
1680020366878,1200355233262172,-2.60205,8.973001,2.2729502
1680020366880,1200355235764402,-2.69805,9.07995,2.12595
1680020366882,1200355238266556,-2.7220502,9.009001,2.09805
1680020366885,1200355240768941,-2.703,9.06795,2.1049502
1680020366889,1200355243271392,-2.6839502,9.0730505,2.11695
1680020366891,1200355245773623,-2.67195,9.147,2.11905
1680020366893,1200355248276008,-2.6860502,8.974951,2.14995
1680020366895,1200355250778239,-2.5159502,9.0709505,2.3080502
1680020366899,1200355253280392,-2.6119502,9.097051,2.1700501
1680020366900,1200355255782796,-2.53005,9.19995,2.0740502
1680020366902,1200355258285258,-2.67405,9.03195,2.18895
1680020366905,1200355260787488,-2.66205,9.042001,1.9540501
1680020366908,1200355263289873,-2.6089501,9.121051,2.2459502
1680020366910,1200355265792027,-2.5140002,9.17895,2.2150502
1680020366913,1200355268294263,-2.50605,9.030001,2.1070502
1680020366915,1200355270796647,-2.5729501,9.064051,2.2050002
1680020366918,1200355273299109,-2.50605,9.126,2.1019502
1680020366920,1200355275801340,-2.466,9.03705,2.043
1680020366923,1200355278303724,-2.4540002,9.09195,2.0040002
1680020366927,1200355280805950,-2.526,8.994,2.112
1680020366930,1200355283308335,-2.39595,9.052051,2.1460502
1680020366931,1200355285810488,-2.4060001,8.92695,2.2099502
1680020366932,1200355288312950,-2.3820002,8.986951,2.09805
1680020366935,1200355290815181,-2.4420002,9.00405,2.1360002
1680020366939,1200355293317565,-2.4109502,8.910001,2.1340501
1680020366940,1200355295819719,-2.38905,9.04695,1.9879501
1680020366942,1200355298321950,-2.4060001,8.86995,2.09295
1680020366945,1200355300824330,-2.3389502,8.812051,2.055
1680020366948,1200355303326791,-2.3700001,8.81505,2.1430502
1680020366950,1200355305829022,-2.322,8.973001,2.265
1680020366953,1200355308331407,-2.3700001,8.941051,2.15295
1680020366955,1200355310833637,-2.322,8.86695,2.16195
1680020366958,1200355313335810,-2.2810502,8.929951,2.29395
1680020366960,1200355315838195,-2.4469502,8.797951,2.124
1680020366964,1200355318340426,-2.32905,8.83905,2.2440002
1680020366966,1200355320842897,-2.46105,8.79105,2.217
1680020366969,1200355323345282,-2.35605,8.805,2.1019502
1680020366970,1200355325847513,-2.2720501,8.910001,2.2099502
1680020366972,1200355328349897,-2.3479502,8.785951,2.1460502
1680020366975,1200355330852128,-2.39895,8.757,2.1379502
1680020366979,1200355333354277,-2.41995,8.773951,2.1979501
1680020366980,1200355335856738,-2.3149502,8.812051,2.2009501
1680020366983,1200355338359123,-2.38905,8.788051,2.13105
1680020366985,1200355340861354,-2.38395,8.773951,2.26305
1680020366988,1200355343363494,-2.2999501,8.937,2.1790502
1680020366990,1200355345865878,-2.32395,8.818951,2.08995
1680020366992,1200355348368109,-2.35995,8.84595,2.0299501
1680020366995,1200355350870571,-2.3389502,8.89395,2.15295
1680020366998,1200355353372931,-2.3170502,8.917951,1.88505
1680020367002,1200355355875162,-2.4109502,8.925,2.05695
1680020367004,1200355358377547,-2.4469502,8.862,1.9590001
1680020367005,1200355360879700,-2.4540002,8.944051,1.91805
1680020367008,1200355363381940,-2.403,8.89605,1.9440001
1680020367010,1200355365884402,-2.4420002,8.92695,2.0040002
1680020367012,1200355368386786,-2.41995,8.974951,1.9990501
1680020367015,1200355370889017,-2.499,8.89095,2.12205
1680020367019,1200355373391152,-2.499,8.91495,1.9969501
1680020367020,1200355375893613,-2.45895,8.877001,1.9420501
1680020367022,1200355378395998,-2.559,8.889001,1.9900501
1680020367025,1200355380898152,-2.52795,8.889001,2.055
1680020367028,1200355383400614,-2.4850502,8.898001,1.9990501
1680020367030,1200355385902830,-2.5450501,8.956051,2.0350502
1680020367032,1200355388405215,-2.5570502,8.89395,2.0400002
1680020367035,1200355390907369,-2.5519502,8.812051,2.0740502
1680020367039,1200355393409600,-2.5810502,8.841001,2.0710502
1680020367041,1200355395911984,-2.463,8.901,2.02005
1680020367043,1200355398414446,-2.43195,8.7640505,2.0740502
1680020367045,1200355400916676,-2.5180502,8.776051,2.0710502
1680020367049,1200355403419061,-2.526,8.83395,2.09295
1680020367050,1200355405921292,-2.46795,8.889001,2.0710502
1680020367053,1200355408423704,-2.607,8.785951,2.08605
1680020367055,1200355410925858,-2.4799502,8.73795,2.0740502
1680020367059,1200355413428320,-2.523,8.82705,2.2080002
1680020367060,1200355415930551,-2.36295,8.85795,2.1670501
1680020367062,1200355418432705,-2.4850502,8.842951,2.16
1680020367065,1200355420935089,-2.5519502,8.83395,2.1979501
1680020367068,1200355423437320,-2.4439502,8.79105,2.1340501
1680020367070,1200355425939705,-2.60205,8.841001,2.2750502
1680020367072,1200355428442166,-2.5519502,8.75895,2.2080002
1680020367076,1200355430944388,-2.4780002,8.88195,2.1979501
1680020367080,1200355433446772,-2.559,8.80305,2.22195
1680020367081,1200355435949003,-2.4850502,8.898001,2.33205
1680020367083,1200355438451152,-2.3749502,8.87895,2.292
1680020367085,1200355440953537,-2.427,8.944051,2.2339501
1680020367088,1200355443455998,-2.5140002,8.917951,2.2729502
1680020367090,1200355445958229,-2.39595,8.946,2.39205
1680020367092,1200355448460614,-2.463,8.982,2.2699502
1680020367095,1200355450962834,-2.5090501,8.842951,2.3400002
1680020367098,1200355453465219,-2.46795,9.042001,2.1979501
1680020367100,1200355455967373,-2.4420002,9.088051,2.25795
1680020367102,1200355458469604,-2.4540002,8.99895,2.16195
1680020367105,1200355460972056,-2.5540502,9.03195,2.2050002
1680020367108,1200355463474441,-2.3359501,9.106951,2.1979501
1680020367110,1200355465976595,-2.29305,9.1380005,2.22
1680020367114,1200355468478810,-2.4130502,9.19095,2.124
1680020367116,1200355470981195,-2.403,9.0060005,2.15805
1680020367119,1200355473483426,-2.4510002,9.06795,2.1460502
1680020367121,1200355475985887,-2.4799502,9.054001,2.0020502
1680020367122,1200355478488272,-2.43495,9.00405,2.11695
1680020367125,1200355480990503,-2.38395,9.082951,1.9470001
1680020367128,1200355483492887,-2.3820002,9.094951,2.16
1680020367130,1200355485995041,-2.4780002,9.11205,2.08305
1680020367132,1200355488497272,-2.535,9.127951,2.0350502
1680020367135,1200355490999729,-2.49705,9.1039505,2.052
1680020367139,1200355493502113,-2.5570502,9.12405,2.0070002
1680020367140,1200355496004344,-2.60205,9.03195,1.9590001
1680020367142,1200355498506729,-2.526,9.135,1.8889501
1680020367145,1200355501008950,-2.595,9.12405,2.0350502
1680020367148,1200355503511104,-2.60505,9.139951,1.9660501
1680020367152,1200355506013566,-2.7510002,8.874001,2.00895
1680020367154,1200355508515950,-2.7199502,8.913,1.9249501
1680020367155,1200355511018181,-2.65995,8.997001,1.8870001
1680020367159,1200355513520566,-2.6790001,8.920051,1.9560001
1680020367160,1200355516022720,-2.6239502,8.98005,1.9110001
1680020367163,1200355518524950,-2.73405,8.87205,1.9080001
1680020367165,1200355521027412,-2.571,9.088051,1.88505
1680020367168,1200355523529801,-2.7240002,8.97,2.055
1680020367170,1200355526032031,-2.60205,8.946,2.0350502
1680020367173,1200355528534416,-2.6910002,8.85795,2.05695
1680020367175,1200355531036647,-2.5500002,8.818951,2.124
1680020367179,1200355533538787,-2.66205,8.78295,2.0760002
1680020367180,1200355536041171,-2.5830002,8.793,2.2390501
1680020367182,1200355538543633,-2.6550002,8.812051,2.0710502
1680020367185,1200355541045864,-2.664,8.79105,2.24895
1680020367190,1200355543548036,-2.667,8.72805,2.2369502
1680020367191,1200355546050421,-2.6860502,8.800051,2.2840502
1680020367193,1200355548552652,-2.6089501,8.83605,2.229
1680020367195,1200355551055036,-2.6520002,8.908051,2.1100502
1680020367198,1200355553557498,-2.5930502,8.71395,2.3080502
1680020367200,1200355556059729,-2.6550002,8.818951,2.13105
1680020367203,1200355558562113,-2.5930502,8.865001,2.2099502
1680020367205,1200355561064344,-2.5900502,8.908051,2.3040001
1680020367208,1200355563566498,-2.56095,8.932051,2.265
1680020367211,1200355566068883,-2.60205,8.75895,2.2770002
1680020367212,1200355568571344,-2.5849502,8.925,2.229
1680020367215,1200355571073575,-2.5399501,8.88405,2.2080002
1680020367218,1200355573575960,-2.499,8.877001,2.09295
1680020367220,1200355576078190,-2.39595,8.932051,2.2339501
1680020367222,1200355578580575,-2.3700001,8.961,2.1460502
1680020367227,1200355581082729,-2.559,8.89605,2.12205
1680020367230,1200355583585190,-2.5830002,8.81505,2.25795
1680020367231,1200355586087421,-2.463,8.961,2.1460502
1680020367234,1200355588589806,-2.41995,8.944051,2.1670501
1680020367240,1200355591091960,-2.499,8.962951,2.0740502
1680020367240,1200355593594190,-2.56605,8.97,2.12205
1680020367241,1200355596096575,-2.52795,8.91495,2.18595
1680020367243,1200355598598806,-2.4439502,8.961,2.0640001
1680020367246,1200355601101267,-2.463,9.04905,2.12205
1680020367248,1200355603603667,-2.50605,9.121051,1.94895
1680020367251,1200355606105898,-2.65995,8.922001,2.09505
1680020367253,1200355608608282,-2.466,9.14295,1.9759501
1680020367255,1200355611110436,-2.4490502,9.05595,1.9560001
1680020367259,1200355613612667,-2.50605,9.066,1.91805
1680020367260,1200355616115129,-2.63805,8.946,1.9009501
1680020367264,1200355618617513,-2.53005,9.05895,1.9780501
1680020367266,1200355621119667,-2.6140501,8.989051,1.9440001
1680020367269,1200355623621889,-2.5780501,8.913,2.01405
1680020367271,1200355626124273,-2.63805,8.862,1.9159501
1680020367273,1200355628626504,-2.6449502,8.853001,2.04495
1680020367275,1200355631128966,-2.7120001,8.736,1.9590001
1680020367278,1200355633631350,-2.6860502,8.89095,1.96395
1680020367280,1200355636133581,-2.67405,8.88405,2.0070002
1680020367283,1200355638635735,-2.5759501,8.865001,1.9080001
1680020367285,1200355641138120,-2.52795,8.886001,2.09505
1680020367288,1200355643640350,-2.5879502,8.949,1.9369501
1680020367290,1200355646142812,-2.66205,8.769,2.1649501
1680020367293,1200355648645182,-2.7,8.98005,1.9519501
1680020367296,1200355651147412,-2.64105,8.889001,2.08605
1680020367299,1200355653649566,-2.5470002,8.973001,1.9200001
1680020367302,1200355656152014,-2.571,8.92695,1.9969501
1680020367304,1200355658654168,-2.5830002,8.865001,1.9780501
1680020367306,1200355661156629,-2.67195,8.932051,1.88505
1680020367309,1200355663659014,-2.5210502,8.932051,1.9879501
1680020367310,1200355666161244,-2.66205,8.908051,1.9279501
1680020367313,1200355668663398,-2.5180502,8.956051,2.052
1680020367315,1200355671165783,-2.5500002,8.937,1.9969501
1680020367318,1200355673668014,-2.59695,8.908051,2.09505
1680020367320,1200355676170398,-2.5140002,8.962951,1.9399501
1680020367323,1200355678672845,-2.5810502,8.818951,1.9879501
1680020367325,1200355681175076,-2.56395,8.84595,2.05695
1680020367328,1200355683677230,-2.49,8.973001,2.046
1680020367330,1200355686179614,-2.43,9.03705,2.08605
1680020367333,1200355688682091,-2.5900502,9.02805,1.9540501
1680020367335,1200355691184321,-2.6809502,8.841001,2.055
1680020367340,1200355693686706,-2.535,9.009001,2.1340501
1680020367342,1200355696188937,-2.59995,9.03495,1.9950001
1680020367344,1200355698691321,-2.595,9.064051,1.9660501
1680020367346,1200355701193475,-2.4850502,9.19305,2.0329502
1680020367349,1200355703695937,-2.4799502,9.1039505,1.9249501
1680020367351,1200355706198168,-2.60205,8.985001,1.8889501
1680020367353,1200355708700552,-2.6140501,9.06105,1.87995
1680020367355,1200355711202686,-2.47005,9.1710005,1.8919501
1680020367358,1200355713704917,-2.6449502,9.127951,1.9369501
1680020367360,1200355716207302,-2.49405,9.174001,1.9200001
1680020367363,1200355718709763,-2.676,9.217051,1.8649501
1680020367365,1200355721211994,-2.664,8.997001,1.8199501
1680020367368,1200355723714393,-2.6839502,9.127951,1.8250501
1680020367370,1200355726216624,-2.6809502,8.97,1.9399501
1680020367373,1200355728719009,-2.6520002,9.03195,1.8919501
1680020367377,1200355731221149,-2.535,9.16395,2.0329502
1680020367380,1200355733723610,-2.595,9.094951,1.9039501
1680020367382,1200355736225841,-2.5810502,9.09195,2.0380502
1680020367384,1200355738728226,-2.5759501,8.989051,1.9660501
1680020367386,1200355741230456,-2.52795,9.04395,1.8610501
1680020367388,1200355743732845,-2.5140002,8.950951,1.9990501
1680020367390,1200355746235076,-2.59695,8.977051,2.0689502
1680020367393,1200355748737460,-2.5450501,8.973001,2.0020502
1680020367395,1200355751239691,-2.56605,9.009001,2.08605
1680020367398,1200355753742100,-2.5759501,8.905951,2.22195
1680020367400,1200355756244331,-2.523,8.997001,2.08305
1680020367403,1200355758746484,-2.559,8.83395,2.112
1680020367405,1200355761248869,-2.6119502,8.88195,1.9879501
1680020367408,1200355763751100,-2.5210502,8.994,1.9110001
1680020367410,1200355766253561,-2.5519502,9.06795,2.1100502
1680020367414,1200355768755946,-2.5159502,8.961,2.11695
1680020367416,1200355771258177,-2.5729501,8.91495,2.1019502
1680020367420,1200355773760546,-2.53305,8.865001,2.08605
1680020367422,1200355776262777,-2.4780002,9.04905,2.22195
1680020367423,1200355778764931,-2.4109502,9.009001,2.09295
1680020367425,1200355781267393,-2.36295,9.135,2.1360002
1680020367428,1200355783769777,-2.38905,9.06795,2.16
1680020367430,1200355786271931,-2.2789502,9.06105,2.1700501
1680020367433,1200355788774162,-2.36505,9.01605,2.1700501
1680020367435,1200355791276546,-2.3119502,9.00405,2.12895
1680020367438,1200355793778777,-2.3100002,9.0709505,2.3080502
1680020367440,1200355796281244,-2.2120502,9.13305,2.32995
1680020367443,1200355798783628,-2.2450502,9.109051,2.06205
1680020367446,1200355801285859,-2.2410002,9.121051,2.14995
1680020367448,1200355803788244,-2.2050002,9.12405,2.1070502
1680020367452,1200355806290398,-2.18505,9.243,2.05695
1680020367454,1200355808792628,-2.14995,9.15705,2.0640001
1680020367456,1200355811295090,-2.2020001,9.135,2.08605
1680020367459,1200355813797475,-2.1379502,9.22605,2.2030501
1680020367461,1200355816299705,-2.1019502,9.253051,2.08305
1680020367463,1200355818802114,-2.1709502,9.222,2.124
1680020367465,1200355821304345,-2.1760502,9.217051,2.046
1680020367468,1200355823806729,-2.2480502,9.118951,2.05695
1680020367470,1200355826308883,-2.121,9.255,2.0070002
1680020367473,1200355828811345,-2.15205,9.217051,2.0380502
1680020367475,1200355831313585,-2.22405,9.139951,1.8769501
1680020367478,1200355833815969,-2.19495,9.13095,1.9540501
1680020367480,1200355836318123,-2.265,9.13305,1.8750001
1680020367483,1200355838820354,-2.1730502,9.219001,1.9900501
1680020367485,1200355841322748,-2.25705,9.12405,1.9950001
1680020367490,1200355843825210,-2.1760502,9.243,1.8919501
1680020367491,1200355846327441,-2.193,9.102,1.9110001
1680020367493,1200355848829825,-2.3170502,9.052051,1.8700501
1680020367495,1200355851332051,-2.25705,9.241051,1.8649501
1680020367499,1200355853834205,-2.29305,9.11205,1.9039501
1680020367500,1200355856336590,-2.3770502,9.16395,1.8529501
1680020367503,1200355858839051,-2.43495,9.03195,1.8940501
1680020367505,1200355861341282,-2.403,9.147,1.8390001
1680020367508,1200355863843667,-2.4850502,8.953051,1.899
1680020367510,1200355866345897,-2.4490502,8.953051,1.8079501
1680020367513,1200355868848282,-2.4109502,9.052051,1.8250501
1680020367515,1200355871350508,-2.42295,9.04395,1.8730501
1680020367519,1200355873852892,-2.6239502,9.114,1.9969501
1680020367521,1200355876355123,-2.5470002,9.0400505,1.8409501
1680020367523,1200355878857508,-2.4490502,9.17895,1.815
1680020367527,1200355881359744,-2.4109502,9.19995,1.9800001
1680020367530,1200355883861897,-2.4750001,9.16695,1.7860501
1680020367531,1200355886364282,-2.4390001,9.15495,1.8769501
1680020367533,1200355888866744,-2.6500502,9.303,1.8750001
1680020367535,1200355891368974,-2.4439502,9.19305,1.8700501
1680020367539,1200355893871316,-2.5470002,9.139951,1.9080001
1680020367540,1200355896373547,-2.499,9.06105,1.7820001
1680020367543,1200355898875931,-2.4750001,9.121051,1.8649501
1680020367546,1200355901378085,-2.4870002,9.19305,1.794
1680020367549,1200355903880316,-2.5900502,9.2029505,1.96395
1680020367550,1200355906382787,-2.4799502,9.14505,1.8270001
1680020367553,1200355908885171,-2.6910002,9.06795,1.9279501
1680020367555,1200355911387325,-2.53005,9.150001,1.9519501
1680020367558,1200355913889556,-2.5110002,9.102,1.9990501
1680020367560,1200355916391907,-2.3820002,9.118951,1.8610501
1680020367565,1200355918894138,-2.4750001,9.02295,1.9879501
1680020367567,1200355921396600,-2.43705,9.01305,2.01405
1680020367569,1200355923898984,-2.463,8.977051,2.016
1680020367571,1200355926401196,-2.4150002,8.83605,2.0400002
1680020367573,1200355928903581,-2.4109502,8.877001,2.0380502
1680020367576,1200355931405735,-2.32005,8.98005,2.1049502
1680020367579,1200355933907965,-2.226,8.99895,2.00895
1680020367581,1200355936410427,-2.3389502,8.79105,2.0740502
1680020367583,1200355938912812,-2.19705,8.97,2.15295
1680020367585,1200355941415042,-2.2050002,8.949,2.0329502
1680020367588,1200355943917427,-2.2720501,8.934,2.088
1680020367590,1200355946419581,-2.2050002,8.865001,2.11905
1680020367593,1200355948921807,-2.2690501,8.901,2.0760002
1680020367596,1200355951424268,-2.2720501,8.958,2.05005
1680020367598,1200355953926653,-2.2380002,8.944051,2.052
1680020367602,1200355956428883,-2.2810502,8.946,2.1019502
1680020367604,1200355958931056,-2.35305,8.841001,2.05005
1680020367606,1200355961433441,-2.35605,8.841001,1.9969501
1680020367608,1200355963935672,-2.40105,8.901,2.1019502
1680020367610,1200355966438133,-2.35605,9.0060005,1.8889501
1680020367613,1200355968940518,-2.40105,8.925,1.863
1680020367615,1200355971442744,-2.2450502,9.102,1.9969501
1680020367619,1200355973945128,-2.2429502,9.127951,1.9230001
1680020367621,1200355976447359,-2.2720501,9.250051,1.8750001
1680020367623,1200355978949513,-2.29095,9.135,1.8169501
1680020367625,1200355981451898,-2.35995,9.150001,1.75995
1680020367628,1200355983954388,-2.403,8.982,1.9420501
1680020367631,1200355986456619,-2.4439502,9.17895,1.8220501
1680020367633,1200355988958773,-2.33205,9.11205,1.82895
1680020367635,1200355991461157,-2.26005,9.229051,1.7770501
1680020367640,1200355993963364,-2.499,9.18105,1.75995
1680020367642,1200355996465749,-2.39595,9.315001,1.83405
1680020367644,1200355998968210,-2.46795,9.04395,1.7380501
1680020367646,1200356001470445,-2.35605,9.306001,1.72395
1680020367649,1200356003972830,-2.4870002,9.198001,1.8510001
1680020367651,1200356006474984,-2.5420501,9.094951,1.7380501
1680020367654,1200356008977214,-2.3100002,9.265051,1.8889501
1680020367655,1200356011479599,-2.4420002,9.295951,1.8030001
1680020367659,1200356013982065,-2.46105,9.27705,1.794
1680020367661,1200356016484296,-2.4780002,9.27,1.7170501
1680020367663,1200356018986681,-2.535,9.21,1.7119501
1680020367666,1200356021488912,-2.4820502,9.214951,1.8559501
1680020367668,1200356023991316,-2.46795,9.34395,1.779
1680020367670,1200356026493470,-2.3410501,9.38895,2.00895
1680020367673,1200356028995932,-2.298,9.298051,1.7740501
1680020367677,1200356031498157,-2.46105,9.19305,1.7860501
1680020367680,1200356034000542,-2.5180502,9.219001,1.746
1680020367681,1200356036502696,-2.502,9.186001,1.8460501
1680020367683,1200356039004927,-2.367,9.183001,1.8049501
1680020367685,1200356041507311,-2.39895,9.23595,1.7770501
1680020367688,1200356044009537,-2.463,9.19305,1.8079501
1680020367690,1200356046511999,-2.403,9.21,1.81305
1680020367693,1200356049014383,-2.4079502,9.274051,1.83405
1680020367695,1200356051516614,-2.3700001,9.231001,1.7479501
1680020367699,1200356054018778,-2.4490502,9.127951,1.8250501
1680020367701,1200356056521163,-2.5110002,9.147,1.815
1680020367703,1200356059023393,-2.4420002,9.14505,1.9230001
1680020367706,1200356061525855,-2.49705,9.01605,1.8370501
1680020367708,1200356064028239,-2.43195,9.05595,1.815
1680020367710,1200356066530513,-2.3410501,9.064051,1.9399501
1680020367716,1200356069032667,-2.3359501,9.02295,2.1070502
1680020367719,1200356071535052,-2.298,9.06795,2.04495
1680020367720,1200356074037282,-2.2999501,8.946,2.052
1680020367721,1200356076539734,-2.2840502,8.98005,2.08305
1680020367723,1200356079042119,-2.298,9.0730505,2.0329502
1680020367725,1200356081544349,-2.2120502,8.908051,2.06205
1680020367728,1200356084046503,-2.226,9.13305,2.124
1680020367730,1200356086548888,-2.32905,8.755051,2.1360002
1680020367733,1200356089051143,-2.12805,8.91495,2.1460502
1680020367736,1200356091553604,-2.1330001,9.009001,2.11695
1680020367739,1200356094055989,-2.2410002,8.917951,2.0689502
1680020367741,1200356096558220,-2.19,8.950951,2.16195
1680020367743,1200356099060599,-2.1330001,8.99895,2.1019502
1680020367746,1200356101562753,-2.0370002,8.986951,2.0740502
1680020367748,1200356104064984,-2.0710502,8.977051,2.16195
1680020367752,1200356106567445,-2.29095,8.793,2.1360002
1680020367754,1200356109069840,-2.16405,8.973001,2.11695
1680020367756,1200356111571994,-2.1019502,9.03195,2.0710502
1680020367758,1200356114074225,-2.0299501,9.162001,2.0740502
1680020367760,1200356116576609,-2.2450502,8.941051,1.9900501
1680020367763,1200356119078840,-2.11605,8.989051,1.968
1680020367766,1200356121581239,-2.0680501,9.14295,2.016
1680020367768,1200356124083700,-2.19495,9.05895,1.9399501
1680020367771,1200356126585931,-2.14995,9.14505,1.9969501
1680020367773,1200356129088316,-2.12805,9.18105,1.8870001
1680020367776,1200356131590469,-2.1660001,9.11205,2.0380502
1680020367779,1200356134092686,-2.1090002,9.31995,1.91805
1680020367781,1200356136595071,-2.1660001,9.229051,1.8730501
1680020367783,1200356139097532,-2.1450002,9.106951,1.88505
1680020367786,1200356141599763,-2.1450002,9.186001,1.8510001
1680020367790,1200356144102153,-2.16405,9.121051,1.79595
1680020367792,1200356146604384,-2.2410002,9.150001,1.88205
1680020367794,1200356149106537,-2.214,9.076051,1.779
1680020367796,1200356151608922,-2.16405,9.198001,1.8100501
1680020367798,1200356154111374,-2.1330001,9.094951,1.9080001
1680020367801,1200356156613604,-2.2759502,9.234,1.7890501
1680020367803,1200356159115989,-2.18295,9.19095,1.7190001
1680020367806,1200356161618143,-2.22405,9.258,1.7530501
1680020367808,1200356164120388,-2.25495,9.217051,1.8370501
1680020367810,1200356166622772,-2.20005,9.16695,1.6830001
1680020367813,1200356169125234,-2.2720501,9.241051,1.91805
1680020367816,1200356171627465,-2.2090502,9.19995,1.8529501
1680020367819,1200356174129850,-2.4150002,9.127951,1.8220501
1680020367821,1200356176632081,-2.3100002,9.229051,1.7260501
1680020367823,1200356179134235,-2.367,9.127951,1.6999501
1680020367827,1200356181636628,-2.3359501,9.0709505,1.779
1680020367830,1200356184139090,-2.28795,9.183001,1.8460501
1680020367832,1200356186641321,-2.4850502,9.01305,1.8409501
1680020367833,1200356189143475,-2.3460002,9.052051,1.79805
1680020367836,1200356191645936,-2.298,9.18105,1.8700501
1680020367838,1200356194148085,-2.2810502,9.126,1.8940501
1680020367841,1200356196650470,-2.3389502,9.139951,1.9300501
1680020367843,1200356199152700,-2.35605,9.19095,1.8919501
1680020367846,1200356201655162,-2.2050002,9.27,1.9039501
1680020367848,1200356204157533,-2.2669501,9.28905,1.91805
1680020367850,1200356206659763,-2.3389502,9.243,1.9470001
1680020367853,1200356209161917,-2.253,9.31995,1.8270001
1680020367856,1200356211664302,-2.298,9.385051,1.9800001
1680020367859,1200356214166523,-2.25,9.37005,1.9200001
1680020367861,1200356216668984,-2.43495,9.15705,1.9420501
1680020367865,1200356219171369,-2.214,9.47595,2.0760002
1680020367867,1200356221673600,-2.3389502,9.37695,2.09505
1680020367869,1200356224175984,-2.4180002,9.403951,2.124
1680020367873,1200356226678129,-2.334,9.394051,2.09505
1680020367873,1200356229180360,-2.43495,9.33705,2.1340501
1680020367876,1200356231682821,-2.391,9.246,2.1700501
1680020367879,1200356234185206,-2.5399501,9.2029505,2.15505
1680020367881,1200356236687340,-2.41995,9.298051,2.22705
1680020367883,1200356239189571,-2.4390001,9.150001,2.29905
1680020367886,1200356241691955,-2.391,9.23595,2.3470502
1680020367888,1200356244194186,-2.403,9.219001,2.2750502
1680020367891,1200356246696676,-2.3770502,9.2029505,2.1739502
1680020367893,1200356249199061,-2.334,9.241051,2.2459502
1680020367896,1200356251701292,-2.2789502,9.217051,2.3080502
1680020367899,1200356254203446,-2.2690501,9.265051,2.15505
1680020367902,1200356256705907,-2.2380002,9.217051,2.2699502
1680020367904,1200356259208292,-2.046,9.118951,2.1700501
1680020367907,1200356261710523,-2.0389502,9.222,2.3059502
1680020367909,1200356264212677,-2.1040502,9.082951,2.32305
1680020367911,1200356266715061,-2.0370002,8.99895,2.1769502
1680020367913,1200356269217297,-2.0389502,9.03195,2.265
1680020367916,1200356271719682,-1.9290001,8.977051,2.256
1680020367919,1200356274221912,-1.8090001,8.941051,2.2750502
1680020367922,1200356276724297,-1.8240001,9.030001,2.3830502
1680020367923,1200356279226528,-1.7760001,9.00405,2.32305
1680020367926,1200356281728907,-1.8769501,8.962951,2.2150502
1680020367928,1200356284231138,-1.67295,8.865001,2.217
1680020367931,1200356286733523,-1.77795,8.973001,2.3470502
1680020367933,1200356289235984,-1.6990501,8.937,2.289
1680020367936,1200356291738230,-1.728,8.830951,2.3800502
1680020367941,1200356294240384,-1.8190501,8.82705,2.31795
1680020367942,1200356296742769,-1.86705,8.80305,2.292
1680020367945,1200356299244989,-1.8529501,8.82195,2.32305
1680020367948,1200356301747374,-1.8690001,8.797951,2.21295
1680020367950,1200356304249835,-1.8690001,8.862,2.16
1680020367951,1200356306752066,-1.8840001,9.02805,2.12595
1680020367953,1200356309254451,-1.9939501,9.02505,2.01
1680020367956,1200356311756586,-2.01,8.989051,1.9759501
1680020367958,1200356314258817,-2.0629501,9.02295,1.9080001
1680020367961,1200356316761201,-2.11605,8.986951,1.9009501
1680020367963,1200356319263663,-2.13,9.02295,1.71405
1680020367966,1200356321765822,-2.193,9.01095,1.72905
1680020367968,1200356324268052,-2.1379502,9.05595,1.7580001
1680020367971,1200356326770437,-2.23305,9.0400505,1.7260501
1680020367973,1200356329272668,-2.1019502,9.0060005,1.8319501
1680020367977,1200356331775033,-2.21895,9.042001,1.71
1680020367981,1200356334277495,-2.229,9.066,1.8409501
1680020367982,1200356336779726,-2.19495,9.05895,1.7029501
1680020367984,1200356339282110,-2.253,9.018001,1.7890501
1680020367986,1200356341784264,-2.2360501,9.030001,2.016
1680020367989,1200356344286495,-2.25,9.078,1.7359501
1680020367991,1200356346788880,-2.12805,9.11205,1.7530501
1680020367993,1200356349291110,-2.2050002,9.085051,1.69305
1680020367997,1200356351793495,-2.1709502,9.05595,1.8889501
1680020367999,1200356354295711,-2.28795,9.109051,1.7410501
1680020368001,1200356356798095,-2.28795,9.283951,1.794
1680020368003,1200356359300326,-2.29605,9.198001,1.863
1680020368006,1200356361802711,-2.2720501,9.2029505,1.7479501
1680020368008,1200356364304941,-2.2999501,9.253051,1.7340001
1680020368011,1200356366807394,-2.3080502,9.298051,1.7910001
1680020368015,1200356369309779,-2.3170502,9.315001,1.84395
1680020368018,1200356371811932,-2.298,9.243,1.7770501
1680020368020,1200356374314182,-2.4420002,9.33195,1.6500001
1680020368022,1200356376816567,-2.35995,9.271951,1.67595
1680020368024,1200356379318798,-2.403,9.28905,1.8870001
1680020368026,1200356381821259,-2.4780002,9.298051,1.67595
1680020368028,1200356384323644,-2.5090501,9.23595,1.9560001
1680020368031,1200356386825889,-2.5420501,9.28905,1.7479501
1680020368034,1200356389328042,-2.49,9.234,1.8370501
1680020368036,1200356391830427,-2.47305,9.306001,1.9470001
1680020368039,1200356394332658,-2.5159502,9.18105,1.7820001
1680020368041,1200356396835148,-2.4180002,9.159,1.9420501
1680020368044,1200356399337302,-2.42295,9.115951,1.9159501
1680020368046,1200356401839687,-2.25705,9.23595,2.15295
1680020368049,1200356404341918,-2.265,9.139951,2.0400002
1680020368053,1200356406844312,-2.2069502,9.094951,2.1460502
1680020368054,1200356409346543,-2.11605,9.19305,2.2410002
1680020368057,1200356411849005,-2.0629501,9.094951,2.1979501
1680020368060,1200356414351389,-2.15895,9.06795,2.2459502
1680020368062,1200356416853620,-2.07495,9.0709505,2.32005
1680020368064,1200356419355759,-2.2480502,9.114,2.15295
1680020368066,1200356421858143,-2.1400502,9.03495,2.325
1680020368069,1200356424360374,-2.157,9.085051,2.33505
1680020368071,1200356426862759,-2.14695,8.953051,2.2770002
1680020368074,1200356429364990,-2.154,8.920051,2.2080002
1680020368076,1200356431867369,-2.08995,8.986951,2.1790502
1680020368078,1200356434369600,-2.1709502,9.00405,2.2800002
1680020368081,1200356436871985,-2.154,8.98005,2.26305
1680020368083,1200356439374215,-2.2050002,8.961,2.193
1680020368086,1200356441876591,-2.1450002,9.03195,2.3400002
1680020368090,1200356444379053,-2.14695,9.0400505,2.11395
1680020368092,1200356446881206,-2.1760502,9.094951,2.232
1680020368094,1200356449383437,-2.0730002,9.147,2.2390501
1680020368096,1200356451885826,-2.25495,9.078,2.0670002
1680020368099,1200356454388057,-2.2069502,9.118951,2.2750502
1680020368101,1200356456890441,-2.12805,9.15495,2.1360002
1680020368104,1200356459392903,-2.193,9.21195,2.22495
1680020368106,1200356461895119,-2.154,9.15705,2.124
1680020368109,1200356464397503,-2.1330001,9.234,1.9200001
1680020368111,1200356466899657,-2.154,9.217051,2.05905
1680020368114,1200356469401888,-2.085,9.258,1.9590001
1680020368116,1200356471904277,-2.0970001,9.328951,2.05905
1680020368119,1200356474406739,-2.157,9.35595,1.9879501
1680020368121,1200356476908893,-2.11095,9.33405,1.7860501
1680020368124,1200356479411124,-2.1760502,9.34095,2.05905
1680020368128,1200356481913527,-2.08005,9.43995,2.0689502
1680020368130,1200356484415758,-2.1780002,9.32505,1.932
1680020368132,1200356486918143,-2.05395,9.33405,2.12205
1680020368134,1200356489420373,-2.11605,9.37005,1.9560001
1680020368136,1200356491922835,-2.1330001,9.48795,2.02005
1680020368139,1200356494424994,-2.08695,9.35295,2.0299501
1680020368141,1200356496927378,-2.1709502,9.361051,1.8030001
1680020368144,1200356499429609,-2.16405,9.411,2.028
1680020368146,1200356501931994,-2.19,9.42,1.9950001
1680020368149,1200356504434148,-2.229,9.38895,1.9080001
1680020368151,1200356506936705,-2.19705,9.35595,2.016
1680020368153,1200356509438859,-2.262,9.351001,1.7719501
1680020368156,1200356511941244,-2.2669501,9.33405,1.81305
1680020368158,1200356514443474,-2.32395,9.21195,1.79805
1680020368161,1200356516945854,-2.4150002,9.33195,1.815
1680020368165,1200356519448085,-2.3790002,9.19095,1.8769501
1680020368168,1200356521950546,-2.49195,9.15705,1.75995
1680020368169,1200356524452700,-2.5399501,9.174001,1.82895
1680020368171,1200356526955071,-2.5780501,9.05595,1.815
1680020368174,1200356529457302,-2.5780501,9.1380005,1.8030001
1680020368177,1200356531959686,-2.5470002,9.1039505,1.8559501
1680020368180,1200356534461917,-2.56395,8.925,1.7340001
1680020368181,1200356536964392,-2.5759501,8.937,1.8460501
1680020368184,1200356539466777,-2.5900502,8.982,1.8970501
1680020368186,1200356541969008,-2.60505,8.800051,1.8750001
1680020368189,1200356544471162,-2.5810502,8.91495,1.9159501
1680020368191,1200356546973546,-2.5180502,8.805,1.91295
1680020368194,1200356549475758,-2.499,8.874001,1.8220501
1680020368196,1200356551978143,-2.39595,8.70405,1.932
1680020368199,1200356554480374,-2.334,8.86005,1.8079501
1680020368203,1200356556982748,-2.38905,8.767051,1.9009501
1680020368204,1200356559484979,-2.29605,8.757,1.863
1680020368206,1200356561987364,-2.193,8.82705,1.9729501
1680020368209,1200356564489594,-2.1709502,8.724,1.8940501
1680020368211,1200356566991979,-2.1780002,8.69505,1.815
1680020368214,1200356569494426,-2.15895,8.779051,2.028
1680020368217,1200356571996580,-2.0989501,8.7310505,1.84395
1680020368220,1200356574498811,-2.154,8.800051,1.8100501
1680020368221,1200356577001196,-2.0970001,8.757,1.9609501
1680020368223,1200356579503422,-2.1379502,8.898001,1.8970501
1680020368227,1200356582005806,-2.08995,8.89095,1.8750001
1680020368229,1200356584508037,-2.118,8.818951,1.7580001
1680020368231,1200356587010422,-2.1040502,8.901,1.8250501
1680020368233,1200356589512652,-2.2360501,8.908051,1.8319501
1680020368237,1200356592015052,-2.05395,8.87895,1.7119501
1680020368240,1200356594517283,-2.16405,8.89605,1.8250501
1680020368242,1200356597019667,-2.217,9.01605,1.7770501
1680020368245,1200356599521898,-2.2380002,8.99895,1.7740501
1680020368248,1200356602024283,-2.29605,8.941051,1.7340001
1680020368250,1200356604526514,-2.463,8.88195,1.863
1680020368252,1200356607028898,-2.334,8.96805,1.7770501
1680020368254,1200356609531129,-2.3170502,8.953051,1.899
1680020368256,1200356612033513,-2.4390001,9.03495,1.8870001
1680020368260,1200356614535974,-2.28795,8.997001,1.75995
1680020368262,1200356617038205,-2.3080502,8.913,1.91295
1680020368263,1200356619540359,-2.3359501,9.01605,1.7890501
1680020368267,1200356622042734,-2.403,9.021001,1.69305
1680020368269,1200356624544965,-2.394,9.03195,1.8390001
1680020368271,1200356627047350,-2.4750001,9.04695,1.7479501
1680020368274,1200356629549580,-2.334,9.021001,1.9009501
1680020368278,1200356632051971,-2.46795,9.04695,1.9159501
1680020368280,1200356634554202,-2.43495,9.04395,1.8049501
1680020368282,1200356637056587,-2.2789502,9.121051,1.76205
1680020368284,1200356639558817,-2.45895,9.078,1.7890501
1680020368287,1200356642061202,-2.3719501,9.1380005,1.8100501
1680020368289,1200356644563452,-2.4780002,9.078,1.72395
1680020368293,1200356647065836,-2.4060001,9.118951,1.91295
1680020368294,1200356649568067,-2.49,9.0060005,1.8889501
1680020368297,1200356652070452,-2.47005,9.109051,1.9230001
1680020368300,1200356654572696,-2.559,9.05895,1.9080001
1680020368301,1200356657075081,-2.4490502,9.159,1.899
1680020368304,1200356659577312,-2.5450501,9.243,1.8700501
1680020368307,1200356662079773,-2.56395,9.078,1.695
1680020368309,1200356664582158,-2.50605,9.16395,1.8390001
1680020368311,1200356667084288,-2.5570502,9.0709505,1.88205
1680020368316,1200356669586519,-2.595,9.16395,1.9060501
1680020368324,1200356672088903,-2.571,9.151951,1.9849501
1680020368324,1200356674591134,-2.538,9.174001,1.8559501
1680020368324,1200356677093519,-2.52795,9.12405,1.7770501
1680020368324,1200356679595749,-2.56095,9.15495,1.8319501
1680020368327,1200356682098134,-2.5540502,9.183001,1.8199501
1680020368329,1200356684600365,-2.5830002,9.19995,1.8870001
1680020368331,1200356687102749,-2.6449502,9.115951,1.7890501
1680020368334,1200356689604985,-2.49195,9.139951,1.84905
1680020368337,1200356692107447,-2.6190002,9.159,1.8460501
1680020368340,1200356694609831,-2.463,9.147,1.8370501
1680020368342,1200356697111985,-2.4870002,9.21,1.79805
1680020368344,1200356699614245,-2.4850502,9.14505,1.7500501
1680020368347,1200356702116630,-2.5830002,9.255,1.9230001
1680020368349,1200356704618784,-2.60205,9.1380005,1.8940501
1680020368353,1200356707121014,-2.523,9.18105,1.9399501
1680020368354,1200356709623480,-2.4390001,9.0400505,1.9249501
1680020368357,1200356712125864,-2.535,9.121051,1.91805
1680020368359,1200356714628095,-2.49405,9.14295,1.9780501
1680020368361,1200356717130480,-2.47305,9.076051,1.9990501
1680020368364,1200356719632711,-2.38695,9.162001,1.9470001
1680020368367,1200356722135114,-2.45595,9.052051,1.96395
1680020368369,1200356724637345,-2.3770502,9.15705,1.91295
1680020368371,1200356727139730,-2.2810502,9.076051,1.8750001
1680020368374,1200356729641960,-2.23305,9.127951,1.9590001
1680020368378,1200356732144345,-2.2999501,9.05895,1.9420501
1680020368380,1200356734646576,-2.2669501,8.956051,2.0020502
1680020368383,1200356737148960,-2.262,8.953051,2.043
1680020368384,1200356739651422,-2.21895,9.009001,2.13105
1680020368387,1200356742153653,-2.1450002,8.99205,1.9900501
1680020368391,1200356744655821,-2.193,8.994,2.1049502
1680020368392,1200356747158205,-2.2069502,9.0060005,2.1460502
1680020368394,1200356749660436,-2.20005,9.03195,2.112
1680020368397,1200356752162821,-2.32905,9.05595,2.21295
1680020368399,1200356754665065,-2.3080502,9.04695,2.22195
1680020368401,1200356757167450,-2.32905,9.02805,2.2390501
1680020368404,1200356759669681,-2.3170502,9.102,2.12205
1680020368407,1200356762172065,-2.3749502,9.0730505,2.06205
1680020368409,1200356764674282,-2.32005,9.174001,2.0760002
1680020368411,1200356767176667,-2.41995,9.085051,2.0070002
1680020368414,1200356769679128,-2.4109502,9.246,1.9519501
1680020368417,1200356772181282,-2.35305,9.207001,1.9519501
1680020368420,1200356774683513,-2.4130502,9.31995,1.779
1680020368422,1200356777185898,-2.3479502,9.1710005,1.8199501
1680020368424,1200356779688128,-2.4420002,9.255,1.84395
1680020368429,1200356782190527,-2.36295,9.19095,1.8649501
1680020368431,1200356784692758,-2.286,9.217051,1.659
1680020368432,1200356787195142,-2.358,9.198001,1.88205
1680020368434,1200356789697373,-2.29305,9.17895,1.899
1680020368438,1200356792199758,-2.3790002,9.13095,1.6669501
1680020368439,1200356794701989,-2.2789502,9.195001,1.9080001
1680020368441,1200356797204373,-2.22105,9.241051,1.6879501
1680020368444,1200356799706604,-2.11095,9.217051,1.8649501
1680020368448,1200356802208989,-2.20005,9.207001,1.8559501
1680020368449,1200356804711219,-2.1780002,9.15495,1.8649501
1680020368451,1200356807213604,-2.1349502,9.198001,1.8679501
1680020368454,1200356809715835,-2.2050002,9.174001,1.8750001
1680020368458,1200356812218219,-2.16195,9.174001,1.779
1680020368461,1200356814720436,-2.19705,9.0709505,1.7700001
1680020368462,1200356817222898,-2.2069502,9.174001,1.76505
1680020368465,1200356819725052,-2.2380002,9.174001,1.72395
1680020368468,1200356822227436,-2.2360501,9.102,1.79805
1680020368470,1200356824729667,-2.3029501,9.088051,1.6860001
1680020368472,1200356827232033,-2.3479502,9.097051,1.794
1680020368474,1200356829734263,-2.3749502,9.021001,1.9009501
1680020368478,1200356832236725,-2.3100002,9.03705,1.82895
1680020368481,1200356834738879,-2.38905,8.985001,1.9990501
1680020368482,1200356837241272,-2.3460002,8.901,1.8610501
1680020368484,1200356839743503,-2.35605,8.953051,2.055
1680020368488,1200356842245965,-2.3389502,8.98005,1.9470001
1680020368490,1200356844748119,-2.358,8.977051,2.046
1680020368492,1200356847250503,-2.3719501,8.874001,2.01405
1680020368495,1200356849752734,-2.3119502,8.925,2.05695
1680020368499,1200356852255119,-2.3170502,8.944051,2.052
1680020368501,1200356854757349,-2.3050501,8.973001,2.12205
1680020368503,1200356857259797,-2.286,9.0060005,2.229
1680020368505,1200356859762181,-2.35305,9.094951,2.05695
1680020368509,1200356862264412,-2.265,9.018001,2.08605
1680020368510,1200356864766566,-2.25705,8.997001,1.9279501
1680020368512,1200356867268951,-2.2740002,9.088051,2.09805
1680020368514,1200356869771168,-2.2720501,9.0709505,2.043
1680020368518,1200356872273321,-2.2720501,9.15705,1.932
1680020368520,1200356874775783,-2.2410002,9.114,1.9399501
1680020368523,1200356877278168,-2.2840502,9.0730505,1.8700501
1680020368525,1200356879780388,-2.214,9.13095,2.055
1680020368528,1200356882282773,-2.2740002,9.14295,2.0380502
1680020368529,1200356884785004,-2.286,9.15705,2.1340501
1680020368532,1200356887287388,-2.25495,9.114,2.12205
1680020368534,1200356889789850,-2.32395,9.16695,2.0299501
1680020368538,1200356892292000,-2.2810502,9.147,2.05905
1680020368542,1200356894794231,-2.32395,8.99205,2.0329502
1680020368545,1200356897296615,-2.3029501,9.12405,1.899
1680020368546,1200356899798841,-2.2669501,9.1710005,2.028
1680020368556,1200356902301226,-2.42505,9.114,1.9440001
1680020368557,1200356904803687,-2.26005,9.115951,2.08605
1680020368557,1200356907305841,-2.2759502,9.094951,1.983
1680020368557,1200356909808072,-2.35605,9.139951,2.043
1680020368558,1200356912310437,-2.3770502,9.01605,1.9159501
1680020368560,1200356914812668,-2.3790002,9.11205,2.0380502
1680020368561,1200356917315053,-2.4750001,9.04395,1.9039501
1680020368564,1200356919817283,-2.403,9.05595,2.1070502
1680020368567,1200356922319648,-2.358,9.094951,1.9420501
1680020368569,1200356924821879,-2.427,9.042001,2.016
1680020368572,1200356927324264,-2.2810502,9.01605,1.9159501
1680020368574,1200356929826494,-2.43195,9.03195,1.9249501
1680020368579,1200356932328865,-2.35995,9.064051,1.88205
1680020368581,1200356934831096,-2.3749502,9.042001,1.9420501
1680020368583,1200356937333557,-2.322,9.066,2.05695
1680020368585,1200356939835711,-2.4750001,9.126,2.052
1680020368587,1200356942338096,-2.502,9.10005,1.9279501
1680020368590,1200356944840312,-2.46105,9.135,1.8250501
1680020368591,1200356947342697,-2.45595,9.114,1.9080001
1680020368594,1200356949844851,-2.43,9.054001,1.8679501
1680020368597,1200356952347312,-2.535,9.102,1.9759501
1680020368599,1200356954849543,-2.4109502,9.118951,1.8649501
1680020368601,1200356957351913,-2.49,9.021001,1.71405
1680020368604,1200356959854144,-2.50605,9.150001,1.84905
1680020368608,1200356962356528,-2.4780002,9.088051,1.7479501
1680020368610,1200356964858759,-2.4780002,9.082951,1.7700001
1680020368612,1200356967361134,-2.499,9.127951,1.8270001
1680020368616,1200356969863364,-2.43195,9.085051,1.7820001
1680020368618,1200356972365749,-2.43705,9.066,1.84395
1680020368621,1200356974867980,-2.42295,9.10005,1.8559501
1680020368623,1200356977370374,-2.46795,9.1380005,1.79595
1680020368625,1200356979872605,-2.46105,9.159,1.8870001
1680020368627,1200356982375067,-2.358,9.088051,1.84905
1680020368629,1200356984877221,-2.36505,9.0730505,1.8750001
1680020368631,1200356987379605,-2.46105,9.088051,1.8250501
1680020368634,1200356989881846,-2.29095,9.16695,1.9009501
1680020368637,1200356992384231,-2.3460002,9.05895,1.8319501
1680020368639,1200356994886461,-2.3389502,9.150001,1.8870001
1680020368642,1200356997388846,-2.334,9.05895,1.9369501
1680020368645,1200356999891072,-2.29605,9.052051,1.8730501
1680020368648,1200357002393456,-2.32905,9.115951,1.9800001
1680020368650,1200357004895687,-2.2840502,9.11205,1.932
1680020368653,1200357007398072,-2.3149502,9.183001,1.9420501
1680020368655,1200357009900288,-2.29605,9.0730505,1.983
1680020368658,1200357012402672,-2.14695,9.052051,1.9399501
1680020368661,1200357014905134,-2.262,9.0730505,2.08605
1680020368662,1200357017407288,-2.2050002,9.097051,1.9009501
1680020368665,1200357019909518,-2.262,9.04905,1.9729501
1680020368667,1200357022411903,-2.2999501,8.994,2.0670002
1680020368669,1200357024914134,-2.2669501,8.946,1.9519501
1680020368672,1200357027416288,-2.3410501,9.01605,2.11395
1680020368674,1200357029918749,-2.29095,9.05595,1.968
1680020368677,1200357032421129,-2.214,9.042001,1.9990501
1680020368679,1200357034923360,-2.35605,9.052051,1.9710001
1680020368682,1200357037425744,-2.2360501,9.0730505,1.9560001
1680020368684,1200357039927975,-2.3410501,9.115951,1.9849501
1680020368687,1200357042430356,-2.33205,8.99895,2.0350502
1680020368691,1200357044932586,-2.3170502,9.030001,1.8370501
1680020368692,1200357047434971,-2.43195,8.99895,2.0329502
1680020368694,1200357049937202,-2.26005,9.03705,2.0710502
1680020368697,1200357052439586,-2.229,9.02505,1.9420501
1680020368700,1200357054941817,-2.25495,9.115951,2.05005
1680020368702,1200357057444202,-2.3149502,9.159,1.8679501
1680020368704,1200357059946663,-2.1379502,9.121051,1.9780501
1680020368707,1200357062448894,-2.2360501,9.09,1.9729501
1680020368709,1200357064951038,-2.2050002,9.12405,2.0640001
1680020368711,1200357067453423,-2.2090502,9.127951,1.96395
1680020368714,1200357069955653,-2.20005,9.183001,2.1409502
1680020368718,1200357072458072,-2.262,9.07995,1.8030001
1680020368719,1200357074960303,-2.20005,9.10005,2.0350502
1680020368721,1200357077462687,-2.214,9.07995,2.1019502
1680020368724,1200357079964918,-2.22105,9.16395,2.04495
1680020368729,1200357082467298,-2.2020001,9.097051,2.016
1680020368730,1200357084969529,-2.23305,9.195001,1.8940501
1680020368732,1200357087471913,-2.2050002,9.18105,2.016
1680020368734,1200357089974144,-2.25705,9.18105,2.016
1680020368737,1200357092476529,-2.2840502,9.2029505,1.9879501
1680020368740,1200357094978763,-2.2669501,9.106951,2.01
1680020368741,1200357097481148,-2.26005,9.12405,2.02005
1680020368744,1200357099983379,-2.28795,9.1710005,1.9230001
1680020368748,1200357102485763,-2.265,9.078,1.7359501
1680020368749,1200357104987917,-2.35995,9.16695,2.0040002
1680020368752,1200357107490461,-2.3149502,9.2029505,1.87995
1680020368754,1200357109992615,-2.35995,9.06795,1.9849501
1680020368757,1200357112494999,-2.3749502,9.159,1.9230001
1680020368759,1200357114997230,-2.33205,9.097051,1.9230001
1680020368762,1200357117499630,-2.394,9.076051,1.9110001
1680020368766,1200357120001860,-2.43495,9.0730505,1.8649501
1680020368768,1200357122504245,-2.286,9.174001,1.9900501
1680020368770,1200357125006476,-2.3100002,9.217051,1.84395
1680020368772,1200357127508860,-2.32395,9.1710005,2.02605
1680020368774,1200357130011091,-2.3790002,9.147,2.046
1680020368777,1200357132513476,-2.3820002,9.13095,1.9780501
1680020368780,1200357135015707,-2.32005,9.085051,1.932
1680020368782,1200357137518168,-2.39595,9.151951,1.9900501
1680020368784,1200357140020341,-2.41995,9.15495,2.0670002
1680020368787,1200357142522726,-2.3389502,9.150001,2.019
1680020368789,1200357145024956,-2.3790002,9.151951,2.00895
1680020368791,1200357147527341,-2.3790002,9.18795,2.02305
1680020368794,1200357150029485,-2.3050501,9.2029505,2.1700501
1680020368797,1200357152531716,-2.3460002,9.186001,1.9369501
1680020368799,1200357155034177,-2.367,9.151951,2.1070502
1680020368803,1200357157536562,-2.3080502,9.109051,2.15805
1680020368805,1200357160038788,-2.3359501,9.195001,2.1790502
1680020368808,1200357162541172,-2.3820002,9.21195,2.124
1680020368809,1200357165043403,-2.298,9.17895,2.1670501
1680020368811,1200357167545788,-2.3770502,9.250051,2.00895
1680020368814,1200357170048018,-2.2690501,9.22605,2.1000001
1680020368817,1200357172550422,-2.2720501,9.21195,2.1460502
1680020368820,1200357175052653,-2.3149502,9.21,2.14995
1680020368822,1200357177555037,-2.3410501,9.18105,2.1790502
1680020368824,1200357180057268,-2.358,9.219001,2.11395
1680020368827,1200357182559451,-2.2720501,9.16695,2.15805
1680020368829,1200357185061912,-2.3050501,9.22605,2.0710502
1680020368831,1200357187564297,-2.367,9.21195,2.046
1680020368834,1200357190066528,-2.25,9.195001,2.08305
1680020368837,1200357192568913,-2.36295,9.34395,2.21295
1680020368841,1200357195071143,-2.43195,9.250051,2.1019502
1680020368843,1200357197573297,-2.4439502,9.127951,2.04495
1680020368845,1200357200075759,-2.41995,9.118951,2.2369502
1680020368848,1200357202578163,-2.502,9.1039505,2.19105
1680020368850,1200357205080394,-2.3790002,9.19995,2.1460502
1680020368852,1200357207582779,-2.46795,9.13305,1.9729501
1680020368854,1200357210085009,-2.50605,9.052051,2.1049502
1680020368857,1200357212587394,-2.298,9.195001,1.9800001
1680020368860,1200357215089874,-2.4079502,9.16695,1.9660501
1680020368862,1200357217592028,-2.32905,9.121051,2.112
1680020368864,1200357220094258,-2.3050501,9.078,2.05905
1680020368867,1200357222596643,-2.2720501,9.262051,2.11695
1680020368870,1200357225098874,-2.43705,8.99895,2.1360002
1680020368872,1200357227601267,-2.09205,9.085051,2.04495
1680020368874,1200357230103421,-2.19,9.15495,2.12205
1680020368879,1200357232605883,-2.061,9.262051,2.11695
1680020368881,1200357235108113,-2.05095,9.088051,2.289
1680020368882,1200357237610513,-2.23095,9.052051,2.0689502
1680020368884,1200357240112744,-2.214,9.076051,2.019
1680020368887,1200357242615128,-2.18505,9.076051,1.9950001
1680020368889,1200357245117282,-2.1660001,8.989051,2.1070502
1680020368892,1200357247619744,-2.1330001,9.04905,1.9780501
1680020368894,1200357250121956,-2.25705,9.00105,2.0740502
1680020368897,1200357252624340,-2.07795,9.11205,2.05695
1680020368900,1200357255126571,-2.229,8.986951,2.04495
1680020368902,1200357257628956,-2.11605,9.02505,2.18205
1680020368904,1200357260131186,-2.043,9.078,2.193
1680020368907,1200357262633571,-2.22105,8.953051,2.02605
1680020368909,1200357265135802,-2.082,9.094951,2.229
1680020368912,1200357267638186,-2.217,8.910001,2.043
1680020368916,1200357270140403,-2.121,8.986951,2.0329502
1680020368919,1200357272642788,-2.08995,9.0060005,2.12595
1680020368920,1200357275144942,-2.1730502,8.965051,2.028
1680020368922,1200357277647403,-2.1090002,8.934,2.2050002
1680020368924,1200357280149634,-2.0659502,8.946,2.29605
1680020368927,1200357282652028,-1.8790501,9.04695,2.19105
1680020368930,1200357285154258,-2.013,8.937,2.1700501
1680020368932,1200357287656643,-2.094,8.920051,2.088
1680020368934,1200357290158874,-2.08005,8.944051,2.2770002
1680020368937,1200357292661258,-2.1040502,8.920051,2.2390501
1680020368940,1200357295163489,-1.99995,8.961,2.256
1680020368942,1200357297665874,-2.1349502,8.962951,2.31795
1680020368945,1200357300168105,-2.1690001,8.938951,2.1720002
1680020368948,1200357302670503,-2.0710502,9.174001,2.28705
1680020368950,1200357305172734,-2.2789502,8.965051,2.25105
1680020368954,1200357307674888,-2.25,8.92695,2.22
1680020368955,1200357310177349,-2.22405,8.982,2.2750502
1680020368958,1200357312679734,-2.193,9.0400505,2.2050002
1680020368960,1200357315181965,-2.2810502,9.05595,2.193
1680020368962,1200357317684349,-2.25495,8.944051,2.265
1680020368964,1200357320186580,-2.193,9.052051,2.1019502
1680020368967,1200357322688734,-2.26005,9.01605,2.1049502
1680020368969,1200357325191196,-2.21895,9.13095,2.364
1680020368972,1200357327693580,-2.3100002,9.02295,2.253
1680020368974,1200357330195811,-2.18505,9.13305,2.2009501
1680020368978,1200357332698196,-2.29305,9.078,2.12205
1680020368981,1200357335200431,-2.3770502,9.03495,2.1409502
1680020368982,1200357337702816,-2.3119502,9.195001,2.12895
1680020368984,1200357340205278,-2.25705,9.127951,2.12595
1680020368987,1200357342707431,-2.298,9.1710005,2.14995
1680020368991,1200357345209652,-2.3080502,9.052051,2.08305
1680020368992,1200357347712037,-2.2429502,9.16395,2.08095
1680020368994,1200357350214191,-2.217,9.18105,2.028
1680020368998,1200357352716421,-2.3790002,9.15705,1.9849501
1680020368999,1200357355218870,-2.33205,9.094951,2.02605
1680020369002,1200357357721255,-2.3050501,9.085051,1.9969501
1680020369004,1200357360223485,-2.253,9.09195,2.01
1680020369008,1200357362725870,-2.265,9.04395,1.96395
1680020369009,1200357365228101,-2.2120502,9.09,2.079
1680020369012,1200357367730485,-2.2999501,9.03195,1.9920001
1680020369015,1200357370232639,-2.25495,9.009001,2.11695
1680020369017,1200357372735101,-2.22105,9.00405,2.1430502
1680020369020,1200357375237317,-2.32905,8.986951,2.05695
1680020369022,1200357377739701,-2.2380002,8.934,2.04495
1680020369024,1200357380241855,-2.2069502,8.934,2.1460502
1680020369029,1200357382744317,-2.3440502,8.898001,2.08605
1680020369031,1200357385246542,-2.2740002,8.929951,2.05695
1680020369033,1200357387748927,-2.2759502,9.052051,2.124
1680020369034,1200357390251158,-2.29605,8.938951,2.046
1680020369037,1200357392753312,-2.3820002,9.01305,1.91805
1680020369039,1200357395255696,-2.3170502,9.02295,2.019
1680020369042,1200357397758139,-2.32005,9.085051,2.08995
1680020369044,1200357400260370,-2.4420002,9.01305,2.0710502
1680020369048,1200357402762754,-2.367,9.042001,1.9710001
1680020369050,1200357405264985,-2.391,9.064051,1.9540501
1680020369052,1200357407767139,-2.38395,9.021001,1.8199501
1680020369054,1200357410269538,-2.45595,9.18105,1.9590001
1680020369057,1200357412772000,-2.47305,8.997001,1.88205
1680020369060,1200357415274231,-2.39895,9.1039505,1.91295
1680020369062,1200357417776385,-2.4180002,9.147,1.9609501
1680020369066,1200357420278855,-2.4130502,9.147,1.9399501
1680020369069,1200357422781009,-2.4420002,9.085051,1.9920001
1680020369070,1200357425283394,-2.3749502,9.085051,2.028
1680020369072,1200357427785874,-2.427,9.088051,1.96395
1680020369074,1200357430288105,-2.35605,9.064051,2.02605
1680020369077,1200357432790490,-2.394,9.076051,2.02005
1680020369079,1200357435292720,-2.29095,9.150001,2.046
1680020369082,1200357437794874,-2.2999501,9.00105,2.05695
1680020369084,1200357440297278,-2.22405,9.05595,2.2099502
1680020369087,1200357442799739,-2.2740002,9.03495,2.04495
1680020369089,1200357445301970,-2.38905,8.917951,2.1379502
1680020369092,1200357447804355,-2.3029501,9.042001,2.11395
1680020369094,1200357450306586,-2.157,8.99895,2.2699502
1680020369097,1200357452808970,-2.25705,9.0060005,2.2030501
1680020369100,1200357455311201,-2.18295,8.88405,2.1379502
1680020369104,1200357457813355,-2.1760502,8.937,2.1720002
1680020369106,1200357460315830,-2.2120502,8.98005,2.2680001
1680020369108,1200357462818215,-2.12295,8.961,2.196
1680020369111,1200357465320369,-2.2669501,8.925,2.12595
1680020369112,1200357467822600,-2.18295,9.00105,2.32305
1680020369114,1200357470324984,-2.1450002,9.00105,2.13105
1680020369118,1200357472827201,-2.2069502,9.064051,2.124
1680020369120,1200357475329662,-2.14995,8.985001,2.253
1680020369122,1200357477832047,-2.154,9.02805,2.12205
1680020369124,1200357480334278,-2.2360501,8.922001,2.11395
1680020369127,1200357482836672,-2.26005,8.89095,2.26305
1680020369129,1200357485338825,-2.286,8.953051,2.26095
1680020369132,1200357487841056,-2.229,8.874001,2.1360002
1680020369134,1200357490343518,-2.3050501,8.961,2.1790502
1680020369137,1200357492845913,-2.4130502,8.910001,2.1379502
1680020369142,1200357495348144,-2.3080502,8.818951,2.22
1680020369144,1200357497850529,-2.38395,8.910001,2.1360002
1680020369145,1200357500352683,-2.32905,8.944051,2.2770002
1680020369148,1200357502854898,-2.4420002,8.98005,2.1340501
1680020369150,1200357505357360,-2.3359501,8.982,2.1700501
1680020369152,1200357507859745,-2.3700001,9.066,2.19105
1680020369154,1200357510361975,-2.3100002,9.03195,2.18205
1680020369157,1200357512864129,-2.36505,9.078,2.1409502
1680020369159,1200357515366514,-2.4060001,9.094951,2.09295
1680020369162,1200357517868745,-2.3050501,9.115951,2.18205
1680020369164,1200357520371206,-2.403,9.066,2.11905
1680020369167,1200357522873591,-2.3029501,9.118951,2.0689502
1680020369169,1200357525375807,-2.334,9.271951,2.0689502
1680020369174,1200357527878192,-2.334,9.327001,2.019
1680020369174,1200357530380423,-2.3460002,9.255,2.079
1680020369179,1200357532882577,-2.4439502,9.32505,1.9849501
1680020369182,1200357535384966,-2.3749502,9.361051,2.0329502
1680020369183,1200357537887428,-2.2840502,9.36795,1.8940501
1680020369185,1200357540389659,-2.3080502,9.328951,1.9519501
1680020369188,1200357542892043,-2.38905,9.351001,1.8049501
1680020369190,1200357545394211,-2.5090501,9.229051,1.9230001
1680020369192,1200357547896442,-2.63595,9.1710005,1.9159501
1680020369194,1200357550398827,-2.595,9.23595,2.02305
1680020369197,1200357552901288,-2.5519502,9.102,1.932
1680020369199,1200357555403519,-2.39595,9.085051,1.9990501
1680020369202,1200357557905893,-2.42505,9.22395,2.052
1680020369204,1200357560408124,-2.39595,9.13305,2.04495
1680020369207,1200357562910278,-2.35305,9.09,2.18595
1680020369209,1200357565412663,-2.3770502,9.127951,1.9969501
1680020369212,1200357567915153,-2.2810502,8.997001,2.0329502
1680020369216,1200357570417384,-2.322,9.078,2.1409502
1680020369219,1200357572919769,-2.28795,9.1380005,2.08995
1680020369221,1200357575421923,-2.193,9.01095,1.9800001
1680020369223,1200357577924153,-2.214,9.09,2.028
1680020369225,1200357580426538,-2.11095,8.982,2.124
1680020369228,1200357582928999,-2.118,8.997001,2.1720002
1680020369230,1200357585431230,-2.121,8.89605,2.25795
1680020369232,1200357587933605,-1.9650002,8.88405,2.1430502
1680020369235,1200357590435759,-2.08005,8.818951,2.2339501
1680020369238,1200357592937989,-2.0059502,8.85495,2.08095
1680020369240,1200357595440374,-1.9960501,8.788051,2.15805
1680020369242,1200357597942610,-1.9050001,8.86005,2.2050002
1680020369245,1200357600445071,-1.8019501,8.87205,2.2680001
1680020369248,1200357602947456,-1.8529501,8.89395,2.25105
1680020369250,1200357605449687,-1.9410001,9.01305,2.12895
1680020369254,1200357607952047,-1.9579501,8.962951,2.1739502
1680020369255,1200357610454201,-2.0299501,8.86005,2.2840502
1680020369258,1200357612956432,-1.9480501,8.958,2.15295
1680020369261,1200357615458894,-2.01495,9.01095,2.13105
1680020369265,1200357617961278,-2.18295,8.946,2.1409502
1680020369265,1200357620463442,-2.1400502,9.01605,2.0740502
1680020369267,1200357622965673,-2.2380002,8.985001,2.1019502
1680020369269,1200357625468057,-2.3479502,8.920051,2.112
1680020369272,1200357627970288,-2.3389502,8.953051,2.1049502
1680020369275,1200357630472750,-2.4850502,9.02295,2.19105
1680020369278,1200357632975134,-2.4490502,9.030001,2.1100502
1680020369280,1200357635477365,-2.45595,8.929951,2.06205
1680020369282,1200357637979519,-2.5450501,8.98005,2.079
1680020369285,1200357640481904,-2.526,8.917951,2.02605
1680020369288,1200357642984138,-2.466,8.874001,2.1430502
1680020369291,1200357645486600,-2.535,8.961,2.046
1680020369293,1200357647988985,-2.6140501,9.0060005,2.0640001
1680020369295,1200357650491215,-2.50395,8.98005,2.12205
1680020369298,1200357652993365,-2.46105,9.04905,2.0689502
1680020369300,1200357655495750,-2.43495,9.11205,2.046
1680020369302,1200357657997981,-2.5210502,9.078,1.9900501
1680020369305,1200357660500442,-2.46105,9.052051,2.1100502
1680020369308,1200357663002782,-2.4799502,9.009001,1.9590001
1680020369310,1200357665504936,-2.36505,9.258,2.00895
1680020369312,1200357668007166,-2.25,9.22605,2.09505
1680020369315,1200357670509551,-2.2720501,9.3490505,2.01405
1680020369318,1200357673011797,-2.3820002,9.31005,2.05005
1680020369320,1200357675514181,-2.3100002,9.20505,1.8919501
1680020369322,1200357678016643,-2.286,9.387,1.9249501
1680020369324,1200357680518874,-2.1760502,9.415951,1.8079501
1680020369329,1200357683021243,-2.18505,9.40905,2.01
1680020369332,1200357685523397,-2.2810502,9.37695,1.9279501
1680020369333,1200357688025628,-2.229,9.3820505,1.8270001
1680020369334,1200357690528013,-2.2740002,9.35595,1.83405
1680020369338,1200357693030474,-2.4109502,9.363001,1.8940501
1680020369340,1200357695532638,-2.3820002,9.265051,1.9039501
1680020369342,1200357698034869,-2.3479502,9.214951,1.863
1680020369344,1200357700537253,-2.3719501,9.097051,2.00895
1680020369348,1200357703039484,-2.427,9.11205,1.88505
1680020369350,1200357705541869,-2.45595,9.16695,2.04495
1680020369352,1200357708044325,-2.4390001,9.150001,2.1070502
1680020369354,1200357710546556,-2.427,9.195001,1.8390001
1680020369357,1200357713048941,-2.4780002,9.198001,2.00895
1680020369359,1200357715551095,-2.403,9.10005,2.028
1680020369362,1200357718053330,-2.3820002,9.066,2.16
1680020369366,1200357720555715,-2.29605,9.13305,2.1049502
1680020369369,1200357723058177,-2.394,8.961,2.09505
1680020369371,1200357725560407,-2.3050501,9.076051,2.12205
1680020369372,1200357728062796,-2.322,8.934,2.12205
1680020369374,1200357730565027,-2.322,9.021001,2.13105
1680020369378,1200357733067181,-2.3460002,8.989051,2.2369502
1680020369380,1200357735569565,-2.26005,8.910001,2.2680001
1680020369382,1200357738072027,-2.18805,8.917951,2.3059502
1680020369384,1200357740574230,-2.2480502,8.86995,2.3419502
1680020369387,1200357743076383,-2.1090002,8.86695,2.45895
1680020369389,1200357745578768,-2.061,8.92695,2.4469502
1680020369392,1200357748080999,-2.08005,8.908051,2.4520502
1680020369395,1200357750583378,-1.9990501,8.920051,2.38695
1680020369398,1200357753085609,-1.9459502,9.02295,2.4160502
1680020369400,1200357755588071,-1.98195,8.949,2.4109502
1680020369404,1200357758090474,-1.9630501,8.937,2.53095
1680020369405,1200357760592705,-2.0299501,8.97,2.4739501
1680020369408,1200357763094859,-2.118,8.934,2.4880502
1680020369410,1200357765597244,-1.9990501,8.91495,2.3730001
1680020369412,1200357768099474,-2.12295,8.908051,2.433
1680020369415,1200357770601921,-2.1330001,8.937,2.43105
1680020369419,1200357773104306,-2.1760502,8.910001,2.40405
1680020369421,1200357775606536,-2.262,8.941051,2.4190502
1680020369422,1200357778108690,-2.32905,8.75895,2.3470502
1680020369425,1200357780611085,-2.403,8.74695,2.39895
1680020369428,1200357783113316,-2.463,8.74695,2.18895
1680020369430,1200357785615777,-2.5090501,8.7310505,2.2099502
1680020369432,1200357788118162,-2.4490502,8.776051,2.328
1680020369435,1200357790620306,-2.43705,8.986951,2.3160002
1680020369438,1200357793122536,-2.49705,8.86695,2.1700501
1680020369442,1200357795624921,-2.535,8.946,2.28705
1680020369444,1200357798127152,-2.39895,8.932051,2.1979501
1680020369446,1200357800629585,-2.45895,8.962951,2.24895
1680020369449,1200357803131970,-2.3700001,9.01605,2.15805
1680020369451,1200357805634201,-2.262,9.076051,2.1430502
1680020369453,1200357808136585,-2.229,9.22605,2.1430502
1680020369455,1200357810638739,-2.2690501,9.14505,2.1409502
1680020369459,1200357813140979,-2.2740002,9.19095,2.09505
1680020369461,1200357815643364,-2.20005,9.291,2.1769502
1680020369463,1200357818145825,-2.2120502,9.13095,2.0640001
1680020369465,1200357820647979,-2.2380002,9.21,2.0740502
1680020369468,1200357823150201,-2.26005,9.16905,2.1670501
1680020369470,1200357825652585,-2.25705,9.17595,2.04495
1680020369472,1200357828154816,-2.25495,9.06795,2.0329502
1680020369475,1200357830657201,-2.1420002,9.082951,2.1000001
1680020369481,1200357833159696,-2.046,9.106951,2.04495
1680020369481,1200357835661927,-2.217,9.15495,2.24895
1680020369483,1200357838164081,-2.11395,9.03495,1.9990501
1680020369485,1200357840666466,-2.16195,9.18105,2.0329502
1680020369488,1200357843168696,-2.1330001,9.07995,1.9900501
1680020369490,1200357845671076,-2.18505,9.14505,1.8510001
1680020369492,1200357848173537,-2.2410002,9.162001,1.8559501
1680020369495,1200357850675768,-2.265,9.03495,1.899
1680020369499,1200357853178153,-2.2810502,9.18105,1.87995
1680020369500,1200357855680327,-2.3029501,9.15495,1.9560001
1680020369502,1200357858182557,-2.2360501,9.19305,1.9420501
1680020369505,1200357860684942,-2.2720501,9.207001,1.8870001
1680020369508,1200357863187404,-2.265,9.229051,1.8940501
1680020369510,1200357865689634,-2.4079502,9.115951,1.8700501
1680020369512,1200357868191788,-2.367,9.139951,1.9560001
1680020369517,1200357870694173,-2.45595,9.21195,1.9350001
1680020369520,1200357873196404,-2.403,9.207001,1.9519501
1680020369522,1200357875698788,-2.49195,9.13095,1.9009501
1680020369524,1200357878215788,-2.4540002,9.16395,1.9039501
1680020369526,1200357880703481,-2.499,9.15705,1.9609501
1680020369528,1200357883205865,-2.4490502,9.23805,2.052
1680020369531,1200357885708096,-2.5570502,9.16395,2.02305
1680020369532,1200357888210250,-2.4780002,9.21,2.0299501
1680020369535,1200357890712629,-2.4799502,9.16395,1.9990501
1680020369538,1200357893214860,-2.47305,9.23595,2.09505
1680020369540,1200357895717322,-2.46105,9.139951,2.12205
1680020369542,1200357898219476,-2.3770502,9.14505,2.0400002
1680020369545,1200357900721855,-2.39895,9.174001,2.0040002
1680020369548,1200357903224086,-2.39595,9.1710005,2.046
1680020369550,1200357905726471,-2.3700001,9.21,2.2009501
1680020369554,1200357908228686,-2.4420002,9.127951,2.1360002
1680020369555,1200357910731148,-2.32395,9.16695,2.1720002
1680020369558,1200357913233533,-2.3460002,9.150001,2.01405
1680020369560,1200357915735686,-2.35095,9.06795,2.19105
1680020369562,1200357918237917,-2.226,9.1380005,2.16
1680020369565,1200357920740274,-2.18295,9.0400505,2.1100502
1680020369568,1200357923242505,-2.22105,8.994,2.184
1680020369570,1200357925744966,-2.1780002,9.01095,2.1739502
1680020369572,1200357928247351,-2.2020001,9.03705,2.2099502
1680020369575,1200357930749495,-2.2050002,9.03195,2.18895
1680020369579,1200357933251956,-2.217,9.042001,2.18205
1680020369580,1200357935754110,-2.26005,9.018001,2.2099502
1680020369582,1200357938256341,-2.1780002,9.00405,2.229
1680020369585,1200357940758802,-2.3149502,8.925,2.22705
1680020369588,1200357943260956,-2.2720501,9.02505,2.08995
1680020369592,1200357945763341,-2.26005,8.953051,2.18205
1680020369594,1200357948265572,-2.19,8.994,2.12895
1680020369595,1200357950767946,-2.32695,8.950951,2.29905
1680020369598,1200357953270177,-2.12295,9.1039505,2.1409502
1680020369600,1200357955772639,-2.1709502,9.0400505,2.13105
1680020369602,1200357958275023,-2.2050002,8.989051,2.08605
1680020369605,1200357960777254,-2.19705,9.0400505,2.1460502
1680020369608,1200357963279423,-2.19705,9.052051,2.11395
1680020369610,1200357965781884,-2.121,9.02295,2.1379502
1680020369612,1200357968284269,-2.217,8.99895,1.9230001
1680020369615,1200357970786500,-2.1780002,9.021001,2.0740502
1680020369619,1200357973288884,-2.1760502,9.01305,2.08095
1680020369621,1200357975791115,-2.22105,9.01605,2.148
1680020369623,1200357978293269,-2.11605,9.06795,1.9900501
1680020369625,1200357980795654,-2.1349502,9.1039505,2.0760002
1680020369630,1200357983298115,-2.19,9.04905,2.12205
1680020369631,1200357985800269,-2.19495,8.97,2.01
1680020369633,1200357988302500,-2.2069502,9.139951,2.0299501
1680020369635,1200357990804884,-2.07495,9.09195,2.0329502
1680020369638,1200357993307110,-2.0320501,9.09,2.08605
1680020369640,1200357995809495,-2.14995,9.07995,2.046
1680020369643,1200357998311956,-2.1450002,8.961,2.0640001
1680020369645,1200358000814171,-2.16405,8.977051,2.05695
1680020369648,1200358003316556,-2.25495,8.950951,1.9800001
1680020369651,1200358005818710,-2.21895,8.920051,2.046
1680020369652,1200358008320940,-2.16195,8.96805,1.9369501
1680020369655,1200358010823325,-2.1709502,8.965051,2.0760002
1680020369659,1200358013325792,-2.19,9.042001,2.0689502
1680020369661,1200358015827945,-2.2069502,9.11205,2.08305
1680020369663,1200358018330176,-2.2480502,8.929951,2.1430502
1680020369667,1200358020832561,-2.2740002,8.973001,2.11905
1680020369670,1200358023334792,-2.29305,8.961,2.1670501
1680020369671,1200358025837176,-2.36505,8.956051,2.09295
1680020369673,1200358028339638,-2.26005,9.12405,2.1790502
1680020369676,1200358030841869,-2.25705,8.962951,2.15295
1680020369678,1200358033344253,-2.38905,9.021001,2.08095
1680020369680,1200358035846407,-2.4420002,8.920051,2.232
1680020369683,1200358038348638,-2.33205,9.102,2.09505
1680020369685,1200358040851022,-2.38395,9.05895,2.18205
1680020369688,1200358043353253,-2.4150002,9.06795,2.256
1680020369690,1200358045855715,-2.4180002,9.030001,2.1700501
1680020369692,1200358048357869,-2.2050002,9.2029505,2.232
1680020369695,1200358050860253,-2.35995,9.19095,2.1430502
1680020369699,1200358053362484,-2.3149502,9.19995,2.2800002
1680020369701,1200358055864869,-2.39595,9.255,2.12205
1680020369704,1200358058367099,-2.4130502,9.27705,2.1790502
1680020369706,1200358060869561,-2.35305,9.294001,2.3080502
1680020369708,1200358063371715,-2.3170502,9.258,2.0740502
1680020369711,1200358065874094,-2.3770502,9.17895,2.29395
1680020369713,1200358068376325,-2.394,9.279,2.253
1680020369715,1200358070878710,-2.4180002,9.219001,2.09295
1680020369719,1200358073380941,-2.3770502,9.27705,2.1049502
1680020369720,1200358075883446,-2.45595,9.34095,2.22705
1680020369723,1200358078385831,-2.32395,9.267,2.29395
1680020369725,1200358080888061,-2.3080502,9.234,2.1379502
1680020369728,1200358083390215,-2.25495,9.306001,2.112
1680020369731,1200358085892609,-2.3170502,9.306001,2.1649501
1680020369733,1200358088394840,-2.4439502,9.19995,2.2390501
1680020369735,1200358090897301,-2.3820002,9.18795,2.15505
1680020369739,1200358093399455,-2.40105,9.174001,2.148
1680020369742,1200358095901821,-2.3410501,9.19995,2.2339501
1680020369744,1200358098404052,-2.41995,9.241051,2.232
1680020369747,1200358100906436,-2.32395,9.094951,2.13105
1680020369749,1200358103408667,-2.35095,9.127951,2.1340501
1680020369751,1200358105911128,-2.35995,9.121051,2.1019502
1680020369752,1200358108413503,-2.32905,9.109051,2.0380502
1680020369755,1200358110915657,-2.286,9.135,2.12205
1680020369758,1200358113417888,-2.19,8.986951,2.0400002
1680020369761,1200358115920272,-2.2740002,9.109051,2.11905
1680020369763,1200358118422503,-2.2759502,9.0400505,2.01405
1680020369765,1200358120924912,-2.214,9.07995,1.9759501
1680020369768,1200358123427373,-2.19705,9.127951,2.09505
1680020369770,1200358125929604,-2.0970001,9.03195,2.028
1680020369773,1200358128431989,-2.25,9.02505,2.1019502
1680020369775,1200358130934134,-2.16195,9.0730505,2.2009501
1680020369780,1200358133436364,-2.025,9.04395,1.9849501
1680020369782,1200358135938749,-2.1379502,8.986951,2.13105
1680020369783,1200358138441224,-2.12805,8.962951,1.9590001
1680020369786,1200358140943378,-2.14695,9.115951,2.09295
1680020369788,1200358143445609,-2.0680501,9.01605,2.05905
1680020369790,1200358145947994,-2.05395,9.06105,2.0640001
1680020369792,1200358148450224,-2.157,8.982,2.0689502
1680020369795,1200358150952619,-2.11605,9.02505,2.016
1680020369800,1200358153455081,-2.08695,9.030001,2.05695
1680020369801,1200358155957311,-2.154,8.934,2.09295
1680020369803,1200358158459465,-2.1760502,9.00105,1.9950001
1680020369805,1200358160961850,-2.193,9.13095,2.2030501
1680020369808,1200358163464081,-2.154,8.953051,2.04495
1680020369810,1200358165966465,-2.16195,9.05895,2.18895
1680020369812,1200358168468927,-2.2740002,9.052051,2.06205
1680020369816,1200358170971096,-2.25,9.085051,2.1790502
1680020369820,1200358173473326,-2.214,9.097051,2.079
1680020369822,1200358175975711,-2.1660001,9.115951,2.0670002
1680020369823,1200358178477942,-2.214,9.03195,2.08305
1680020369825,1200358180980326,-2.262,9.21,2.1649501
1680020369828,1200358183482778,-2.286,9.16395,2.11695
1680020369830,1200358185985009,-2.229,9.106951,2.1340501
1680020369832,1200358188487163,-2.2810502,9.13095,2.05005
1680020369835,1200358190989547,-2.22105,9.13095,2.1670501
1680020369838,1200358193491774,-2.26005,9.13095,2.1460502
1680020369840,1200358195994159,-2.2720501,9.04395,2.1979501
1680020369843,1200358198496389,-2.18505,9.1039505,2.1720002
1680020369845,1200358200998851,-2.29095,9.054001,2.22495
1680020369849,1200358203501226,-2.229,9.16395,2.217
1680020369850,1200358206003456,-2.1400502,8.97,2.232
1680020369854,1200358208505610,-2.181,9.127951,2.2080002
1680020369857,1200358211007995,-2.22105,9.05595,2.2680001
1680020369860,1200358213510226,-2.11095,9.097051,2.33205
1680020369862,1200358216012610,-2.14695,9.09195,2.2800002
1680020369864,1200358218514841,-2.11395,9.097051,2.325
1680020369865,1200358221017226,-2.082,9.04905,2.328
1680020369868,1200358223519456,-2.181,9.09195,2.22705
1680020369870,1200358226021827,-2.1330001,9.106951,2.22195
1680020369873,1200358228524058,-2.1660001,9.16395,2.2699502
1680020369875,1200358231026519,-2.11095,9.16695,2.352
1680020369878,1200358233528904,-2.18505,9.064051,2.29905
1680020369880,1200358236031058,-2.12295,9.102,2.3830502
1680020369882,1200358238533308,-2.14695,9.19995,2.1790502
1680020369885,1200358241035692,-2.1660001,9.127951,2.3440502
1680020369888,1200358243537923,-2.1690001,9.139951,2.2390501
1680020369892,1200358246040370,-2.2450502,9.1380005,2.3800502
1680020369894,1200358248542523,-2.0730002,9.13305,2.3419502
1680020369895,1200358251044985,-2.19495,9.262051,2.33205
1680020369899,1200358253547370,-2.2120502,9.121051,2.2699502
1680020369900,1200358256049523,-2.15205,9.214951,2.2390501
1680020369903,1200358258551764,-2.16405,9.250051,2.217
1680020369905,1200358261054149,-2.13,9.274051,2.1790502
1680020369908,1200358263556380,-2.1349502,9.23805,2.232
1680020369910,1200358266058764,-2.19705,9.19305,2.29905
1680020369912,1200358268561024,-2.154,9.247951,2.328
1680020369915,1200358271063409,-2.1060002,9.217051,2.1700501
1680020369918,1200358273565639,-2.1660001,9.20505,2.29905
1680020369920,1200358276068024,-2.2740002,9.1710005,2.1430502
1680020369922,1200358278570495,-2.18295,9.195001,2.256
1680020369925,1200358281072725,-2.18505,9.15705,2.2080002
1680020369929,1200358283574879,-2.20005,9.085051,2.2459502
1680020369931,1200358286077264,-2.3080502,9.066,2.29395
1680020369933,1200358288579495,-2.3080502,9.076051,2.4190502
1680020369935,1200358291081879,-2.18805,9.118951,2.28195
1680020369939,1200358293584110,-2.29605,9.17595,2.22
1680020369940,1200358296086495,-2.286,9.042001,2.18595
1680020369943,1200358298588725,-2.35605,9.03495,2.292
1680020369945,1200358301091106,-2.3149502,9.066,2.28705
1680020369948,1200358303593337,-2.42295,9.02295,2.29605
1680020369950,1200358306095721,-2.2740002,9.04695,2.2099502
1680020369953,1200358308598183,-2.35995,8.938951,2.13105
1680020369955,1200358311100337,-2.29605,9.02505,2.28705
1680020369958,1200358313602568,-2.29605,9.102,2.11395
1680020369960,1200358316104952,-2.3460002,9.085051,2.08305
1680020369963,1200358318607183,-2.3479502,9.066,2.08605
1680020369967,1200358321109558,-2.3170502,9.07995,2.1430502
1680020369969,1200358323612019,-2.32005,9.06795,2.1049502
1680020369971,1200358326114250,-2.3479502,9.0709505,2.1000001
1680020369973,1200358328616635,-2.29605,9.054001,2.1000001
1680020369975,1200358331118806,-2.29305,9.03195,2.1100502
1680020369979,1200358333621037,-2.29305,8.986951,2.11395
1680020369980,1200358336123422,-2.35305,8.99895,2.1700501
1680020369983,1200358338625653,-2.2050002,9.0060005,2.028
1680020369985,1200358341128043,-2.217,8.89605,2.0740502
1680020369988,1200358343630274,-2.23305,8.908051,2.13105
1680020369990,1200358346132659,-2.18805,9.009001,2.0329502
1680020369993,1200358348634889,-2.18805,8.925,2.08305
1680020369995,1200358351137283,-2.217,8.974951,2.0670002
1680020369998,1200358353639514,-2.18505,8.889001,1.9780501
1680020370000,1200358356141975,-2.1760502,8.910001,2.14995
1680020370004,1200358358644360,-2.1709502,8.974951,2.124
1680020370006,1200358361146524,-2.18805,9.01605,2.22705
1680020370008,1200358363648755,-2.3749502,8.961,2.1670501
1680020370010,1200358366151139,-2.25,8.946,2.12895
1680020370013,1200358368653370,-2.2669501,8.986951,2.265
1680020370015,1200358371155831,-2.2759502,9.009001,2.055
1680020370019,1200358373657990,-2.2789502,9.02295,2.1409502
1680020370020,1200358376160375,-2.1760502,9.0709505,2.15295
1680020370023,1200358378662606,-2.2740002,9.06105,2.1000001
1680020370025,1200358381164990,-2.286,9.00105,2.11695
1680020370028,1200358383667206,-2.18295,9.085051,2.08995
1680020370030,1200358386169668,-2.28795,9.066,2.15505
1680020370033,1200358388671822,-2.3029501,9.078,2.2150502
1680020370035,1200358391174206,-2.35605,8.962951,2.2099502
1680020370038,1200358393676466,-2.35995,8.97,2.217
1680020370042,1200358396178851,-2.2789502,9.085051,2.2459502
1680020370044,1200358398681081,-2.3080502,9.04905,2.2050002
1680020370046,1200358401183543,-2.2999501,9.121051,2.3059502
1680020370049,1200358403685913,-2.2999501,9.06105,2.1720002
1680020370051,1200358406188144,-2.29605,9.04395,2.11695
1680020370053,1200358408690298,-2.32695,9.114,2.2080002
1680020370055,1200358411192683,-2.3460002,9.150001,2.32305
1680020370059,1200358413694914,-2.2740002,9.135,2.3160002
1680020370061,1200358416197298,-2.2669501,9.04395,2.229
1680020370063,1200358418699529,-2.2810502,9.1039505,2.253
1680020370065,1200358421201914,-2.32005,9.078,2.15505
1680020370068,1200358423704144,-2.3389502,9.064051,2.1649501
1680020370070,1200358426206524,-2.2740002,9.0400505,2.2369502
1680020370073,1200358428708755,-2.32905,9.042001,2.3370001
1680020370075,1200358431211139,-2.334,9.06795,2.3059502
1680020370080,1200358433713601,-2.2050002,9.0730505,2.2770002
1680020370081,1200358436215707,-2.3389502,9.11205,2.2440002
1680020370083,1200358438717937,-2.18505,9.23595,2.2680001
1680020370086,1200358441220322,-2.32395,9.052051,2.22
1680020370088,1200358443722553,-2.334,9.114,2.256
1680020370090,1200358446224938,-2.2720501,9.150001,2.2459502
1680020370093,1200358448727379,-2.3029501,9.09,2.18595
1680020370096,1200358451229533,-2.367,9.06105,2.1700501
1680020370099,1200358453731764,-2.2069502,9.03705,2.21295
1680020370101,1200358456234148,-2.2669501,8.977051,2.3130002
1680020370103,1200358458736379,-2.265,9.03705,2.3419502
1680020370106,1200358461238759,-2.18805,9.11205,2.24895
1680020370108,1200358463741220,-2.1780002,9.135,2.2080002
1680020370110,1200358466243374,-2.23095,9.094951,2.292
1680020370113,1200358468745605,-2.16405,9.01605,2.19105
1680020370117,1200358471247980,-2.22405,9.03495,2.22195
1680020370120,1200358473750211,-2.2020001,8.97,2.49
1680020370122,1200358476252596,-2.2429502,8.953051,2.33205
1680020370124,1200358478754827,-2.1400502,8.986951,2.29395
1680020370126,1200358481257288,-2.08695,9.02295,2.3400002
1680020370128,1200358483759442,-2.11395,9.02295,2.32305
1680020370130,1200358486261827,-2.09205,9.00405,2.15505
1680020370133,1200358488764057,-2.21895,9.009001,2.49
1680020370136,1200358491266447,-2.12805,9.042001,2.325
1680020370139,1200358493768601,-2.05095,9.042001,2.4400501
1680020370141,1200358496271139,-2.0680501,9.09195,2.42805
1680020370143,1200358498773293,-2.11095,9.018001,2.352
1680020370147,1200358501275673,-2.11605,9.0400505,2.2750502
1680020370149,1200358503777904,-2.1019502,9.018001,2.26305
1680020370151,1200358506280288,-2.18295,9.052051,2.3830502
1680020370155,1200358508782519,-2.2410002,8.985001,2.2369502
1680020370157,1200358511284976,-2.18805,9.06795,2.4160502
1680020370159,1200358513787129,-2.2069502,9.04905,2.1769502
1680020370161,1200358516289514,-2.1420002,8.997001,2.289
1680020370163,1200358518791745,-2.2380002,9.06795,2.1720002
1680020370166,1200358521294129,-2.16405,8.938951,2.2750502
1680020370168,1200358523796345,-2.2020001,9.0730505,2.22
1680020370171,1200358526298807,-2.23305,8.977051,2.26305
1680020370173,1200358528801191,-2.22405,9.147,2.253
1680020370176,1200358531303345,-2.3050501,9.042001,2.193
1680020370179,1200358533805499,-2.2740002,9.00105,2.22195
1680020370181,1200358536307961,-2.2999501,9.018001,2.1769502
1680020370183,1200358538810191,-2.2410002,9.042001,2.2840502
1680020370186,1200358541312576,-2.2759502,9.07995,2.18595
1680020370189,1200358543814807,-2.226,8.997001,2.1700501
1680020370192,1200358546317201,-2.22105,9.114,2.052
1680020370194,1200358548819432,-2.253,9.04695,2.11395
1680020370196,1200358551321817,-2.29605,8.950951,2.22
1680020370199,1200358553824048,-2.2480502,9.052051,2.08095
1680020370200,1200358556326432,-2.214,9.05595,2.232
1680020370203,1200358558828663,-2.19,9.0709505,2.0350502
1680020370206,1200358561331048,-2.22105,9.118951,2.08605
1680020370208,1200358563833278,-2.1709502,9.018001,2.16195
1680020370210,1200358566335663,-2.2720501,9.04695,2.1720002
1680020370213,1200358568838115,-2.14995,9.10005,2.196
1680020370216,1200358571340268,-2.16405,9.04905,2.18595
1680020370219,1200358573842499,-2.0970001,9.01095,2.18205
1680020370221,1200358576344884,-2.19495,9.05895,2.2009501
1680020370223,1200358578847106,-2.19705,9.0730505,2.1979501
1680020370226,1200358581349259,-2.1450002,9.06795,2.0640001
1680020370230,1200358583851721,-2.154,9.00405,2.052
1680020370232,1200358586354106,-2.1349502,9.042001,2.1790502
1680020370233,1200358588856336,-2.29095,8.950951,2.1409502
1680020370236,1200358591358721,-2.229,9.03705,2.1670501
1680020370238,1200358593860952,-2.2050002,9.0709505,2.14995
1680020370241,1200358596363336,-2.2380002,9.04905,2.12205
1680020370243,1200358598865567,-2.23305,9.03195,2.2410002
1680020370247,1200358601367956,-2.2020001,9.11205,2.15505
1680020370249,1200358603870187,-2.157,8.934,2.32995
1680020370251,1200358606372571,-2.154,9.042001,2.253
1680020370253,1200358608874802,-2.265,9.03495,2.3110502
1680020370256,1200358611376990,-2.22105,9.05595,2.2800002
1680020370259,1200358613879451,-2.2429502,9.01305,2.26305
1680020370261,1200358616381836,-2.12595,8.965051,2.32005
1680020370263,1200358618884067,-2.1420002,9.042001,2.3160002
1680020370267,1200358621386475,-2.262,8.989051,2.3440502
1680020370270,1200358623888706,-2.19705,9.05895,2.292
1680020370272,1200358626391091,-2.16405,9.00105,2.2459502
1680020370274,1200358628893322,-2.14695,9.052051,2.265
1680020370275,1200358631395706,-2.1420002,9.0060005,2.3040001
1680020370278,1200358633897932,-2.11395,9.052051,2.256
1680020370280,1200358636400317,-2.19705,8.920051,2.2390501
1680020370283,1200358638902547,-2.217,8.949,2.25795
1680020370285,1200358641404932,-2.1760502,8.944051,2.2390501
1680020370288,1200358643907163,-2.1450002,9.00405,2.256
1680020370290,1200358646409557,-2.154,8.944051,2.28705
1680020370293,1200358648911788,-2.214,8.956051,2.29395
1680020370295,1200358651414173,-2.18805,9.052051,2.328
1680020370299,1200358653916385,-2.2410002,8.98005,2.3419502
1680020370301,1200358656418538,-2.15895,9.030001,2.22195
1680020370304,1200358658921000,-2.226,8.949,2.3779502
1680020370307,1200358661423385,-2.3359501,9.052051,2.3080502
1680020370309,1200358663925624,-2.3119502,9.009001,2.2369502
1680020370311,1200358666428009,-2.32395,8.985001,2.2440002
1680020370313,1200358668930240,-2.32395,9.088051,2.2410002
1680020370315,1200358671432624,-2.3080502,9.12405,2.25105
1680020370319,1200358673934855,-2.3700001,9.12405,2.21295
1680020370321,1200358676437226,-2.2810502,9.06795,2.217
1680020370323,1200358678939457,-2.3359501,9.18105,2.232
1680020370325,1200358681441841,-2.28795,8.98005,2.3490002
1680020370328,1200358683944072,-2.3389502,9.097051,2.25795
1680020370330,1200358686446457,-2.3410501,9.14505,2.2369502
1680020370333,1200358688948671,-2.3749502,9.12405,2.2440002
1680020370335,1200358691451133,-2.29305,9.16395,2.15295
1680020370339,1200358693953287,-2.2690501,9.17595,2.2080002
1680020370342,1200358696455671,-2.32905,9.13095,2.1100502
1680020370344,1200358698957902,-2.3359501,9.14505,2.055
1680020370348,1200358701460287,-2.2690501,9.088051,2.1790502
1680020370350,1200358703962441,-2.2810502,9.109051,2.1340501
1680020370352,1200358706464671,-2.2789502,9.1380005,2.1379502
1680020370354,1200358708967119,-2.265,9.0730505,2.1070502
1680020370356,1200358711469504,-2.3389502,9.214951,2.08995
1680020370358,1200358713971734,-2.2810502,9.09195,2.1700501
1680020370360,1200358716474119,-2.2720501,9.195001,2.04495
1680020370363,1200358718976350,-2.35095,9.115951,2.16195
1680020370366,1200358721478724,-2.25,9.126,2.112
1680020370368,1200358723980955,-2.3119502,9.1039505,2.15805
1680020370371,1200358726483340,-2.2669501,9.06105,2.09505
1680020370373,1200358728985570,-2.286,9.0709505,2.1340501
1680020370376,1200358731487955,-2.253,8.986951,2.1460502
1680020370381,1200358733990186,-2.334,9.085051,2.08305
1680020370383,1200358736492340,-2.23095,9.094951,2.16
1680020370385,1200358738994801,-2.25705,9.127951,2.2369502
1680020370387,1200358741497196,-2.2789502,9.05895,2.21295
1680020370389,1200358743999427,-2.193,9.054001,2.1460502
1680020370391,1200358746501811,-2.18505,9.088051,2.16195
1680020370393,1200358749004042,-2.2069502,9.118951,2.148
1680020370396,1200358751506196,-2.15205,9.10005,2.1019502
1680020370399,1200358754008671,-2.11095,9.097051,2.1790502
1680020370401,1200358756511056,-2.14995,9.07995,2.196
1680020370403,1200358759013287,-2.2069502,9.085051,2.2080002
1680020370406,1200358761515671,-2.1730502,8.98005,2.124
1680020370408,1200358764017907,-2.193,9.009001,2.3830502
1680020370411,1200358766520292,-2.19495,9.01095,2.22705
1680020370413,1200358769022753,-2.22105,9.085051,2.3419502
1680020370417,1200358771524907,-2.2690501,9.135,2.3730001
1680020370421,1200358774027138,-2.19705,9.06105,2.4379501
1680020370422,1200358776529523,-2.25,9.14505,2.4090002
1680020370428,1200358779031753,-2.2360501,9.094951,2.3400002
1680020370428,1200358781533907,-2.2720501,9.00105,2.4760501
1680020370429,1200358784036292,-2.298,9.17895,2.3370001
1680020370431,1200358786538753,-2.214,9.12405,2.42805
1680020370433,1200358789040984,-2.32695,9.2029505,2.4090002
1680020370436,1200358791543369,-2.2720501,9.135,2.4109502
1680020370438,1200358794045600,-2.265,9.135,2.42805
1680020370441,1200358796547960,-2.217,9.088051,2.457
1680020370444,1200358799050191,-2.2120502,9.07995,2.4019501
1680020370447,1200358801552576,-2.2789502,9.14505,2.3110502
1680020370449,1200358804054806,-2.2120502,9.219001,2.22705
1680020370451,1200358806557196,-2.12595,9.19995,2.35905
1680020370455,1200358809059427,-2.07495,9.23805,2.361
1680020370458,1200358811561811,-2.19495,9.229051,2.301
1680020370460,1200358814063965,-2.1450002,9.150001,2.3059502
1680020370462,1200358816566436,-2.05395,9.23805,2.2459502
1680020370464,1200358819068667,-2.0350502,9.243,2.35905
1680020370465,1200358821571051,-2.0070002,9.243,2.3800502
1680020370468,1200358824073282,-2.01705,9.18105,2.2729502
1680020370470,1200358826575667,-2.05095,9.174001,2.33505
1680020370473,1200358829077844,-1.9720501,9.11205,2.3710501
1680020370475,1200358831580306,-2.11395,9.109051,2.29395
1680020370478,1200358834082537,-2.0730002,9.16395,2.26305
1680020370480,1200358836584921,-2.1330001,9.151951,2.4469502
1680020370483,1200358839087152,-2.18505,9.195001,2.3059502
1680020370486,1200358841589503,-2.1760502,9.05895,2.3400002
1680020370489,1200358844091734,-2.2380002,9.03705,2.28705
1680020370492,1200358846594195,-2.1730502,9.02505,2.2800002
1680020370494,1200358849096335,-2.15895,9.05595,2.2459502
1680020370497,1200358851598720,-2.2480502,9.04695,2.1720002
1680020370499,1200358854100950,-2.1400502,9.09,2.3130002
1680020370501,1200358856603104,-2.2789502,8.949,2.09295
1680020370503,1200358859105489,-2.322,9.094951,2.1700501
1680020370506,1200358861607940,-2.214,9.0709505,2.25105
1680020370508,1200358864110171,-2.229,9.03195,2.12595
1680020370511,1200358866612556,-2.29095,9.01605,2.2099502
1680020370513,1200358869114787,-2.2810502,8.941051,2.112
1680020370516,1200358871617195,-2.29605,9.04695,2.184
1680020370520,1200358874119426,-2.2840502,9.02295,2.08095
1680020370522,1200358876621580,-2.3460002,8.974951,2.1769502
1680020370523,1200358879124041,-2.4109502,9.009001,2.1700501
1680020370526,1200358881626426,-2.427,9.052051,2.11695
1680020370530,1200358884128653,-2.3389502,8.886001,2.016
1680020370532,1200358886631037,-2.3460002,9.052051,2.09505
1680020370534,1200358889133268,-2.32005,8.874001,2.22495
1680020370536,1200358891635422,-2.286,9.05595,2.1340501
1680020370539,1200358894137908,-2.29605,8.950951,2.1790502
1680020370541,1200358896640292,-2.2380002,8.962951,2.046
1680020370543,1200358899142523,-2.265,8.961,2.2459502
1680020370547,1200358901644908,-2.19705,8.938951,2.1460502
1680020370549,1200358904147157,-2.25495,8.965051,2.26095
1680020370551,1200358906649311,-2.286,9.02805,2.2390501
1680020370553,1200358909151773,-2.25495,8.949,2.14995
1680020370556,1200358911654157,-2.2720501,8.994,2.3130002
1680020370559,1200358914156378,-2.25705,8.932051,2.2390501
1680020370561,1200358916658763,-2.181,8.920051,2.29395
1680020370563,1200358919160994,-2.2429502,8.997001,2.15805
1680020370568,1200358921663388,-2.14995,8.925,2.2390501
1680020370570,1200358924165542,-2.2090502,8.932051,2.2009501
1680020370572,1200358926668004,-2.12595,8.982,2.3040001
1680020370574,1200358929170234,-2.121,8.965051,2.3400002
1680020370576,1200358931672619,-2.1660001,9.009001,2.33505
1680020370579,1200358934174850,-2.09205,9.04395,2.26095
1680020370581,1200358936677004,-2.0730002,8.97,2.33205
1680020370583,1200358939179388,-2.0710502,9.088051,2.35605
1680020370586,1200358941681927,-2.08995,8.961,2.32305
1680020370589,1200358944184081,-2.118,9.076051,2.35395
1680020370591,1200358946686479,-2.13,8.997001,2.25105
1680020370593,1200358949188710,-2.1690001,8.99205,2.36805
1680020370597,1200358951691095,-2.1040502,9.02295,2.4880502
1680020370599,1200358954193248,-2.1040502,9.06105,2.38995
1680020370601,1200358956695710,-2.1019502,9.01095,2.43105
1680020370605,1200358959197941,-2.1330001,8.985001,2.4469502
1680020370607,1200358961700325,-2.118,9.094951,2.45895
1680020370609,1200358964202556,-2.12295,9.127951,2.457
1680020370611,1200358966704941,-2.1400502,9.0730505,2.39205
1680020370613,1200358969207182,-2.1690001,9.126,2.3490002
1680020370616,1200358971709566,-2.2380002,9.0060005,2.40405
1680020370619,1200358974211797,-2.1400502,9.05595,2.39205
1680020370621,1200358976714182,-2.2429502,9.186001,2.53095
1680020370623,1200358979216407,-2.2480502,9.162001,2.38995
1680020370626,1200358981718561,-2.36505,9.15705,2.36595
1680020370628,1200358984220946,-2.33205,9.135,2.46195
1680020370631,1200358986723407,-2.25,9.085051,2.325
1680020370634,1200358989225643,-2.2429502,9.088051,2.3800502
1680020370636,1200358991728028,-2.2840502,9.05895,2.3040001
1680020370639,1200358994230259,-2.2429502,9.021001,2.39205
1680020370643,1200358996732643,-2.2429502,8.965051,2.36595
1680020370645,1200358999234869,-2.226,9.03705,2.4019501
1680020370647,1200359001737023,-2.29305,9.09195,2.361
1680020370650,1200359004239484,-2.2429502,9.0730505,2.4450002
1680020370652,1200359006741869,-2.22105,9.076051,2.3370001
1680020370653,1200359009244100,-2.217,9.076051,2.3059502
1680020370656,1200359011746508,-2.29305,8.982,2.325
1680020370659,1200359014248739,-2.23305,9.121051,2.28195
1680020370661,1200359016751124,-2.2090502,9.05595,2.433
1680020370663,1200359019253354,-2.33205,9.07995,2.4469502
1680020370666,1200359021755744,-2.265,8.908051,2.3490002
1680020370668,1200359024257975,-2.2759502,9.03705,2.35905
1680020370671,1200359026760360,-2.226,8.985001,2.49795
1680020370673,1200359029262513,-2.3170502,8.953051,2.32995
1680020370676,1200359031764783,-2.32695,8.87205,2.4139502
1680020370681,1200359034267245,-2.28795,8.958,2.4090002
1680020370682,1200359036769629,-2.3700001,9.018001,2.2440002
1680020370684,1200359039271860,-2.3790002,9.06795,2.2459502
1680020370686,1200359041774245,-2.2360501,8.989051,2.29395
1680020370688,1200359044276470,-2.36295,8.986951,2.2339501
1680020370691,1200359046778855,-2.253,8.989051,2.2080002
1680020370693,1200359049281086,-2.3080502,8.994,2.05005
1680020370696,1200359051783470,-2.391,9.02805,2.09295
1680020370699,1200359054285711,-2.29305,9.0060005,2.18205
1680020370701,1200359056788096,-2.29305,9.03705,2.193
1680020370703,1200359059290327,-2.22105,8.974951,2.0740502
1680020370706,1200359061792481,-2.29305,8.932051,2.12595
1680020370708,1200359064294923,-2.3100002,8.934,2.1739502
1680020370711,1200359066797308,-2.32695,9.018001,2.15505
1680020370713,1200359069299538,-2.1760502,9.066,2.09505
1680020370718,1200359071801918,-2.2740002,9.030001,1.9900501
1680020370720,1200359074304149,-2.16405,9.009001,2.18205
1680020370722,1200359076841918,-2.322,9.0730505,2.1769502
1680020370724,1200359079308687,-2.262,9.114,2.112
1680020370726,1200359081811149,-2.25705,9.066,2.15805
1680020370728,1200359084313370,-2.25,9.018001,2.2729502
1680020370731,1200359086815754,-2.2720501,9.052051,2.3160002
1680020370733,1200359089317985,-2.32695,9.135,2.217
1680020370736,1200359091820370,-2.29095,9.12405,2.1360002
1680020370740,1200359094322590,-2.262,9.139951,2.11905
1680020370741,1200359096824975,-2.26005,9.106951,2.1070502
1680020370744,1200359099327206,-2.28795,9.054001,2.1739502
1680020370746,1200359101829590,-2.3050501,9.054001,2.08605
1680020370749,1200359104331744,-2.3050501,9.1039505,2.2050002
1680020370751,1200359106834202,-2.36505,9.13305,2.18205
1680020370755,1200359109336433,-2.32395,9.139951,2.052
1680020370758,1200359111838817,-2.35995,9.159,2.02605
1680020370759,1200359114341048,-2.4060001,9.082951,2.14995
1680020370761,1200359116843433,-2.3410501,9.1039505,2.1649501
1680020370763,1200359119345663,-2.334,9.05895,2.25105
1680020370766,1200359121848048,-2.38395,9.00105,2.2050002
1680020370768,1200359124350279,-2.41995,9.16395,2.15295
1680020370771,1200359126852663,-2.4109502,9.088051,2.3370001
1680020370773,1200359129354894,-2.286,9.04905,2.32305
1680020370776,1200359131857279,-2.25705,9.10005,2.3160002
1680020370779,1200359134359510,-2.286,9.04395,2.3779502
1680020370781,1200359136861980,-2.253,9.042001,2.292
1680020370783,1200359139364134,-2.3080502,9.0730505,2.3160002
1680020370786,1200359141866519,-2.32005,9.09195,2.2750502
1680020370788,1200359144368749,-2.3359501,9.03495,2.22
1680020370793,1200359146871120,-2.253,9.052051,2.29395
1680020370794,1200359149373274,-2.2690501,9.018001,2.184
1680020370797,1200359151875505,-2.29305,8.989051,2.2750502
1680020370799,1200359154377966,-2.26005,8.986951,2.229
1680020370801,1200359156880351,-2.32005,8.961,2.3370001
1680020370803,1200359159382582,-2.25705,9.03705,2.364
1680020370806,1200359161884966,-2.253,9.052051,2.265
1680020370809,1200359164387197,-2.3029501,9.0400505,2.26305
1680020370811,1200359166889582,-2.229,9.07995,2.3440502
1680020370815,1200359169391812,-2.19495,8.965051,2.3040001
1680020370816,1200359171894197,-2.2050002,8.986951,2.22495
1680020370820,1200359174396428,-2.29605,9.02505,2.2150502
1680020370822,1200359176898812,-2.25,9.06795,2.2030501
1680020370824,1200359179401052,-2.181,8.973001,2.29605
1680020370826,1200359181903206,-2.229,9.02295,2.193
1680020370830,1200359184405668,-2.3119502,9.02295,2.31795
1680020370832,1200359186908052,-2.2429502,9.052051,2.325
1680020370834,1200359189410293,-2.2360501,9.042001,2.25795
1680020370836,1200359191912678,-2.0659502,8.925,2.3370001
1680020370839,1200359194414908,-2.2740002,9.042001,2.28195
1680020370841,1200359196917062,-2.29305,8.989051,2.328
1680020370844,1200359199419524,-2.25705,8.953051,2.28705
1680020370846,1200359201921883,-2.2840502,8.958,2.4499502
1680020370849,1200359204424114,-2.3080502,9.04695,2.35905
1680020370851,1200359206926499,-2.2740002,9.05895,2.35905
1680020370854,1200359209428730,-2.15895,8.99895,2.35395
1680020370856,1200359211931109,-2.3029501,9.04905,2.3370001
1680020370859,1200359214433571,-2.3029501,9.082951,2.2840502
1680020370861,1200359216935725,-2.20005,9.0709505,2.18595
1680020370863,1200359219437955,-2.22105,8.965051,2.39505
1680020370868,1200359221940345,-2.32395,9.009001,2.28705
1680020370870,1200359224442576,-2.286,9.121051,2.2459502
1680020370872,1200359226944730,-2.265,9.102,2.364
1680020370874,1200359229447114,-2.3050501,9.04905,2.26095
1680020370876,1200359231949576,-2.2759502,9.102,2.31795
1680020370879,1200359234451812,-2.28795,9.174001,2.25795
1680020370881,1200359236954196,-2.2999501,9.150001,2.29395
1680020370884,1200359239456427,-2.3460002,9.17595,2.1720002
1680020370887,1200359241958812,-2.2740002,9.135,2.3710501
1680020370889,1200359244460950,-2.3050501,9.147,1.9729501
1680020370891,1200359246963412,-2.2789502,9.162001,2.1720002
1680020370894,1200359249465643,-2.262,9.135,1.9849501
1680020370897,1200359251968027,-2.20005,9.121051,2.0020502
1680020370899,1200359254470263,-2.35605,9.13095,2.0760002
1680020370901,1200359256972648,-2.29605,9.114,2.1100502
1680020370905,1200359259474879,-2.35095,9.12405,2.08995
1680020370908,1200359261977340,-2.214,9.183001,1.932
1680020370910,1200359264479489,-2.42505,9.15705,2.0329502
1680020370912,1200359266981874,-2.35605,9.14295,2.0380502
1680020370914,1200359269484104,-2.4109502,9.094951,2.09295
1680020370916,1200359271986489,-2.3460002,9.139951,2.14995
1680020370919,1200359274488643,-2.35605,9.11205,2.0760002
1680020370921,1200359276991109,-2.3820002,9.14505,2.0380502
1680020370924,1200359279493340,-2.42505,9.14505,1.9200001
1680020370927,1200359281995725,-2.43705,9.15495,2.0070002
1680020370930,1200359284497956,-2.38905,9.186001,1.9780501
1680020370931,1200359287000340,-2.4109502,9.097051,1.9399501
1680020370934,1200359289502571,-2.4180002,9.085051,2.0640001
1680020370937,1200359292004956,-2.38905,9.04905,2.124
1680020370940,1200359294507186,-2.39895,9.19305,2.046
1680020370944,1200359297009571,-2.394,9.121051,1.9990501
1680020370945,1200359299511802,-2.43195,9.07995,2.1790502
1680020370948,1200359302014186,-2.4150002,9.09,1.9759501
1680020370950,1200359304516417,-2.36295,8.950951,1.9990501
1680020370952,1200359307018802,-2.4490502,9.030001,1.9470001
1680020370954,1200359309521037,-2.4060001,8.99205,2.09505
1680020370957,1200359312023422,-2.5180502,8.953051,2.0020502
1680020370959,1200359314525653,-2.42295,9.00405,2.05695
1680020370961,1200359317028038,-2.4490502,9.0060005,1.983
1680020370964,1200359319530268,-2.41995,9.01095,2.11695
1680020370967,1200359322032441,-2.32395,9.150001,1.932
1680020370969,1200359324534903,-2.391,8.934,1.9990501
1680020370971,1200359327037287,-2.36295,8.99895,2.02005
1680020370974,1200359329539518,-2.334,8.961,2.08305
1680020370977,1200359332041874,-2.3749502,8.82405,2.13105
1680020370982,1200359334544104,-2.3389502,8.932051,2.2099502
1680020370984,1200359337046489,-2.3389502,8.865001,2.1340501
1680020370985,1200359339548729,-2.394,8.92695,2.1769502
1680020370988,1200359342051113,-2.28795,8.953051,2.15805
1680020370990,1200359344553344,-2.32395,8.953051,2.253
1680020370992,1200359347055729,-2.2690501,8.86005,2.193
1680020370994,1200359349557960,-2.23305,8.91495,2.32005
1680020370997,1200359352060330,-2.2410002,8.949,2.3490002
1680020370999,1200359354562792,-2.2410002,8.88195,2.289
1680020371001,1200359357064946,-2.2720501,8.898001,2.4190502
1680020371004,1200359359567176,-2.2720501,8.974951,2.361
1680020371007,1200359362069561,-2.26005,9.052051,2.2750502
1680020371009,1200359364571802,-2.28795,8.986951,2.4430501
1680020371011,1200359367074186,-2.29605,8.973001,2.3779502
1680020371013,1200359369576340,-2.21895,8.974951,2.22705
1680020371018,1200359372078806,-2.3440502,9.01605,2.3400002
1680020371021,1200359374581037,-2.25495,9.01605,2.3850002
1680020371023,1200359377083421,-2.2999501,8.956051,2.3419502
1680020371024,1200359379585652,-2.3050501,8.97,2.352
1680020371027,1200359382088037,-2.25,9.02295,2.39505
1680020371029,1200359384590267,-2.32695,9.04395,2.49
1680020371031,1200359387092729,-2.3770502,9.00105,2.38995
1680020371034,1200359389594883,-2.2740002,9.02295,2.43105
1680020371037,1200359392097267,-2.29605,8.99895,2.4070501
1680020371039,1200359394599498,-2.3050501,8.953051,2.5480502
1680020371041,1200359397101647,-2.2380002,8.925,2.4709501
1680020371044,1200359399604032,-2.32695,8.982,2.457
1680020371047,1200359402106493,-2.265,9.0400505,2.3160002
1680020371055,1200359404608710,-2.322,9.030001,2.421
1680020371055,1200359407111095,-2.32395,9.1039505,2.36805
1680020371055,1200359409613325,-2.36505,9.0400505,2.3760002
1680020371058,1200359412115710,-2.3389502,9.042001,2.3059502
1680020371060,1200359414617955,-2.286,9.12405,2.26305
1680020371062,1200359417120339,-2.367,9.135,2.2339501
1680020371064,1200359419622570,-2.3029501,9.15705,2.229
1680020371067,1200359422124955,-2.2429502,9.174001,2.13105
1680020371069,1200359424627186,-2.265,9.16395,2.12895
1680020371071,1200359427129580,-2.2450502,9.23595,2.217
1680020371074,1200359429631811,-2.2380002,9.16905,2.0760002
1680020371077,1200359432134273,-2.2480502,9.195001,2.09295
1680020371081,1200359434636657,-2.265,9.14295,2.046
1680020371082,1200359437138825,-2.3119502,9.147,2.0640001
1680020371084,1200359439641056,-2.18505,9.076051,2.1649501
1680020371088,1200359442143440,-2.229,9.147,2.08305
1680020371090,1200359444645594,-2.32695,9.1039505,2.05695
1680020371093,1200359447147801,-2.3119502,9.118951,2.0760002
1680020371095,1200359449650263,-2.33205,8.99205,2.019
1680020371098,1200359452152647,-2.3029501,9.10005,2.08605
1680020371100,1200359454654878,-2.28795,9.0060005,2.05905
1680020371102,1200359457157263,-2.33205,9.02505,2.1019502
1680020371104,1200359459659465,-2.3029501,9.02505,2.016
1680020371107,1200359462161850,-2.32005,8.901,2.09505
1680020371109,1200359464664081,-2.334,8.958,2.1670501
1680020371112,1200359467166465,-2.3080502,8.905951,2.08095
1680020371115,1200359469668691,-2.3029501,8.90295,2.04495
1680020371118,1200359472171076,-2.3170502,8.938951,2.1340501
1680020371120,1200359474673307,-2.358,9.00405,2.09505
1680020371124,1200359477175691,-2.3080502,9.00405,2.08095
1680020371124,1200359479678157,-2.39895,8.910001,2.1000001
1680020371131,1200359482180311,-2.367,8.941051,2.2699502
1680020371132,1200359484682541,-2.36295,8.92695,2.09295
1680020371133,1200359487184926,-2.4420002,8.92695,2.2459502
1680020371135,1200359489687172,-2.3149502,8.977051,2.32305
1680020371138,1200359492189326,-2.2999501,9.030001,2.26095
1680020371141,1200359494691787,-2.35305,9.085051,2.2390501
1680020371142,1200359497194172,-2.403,9.054001,2.1409502
1680020371144,1200359499696403,-2.35095,9.09,2.2050002
1680020371148,1200359502198806,-2.39895,8.925,2.1739502
1680020371150,1200359504701037,-2.35095,9.03195,2.22
1680020371152,1200359507203422,-2.29305,9.147,2.1720002
1680020371154,1200359509705883,-2.33205,9.13095,2.124
1680020371158,1200359512208042,-2.32905,9.052051,2.1340501
1680020371160,1200359514710273,-2.2480502,9.02295,2.1720002
1680020371162,1200359517212657,-2.3149502,8.997001,2.0329502
1680020371164,1200359519714888,-2.298,9.009001,2.19105
1680020371170,1200359522217258,-2.25,8.949,2.08095
1680020371171,1200359524719412,-2.2050002,9.094951,2.15295
1680020371173,1200359527221873,-2.32905,9.07995,2.13105
1680020371175,1200359529724104,-2.2720501,9.030001,2.1700501
1680020371178,1200359532226489,-2.2789502,9.12405,2.1460502
1680020371180,1200359534728695,-2.3170502,9.088051,2.1409502
1680020371182,1200359537231080,-2.334,9.078,2.09805
1680020371187,1200359539733311,-2.3440502,9.1039505,2.19105
1680020371188,1200359542235695,-2.40105,9.121051,2.0689502
1680020371189,1200359544737926,-2.42295,9.102,2.09805
1680020371191,1200359547240317,-2.4180002,9.085051,1.96395
1680020371194,1200359549742548,-2.358,9.102,2.1430502
1680020371197,1200359552244932,-2.4130502,9.15495,2.01405
1680020371199,1200359554747163,-2.3460002,9.16395,2.055
1680020371202,1200359557249619,-2.4150002,9.085051,2.1000001
1680020371206,1200359559751773,-2.43495,9.135,2.019
1680020371209,1200359562254158,-2.35095,9.121051,2.08305
1680020371211,1200359564756389,-2.3440502,9.121051,2.0710502
1680020371212,1200359567258764,-2.42505,9.121051,2.1049502
1680020371215,1200359569760918,-2.38395,9.02505,2.16
1680020371218,1200359572263380,-2.4850502,9.066,2.1649501
1680020371220,1200359574765611,-2.46105,9.02505,2.0350502
1680020371222,1200359577267995,-2.4469502,9.066,2.1049502
1680020371224,1200359579770240,-2.42505,9.06795,2.15505
1680020371227,1200359582272625,-2.49195,9.13095,2.1979501
1680020371230,1200359584774855,-2.47305,9.150001,2.16195
1680020371234,1200359587277240,-2.463,9.05895,1.9800001
1680020371235,1200359589779452,-2.46105,9.1039505,2.09505
1680020371238,1200359592281836,-2.42505,9.139951,1.9990501
1680020371240,1200359594784067,-2.41995,9.052051,2.02005
1680020371244,1200359597286452,-2.38905,9.0400505,2.112
1680020371249,1200359599788653,-2.39595,9.05895,2.0350502
1680020371249,1200359602291038,-2.502,9.17895,2.0670002
1680020371253,1200359604793500,-2.28795,9.250051,2.19105
1680020371254,1200359607295654,-2.463,9.030001,2.3160002
1680020371260,1200359609797884,-2.4079502,8.950951,2.11905
1680020371260,1200359612300254,-2.4469502,8.973001,2.09505
1680020371263,1200359614802485,-2.3719501,9.04695,2.04495
1680020371266,1200359617304639,-2.3719501,9.03495,2.18205
