system_ts_ms, sensor_ts_ns, accX, accY, accZ
1679998249018,1178237366692856,6.8380504,6.012,4.533
1679998249019,1178237369194779,6.8760004,6.0199504,4.45905
1679998249019,1178237371696932,6.94605,6.0340505,4.37505
1679998249019,1178237374199101,6.9700503,6.1369505,4.3780503
1679998249032,1178237376701178,7.0030503,6.20205,4.27995
1679998249032,1178237379203332,7.0540504,6.29505,4.155
1679998249032,1178237381705486,6.9940505,6.23295,4.26
1679998249033,1178237384207423,6.9739504,6.3360004,4.19805
1679998249033,1178237386709577,7.0609503,6.3450003,4.0279503
1679998249034,1178237389211654,7.077,6.4360504,4.22205
1679998249037,1178237391713885,7.0800004,6.3289504,4.19805
1679998249041,1178237394216038,7.1299505,6.4080005,4.155
1679998249042,1178237396718110,7.1730003,6.4240503,4.11
1679998249043,1178237399220033,7.2330003,6.4339504,4.3390503
1679998249046,1178237401722187,7.2430506,6.4170003,4.1839504
1679998249049,1178237404224264,7.2690005,6.393,4.25805
1679998249051,1178237406726418,7.2019506,6.3690004,4.27005
1679998249053,1178237409228668,7.1920505,6.2689505,4.3560004
1679998249057,1178237411730745,7.2259502,6.372,4.26
1679998249059,1178237414232899,7.2379503,6.321,4.26795
1679998249062,1178237416734822,7.221,6.2710505,4.275
1679998249064,1178237419236976,7.2760506,6.35505,4.2769504
1679998249067,1178237421739129,7.2690005,6.2689505,4.1839504
1679998249070,1178237424241283,7.1680503,6.1849504,4.086
1679998249074,1178237426743360,7.2019506,6.216,4.203
1679998249074,1178237429245519,7.1130004,6.30495,4.11705
1679998249076,1178237431747673,7.1920505,6.1420503,4.19805
1679998249078,1178237434249596,7.1779504,6.168,4.2049503
1679998249081,1178237436751750,7.1659503,6.1459503,4.2460504
1679998249083,1178237439253817,7.1920505,6.1870503,4.155
1679998249086,1178237441756048,7.2619505,6.19005,4.27005
1679998249092,1178237444258124,7.1850004,6.0870004,4.143
1679998249092,1178237446760278,7.1350503,6.0199504,4.07595
1679998249094,1178237449262403,7.3099504,6.0270004,4.05705
1679998249097,1178237451764326,7.2400503,5.9209504,4.07595
1679998249099,1178237454266403,7.21605,5.9329505,3.9799502
1679998249102,1178237456768557,7.3500004,5.859,4.0140004
1679998249108,1178237459270788,7.3339505,5.85405,4.0219502
1679998249108,1178237461772865,7.42005,5.7990003,3.9900002
1679998249109,1178237464274788,7.3890004,5.78205,4.04505
1679998249112,1178237466776942,7.52505,5.802,4.1620502
1679998249114,1178237469279096,7.5610504,5.8110003,4.32495
1679998249118,1178237471781163,7.6069503,5.8710003,4.51695
1679998249120,1178237474283394,7.5799503,5.8450503,4.5550504
1679998249124,1178237476785471,7.7239504,5.84205,4.4110503
1679998249125,1178237479287625,7.6519504,5.9599504,4.3440003
1679998249127,1178237481789509,7.7310004,5.9670005,4.335
1679998249129,1178237484291663,7.5130506,6.0670505,4.36305
1679998249132,1178237486793817,7.3429503,6.1699505,4.2319503
1679998249133,1178237489295894,7.248,6.28095,4.2340503
1679998249136,1178237491798125,7.03695,6.3019505,3.9799502
1679998249143,1178237494300230,6.8280005,6.321,4.0069504
1679998249143,1178237496802384,6.8809505,6.4099503,3.7410002
1679998249145,1178237499304307,6.747,6.5509505,3.7600503
1679998249147,1178237501806442,6.6439505,6.4429502,3.7740002
1679998249150,1178237504308519,6.67005,6.4960504,3.7099502
1679998249152,1178237506810673,6.5940003,6.4549503,3.762
1679998249153,1178237509312827,6.5940003,6.42705,3.7450502
1679998249159,1178237511814981,6.6180005,6.4219503,3.762
1679998249159,1178237514317150,6.6390004,6.3810005,3.79605
1679998249161,1178237516819073,6.6730504,6.42705,3.726
1679998249164,1178237519321150,6.6769505,6.40005,3.8149502
1679998249166,1178237521823303,6.7780504,6.3450003,3.8080502
1679998249168,1178237524325534,6.8260503,6.261,3.7770002
1679998249174,1178237526827683,6.9289503,6.1969504,3.73095
1679998249174,1178237529329760,6.9910502,6.261,3.8200502
1679998249176,1178237531831683,7.0800004,6.3499503,3.8220003
1679998249180,1178237534333833,7.25895,6.2419505,3.6400502
1679998249184,1178237536835987,7.2829504,6.16305,3.762
1679998249185,1178237539338064,7.3069506,6.1369505,3.6499503
1679998249187,1178237541840294,7.34595,6.20205,3.5779502
1679998249193,1178237544342356,7.4100003,6.20205,3.6780002
1679998249194,1178237546844510,7.3960505,6.168,3.6330001
1679998249195,1178237549346433,7.4220004,6.1579504,3.6880503
1679998249197,1178237551848587,7.4370003,6.2040005,3.6829503
1679998249200,1178237554350664,7.42995,6.1390505,3.6760502
1679998249202,1178237556852885,7.41795,6.168,3.7789502
1679998249204,1178237559354962,7.4340005,6.144,3.7189503
1679998249209,1178237561857116,7.34805,6.1200004,3.8100002
1679998249210,1178237564359270,7.3650002,6.1699505,3.7690501
1679998249211,1178237566861213,7.3309503,6.16095,3.8220003
1679998249215,1178237569363366,7.3000503,6.2380505,3.9130502
1679998249218,1178237571865443,7.3770003,6.1540504,3.9709501
1679998249220,1178237574367688,7.3770003,6.11805,3.9490502
1679998249226,1178237576869765,7.21605,6.2179503,3.9060001
1679998249227,1178237579371919,7.2040505,6.2590504,3.798
1679998249228,1178237581873842,7.2400503,6.2590504,3.7890003
1679998249230,1178237584375996,7.18305,6.1579504,3.693
1679998249232,1178237586878083,7.21605,6.2140503,3.6330001
1679998249234,1178237589380237,7.2760506,6.15105,3.6330001
1679998249236,1178237591882467,7.293,6.22095,3.5389502
1679998249241,1178237594384544,7.2910504,6.3090005,3.5470502
1679998249242,1178237596886467,7.2739506,6.2110505,3.561
1679998249244,1178237599388621,7.42995,6.2760005,3.48705
1679998249247,1178237601890775,7.281,6.3090005,3.4650002
1679998249250,1178237604392929,7.2910504,6.29505,3.4750502
1679998249252,1178237606895092,7.3339505,6.3450003,3.5299501
1679998249258,1178237609397169,7.3069506,6.4099503,3.4630501
1679998249259,1178237611899323,7.3650002,6.3520503,3.4819503
1679998249260,1178237614401246,7.3429503,6.3619504,3.3649502
1679998249262,1178237616903405,7.3410006,6.3520503,3.5040002
1679998249264,1178237619405558,7.3360505,6.3810005,3.5350502
1679998249266,1178237621907712,7.31895,6.28305,3.4720502
1679998249269,1178237624409866,7.3219504,6.2689505,3.4459503
1679998249276,1178237626911943,7.32705,6.2380505,3.31695
1679998249277,1178237629413847,7.28805,6.29505,3.38595
1679998249278,1178237631916001,7.3669505,6.2970004,3.48705
1679998249280,1178237634418386,7.3840504,6.333,3.4459503
1679998249282,1178237636920309,7.293,6.2520003,3.489
1679998249284,1178237639422463,7.3120503,6.1459503,3.5040002
1679998249286,1178237641924539,7.2670503,6.29295,3.4150503
1679998249292,1178237644426693,7.2520504,6.22305,3.42
1679998249293,1178237646928847,7.2670503,6.26595,3.4440002
1679998249294,1178237649430804,7.221,6.2260504,3.4410002
1679998249296,1178237651932958,7.1970005,6.2760005,3.38595
1679998249300,1178237654435112,7.1350503,6.3960004,3.39105
1679998249302,1178237656937266,7.188,6.1660504,3.2380502
1679998249304,1178237659439343,7.176,6.1990504,3.3019502
1679998249310,1178237661941468,7.149,6.2689505,3.2260501
1679998249311,1178237664443391,7.06995,6.1849504,3.15405
1679998249312,1178237666945775,7.1329503,6.1729503,3.2329502
1679998249314,1178237669447698,7.1130004,6.2179503,3.1249502
1679998249316,1178237671949866,7.0870504,6.2179503,3.1249502
1679998249319,1178237674452020,7.077,6.168,3.0370502
1679998249327,1178237676954097,7.0300503,6.2140503,3.0870001
1679998249328,1178237679456020,7.1590505,6.2140503,3.219
1679998249329,1178237681958159,7.1449504,6.23295,3.04905
1679998249331,1178237684460544,7.089,6.1990504,3.0580502
1679998249333,1178237686962467,7.15395,6.1699505,3.0250502
1679998249335,1178237689464621,7.0849504,6.1870503,3.0919502
1679998249336,1178237691966702,7.1520004,6.15105,2.8590002
1679998249340,1178237694468856,7.14195,6.0199504,2.9569502
1679998249342,1178237696970779,7.1970005,6.123,2.89995
1679998249344,1178237699472933,7.1610003,6.14895,2.8549502
1679998249347,1178237701975087,7.15395,6.0870004,2.742
1679998249349,1178237704477245,7.2790504,6.144,2.8330503
1679998249352,1178237706979322,7.2979503,6.144,2.7900002
1679998249354,1178237709481476,7.2790504,6.1780505,2.7180002
1679998249360,1178237711983630,7.2829504,6.1750503,2.7280502
1679998249360,1178237714485577,7.28805,6.1320004,2.6890502
1679998249362,1178237716987961,7.3219504,6.2850003,2.565
1679998249364,1178237719489884,7.39095,6.2059503,2.4780002
1679998249367,1178237721992019,7.353,6.3169503,2.5099502
1679998249370,1178237724494096,7.4269505,6.3360004,2.46405
1679998249375,1178237726996250,7.4440503,6.31395,2.45895
1679998249376,1178237729498173,7.4869504,6.3810005,2.3710501
1679998249377,1178237732000327,7.5280504,6.4870505,2.4160502
1679998249380,1178237734502462,7.4749503,6.4750504,2.421
1679998249382,1178237737004616,7.518,6.49905,2.364
1679998249384,1178237739506769,7.6189504,6.52995,2.35605
1679998249386,1178237742008846,7.6330504,6.537,2.3040001
1679998249391,1178237744510981,7.72695,6.6180005,2.26305
1679998249392,1178237747012904,7.7070003,6.6160502,2.3160002
1679998249394,1178237749515058,7.7580004,6.6139503,2.3160002
1679998249397,1178237752017443,7.8130503,6.81195,2.29395
1679998249400,1178237754519375,7.83405,6.7189503,2.21295
1679998249403,1178237757021452,7.9420505,6.7450504,2.22705
1679998249405,1178237759523606,7.8030005,6.73605,2.22
1679998249407,1178237762025760,7.90605,6.80805,2.2009501
1679998249410,1178237764527683,7.9590006,6.7879505,2.29605
1679998249412,1178237767030067,8.115001,6.8190002,2.3490002
1679998249414,1178237769531990,8.125951,6.7720504,2.39205
1679998249416,1178237772034067,8.26095,6.8239503,2.3710501
1679998249420,1178237774536221,8.16495,6.79995,2.43495
1679998249423,1178237777038370,8.265,6.7000504,2.421
1679998249425,1178237779540524,8.17905,6.7500005,2.6200502
1679998249427,1178237782042447,8.33205,6.79995,2.60505
1679998249431,1178237784544832,8.191051,6.7050004,2.56695
1679998249432,1178237787046770,7.9159503,6.3760505,2.49795
1679998249434,1178237789548923,7.63605,6.084,2.3800502
1679998249436,1178237792051000,7.8559504,6.3289504,2.42595
1679998249440,1178237794553154,7.932,6.36705,2.397
1679998249443,1178237797055096,7.8940506,6.19005,2.4160502
1679998249445,1178237799557481,7.8610506,6.40005,2.328
1679998249447,1178237802059404,8.121,6.4150505,2.2410002
1679998249450,1178237804561558,7.9159503,6.4510503,2.42805
1679998249452,1178237807063717,7.96395,6.4630504,2.21295
1679998249454,1178237809565794,8.07405,6.5230503,2.2459502
1679998249456,1178237812067717,8.028001,6.46995,2.2099502
1679998249460,1178237814569871,8.019,6.5340004,2.29395
1679998249464,1178237817072240,8.064,6.4870505,2.35395
1679998249465,1178237819574163,8.125951,6.5680504,2.40405
1679998249466,1178237822076317,8.04705,6.5490003,2.4190502
1679998249471,1178237824578394,8.092951,6.40005,2.601
1679998249472,1178237827080548,8.038051,6.40005,2.4780002
1679998249474,1178237829582485,8.097,6.3450003,2.45895
1679998249476,1178237832084639,7.9849505,6.2590504,2.5429502
1679998249481,1178237834586793,8.064,6.16305,2.502
1679998249483,1178237837088947,7.9879503,6.2179503,2.505
1679998249485,1178237839591009,8.026051,6.1129503,2.5069501
1679998249488,1178237842093163,8.031,6.0720005,2.5459502
1679998249491,1178237844595317,8.154,6.0990005,2.46195
1679998249492,1178237847097471,8.10705,5.9329505,2.3419502
1679998249494,1178237849599394,8.02305,5.88105,2.3470502
1679998249497,1178237852101563,8.07405,5.907,2.1070502
1679998249500,1178237854603640,8.194051,5.88495,2.2050002
1679998249502,1178237857105794,8.227051,6.1080003,2.088
1679998249504,1178237859607717,8.376,6.1540504,2.13105
1679998249508,1178237862110101,8.433001,6.2419505,2.0400002
1679998249510,1178237864612250,8.562,6.38595,1.91295
1679998249513,1178237867114173,8.517,6.33795,1.8940501
1679998249515,1178237869616327,8.598001,6.4459505,1.8700501
1679998249518,1178237872118385,8.56995,6.5080504,1.8220501
1679998249520,1178237874620539,8.59605,6.62295,1.72905
1679998249524,1178237877122770,8.54595,6.5680504,1.7190001
1679998249526,1178237879624847,8.542951,6.5989504,1.6669501
1679998249527,1178237882126770,8.48295,6.7759504,1.626
1679998249530,1178237884628886,8.479051,6.8509502,1.626
1679998249532,1178237887131040,8.359051,6.8310003,1.5589501
1679998249534,1178237889633116,8.328,6.6589503,1.6620001
1679998249536,1178237892135270,8.172,6.8170505,1.54005
1679998249542,1178237894637419,8.172,6.6930003,1.48695
1679998249543,1178237897139573,8.0449505,6.74805,1.6140001
1679998249545,1178237899641496,7.9950004,6.64905,1.437
1679998249547,1178237902143650,7.8850503,6.5869503,1.4490001
1679998249550,1178237904645804,7.86495,6.6160502,1.4680501
1679998249553,1178237907147886,7.7460003,6.642,1.49205
1679998249555,1178237909650040,7.8250504,6.5149503,1.5319501
1679998249557,1178237912152193,7.8300004,6.5080504,1.6189501
1679998249560,1178237914654347,7.767,6.47205,1.626
1679998249562,1178237917156269,7.7580004,6.38805,1.6189501
1679998249564,1178237919658423,7.794,6.372,1.72905
1679998249566,1178237922160500,7.7220006,6.2779503,1.7530501
1679998249570,1178237924662654,7.7959504,6.2640004,1.8580501
1679998249572,1178237927164804,7.63605,6.321,1.8319501
1679998249574,1178237929666958,7.7890506,6.1969504,1.8870001
1679998249576,1178237932169112,7.7029505,6.26595,1.9969501
1679998249580,1178237934671035,7.7910004,6.1870503,1.79805
1679998249582,1178237937173092,7.734,6.2140503,1.9399501
1679998249584,1178237939675245,7.8919506,6.2520003,1.9420501
1679998249586,1178237942177399,7.8630004,6.2380505,1.9710001
1679998249589,1178237944679553,7.83195,6.2260504,1.8079501
1679998249593,1178237947181712,7.8130503,6.3,1.932
1679998249594,1178237949683635,7.83405,6.216,1.8510001
1679998249597,1178237952185789,7.827,6.2689505,1.8870001
1679998249599,1178237954687866,7.96395,6.2449503,1.9950001
1679998249601,1178237957190020,7.9300504,6.29505,1.8940501
1679998249604,1178237959692189,8.031,6.3739505,1.8559501
1679998249607,1178237962194342,8.038051,6.3619504,1.8250501
1679998249610,1178237964696265,8.055,6.393,1.81305
1679998249612,1178237967198419,8.00895,6.4789505,1.8559501
1679998249614,1178237969700553,8.059051,6.38595,1.7190001
1679998249617,1178237972202630,8.083051,6.4030504,1.743
1679998249620,1178237974704784,7.9680004,6.4459505,1.695
1679998249623,1178237977206938,8.02095,6.4870505,1.71
1679998249625,1178237979709092,8.083051,6.4789505,1.5589501
1679998249627,1178237982211246,8.04705,6.5130005,1.626
1679998249632,1178237984713169,8.050051,6.5080504,1.5280501
1679998249633,1178237987215246,8.04,6.52995,1.5640501
1679998249635,1178237989717409,7.97805,6.4549503,1.5469501
1679998249650,1178237992219332,8.00895,6.57495,1.53495
1679998249650,1178237994721717,8.08605,6.54405,1.4989501
1679998249651,1178237997223871,8.031,6.5680504,1.5970501
1679998249651,1178237999725794,8.083051,6.4789505,1.5319501
1679998249651,1178238002227948,7.9920006,6.5490003,1.5130501
1679998249652,1178238004730025,7.9680004,6.5059505,1.4770501
1679998249652,1178238007232179,7.9849505,6.47205,1.386
1679998249654,1178238009734409,7.9879503,6.5059505,1.3579501
1679998249656,1178238012236486,8.071051,6.465,1.3600501
1679998249660,1178238014738409,8.097,6.40005,1.40295
1679998249662,1178238017240563,8.080951,6.5059505,1.281
1679998249664,1178238019742717,8.208,6.4459505,1.386
1679998249668,1178238022244774,8.079,6.5080504,1.3429501
1679998249670,1178238024746928,8.13,6.46005,1.338
1679998249672,1178238027249082,8.13,6.4120502,1.35
1679998249674,1178238029751236,8.194051,6.372,1.3549501
1679998249676,1178238032253159,8.059051,6.4669504,1.3740001
1679998249680,1178238034755332,8.121,6.4870505,1.317
1679998249682,1178238037257485,8.11905,6.4240503,1.38195
1679998249684,1178238039759562,8.20605,6.4339504,1.35
1679998249687,1178238042261716,8.079,6.42,1.3600501
1679998249690,1178238044763894,8.19795,6.47205,1.3480501
1679998249692,1178238047266048,8.15295,6.3810005,1.3120501
1679998249694,1178238049767971,8.158051,6.4290004,1.4320501
1679998249697,1178238052270125,8.142,6.4630504,1.3219501
1679998249701,1178238054772236,8.191051,6.3240004,1.3980001
1679998249702,1178238057274390,8.172,6.3640504,1.3960501
1679998249705,1178238059776543,8.172,6.3190503,1.317
1679998249707,1178238062278697,8.134951,6.35505,1.422
1679998249710,1178238064780861,8.149051,6.2760005,1.4100001
1679998249712,1178238067282784,8.13405,6.321,1.3740001
1679998249714,1178238069784861,8.17395,6.30495,1.36695
1679998249717,1178238072287092,8.056951,6.3,1.3980001
1679998249719,1178238074789169,8.068951,6.34005,1.36695
1679998249722,1178238077291347,7.9879503,6.2970004,1.36995
1679998249724,1178238079793501,7.9920006,6.3289504,1.33605
1679998249727,1178238082295424,8.007,6.31395,1.28805
1679998249731,1178238084797501,7.932,6.3019505,1.3789501
1679998249732,1178238087299745,8.0449505,6.22305,1.3909501
1679998249734,1178238089801899,7.9999504,6.28305,1.281
1679998249737,1178238092304053,7.9900503,6.2400002,1.3099501
1679998249740,1178238094806130,7.9489503,6.1990504,1.28295
1679998249744,1178238097308039,8.07405,6.228,1.1920501
1679998249747,1178238099810193,8.121,6.1369505,1.3909501
1679998249748,1178238102312270,8.04705,6.1200004,1.24995
1679998249751,1178238104814501,8.134951,6.1270504,1.2910501
1679998249752,1178238107316655,8.160001,6.11805,1.3549501
1679998249754,1178238109818740,8.26095,6.111,1.26195
1679998249757,1178238112320664,8.29695,6.111,1.21605
1679998249760,1178238114822817,8.4210005,6.1060505,1.29795
1679998249762,1178238117324971,8.42805,6.1249504,1.1920501
1679998249764,1178238119827125,8.542951,6.0990005,1.2240001
1679998249767,1178238122329289,8.565001,6.0390005,1.2210001
1679998249770,1178238124831366,8.64105,6.15105,1.1560501
1679998249772,1178238127333520,8.677051,6.1969504,1.21395
1679998249774,1178238129835674,8.76105,6.168,1.3240501
1679998249777,1178238132337597,8.802,6.1800003,1.25205
1679998249781,1178238134839674,8.826,6.1150503,1.1899501
1679998249784,1178238137341904,8.898001,6.1990504,1.18305
1679998249785,1178238139844072,9.007951,6.156,1.1520001
1679998249787,1178238142346149,8.943001,6.19395,1.1590501
1679998249790,1178238144848303,8.983951,6.144,1.14405
1679998249792,1178238147350226,9.016951,6.2140503,1.19505
1679998249794,1178238149852380,9.123,6.1660504,1.1040001
1679998249799,1178238152354519,9.142051,6.1990504,1.29795
1679998249800,1178238154856673,9.123,6.2179503,1.14195
1679998249802,1178238157358826,9.130051,6.2419505,1.0390501
1679998249804,1178238159860903,9.21405,6.168,0.984
1679998249807,1178238162363057,9.132,6.261,1.02705
1679998249810,1178238164864966,9.04905,6.1920004,0.93600005
1679998249812,1178238167367120,9.166051,6.216,0.89805007
1679998249814,1178238169869274,9.0730505,6.2689505,0.89505005
1679998249818,1178238172371428,9.132,6.2689505,0.86895007
1679998249820,1178238174873505,9.06495,6.28305,0.94995004
1679998249824,1178238177375659,9.00105,6.3960004,0.87900007
1679998249825,1178238179877582,9.01305,6.26595,0.75900006
1679998249828,1178238182379736,8.89995,6.2380505,0.71595
1679998249831,1178238184881884,8.91705,6.228,0.80895007
1679998249833,1178238187384038,8.859,6.22305,0.83595
1679998249835,1178238189886115,8.766001,6.1750503,0.795
1679998249837,1178238192388269,8.710951,6.1750503,0.74205005
1679998249840,1178238194890443,8.72505,6.096,0.73995006
1679998249842,1178238197392366,8.625,6.0079503,0.78300005
1679998249844,1178238199894520,8.553,6.0480003,0.76095
1679998249847,1178238202396674,8.433001,5.98395,0.63900006
1679998249850,1178238204898814,8.40705,6.0030003,0.51195
1679998249852,1178238207400967,8.368051,5.94495,0.58905005
1679998249856,1178238209903044,8.277,5.9209504,0.57195
1679998249857,1178238212405198,8.371051,5.9329505,0.56700003
1679998249860,1178238214907130,8.26095,5.8639503,0.63000005
1679998249863,1178238217409207,8.229,5.8879504,0.55305004
1679998249865,1178238219911438,8.089951,5.8780503,0.63705003
1679998249867,1178238222413592,8.212951,5.9809504,0.72495
1679998249870,1178238224915636,8.20605,5.95305,0.735
1679998249872,1178238227417790,8.14095,5.907,0.51000005
1679998249874,1178238229919713,8.089951,5.8570504,0.63705003
1679998249877,1178238232421867,8.122951,5.91195,0.44805002
1679998249880,1178238234924020,8.137051,5.8830004,0.67005
1679998249882,1178238237426178,8.068951,5.9760003,0.60795003
1679998249885,1178238239928332,8.122951,6.0550504,0.62505
1679998249887,1178238242430409,8.112,6.012,0.61800003
1679998249890,1178238244932563,8.11905,5.95695,0.54105
1679998249893,1178238247434477,8.13405,6.024,0.51195
1679998249895,1178238249936631,8.128051,6.0049505,0.483
1679998249900,1178238252439015,8.112,6.04395,0.52905005
1679998249901,1178238254940939,8.03295,6.04395,0.483
1679998249903,1178238257443005,8.172,5.98605,0.51000005
1679998249904,1178238259945159,8.160001,6.0360003,0.55305004
1679998249907,1178238262447313,8.32005,5.99595,0.43605003
1679998249910,1178238264949236,8.16495,6.0670505,0.34695002
1679998249912,1178238267451385,8.134951,6.1459503,0.37305
1679998249914,1178238269953539,8.229,6.111,0.49800003
1679998249917,1178238272455693,8.200951,6.1969504,0.32505003
1679998249921,1178238274957770,8.11905,6.09105,0.43995002
1679998249923,1178238277459924,8.2560005,6.1699505,0.39495003
1679998249925,1178238279961847,8.212951,6.228,0.45495003
1679998249927,1178238282464001,8.29695,6.168,0.42405003
1679998249931,1178238284966154,8.301001,6.23295,0.43095002
1679998249933,1178238287468308,8.377951,6.2040005,0.49500003
1679998249935,1178238289970443,8.38305,6.2040005,0.54795
1679998249937,1178238292472520,8.45205,6.22095,0.51195
1679998249940,1178238294974674,8.385,6.11805,0.51000005
1679998249943,1178238297476597,8.467051,6.2089505,0.582
1679998249945,1178238299978741,8.467051,6.1660504,0.63195
1679998249947,1178238302480895,8.586,6.0940504,0.49500003
1679998249950,1178238304982972,8.578951,6.135,0.615
1679998249952,1178238307485125,8.566951,6.111,0.591
1679998249954,1178238309987279,8.61495,6.123,0.62205005
1679998249957,1178238312489424,8.673,6.0600004,0.675
1679998249963,1178238314991578,8.731951,6.1249504,0.59805006
1679998249964,1178238317493501,8.766001,6.063,0.60795003
1679998249965,1178238319995655,8.743951,6.0480003,0.69405
1679998249969,1178238322497756,8.778001,6.0340505,0.65805006
1679998249971,1178238324999910,8.7949505,6.0390005,0.69405
1679998249973,1178238327501833,8.76105,5.9689503,0.74205005
1679998249975,1178238330004217,8.830951,6.0870004,0.66795003
1679998249977,1178238332506165,8.81595,6.0409503,0.78495
1679998249980,1178238335008318,8.689051,5.9689503,0.79695004
1679998249983,1178238337510395,8.823,5.9620504,0.86700004
1679998249984,1178238340012549,8.802,5.9760003,0.864
1679998249987,1178238342514472,8.70405,6.0199504,0.85695004
1679998249990,1178238345016626,8.778001,6.04395,0.94095004
1679998249992,1178238347519011,8.707951,5.991,0.80700004
1679998249994,1178238350020934,8.61705,6.0100503,0.86700004
1679998249997,1178238352523088,8.713051,5.9599504,0.81195
1679998250000,1178238355025179,8.59605,6.0100503,0.82395005
1679998250002,1178238357527332,8.541,6.0319505,0.75405
1679998250006,1178238360029486,8.59095,5.9620504,0.72300005
1679998250008,1178238362531640,8.514,5.8950005,0.744
1679998250010,1178238365033794,8.505,5.9329505,0.735
1679998250012,1178238367535717,8.51895,5.9599504,0.651
1679998250014,1178238370037871,8.500051,5.8690505,0.74895006
1679998250017,1178238372539948,8.389951,5.9290504,0.67005
1679998250020,1178238375042102,8.514,5.8950005,0.67305005
1679998250023,1178238377544025,8.517,5.8690505,0.62205005
1679998250025,1178238380046409,8.481,5.85195,0.61800003
1679998250027,1178238382548332,8.553,5.78205,0.55995005
1679998250030,1178238385050453,8.577001,5.85195,0.69705003
1679998250032,1178238387552607,8.56995,5.76795,0.65295005
1679998250034,1178238390054684,8.60805,5.7660003,0.70395005
1679998250037,1178238392556607,8.622001,5.7970505,0.70395005
1679998250040,1178238395059016,8.625,5.80905,0.57705003
1679998250044,1178238397561170,8.61705,5.80905,0.65805006
1679998250045,1178238400063093,8.674951,5.88495,0.57900006
1679998250047,1178238402565247,8.713051,5.826,0.615
1679998250050,1178238405067324,8.77305,5.7660003,0.555
1679998250052,1178238407569486,8.77995,5.8450503,0.546
1679998250054,1178238410071409,8.78505,5.8759503,0.64905006
1679998250057,1178238412573794,8.823,5.8450503,0.61005
1679998250060,1178238415075948,8.818951,5.83995,0.60795003
1679998250063,1178238417577871,8.788051,5.80905,0.67005
1679998250065,1178238420079948,8.86695,5.8950005,0.61995006
1679998250067,1178238422582102,8.78505,5.8710003,0.54300004
1679998250070,1178238425084256,8.883,6.0030003,0.52395004
1679998250072,1178238427586193,8.823,5.9020505,0.47400004
1679998250075,1178238430088577,8.845051,5.907,0.57195
1679998250077,1178238432590500,8.842951,5.9689503,0.38505003
1679998250083,1178238435092674,8.871,5.964,0.31305
1679998250084,1178238437594751,8.788051,5.9740505,0.39195
1679998250086,1178238440096905,8.754001,5.9359503,0.22695
1679998250088,1178238442599059,8.713051,5.9209504,0.141
1679998250091,1178238445101213,8.701051,5.931,0.12705001
1679998250093,1178238447603107,8.686951,6.0270004,0.22695
1679998250095,1178238450105261,8.649,5.99595,0.105000004
1679998250097,1178238452607415,8.517,5.931,-0.00795
1679998250100,1178238455109491,8.553,5.95695,-0.072000004
1679998250103,1178238457611654,8.49495,5.9050503,0.055050004
1679998250104,1178238460113577,8.359051,5.99595,0.093
1679998250107,1178238462615962,8.434951,5.8999505,-0.043050002
1679998250111,1178238465118116,8.280001,5.9430003,0.043050002
1679998250112,1178238467620039,8.34405,5.9599504,0.045
1679998250114,1178238470122126,8.373,5.9689503,0.13395001
1679998250119,1178238472624280,8.19795,5.9329505,0.09105001
1679998250121,1178238475126434,8.301001,5.95305,0.097950004
1679998250123,1178238477628357,8.20605,5.91405,0.14805001
1679998250125,1178238480130741,8.27295,5.9880004,0.22500001
1679998250128,1178238482632664,8.233951,5.9290504,0.24405001
1679998250130,1178238485134818,8.232,5.9290504,0.21795002
1679998250132,1178238487636895,8.16495,5.88105,0.30105
1679998250134,1178238490139035,8.137051,5.9050503,0.38805002
1679998250137,1178238492641189,8.134951,5.98605,0.24900001
1679998250140,1178238495143343,8.184,5.9479504,0.33
1679998250143,1178238497645266,8.03295,6.024,0.27495003
1679998250145,1178238500147405,8.158051,5.9209504,0.30405003
1679998250147,1178238502649559,8.23695,6.04605,0.43095002
1679998250150,1178238505151635,8.161051,5.98605,0.39705002
1679998250152,1178238507653789,8.229,6.01695,0.46395
1679998250156,1178238510155722,8.2890005,5.9620504,0.41400003
1679998250157,1178238512658107,8.365951,5.9760003,0.45000002
1679998250164,1178238515160030,8.385,5.9050503,0.45495003
1679998250165,1178238517662184,8.467051,5.907,0.55995005
1679998250167,1178238520164338,8.574,5.9020505,0.45705003
1679998250169,1178238522666415,8.668051,5.8969502,0.49305
1679998250171,1178238525168338,8.719951,5.826,0.69705003
1679998250173,1178238527670722,8.742001,5.7660003,0.642
1679998250174,1178238530172646,8.862,5.8780503,0.73695004
1679998250177,1178238532674799,8.86695,5.8330503,0.69405
1679998250180,1178238535176937,8.971951,5.80905,0.75195
1679998250183,1178238537679014,9.003,5.85405,0.73695004
1679998250185,1178238540181245,8.998051,5.73495,0.79695004
1679998250187,1178238542683322,9.063001,5.7300005,0.79200006
1679998250190,1178238545185491,9.1369505,5.75895,0.83595
1679998250193,1178238547687414,9.159,5.73705,0.69900006
1679998250195,1178238550189568,9.16395,5.84205,0.80205005
1679998250197,1178238552691645,9.123,5.742,0.735
1679998250200,1178238555193889,9.23295,5.78205,0.87600005
1679998250202,1178238557695966,9.23805,5.58405,0.78495
1679998250204,1178238560198120,9.27105,5.7970505,0.80895007
1679998250207,1178238562700274,9.316951,5.7900004,0.77295005
1679998250210,1178238565202192,9.204,5.79405,0.78000003
1679998250216,1178238567704346,9.264001,5.8039503,0.65595
1679998250218,1178238570206423,9.267,5.7439504,0.51495004
1679998250220,1178238572708654,9.23805,5.7229505,0.68895006
1679998250223,1178238575210807,9.139951,5.826,0.591
1679998250225,1178238577712884,9.22095,5.85195,0.49305
1679998250227,1178238580214807,9.06495,5.9050503,0.43605003
1679998250230,1178238582716961,9.06795,5.95305,0.321
1679998250233,1178238585219091,9.010051,5.907,0.46395
1679998250235,1178238587721168,8.986051,5.859,0.35700002
1679998250237,1178238590223399,8.95005,5.9170504,0.22500001
1679998250239,1178238592725476,8.823,5.931,0.15795001
1679998250241,1178238595227399,8.839951,5.8690505,0.12195001
1679998250243,1178238597729548,8.799001,5.826,0.14805001
1679998250244,1178238600231702,8.62695,5.847,0.10305001
1679998250247,1178238602733779,8.6629505,5.9500504,0.13095
1679998250250,1178238605236009,8.55795,5.8879504,0.09105001
1679998250252,1178238607738086,8.566951,5.8710003,0.055050004
1679998250255,1178238610240240,8.493,5.8230004,0.16995001
1679998250257,1178238612742394,8.45205,5.79195,0.021000002
1679998250260,1178238615244317,8.42595,5.80905,0.18195
1679998250271,1178238617746442,8.397,5.8879504,0.10005
1679998250271,1178238620248596,8.38305,5.8900504,0.18195
1679998250271,1178238622750827,8.3560505,5.814,0.19395001
1679998250272,1178238625252904,8.2560005,5.89305,0.26295
1679998250273,1178238627755043,8.280001,5.8450503,0.31800002
1679998250274,1178238630256966,8.29905,5.9020505,0.23400001
1679998250277,1178238632759120,8.233951,5.8500004,0.23895001
1679998250281,1178238635261197,8.18595,5.91405,0.25395
1679998250282,1178238637763428,8.172,5.9359503,0.46395
1679998250285,1178238640265577,8.22,5.9290504,0.30405003
1679998250287,1178238642767654,8.161051,5.8969502,0.40905002
1679998250290,1178238645269577,8.265,5.88105,0.30405003
1679998250292,1178238647771731,8.244,5.88495,0.42105
1679998250295,1178238650273909,8.29395,5.8380003,0.43605003
1679998250297,1178238652775986,8.280001,5.9740505,0.44805002
1679998250300,1178238655278216,8.229,5.94105,0.41595003
1679998250303,1178238657780293,8.239051,5.8609505,0.47595003
1679998250306,1178238660282447,8.31795,5.8999505,0.47400004
1679998250308,1178238662784370,8.3230505,5.8710003,0.49305
1679998250311,1178238665286524,8.3560505,5.85405,0.61005
1679998250313,1178238667788678,8.377951,5.8639503,0.38805002
1679998250315,1178238670290755,8.434951,5.8900504,0.63705003
1679998250317,1178238672792918,8.44995,5.8950005,0.61995006
1679998250321,1178238675295071,8.433001,5.79195,0.615
1679998250323,1178238677797225,8.503051,5.7990003,0.60795003
1679998250325,1178238680299148,8.434951,5.7970505,0.51495004
1679998250329,1178238682801274,8.49495,5.7250504,0.54300004
1679998250331,1178238685303351,8.48295,5.76795,0.51495004
1679998250332,1178238687805582,8.433001,5.7109504,0.40695003
1679998250336,1178238690307736,8.40705,5.7229505,0.55995005
1679998250337,1178238692809813,8.46195,5.7660003,0.47895002
1679998250340,1178238695311957,8.469001,5.8060503,0.46905002
1679998250344,1178238697813880,8.51895,5.74905,0.48600003
1679998250347,1178238700316034,8.530951,5.79195,0.52395004
1679998250348,1178238702818110,8.500051,5.7660003,0.46905002
1679998250351,1178238705320356,8.514,5.80905,0.43605003
1679998250353,1178238707822510,8.649,5.8350005,0.41595003
1679998250355,1178238710324587,8.7300005,5.7660003,0.34500003
1679998250357,1178238712826510,8.656051,5.8639503,0.273
1679998250360,1178238715328635,8.802,5.7990003,0.294
1679998250362,1178238717830789,8.766001,5.8500004,0.282
1679998250365,1178238720332866,8.78505,5.8710003,0.25395
1679998250368,1178238722835097,8.887951,5.8570504,0.24900001
1679998250370,1178238725337178,8.851951,5.92605,0.18900001
1679998250372,1178238727839332,8.830951,5.931,0.033
1679998250375,1178238730341255,8.7949505,5.907,0.14295001
1679998250377,1178238732843409,8.80395,5.931,0.22200002
1679998250381,1178238735345477,8.79705,5.979,0.177
1679998250384,1178238737847708,8.851951,5.9209504,0.15795001
1679998250385,1178238740349785,8.8279505,6.0030003,0.15795001
1679998250388,1178238742851939,8.835,5.98605,0.22005
1679998250391,1178238745354093,8.87895,5.98395,0.24900001
1679998250393,1178238747856016,8.86695,5.92395,0.20805001
1679998250395,1178238750358170,8.845051,5.964,0.28905
1679998250397,1178238752860246,8.85,5.8759503,0.33495003
1679998250400,1178238755362477,8.87895,5.8999505,0.22995001
1679998250402,1178238757864578,8.91195,5.9430003,0.36105
1679998250405,1178238760366501,8.87895,5.9089503,0.31605002
1679998250407,1178238762868655,8.857051,5.8710003,0.34905002
1679998250410,1178238765371040,8.862,5.8780503,0.39000002
1679998250412,1178238767872948,8.802,5.74905,0.282
1679998250415,1178238770375025,8.851951,5.8380003,0.46695003
1679998250418,1178238772877179,8.8279505,5.7250504,0.53595
1679998250421,1178238775379332,8.743951,5.7439504,0.47100002
1679998250424,1178238777881255,8.80395,5.8609505,0.546
1679998250426,1178238780383409,8.71605,5.802,0.50295
1679998250428,1178238782885563,8.649,5.8180504,0.44505003
1679998250431,1178238785387717,8.60805,5.814,0.35895002
1679998250433,1178238787889794,8.497951,5.73705,0.53400004
1679998250435,1178238790391948,8.50695,5.8350005,0.34005
1679998250437,1178238792894102,8.380051,5.7730503,0.29895002
1679998250440,1178238795396025,8.257951,5.8830004,0.321
1679998250442,1178238797898179,8.229,5.826,0.38505003
1679998250445,1178238800400332,8.13,5.8330503,0.25605002
1679998250447,1178238802902486,8.076,5.84205,0.24405001
1679998250451,1178238805404563,7.8919506,5.9599504,0.165
1679998250452,1178238807906717,7.8850503,5.91195,0.26505002
1679998250456,1178238810408645,7.8100505,5.99595,0.21000001
1679998250458,1178238812910799,7.7820005,5.97195,0.055050004
1679998250461,1178238815413184,7.6309505,6.0220504,0.22695
1679998250464,1178238817915107,7.6399503,6.05805,0.105000004
1679998250465,1178238820417184,7.6450505,6.0720005,0.21000001
1679998250467,1178238822919319,7.695,6.1200004,0.22995001
1679998250470,1178238825421242,7.6930504,6.1009502,0.19800001
1679998250472,1178238827923395,7.7380505,6.1459503,0.13395001
1679998250475,1178238830425549,7.75995,6.0670505,0.19800001
1679998250478,1178238832927717,7.7839503,6.13005,0.11895001
1679998250480,1178238835429871,7.7700005,6.0720005,0.13905
1679998250482,1178238837931948,7.7980504,6.2040005,0.23700002
1679998250485,1178238840434102,7.8559504,6.0480003,0.22695
1679998250487,1178238842936256,7.96605,6.15105,0.22500001
1679998250490,1178238845438174,8.03295,6.0150003,0.17400001
1679998250493,1178238847940328,8.0449505,6.012,0.16995001
1679998250495,1178238850442481,8.154,5.9359503,0.31800002
1679998250497,1178238852944635,8.208,5.9089503,0.18195
1679998250500,1178238855446731,8.29395,5.8969502,0.40395
1679998250503,1178238857948885,8.347051,5.8639503,0.321
1679998250505,1178238860450808,8.434951,5.7970505,0.39705002
1679998250507,1178238862952962,8.497951,5.7660003,0.54300004
1679998250510,1178238865455126,8.469001,5.8039503,0.50505
1679998250512,1178238867957280,8.59605,5.7510004,0.43605003
1679998250515,1178238870459434,8.680051,5.6839504,0.60300004
1679998250518,1178238872961510,8.754001,5.8110003,0.49305
1679998250520,1178238875463428,8.838,5.8570504,0.48600003
1679998250523,1178238877965581,8.898001,5.7300005,0.43605003
1679998250525,1178238880467966,8.898001,5.787,0.49500003
1679998250529,1178238882969889,8.910001,5.8950005,0.55305004
1679998250532,1178238885472053,8.953051,5.8660502,0.56205004
1679998250533,1178238887974130,9.06105,5.9670005,0.45705003
1679998250535,1178238890476284,9.01305,5.94105,0.546
1679998250537,1178238892978207,9.12495,5.98395,0.50505
1679998250540,1178238895480356,9.120001,6.0030003,0.45000002
1679998250543,1178238897982740,9.1369505,5.9929504,0.54105
1679998250545,1178238900484663,9.04395,6.1009502,0.41595003
1679998250548,1178238902986740,9.07995,6.0750003,0.40695003
1679998250551,1178238905488913,9.099,6.1060505,0.43605003
1679998250552,1178238907991067,8.953051,6.23295,0.45000002
1679998250555,1178238910492990,8.934,6.20205,0.43995002
1679998250557,1178238912995144,8.830951,6.2179503,0.402
1679998250560,1178238915497298,8.77995,6.2140503,0.37305
1679998250562,1178238917999438,8.731951,6.2110505,0.354
1679998250565,1178238920501515,8.706,6.228,0.37095
1679998250569,1178238923003668,8.48805,6.2179503,0.32505003
1679998250571,1178238925505803,8.44995,6.2640004,0.32805002
1679998250573,1178238928007726,8.45895,6.26595,0.21000001
1679998250575,1178238930509880,8.277,6.35505,0.10005
1679998250577,1178238933012034,8.200951,6.19395,0.23700002
1679998250583,1178238935514188,8.088,6.2520003,0.19095
1679998250584,1178238938016255,7.9180503,6.2590504,0.19395001
1679998250585,1178238940518409,7.96605,6.25395,0.16305001
1679998250587,1178238943020332,7.9440002,6.2299504,0.11505
1679998250590,1178238945522486,7.83195,6.228,0.033
1679998250592,1178238948024870,7.8679504,6.2260504,0.112050004
1679998250595,1178238950526779,7.72695,6.1660504,0.064050004
1679998250597,1178238953028856,7.6710005,6.1129503,0.109950006
1679998250600,1178238955531010,7.6810503,6.16095,0.079050004
1679998250602,1178238958033164,7.63605,6.216,0.10695001
1679998250606,1178238960535068,7.6710005,6.1699505,0.049950004
1679998250608,1178238963037222,7.6210504,6.1009502,0.16695
1679998250611,1178238965539376,7.6500006,6.144,0.23895001
1679998250613,1178238968041530,7.5780005,6.19005,0.10695001
1679998250615,1178238970543607,7.602,6.2059503,0.052050002
1679998250618,1178238973045784,7.69995,6.22305,0.024
1679998250621,1178238975547938,7.6740003,6.30495,0.025950002
1679998250623,1178238978049861,7.7119503,6.2059503,-0.024
1679998250625,1178238980552015,7.7530503,6.3120003,-0.012
1679998250627,1178238983054169,7.8250504,6.2970004,-0.015000001
1679998250630,1178238985556323,7.83195,6.2899504,-0.02205
1679998250632,1178238988058400,7.9090505,6.2899504,0.00705
1679998250636,1178238990560631,7.8409505,6.23295,-0.039
1679998250638,1178238993062722,7.8769503,6.36705,-0.036000002
1679998250640,1178238995564645,7.9180503,6.2590504,-0.09105001
1679998250644,1178238998066798,7.9849505,6.3840003,0.08295
1679998250645,1178239000568952,7.9489503,6.2779503,0.0139500005
1679998250648,1178239003071029,7.9560003,6.3169503,-0.02205
1679998250651,1178239005573169,7.9540505,6.31395,0.141
1679998250653,1178239008075323,8.02305,6.3310504,0.060000002
1679998250655,1178239010577477,8.088,6.32595,0.093
1679998250659,1178239013079395,8.016001,6.30495,0.061950002
1679998250661,1178239015581549,8.052,6.3019505,0.14595
1679998250665,1178239018083703,8.212951,6.3480005,0.081
1679998250665,1178239020585780,8.19795,6.261,0.13395001
1679998250668,1178239023087703,8.233951,6.3450003,0.08595
1679998250672,1178239025590083,8.224951,6.453,0.35205
1679998250673,1178239028092237,8.28195,6.2779503,0.19605
1679998250675,1178239030594160,8.208,6.40005,0.22695
1679998250678,1178239033096314,8.232,6.4120502,0.18900001
1679998250682,1178239035598386,8.232,6.40005,0.24900001
1679998250684,1178239038100540,8.30895,6.42,0.26295
1679998250686,1178239040602694,8.245951,6.45795,0.13395001
1679998250689,1178239043104848,8.196,6.4240503,0.141
1679998250692,1178239045606771,8.0449505,6.29295,0.07395
1679998250694,1178239048108894,8.016001,6.43905,0.25605002
1679998250695,1178239050610971,7.9440002,6.4789505,0.13095
1679998250697,1178239053113125,7.9090505,6.4939504,0.079050004
1679998250700,1178239055615279,7.6909504,6.4669504,0.00405
1679998250705,1178239058117418,7.7310004,6.4890003,0.055050004
1679998250707,1178239060619572,7.5660005,6.4819503,-0.039
1679998250708,1178239063121495,7.518,6.5460005,-0.112950005
1679998250711,1178239065623649,7.39095,6.4459505,-0.09105001
1679998250714,1178239068125803,7.281,6.525,-0.18105
1679998250715,1178239070627884,7.2379503,6.597,-0.22395001
1679998250719,1178239073129808,7.21395,6.5989504,-0.22200002
1679998250721,1178239075632192,7.0579505,6.54195,-0.252
1679998250724,1178239078134115,7.1130004,6.6109505,-0.31095
1679998250726,1178239080636264,7.11105,6.6520505,-0.29595003
1679998250728,1178239083138418,7.0849504,6.6709504,-0.35895002
1679998250731,1178239085640495,7.06995,6.67605,-0.38505003
1679998250733,1178239088142649,7.188,6.73605,-0.45000002
1679998250735,1178239090644803,7.209,6.7639503,-0.39000002
1679998250737,1178239093146980,7.2739506,6.7549505,-0.411
1679998250740,1178239095649134,7.4029503,6.762,-0.33705002
1679998250743,1178239098151057,7.37895,6.6900005,-0.43500003
1679998250745,1178239100653134,7.53,6.8100004,-0.30600002
1679998250748,1178239103155288,7.7100005,6.64905,-0.411
1679998250753,1178239105657442,7.8919506,6.6540003,-0.28695002
1679998250755,1178239108159596,7.93695,6.7210503,-0.282
1679998250757,1178239110661750,8.097,6.6400504,-0.20295002
1679998250759,1178239113163692,8.227051,6.609,-0.201
1679998250761,1178239115665846,8.38305,6.558,-0.35595003
1679998250764,1178239118167923,8.530951,6.4099503,-0.23205002
1679998250766,1178239120670076,8.658,6.4240503,-0.21000001
1679998250768,1178239123172307,8.70405,6.40005,-0.028950002
1679998250770,1178239125674399,8.910001,6.3739505,-0.015000001
1679998250773,1178239128176322,8.965051,6.2520003,-0.07005
1679998250775,1178239130678476,9.07995,6.3430505,0.040050004
1679998250777,1178239133180630,9.052951,6.2779503,-0.028950002
1679998250781,1178239135682707,9.18,6.3120003,0.076050006
1679998250784,1178239138184861,9.20895,6.36705,0.16695
1679998250786,1178239140687015,9.196951,6.1920004,0.028050002
1679998250788,1178239143189168,9.20895,6.38805,0.31095
1679998250792,1178239145691073,9.20895,6.25395,0.261
1679998250794,1178239148193226,9.22095,6.19395,0.18405001
1679998250796,1178239150695380,9.19005,6.3090005,0.23700002
1679998250798,1178239153197457,9.18,6.249,0.32805002
1679998250800,1178239155699380,9.19005,6.288,0.17205001
1679998250802,1178239158201745,9.168,6.1800003,0.333
1679998250806,1178239160703899,9.1039505,6.2640004,0.24405001
1679998250808,1178239163205822,9.087001,6.3120003,0.14805001
1679998250811,1178239165707976,8.995951,6.1780505,0.31800002
1679998250814,1178239168210053,8.91195,6.3910503,0.28005
1679998250815,1178239170712206,8.851951,6.3120003,0.16005
1679998250818,1178239173214437,8.874001,6.3840003,0.081
1679998250820,1178239175716514,8.754001,6.3019505,0.07395
1679998250824,1178239178218423,8.7949505,6.3840003,0.009000001
1679998250825,1178239180720577,8.680051,6.2590504,-0.043050002
1679998250828,1178239183222731,8.60505,6.3289504,-0.20505
1679998250832,1178239185724808,8.59605,6.43905,-0.16905001
1679998250834,1178239188226952,8.48595,6.4170003,-0.27
1679998250835,1178239190729106,8.530951,6.5149503,-0.33705002
1679998250837,1178239193231259,8.48805,6.4459505,-0.21495001
1679998250840,1178239195733182,8.44695,6.43905,-0.37500003
1679998250844,1178239198235336,8.325001,6.56295,-0.47100002
1679998250846,1178239200737456,8.182051,6.59205,-0.43005002
1679998250848,1178239203239533,8.19795,6.6139503,-0.45000002
1679998250851,1178239205741456,8.229,6.5539503,-0.43500003
1679998250853,1178239208243841,8.068951,6.642,-0.31800002
1679998250855,1178239210746015,8.1,6.6400504,-0.50100005
1679998250858,1178239213247938,8.04,6.6660004,-0.47400004
1679998250860,1178239215750015,7.9470005,6.69495,-0.47100002
1679998250864,1178239218252245,8.055,6.6520505,-0.40695003
1679998250865,1178239220754433,7.9129505,6.6139503,-0.39495003
1679998250869,1178239223256510,7.9470005,6.66405,-0.51900005
1679998250872,1178239225758433,7.9879503,6.60405,-0.49800003
1679998250873,1178239228260587,7.90605,6.669,-0.43305
1679998250875,1178239230762770,7.9249506,6.63,-0.41400003
1679998250878,1178239233264924,8.031,6.5680504,-0.29595003
1679998250881,1178239235767001,8.026051,6.6210003,-0.30795002
1679998250883,1178239238269155,7.9879503,6.4789505,-0.30795002
1679998250885,1178239240771309,7.97805,6.6210003,-0.30600002
1679998250891,1178239243273213,8.002951,6.5490003,-0.27705002
1679998250891,1178239245775366,8.182051,6.5340004,-0.25005
1679998250892,1178239248277443,8.112,6.5460005,-0.16905001
1679998250895,1178239250779674,8.19795,6.525,-0.23400001
1679998250898,1178239253281746,8.191051,6.5460005,-0.27705002
1679998250900,1178239255783900,8.269951,6.4789505,-0.13305001
1679998250903,1178239258286054,8.33205,6.5269504,-0.23400001
1679998250906,1178239260787948,8.34,6.5010004,-0.09105001
1679998250908,1178239263290025,8.361,6.51105,-0.051000003
1679998250911,1178239265792179,8.434951,6.5269504,-0.108
1679998250913,1178239268294409,8.38305,6.51105,-0.048
1679998250915,1178239270796486,8.43105,6.4549503,-0.058050003
1679998250917,1178239273298674,8.47395,6.537,-0.15495001
1679998250921,1178239275800597,8.404051,6.4819503,-0.096
1679998250924,1178239278302751,8.409,6.558,-0.079050004
1679998250925,1178239280804828,8.47395,6.4890003,-0.058050003
1679998250928,1178239283307035,8.4210005,6.54405,-0.141
1679998250931,1178239285809189,8.38305,6.53205,-0.18405001
1679998250933,1178239288311266,8.45505,6.5460005,-0.23205002
1679998250935,1178239290813189,8.44305,6.6060004,-0.162
1679998250938,1178239293315343,8.33205,6.5460005,-0.33
1679998250940,1178239295817500,8.25105,6.54195,-0.165
1679998250945,1178239298319577,8.253,6.60195,-0.25605002
1679998250946,1178239300821808,8.27295,6.6829505,-0.45900002
1679998250948,1178239303323900,8.1,6.558,-0.49305
1679998250951,1178239305826054,8.052,6.6180005,-0.462
1679998250953,1178239308327977,8.071051,6.59205,-0.46905002
1679998250955,1178239310830131,7.9879503,6.69495,-0.591
1679998250958,1178239313332285,7.86495,6.66405,-0.63600004
1679998250962,1178239315834376,7.7910004,6.6730504,-0.78000003
1679998250963,1178239318336529,7.7820005,6.72795,-0.63900006
1679998250965,1178239320838683,7.6429505,6.7210503,-0.61995006
1679998250968,1178239323340837,7.65495,6.7210503,-0.72495
1679998250971,1178239325842794,7.5679502,6.72795,-0.84195006
1679998250972,1178239328344948,7.6069503,6.7050004,-0.79200006
1679998250975,1178239330847025,7.5400505,6.85305,-0.78000003
1679998250977,1178239333349256,7.4680505,6.8310003,-0.89295006
1679998250982,1178239335851391,7.4460006,6.76695,-1.0390501
1679998250985,1178239338353468,7.4370003,6.6780005,-0.744
1679998250986,1178239340855621,7.458,6.81195,-0.75900006
1679998250989,1178239343357545,7.3960505,6.8269506,-0.84705
1679998250993,1178239345859683,7.55595,6.8890505,-0.795
1679998250994,1178239348361760,7.5730505,6.89895,-0.90000004
1679998250998,1178239350863991,7.59,6.8599505,-0.88995004
1679998250999,1178239353366068,7.5829506,6.7570505,-0.79005
1679998251000,1178239355868222,7.5660005,6.846,-0.94305
1679998251004,1178239358370145,7.6759505,6.879,-0.78495
1679998251006,1178239360872299,7.7530503,6.8890505,-0.85905004
1679998251009,1178239363374453,7.9279504,6.8029504,-0.88095003
1679998251010,1178239365876607,7.8610506,6.8290505,-0.86205006
1679998251013,1178239368378683,7.90395,6.8430004,-0.79695004
1679998251015,1178239370880856,7.9420505,6.6900005,-0.81405
1679998251019,1178239373383010,8.043,6.76905,-0.75405
1679998251022,1178239375884933,8.068951,6.7840505,-0.83805007
1679998251026,1178239378387044,8.064,6.6139503,-0.74895006
1679998251027,1178239380889121,8.083051,6.66405,-0.70095
1679998251029,1178239383391352,8.253,6.6469502,-0.67200005
1679998251032,1178239385893429,8.14095,6.63,-0.67695004
1679998251034,1178239388395583,8.172,6.669,-0.64095
1679998251035,1178239390897736,8.116051,6.6660004,-0.624
1679998251037,1178239393399659,8.148001,6.6570005,-0.54795
1679998251040,1178239395901736,7.9609504,6.5850005,-0.66300005
1679998251043,1178239398403890,8.028001,6.6900005,-0.67995006
1679998251045,1178239400906121,7.99695,6.60195,-0.55995005
1679998251047,1178239403408184,7.99695,6.7050004,-0.61005
1679998251050,1178239405910338,7.8919506,6.6570005,-0.56700003
1679998251052,1178239408412261,7.8820505,6.66405,-0.69405
1679998251056,1178239410914419,7.7380505,6.6570005,-0.74205005
1679998251059,1178239413416496,7.7890506,6.67605,-0.69405
1679998251061,1178239415918726,7.8130503,6.7330503,-0.63600004
1679998251064,1178239418420803,7.8180003,6.714,-0.63405
1679998251066,1178239420922957,7.7100005,6.7120504,-0.711
1679998251068,1178239423424880,7.7550006,6.63495,-0.651
1679998251071,1178239425927034,7.5829506,6.7120504,-0.74895006
1679998251076,1178239428429188,7.6810503,6.7549505,-0.64605004
1679998251077,1178239430931265,7.65495,6.6850505,-0.74895006
1679998251078,1178239433433501,7.7430005,6.714,-0.67995006
1679998251081,1178239435935578,7.62795,6.6930003,-0.67995006
1679998251083,1178239438437732,7.62405,6.7189503,-0.78705
1679998251086,1178239440939885,7.5780005,6.60195,-0.71505004
1679998251088,1178239443441808,7.5540004,6.7639503,-0.75405
1679998251092,1178239445943957,7.5109506,6.7549505,-0.648
1679998251095,1178239448446111,7.5090003,6.6829505,-0.70305
1679998251097,1178239450948188,7.5490503,6.72795,-0.68895006
1679998251098,1178239453450342,7.6260004,6.63705,-0.79905003
1679998251101,1178239455952501,7.6039505,6.8509502,-0.59805006
1679998251103,1178239458454424,7.6140003,6.6829505,-0.73005
1679998251105,1178239460956809,7.59495,6.67605,-0.67200005
1679998251108,1178239463458732,7.76205,6.5779505,-0.64605004
1679998251110,1178239465960800,7.6789503,6.669,-0.64395005
1679998251114,1178239468462953,7.767,6.5869503,-0.75405
1679998251115,1178239470965107,7.7719502,6.5389504,-0.80595005
1679998251119,1178239473467030,7.8919506,6.60405,-0.73695004
1679998251121,1178239475969174,7.971,6.49095,-0.81600004
1679998251123,1178239478471328,7.9519506,6.62295,-0.65295005
1679998251126,1178239480973482,8.00895,6.5490003,-0.72705
1679998251128,1178239483475636,8.121,6.5460005,-0.771
1679998251132,1178239485977689,8.184,6.54195,-0.75600004
1679998251134,1178239488479612,8.196,6.5509505,-0.735
1679998251136,1178239490981766,8.32995,6.5940003,-0.73695004
1679998251138,1178239493484150,8.389951,6.6280503,-0.711
1679998251143,1178239495986058,8.410951,6.5659504,-0.63405
1679998251145,1178239498488212,8.533951,6.4789505,-0.77505004
1679998251147,1178239500990289,8.500051,6.5850005,-0.66795003
1679998251149,1178239503492443,8.500051,6.54195,-0.56700003
1679998251151,1178239505994347,8.500051,6.5080504,-0.67200005
1679998251153,1178239508496501,8.514,6.5560503,-0.54495
1679998251155,1178239510998655,8.524051,6.49905,-0.47805002
1679998251158,1178239513500809,8.48805,6.5940003,-0.68205005
1679998251161,1178239516002899,8.38305,6.4819503,-0.58905005
1679998251164,1178239518505053,8.385,6.57,-0.675
1679998251165,1178239521007207,8.373,6.5490003,-0.75105006
1679998251170,1178239523509130,8.191051,6.6109505,-0.75105006
1679998251172,1178239526011549,8.15295,6.6730504,-0.68205005
1679998251174,1178239528513472,8.03505,6.57,-0.69600004
1679998251176,1178239531015626,7.9590006,6.58995,-0.73905003
1679998251178,1178239533517703,7.9800005,6.63,-0.864
1679998251181,1178239536019857,7.7460003,6.6709504,-0.97905004
1679998251185,1178239538521780,7.7479506,6.5820003,-1.0030501
1679998251187,1178239541023934,7.65705,6.6060004,-1.13505
1679998251188,1178239543526087,7.5799503,6.69495,-1.14195
1679998251191,1178239546028241,7.4269505,6.7639503,-1.16295
1679998251193,1178239548530395,7.42995,6.7960505,-1.23
1679998251195,1178239551032506,7.3939505,6.8239503,-1.269
1679998251198,1178239553534660,7.2240005,6.7720504,-1.19895
1679998251201,1178239556036583,7.1920505,6.8170505,-1.3410001
1679998251203,1178239558538737,7.1329503,6.7960505,-1.4290501
1679998251207,1178239561041125,7.056,6.9660006,-1.4440501
1679998251208,1178239563543049,7.00995,6.8910003,-1.42005
1679998251211,1178239566045125,6.867,6.9540005,-1.48695
1679998251213,1178239568547279,6.8280005,6.98505,-1.5780001
1679998251216,1178239571049202,6.84495,7.0020003,-1.5970501
1679998251218,1178239573551347,6.6870003,7.0420504,-1.6609501
1679998251221,1178239576053732,6.6130505,7.0129504,-1.7170501
1679998251224,1178239578555655,6.5599504,7.071,-1.695
1679998251226,1178239581057732,6.49095,7.01805,-1.7860501
1679998251228,1178239583559886,6.3160505,6.9919505,-1.7380501
1679998251232,1178239586062069,6.366,7.07595,-1.7880001
1679998251233,1178239588563992,6.2179503,7.0930505,-1.76205
1679998251236,1178239591066146,6.2100005,7.0810504,-1.8700501
1679998251238,1178239593568299,6.201,7.116,-1.8409501
1679998251241,1178239596070462,6.07905,7.08795,-1.7689501
1679998251245,1178239598572616,6.0880504,7.116,-1.91805
1679998251246,1178239601074693,6.0210004,7.1980505,-1.86705
1679998251248,1178239603576616,5.973,7.2390003,-1.8390001
1679998251251,1178239606078789,6.0090003,7.22205,-1.8030001
1679998251253,1178239608581174,6.06405,7.3680005,-1.83405
1679998251257,1178239611083097,6.01905,7.35795,-1.7569501
1679998251259,1178239613585250,6.0379505,7.4010005,-1.8600001
1679998251262,1178239616087303,6.0480003,7.4110503,-1.9470001
1679998251265,1178239618589457,6.1000504,7.464,-2.0059502
1679998251267,1178239621091380,6.2130003,7.464,-2.02605
1679998251269,1178239623593534,6.222,7.5120006,-1.9780501
1679998251271,1178239626095934,6.3229504,7.392,-2.05695
1679998251273,1178239628597857,6.3520503,7.4760003,-2.124
1679998251275,1178239631099934,6.558,7.4059505,-2.1670501
1679998251278,1178239633602088,6.6559505,7.3699503,-2.1360002
1679998251282,1178239636104242,6.7639503,7.4779506,-2.1790502
1679998251284,1178239638606165,6.8479505,7.4059505,-2.18595
1679998251286,1178239641108318,7.0459504,7.4059505,-2.11395
1679998251291,1178239643610472,7.1040006,7.4400005,-2.1690001
1679998251292,1178239646112611,7.25505,7.4040003,-2.26305
1679998251294,1178239648614688,7.3390503,7.38,-2.2339501
1679998251297,1178239651116842,7.4610004,7.3030505,-2.184
1679998251299,1178239653618996,7.4730005,7.32705,-2.181
1679998251302,1178239656120919,7.5160503,7.3030505,-2.1360002
1679998251303,1178239658623097,7.6639504,7.3060503,-1.9249501
1679998251305,1178239661125251,7.6399503,7.3300505,-1.9540501
1679998251308,1178239663627404,7.63605,7.38,-1.91295
1679998251311,1178239666129481,7.6039505,7.35405,-1.8409501
1679998251313,1178239668631626,7.5400505,7.4160004,-1.8240001
1679998251316,1178239671133549,7.6039505,7.3680005,-1.7760001
1679998251319,1178239673635703,7.4820004,7.4470506,-1.6609501
1679998251323,1178239676137857,7.46505,7.5120006,-1.6020001
1679998251325,1178239678639967,7.4820004,7.3680005,-1.6470001
1679998251327,1178239681142121,7.4560504,7.4449506,-1.6500001
1679998251329,1178239683644275,7.3120503,7.4160004,-1.6810501
1679998251331,1178239686146429,7.3219504,7.48995,-1.6879501
1679998251334,1178239688648376,7.21395,7.4160004,-1.7190001
1679998251336,1178239691150529,7.2000003,7.452,-1.7860501
1679998251338,1178239693652683,7.176,7.4230504,-1.659
1679998251342,1178239696154760,7.2019506,7.5120006,-1.6570501
1679998251344,1178239698656914,7.12305,7.4539504,-1.7760001
1679998251347,1178239701158837,7.077,7.452,-1.9270501
1679998251348,1178239703661222,7.0219502,7.4089503,-1.9369501
1679998251351,1178239706163145,7.0009503,7.3219504,-1.88205
1679998251354,1178239708665299,6.9340506,7.3750505,-1.899
1679998251357,1178239711167472,6.9100504,7.41795,-1.9009501
1679998251359,1178239713669548,6.8929505,7.3900504,-1.8720001
1679998251362,1178239716171472,6.9,7.35405,-1.8870001
1679998251363,1178239718673856,6.8040004,7.4160004,-1.94895
1679998251366,1178239721176006,6.8359504,7.3339505,-1.9939501
1679998251369,1178239723677929,6.90495,7.2580504,-2.0380502
1679998251373,1178239726180083,6.951,7.2169504,-2.14995
1679998251374,1178239728682160,6.91905,7.2390003,-1.98195
1679998251376,1178239731184293,6.9220505,7.1640005,-1.9630501
1679998251378,1178239733686447,7.0459504,7.3099504,-1.9780501
1679998251382,1178239736188600,6.9649506,7.26,-1.9200001
1679998251383,1178239738690524,7.04895,7.1790004,-1.8940501
1679998251386,1178239741192692,7.1299505,7.2670503,-1.932
1679998251389,1178239743694769,7.293,7.2430506,-1.8910501
1679998251391,1178239746196923,7.2379503,7.215,-1.8960001
1679998251395,1178239748699058,7.209,7.15005,-1.8960001
1679998251396,1178239751200981,7.248,7.1959505,-2.01405
1679998251398,1178239753703366,7.2910504,7.29405,-1.8510001
1679998251401,1178239756205289,7.3050003,7.215,-1.8580501
1679998251403,1178239758707443,7.2379503,7.1400003,-1.8270001
1679998251406,1178239761209601,7.2979503,7.2580504,-2.01
1679998251408,1178239763711677,7.281,7.2649503,-1.9729501
1679998251411,1178239766213601,7.2640505,7.3219504,-1.86705
1679998251415,1178239768715985,7.18305,7.25505,-1.8030001
1679998251416,1178239771218139,7.176,7.2670503,-1.9440001
1679998251418,1178239773720043,6.9820504,7.3819504,-1.9390501
1679998251422,1178239776222197,7.03905,7.3420506,-1.91805
1679998251424,1178239778724274,6.9409504,7.4419503,-1.9750501
1679998251426,1178239781226428,6.984,7.4830503,-2.052
1679998251428,1178239783728351,6.807,7.5120006,-2.016
1679998251433,1178239786230735,6.81195,7.5379505,-2.1670501
1679998251434,1178239788732659,6.68205,7.62405,-2.20005
1679998251436,1178239791234812,6.6870003,7.6069503,-2.15505
1679998251439,1178239793736875,6.63705,7.6120505,-2.3130002
1679998251441,1178239796239029,6.5460005,7.5810003,-2.2459502
1679998251443,1178239798741183,6.4450502,7.6309505,-2.2720501
1679998251446,1178239801243106,6.3900003,7.7080503,-2.4180002
1679998251448,1178239803745491,6.249,7.6789503,-2.4160502
1679998251451,1178239806247414,6.2920504,7.7440505,-2.43705
1679998251453,1178239808749568,6.3109503,7.7250004,-2.4160502
1679998251456,1178239811251645,6.1770005,7.8349504,-2.4060001
1679998251458,1178239813753812,6.13605,7.8919506,-2.47305
1679998251461,1178239816255736,6.096,7.87095,-2.466
1679998251463,1178239818758120,5.94705,7.9260006,-2.49
1679998251465,1178239821260043,5.925,7.9480505,-2.466
1679998251469,1178239823762197,5.9280005,8.043,-2.5189502
1679998251472,1178239826264351,5.8780503,7.9570503,-2.469
1679998251474,1178239828766428,5.8900504,8.007,-2.502
1679998251476,1178239831268351,5.70795,8.089951,-2.5240502
1679998251479,1178239833770505,5.76,8.071051,-2.4139502
1679998251481,1178239836272884,5.66895,8.08605,-2.66295
1679998251483,1178239838774807,5.66895,8.167951,-2.493
1679998251486,1178239841276961,5.64795,8.043,-2.5399501
1679998251489,1178239843779038,5.6910005,8.194051,-2.5399501
1679998251492,1178239846281178,5.6959505,8.106,-2.46405
1679998251493,1178239848783101,5.7000003,8.21805,-2.493
1679998251497,1178239851285486,5.72205,8.17305,-2.49
1679998251498,1178239853787409,5.7169504,8.188951,-2.59095
1679998251503,1178239856289548,5.8320003,8.23995,-2.49495
1679998251505,1178239858791625,5.715,8.155951,-2.493
1679998251509,1178239861293779,5.8699503,8.194051,-2.43
1679998251509,1178239863795932,5.8320003,8.16495,-2.5519502
1679998251512,1178239866297855,5.8680005,8.28495,-2.358
1679998251518,1178239868800211,5.9539504,8.21805,-2.4060001
1679998251518,1178239871302134,5.913,8.158051,-2.5519502
1679998251518,1178239873804288,6.045,8.20905,-2.5140002
1679998251521,1178239876306442,6.045,8.106,-2.634
1679998251523,1178239878808510,6.1480503,8.188951,-2.39205
1679998251526,1178239881310433,6.3109503,8.13195,-2.4850502
1679998251528,1178239883812587,6.1980004,8.163,-2.40405
1679998251531,1178239886314971,6.2920504,8.21805,-2.42805
1679998251533,1178239888816894,6.543,8.149051,-2.466
1679998251536,1178239891319048,6.6250505,8.121,-2.5210502
1679998251538,1178239893821125,6.67995,8.13195,-2.361
1679998251542,1178239896323279,6.7780504,8.079,-2.4469502
1679998251545,1178239898825197,6.81405,7.9669504,-2.4850502
1679998251547,1178239901327582,6.9270005,7.8780003,-2.3820002
1679998251549,1178239903829505,6.9150004,7.8640504,-2.52795
1679998251552,1178239906331659,6.984,7.9429502,-2.56005
1679998251553,1178239908833736,6.9979506,7.8520503,-2.6220002
1679998251556,1178239911335871,7.056,7.76805,-2.7799501
1679998251558,1178239913838024,7.1179504,7.701,-2.6580002
1679998251561,1178239916340178,7.1179504,7.79895,-2.5930502
1679998251565,1178239918842332,7.1950502,7.833,-2.7130501
1679998251567,1178239921344255,7.2379503,7.794,-2.70795
1679998251568,1178239923846332,7.2070503,7.66695,-2.8159502
1679998251571,1178239926348486,7.425,7.6410003,-2.778
1679998251573,1178239928850717,7.4220004,7.59495,-2.76795
1679998251576,1178239931352794,7.497,7.5810003,-2.7250502
1679998251578,1178239933854951,7.5210004,7.5280504,-2.7850502
1679998251583,1178239936356875,7.52505,7.4880004,-2.8489501
1679998251585,1178239938859028,7.4940004,7.4370003,-2.7250502
1679998251587,1178239941361115,7.5919504,7.5430503,-2.802
1679998251590,1178239943863269,7.63605,7.3969502,-2.7540002
1679998251593,1178239946365423,7.6429505,7.5840006,-2.7180002
1679998251594,1178239948867577,7.7100005,7.38705,-2.64105
1679998251597,1178239951369500,7.7839503,7.3729506,-2.6170502
1679998251599,1178239953871678,7.7910004,7.2630005,-2.67
1679998251601,1178239956373832,7.9560003,7.29405,-2.60295
1679998251605,1178239958875909,8.083051,7.3320003,-2.562
1679998251606,1178239961378139,8.18595,7.3369503,-2.4850502
1679998251608,1178239963880230,8.280001,7.2049503,-2.6479502
1679998251611,1178239966382384,8.40705,7.3009505,-2.59605
1679998251614,1178239968884307,8.47095,7.21005,-2.67705
1679998251616,1178239971386461,8.701051,7.3369503,-2.65995
1679998251620,1178239973888538,8.6320505,7.3009505,-2.778
1679998251625,1178239976390692,8.59095,7.22205,-2.706
1679998251626,1178239978892846,8.686951,7.10895,-2.60805
1679998251627,1178239981395000,8.686951,7.176,-2.811
1679998251631,1178239983897163,8.56995,7.0519505,-2.871
1679998251632,1178239986399087,8.536051,7.04895,-2.8969502
1679998251634,1178239988901240,8.47605,6.9370503,-2.8230002
1679998251636,1178239991403317,8.3230505,6.939,-2.7540002
1679998251639,1178239993905471,8.13405,6.7380004,-2.7940502
1679998251643,1178239996407587,7.9759502,6.7960505,-2.8950002
1679998251644,1178239998909741,7.9129505,6.7240505,-2.9160001
1679998251648,1178240001411664,7.7380505,6.70695,-2.8249502
1679998251649,1178240003913818,7.5760503,6.558,-2.77005
1679998251651,1178240006415895,7.3699503,6.56295,-2.799
1679998251653,1178240008918058,7.34805,6.5940003,-2.69895
1679998251659,1178240011420211,7.0609503,6.60405,-2.8969502
1679998251660,1178240013922365,6.9430504,6.49905,-2.86905
1679998251665,1178240016424264,6.79995,6.5989504,-2.94495
1679998251665,1178240018926418,6.6439505,6.4789505,-2.8489501
1679998251668,1178240021428572,6.4669504,6.56295,-2.97195
1679998251669,1178240023930649,6.333,6.4960504,-2.943
1679998251671,1178240026432803,6.10995,6.5869503,-2.9550002
1679998251673,1178240028934957,5.9929504,6.6180005,-2.8830001
1679998251677,1178240031437121,5.9040003,6.52995,-2.98095
1679998251681,1178240033939274,5.748,6.4819503,-2.9929502
1679998251683,1178240036441197,5.60505,6.5659504,-2.8879502
1679998251684,1178240038943269,5.583,6.5269504,-2.7250502
1679998251687,1178240041445423,5.56605,6.6730504,-2.802
1679998251689,1178240043947577,5.5540504,6.7450504,-2.6200502
1679998251691,1178240046449731,5.4750004,6.6930003,-2.5549502
1679998251695,1178240048951890,5.40105,6.8149505,-2.4400501
1679998251697,1178240051453813,5.4229503,6.9220505,-2.2789502
1679998251699,1178240053955967,5.427,6.97305,-2.3490002
1679998251702,1178240056458044,5.511,7.0330505,-2.1049502
1679998251704,1178240058960198,5.53695,7.1239505,-2.0400002
1679998251706,1178240061462433,5.5350003,7.1640005,-1.9939501
1679998251708,1178240063964510,5.5849504,7.1790004,-1.9939501
1679998251711,1178240066466433,5.643,7.3510504,-1.8910501
1679998251713,1178240068968587,5.7670503,7.4400005,-1.8220501
1679998251717,1178240071470761,5.7769504,7.557,-1.84395
1679998251719,1178240073972838,5.7769504,7.5979505,-1.98705
1679998251722,1178240076474992,5.85405,7.6840506,-1.9800001
1679998251723,1178240078977146,5.88705,7.84005,-1.91295
1679998251726,1178240081479300,5.952,7.87095,-1.79595
1679998251728,1178240083981223,6.0360003,7.9500003,-1.8240001
1679998251732,1178240086483376,5.9539504,8.031,-1.9030501
1679998251734,1178240088985453,5.9929504,8.10795,-1.8889501
1679998251736,1178240091487607,5.9929504,8.17695,-2.01
1679998251738,1178240093989761,6.04995,8.2879505,-1.94895
1679998251742,1178240096491915,6.04995,8.326051,-1.9900501
1679998251744,1178240098994069,5.9710503,8.316,-2.04495
1679998251747,1178240101495977,6.0739503,8.40705,-1.91805
1679998251749,1178240103998054,6.10995,8.40705,-2.01
1679998251751,1178240106500208,6.10305,8.47395,-2.0730002
1679998251753,1178240109002362,6.0000005,8.568001,-1.9579501
1679998251756,1178240111504515,6.0550504,8.479051,-1.8889501
1679998251758,1178240114006664,6.0210004,8.57505,-2.04195
1679998251761,1178240116508587,5.9110503,8.544001,-1.8360001
1679998251765,1178240119010741,5.9710503,8.556001,-2.046
1679998251766,1178240121512818,5.94705,8.577001,-1.9230001
1679998251770,1178240124014948,5.8390503,8.58195,-1.8240001
1679998251773,1178240126517102,5.84205,8.616,-1.7809501
1679998251774,1178240129019256,5.84595,8.589001,-1.8649501
1679998251776,1178240131521179,5.8660502,8.592,-1.8720001
1679998251779,1178240134023324,5.925,8.629951,-1.6710001
1679998251782,1178240136525401,5.8390503,8.70195,-1.6710001
1679998251784,1178240139027631,5.952,8.69505,-1.575
1679998251785,1178240141529708,5.9350505,8.604,-1.52505
1679998251788,1178240144031876,5.9710503,8.661,-1.3759501
1679998251791,1178240146534030,6.012,8.712001,-1.386
1679998251793,1178240149035953,6.0040503,8.673,-1.3620001
1679998251796,1178240151538030,6.0019503,8.54595,-1.17495
1679998251798,1178240154040174,6.0430503,8.67105,-1.077
1679998251801,1178240156542405,6.1530004,8.556001,-1.04805
1679998251803,1178240159044481,6.0880504,8.71395,-1.13205
1679998251807,1178240161546405,6.117,8.70705,-1.125
1679998251810,1178240164048592,6.16695,8.788051,-1.0720501
1679998251812,1178240166550746,6.249,8.733001,-1.197
1679998251815,1178240169052900,6.2800503,8.79105,-1.24695
1679998251817,1178240171555054,6.261,8.812051,-1.2379501
1679998251819,1178240174057131,6.22695,8.910001,-1.22595
1679998251822,1178240176559270,6.2389503,8.853001,-1.314
1679998251824,1178240179061193,6.2749505,9.04395,-1.44105
1679998251826,1178240181563347,6.2800503,8.956051,-1.4389501
1679998251829,1178240184065501,6.3229504,8.99895,-1.5010501
1679998251831,1178240186567577,6.38805,9.042001,-1.503
1679998251833,1178240189069765,6.37305,9.06795,-1.6470001
1679998251836,1178240191571919,6.2850003,9.052051,-1.6849501
1679998251838,1178240194074073,6.201,8.937,-1.7329501
1679998251841,1178240196575996,6.1270504,9.02505,-1.8270001
1679998251845,1178240199078136,6.0000005,8.934,-1.95105
1679998251847,1178240201580213,6.0040503,8.97,-2.04195
1679998251849,1178240204082444,6.0259504,8.86695,-2.0730002
1679998251851,1178240206584598,5.85405,8.937,-2.2050002
1679998251853,1178240209086674,5.7630005,8.72595,-2.2459502
1679998251856,1178240211588602,5.6280003,8.74995,-2.32305
1679998251859,1178240214090755,5.68095,8.75205,-2.421
1679998251863,1178240216592909,5.4870005,8.616,-2.4490502
1679998251865,1178240219094986,5.3770504,8.67105,-2.4450002
1679998251867,1178240221597203,5.3890505,8.56995,-2.5930502
1679998251869,1178240224099280,5.29995,8.56305,-2.64105
1679998251871,1178240226601434,5.1880503,8.57505,-2.6869502
1679998251873,1178240229103357,5.1610503,8.54895,-2.6100001
1679998251876,1178240231605511,5.1280503,8.54895,-2.466
1679998251879,1178240234107679,5.0680504,8.61795,-2.6100001
1679998251883,1178240236609755,5.0389504,8.556001,-2.5170002
1679998251885,1178240239111909,4.9750504,8.647051,-2.60295
1679998251887,1178240241614059,4.893,8.577001,-2.8540502
1679998251889,1178240244116213,4.9290004,8.632951,-2.7510002
1679998251891,1178240246618136,4.8310504,8.553,-2.87595
1679998251894,1178240249120290,4.8619504,8.604,-3.0240002
1679998251896,1178240251622367,4.8570004,8.613001,-2.90505
1679998251899,1178240254124617,4.79505,8.592,-2.8570502
1679998251902,1178240256626694,4.8640504,8.635051,-2.83995
1679998251904,1178240259128847,4.8120003,8.649,-2.7919502
1679998251906,1178240261630770,4.848,8.637,-2.7630002
1679998251909,1178240264132929,4.84095,8.637,-2.7130501
1679998251911,1178240266635006,4.8690004,8.755051,-2.5570502
1679998251914,1178240269137160,4.82595,8.68995,-2.5810502
1679998251916,1178240271639391,4.90005,8.74005,-2.42805
1679998251920,1178240274141472,4.78305,8.769,-2.3800502
1679998251924,1178240276643626,4.8360004,8.788051,-2.265
1679998251927,1178240279145549,4.95795,8.74995,-2.16195
1679998251929,1178240281647703,4.9219503,8.72805,-2.08305
1679998251931,1178240284149856,4.97205,8.757,-2.0760002
1679998251933,1178240286651933,4.96005,8.79105,-2.01
1679998251935,1178240289154087,5.0730004,8.818951,-1.9969501
1679998251936,1178240291656241,5.07,8.82195,-2.02305
1679998251940,1178240294158164,5.1210003,8.83395,-1.812
1679998251942,1178240296660332,5.1730504,8.743051,-1.8790501
1679998251944,1178240299162486,5.118,8.83905,-1.8169501
1679998251947,1178240301664563,5.1330004,8.86695,-1.7380501
1679998251949,1178240304166717,5.18295,8.841001,-1.6470001
1679998251951,1178240306668871,5.1469502,8.812051,-1.7329501
1679998251953,1178240309171043,5.18295,8.83605,-1.88205
1679998251957,1178240311672966,5.2330503,8.842951,-1.71405
1679998251961,1178240314175120,5.2930503,8.7640505,-1.69305
1679998251963,1178240316677197,5.3100004,8.805,-1.6330501
1679998251965,1178240319179332,5.3170505,8.83905,-1.79295
1679998251966,1178240321681563,5.406,8.817,-1.6140001
1679998251969,1178240324183640,5.3650503,8.86695,-1.815
1679998251971,1178240326685563,5.4229503,8.938951,-1.7020501
1679998251973,1178240329187717,5.478,8.785951,-1.7070001
1679998251976,1178240331689871,5.66895,8.776051,-1.8580501
1679998251979,1178240334191948,5.52495,8.812051,-1.9030501
1679998251982,1178240336694178,2.436,7.5379505,-7.7899504
1679998251984,1178240339196250,-1.4860501,5.8159504,-18.313951
1679998251986,1178240341698173,-4.81005,5.124,-26.737051
1679998251989,1178240344200327,2.21295,8.86695,-14.449051
1679998251992,1178240346702481,6.7519503,11.20695,-2.8159502
1679998251995,1178240349204563,8.548051,11.95695,3.21105
1679998251998,1178240351706717,8.019,11.535001,4.29195
1679998251999,1178240354208871,5.3239503,10.06995,-0.27195
1679998252001,1178240356711024,1.84395,8.26395,-9.040951
1679998252003,1178240359212948,3.4390502,9.13305,-7.8139505
1679998252006,1178240361715092,5.583,10.113001,-0.76095
1679998252009,1178240364217246,5.51595,9.825001,0.73995006
1679998252012,1178240366719400,4.08405,8.922001,-2.1330001
1679998252014,1178240369221477,4.9339504,8.68305,-0.47100002
1679998252016,1178240371723631,7.68795,8.42205,4.749
1679998252019,1178240374225798,16.54305,5.4570003,61.48905
1679998252023,1178240376727721,-4.197,5.0659504,-27.525002
1679998252024,1178240379229798,-8.19705,2.7499502,-25.105951
1679998252027,1178240381732029,5.3650503,5.95695,-20.364
1679998252029,1178240384234115,16.348951,5.77995,7.3309503
1679998252033,1178240386736269,3.24795,5.88105,-4.4710503
1679998252035,1178240389238423,4.2180004,4.65,-18.78795
1679998252037,1178240391740346,8.19795,6.6259503,-0.02205
1679998252039,1178240394242442,5.44395,6.53205,-2.7220502
1679998252043,1178240396744596,6.096,6.83895,-7.8409505
1679998252045,1178240399246827,6.2730002,7.8780003,-4.21005
1679998252047,1178240401748904,5.4700503,8.949,-7.1130004
1679998252049,1178240404250808,5.9110503,9.262051,-7.8769503
1679998252051,1178240406752962,5.892,8.68305,-7.14405
1679998252054,1178240409255116,5.5140004,8.470051,-7.1269503
1679998252056,1178240411757192,5.48505,8.637,-6.9090004
1679998252060,1178240414259399,5.65005,8.70705,-5.9610004
1679998252063,1178240416761476,5.478,8.64,-5.3089504
1679998252064,1178240419263630,5.25705,8.677951,-4.8130503
1679998252066,1178240421765553,5.2720504,8.6970005,-3.9940503
1679998252072,1178240424267712,5.2600503,8.677951,-3.38595
1679998252073,1178240426769789,5.2980003,8.58495,-2.7180002
1679998252075,1178240429271943,5.2450504,8.635051,-2.2339501
1679998252077,1178240431774097,5.2189503,8.688001,-1.7170501
1679998252079,1178240434276250,5.06295,8.565001,-1.365
1679998252082,1178240436778169,5.0989504,8.58195,-0.96195006
1679998252084,1178240439280322,5.02995,8.608951,-0.711
1679998252087,1178240441782476,4.9630504,8.635051,-0.60795003
1679998252089,1178240444284553,4.99095,8.556001,-0.48105
1679998252092,1178240446786683,5.0010004,8.5990505,-0.34695002
1679998252094,1178240449288837,4.97205,8.49405,-0.56205004
1679998252096,1178240451790760,5.0490003,8.601001,-0.49005002
1679998252099,1178240454292914,4.99095,8.415,-0.43800002
1679998252102,1178240456794991,4.82595,8.439,-0.34695002
1679998252104,1178240459297145,4.87395,8.52495,-0.48105
1679998252108,1178240461799068,4.95795,8.64,-0.40695003
1679998252110,1178240464301452,4.95795,8.553,-0.47100002
1679998252112,1178240466803606,4.89795,8.82405,-0.51705
1679998252114,1178240469305524,5.0230503,8.724,-0.52095
1679998252117,1178240471807601,5.0610003,8.508,-0.711
1679998252121,1178240474309755,4.91505,8.40705,-0.57705003
1679998252123,1178240476811904,4.97205,8.70405,-0.56205004
1679998252125,1178240479313827,4.99095,8.709001,-0.85395
1679998252126,1178240481816212,5.05095,8.88405,-0.86205006
1679998252129,1178240484318135,5.202,8.7619505,-0.88095003
1679998252131,1178240486820288,5.0539503,8.68995,-1.161
1679998252134,1178240489322370,4.9549503,8.86695,-1.0890001
1679998252136,1178240491824524,5.1589503,8.757,-1.1730001
1679998252143,1178240494326447,5.181,8.71395,-1.3050001
1679998252143,1178240496828832,5.13,8.724,-1.33605
1679998252145,1178240499330764,4.9510503,8.608951,-1.3960501
1679998252147,1178240501832918,4.8910503,8.661,-1.23
1679998252149,1178240504334995,5.1259503,8.841001,-1.3410001
1679998252152,1178240506837149,5.28105,8.81505,-1.4629501
1679998252153,1178240509339072,5.2980003,8.7949505,-1.4770501
1679998252156,1178240511841231,5.13495,8.685,-1.3240501
1679998252160,1178240514343384,5.1930003,8.724,-1.4320501
1679998252161,1178240516845538,5.07,8.676001,-1.3879501
1679998252164,1178240519347615,5.3310003,8.7310505,-1.4389501
1679998252166,1178240521849769,5.2720504,8.71605,-1.56105
1679998252169,1178240524351923,5.20905,8.757,-1.659
1679998252172,1178240526853846,5.23605,8.736,-1.7050501
1679998252174,1178240529355923,5.08995,8.874001,-1.9369501
1679998252176,1178240531858178,5.26695,8.97,-1.9579501
1679998252183,1178240534360332,5.2840505,9.28905,-2.5240502
1679998252184,1178240536862409,5.0230503,9.4470005,-2.32005
1679998252186,1178240539364332,5.1210003,9.47295,-2.63595
1679998252188,1178240541866461,4.9890003,9.63105,-2.8639503
1679998252191,1178240544368615,5.1060004,9.66495,-2.7559502
1679998252192,1178240546870769,4.9960504,9.588,-2.32695
1679998252194,1178240549372923,5.2260003,9.757951,-2.70795
1679998252196,1178240551875000,5.1280503,9.46605,-2.32005
1679998252199,1178240554377140,4.9960504,9.22605,-2.49
1679998252201,1178240556879063,4.96995,9.424951,-2.04495
1679998252203,1178240559381217,5.07,9.22605,-1.9350001
1679998252206,1178240561883294,4.2010503,8.89095,-2.15205
1679998252209,1178240564385528,4.90005,8.953051,-2.1049502
1679998252211,1178240566887605,4.4500504,8.910001,-2.0710502
1679998252213,1178240569389759,4.3759503,8.830951,-1.6830001
1679998252216,1178240571891682,4.0140004,8.673,-1.74495
1679998252220,1178240574393832,3.3319502,8.467051,-1.317
1679998252224,1178240576895909,2.7859502,8.235001,-1.52295
1679998252226,1178240579398063,2.15595,8.167951,-1.1029501
1679998252228,1178240581900294,2.3740501,8.125051,-1.3260001
1679998252231,1178240584402371,2.1990001,8.055,-1.28805
1679998252232,1178240586904323,1.84395,8.115001,-1.3789501
1679998252235,1178240589406477,1.725,8.200951,-1.12695
1679998252236,1178240591908630,1.9470001,8.26095,-1.4989501
1679998252240,1178240594410784,1.8780001,8.30895,-1.2930001
1679998252242,1178240596912852,2.1390002,8.400001,-1.12995
1679998252244,1178240599415006,2.4169502,8.44095,-1.0530001
1679998252247,1178240601916929,2.3860502,8.434051,-1.2930001
1679998252250,1178240604419083,2.63205,8.51805,-1.30005
1679998252252,1178240606921227,2.6920502,8.42895,-1.6300501
1679998252254,1178240609423381,2.87895,8.448,-1.4749501
1679998252257,1178240611925535,3.2239501,8.44305,-1.218
1679998252260,1178240614427611,3.3409503,8.49405,-1.3600501
1679998252265,1178240616929535,3.5809503,8.3880005,-1.37205
1679998252266,1178240619431688,3.492,8.30895,-1.21605
1679998252267,1178240621933842,3.83205,8.379001,-1.05795
1679998252269,1178240624435996,3.79905,8.23005,-1.1029501
1679998252272,1178240626938073,4.0279503,8.224951,-1.1509501
1679998252274,1178240629440227,4.0740004,8.323951,-1.30005
1679998252278,1178240631942386,4.1290503,8.3209505,-1.44105
1679998252283,1178240634444309,4.0669503,8.27805,-1.575
1679998252285,1178240636946463,4.25595,8.27805,-1.626
1679998252286,1178240639448540,4.3330503,8.41005,-1.8319501
1679998252287,1178240641950770,4.3380003,8.464951,-1.8790501
1679998252290,1178240644452847,4.5,8.56305,-1.812
1679998252292,1178240646955001,4.563,8.665951,-1.9350001
1679998252295,1178240649457150,4.59105,8.71605,-1.70895
1679998252298,1178240651959073,4.72095,8.74695,-1.6879501
1679998252301,1178240654461150,4.6920004,8.818951,-1.7689501
1679998252303,1178240656963381,4.66995,8.953051,-1.7410501
1679998252305,1178240659465535,4.6969504,8.986951,-1.9560001
1679998252307,1178240661967622,4.6969504,9.05895,-1.8199501
1679998252312,1178240664469545,4.8640504,9.267,-2.2840502
1679998252314,1178240666971699,4.821,9.12405,-2.4160502
1679998252316,1178240669473852,4.9170003,9.162001,-2.4760501
1679998252317,1178240671975904,4.8360004,9.259951,-2.64105
1679998252319,1178240674478135,4.9410005,9.315001,-2.6790001
1679998252323,1178240676980212,4.893,9.30105,-2.8470001
1679998252324,1178240679482366,4.9120502,9.47805,-2.87805
1679998252327,1178240681984299,4.99095,9.430051,-2.96895
1679998252330,1178240684486453,5.046,9.595051,-2.9239502
1679998252333,1178240686988530,5.18295,9.744,-2.8489501
1679998252335,1178240689490761,5.25495,9.78705,-2.91195
1679998252336,1178240691992837,5.3310003,9.81795,-2.9959502
1679998252340,1178240694494991,5.3629503,9.877951,-3.04095
1679998252343,1178240696997145,5.49195,9.897,-3.15405
1679998252345,1178240699499068,5.4870005,9.98295,-3.1609502
1679998252348,1178240702001207,5.53305,9.96195,-3.3670502
1679998252349,1178240704503284,5.631,10.12905,-3.8029501
1679998252352,1178240707005515,5.6449504,10.339951,-4.12095
1679998252354,1178240709507592,5.6260505,10.43595,-4.3060503
1679998252356,1178240712009746,5.5540504,10.407001,-4.5810003
1679998252359,1178240714511693,5.6520004,10.477051,-4.60995
1679998252362,1178240717013847,5.6740503,10.642051,-4.806
1679998252364,1178240719515923,5.5849504,10.632001,-4.938
1679998252366,1178240722018077,5.51805,10.77105,-5.0790005
1679998252371,1178240724520241,5.4490504,10.647,-5.00505
1679998252374,1178240727022395,5.3170505,10.654051,-4.9570503
1679998252375,1178240729524318,5.1469502,10.5390005,-4.90695
1679998252377,1178240732026472,4.9960504,10.40205,-4.84905
1679998252381,1178240734528626,4.68195,10.323001,-4.54005
1679998252385,1178240737030693,4.59105,10.10295,-4.41795
1679998252387,1178240739532847,4.3180504,9.74895,-4.1119504
1679998252388,1178240742035000,4.1839504,9.58605,-3.7480502
1679998252390,1178240744537154,4.0609503,9.32205,-3.41895
1679998252392,1178240747039077,3.9229503,9.05595,-3.0990002
1679998252394,1178240749541231,3.7530003,8.818951,-2.8330503
1679998252399,1178240752043308,3.6450002,8.479051,-2.5189502
1679998252401,1178240754545462,3.62895,8.27595,-2.35395
1679998252403,1178240757047693,3.7030501,8.055,-2.08095
1679998252404,1178240759549760,3.7410002,7.7629504,-1.8079501
1679998252408,1178240762051683,3.79905,7.5600004,-1.7209501
1679998252410,1178240764553837,3.8389502,7.3660502,-1.4580001
1679998252412,1178240767055914,3.9640503,7.14795,-1.3980001
1679998252414,1178240769558071,3.9640503,6.9870005,-1.281
1679998252416,1178240772060225,4.0279503,6.90105,-1.0720501
1679998252423,1178240774562379,4.11,6.8749504,-1.13505
1679998252424,1178240777064533,4.20795,6.78105,-0.90705
1679998252426,1178240779566471,4.1989503,6.714,-0.80895007
1679998252427,1178240782068625,4.4380503,6.8050504,-0.75105006
1679998252433,1178240784570702,4.45695,6.8940005,-0.66795003
1679998252434,1178240787072856,4.6270504,6.8430004,-0.68205005
1679998252436,1178240789575010,4.63005,6.8890505,-0.55005
1679998252437,1178240792077187,4.728,7.0639505,-0.66495
1679998252440,1178240794579341,4.8169503,7.2460504,-0.591
1679998252443,1178240797081264,4.932,7.3729506,-0.54105
1679998252445,1178240799583341,5.0010004,7.6390505,-0.49995002
1679998252448,1178240802085500,5.12295,7.7730002,-0.55995005
1679998252450,1178240804587654,5.0080504,7.8799505,-0.591
1679998252452,1178240807089808,4.97895,8.059951,-0.75900006
1679998252454,1178240809591962,5.046,8.101951,-0.94995004
1679998252457,1178240812093885,5.0490003,8.27805,-0.90705
1679998252460,1178240814596039,4.9360504,8.48595,-0.88305
1679998252462,1178240817098192,4.9360504,8.568001,-1.0870501
1679998252465,1178240819600346,4.8690004,8.653951,-1.09905
1679998252467,1178240822102423,4.8619504,8.781,-1.2709501
1679998252470,1178240824604562,4.7850003,8.793,-1.21605
1679998252473,1178240827106485,4.7899504,8.82195,-1.3050001
1679998252475,1178240829608639,4.7380505,8.937,-1.3879501
1679998252476,1178240832110716,4.6849504,8.962951,-1.2780001
1679998252481,1178240834612947,4.584,9.114,-1.3120501
1679998252484,1178240837115096,4.635,9.076051,-1.2570001
1679998252486,1178240839617172,4.635,9.198001,-1.218
1679998252488,1178240842119096,4.572,9.229051,-1.1230501
1679998252490,1178240844621264,4.5529504,9.31305,-1.113
1679998252493,1178240847123418,4.644,9.37005,-1.05795
1679998252495,1178240849625572,4.6420503,9.45195,-1.161
1679998252498,1178240852127649,4.6729503,9.385051,-1.08
1679998252503,1178240854629803,4.7299504,9.42,-0.85395
1679998252504,1178240857131938,4.7380505,9.5140505,-1.01505
1679998252506,1178240859633861,4.7850003,9.492001,-1.0210501
1679998252507,1178240862136015,4.87395,9.5449505,-0.92595005
1679998252510,1178240864638092,4.8910503,9.5449505,-0.94995004
1679998252514,1178240867140341,5.025,9.64095,-0.91695005
1679998252516,1178240869642418,4.9360504,9.64605,-0.88605005
1679998252517,1178240872144572,5.013,9.72,-0.91695005
1679998252521,1178240874646726,5.14905,9.64605,-0.957
1679998252523,1178240877148649,5.1139503,9.53505,-1.05795
1679998252525,1178240879650726,5.157,9.715051,-1.077
1679998252527,1178240882152880,5.229,9.67695,-1.1730001
1679998252530,1178240884655111,5.262,9.700951,-1.1659501
1679998252532,1178240887157202,5.23995,9.670051,-1.23
1679998252534,1178240889659355,5.3170505,9.61005,-1.2570001
1679998252536,1178240892161279,5.2759504,9.700951,-1.1920501
1679998252540,1178240894663432,5.2500005,9.68595,-1.3429501
1679998252542,1178240897165514,5.2380004,9.63405,-1.14705
1679998252544,1178240899667745,5.157,9.625951,-1.2379501
1679998252546,1178240902169822,5.1259503,9.625951,-1.18005
1679998252550,1178240904671976,5.169,9.672001,-1.2090001
1679998252552,1178240907173899,5.1880503,9.624001,-1.2019501
1679998252554,1178240909676053,5.058,9.64995,-1.33605
1679998252558,1178240912178207,5.1450005,9.721951,-1.13205
1679998252560,1178240914680284,4.9549503,9.70995,-1.19895
1679998252562,1178240917182437,4.93905,9.670051,-1.353
1679998252564,1178240919684586,4.90005,9.696,-1.4440501
1679998252567,1178240922186740,4.8910503,9.736951,-1.21605
1679998252570,1178240924688663,4.8499503,9.744,-1.2400501
1679998252572,1178240927190817,4.80495,9.68595,-1.3549501
1679998252574,1178240929692894,4.7730002,9.712951,-1.4680501
1679998252577,1178240932195136,4.7059503,9.7560005,-1.353
1679998252580,1178240934697213,4.6849504,9.835051,-1.386
1679998252583,1178240937199367,4.6870503,9.741,-1.4629501
1679998252585,1178240939701275,4.623,9.79905,-1.5780001
1679998252587,1178240942203428,4.44105,9.637951,-1.5589501
1679998252590,1178240944705505,4.3500004,9.688951,-1.6350001
1679998252592,1178240947207659,4.3570504,9.543,-1.6380001
1679998252596,1178240949709804,4.1340003,9.495001,-1.623
1679998252598,1178240952211958,4.038,9.49695,-1.6710001
1679998252600,1178240954713881,3.9949503,9.435,-1.72395
1679998252602,1178240957216035,3.8800502,9.295951,-1.79295
1679998252604,1178240959718189,3.79905,9.214951,-1.7670001
1679998252606,1178240962220266,3.6979501,9.19995,-1.7209501
1679998252609,1178240964722420,3.6910503,9.04395,-1.4629501
1679998252611,1178240967224573,3.4750502,8.920051,-1.64205
1679998252614,1178240969726727,3.5110502,8.841001,-1.47
1679998252616,1178240972228881,3.51795,8.898001,-1.64205
1679998252620,1178240974730804,3.528,8.767051,-1.6060501
1679998252622,1178240977232881,3.4630501,8.68995,-1.52505
1679998252625,1178240979735035,3.5640001,8.74995,-1.60905
1679998252626,1178240982237270,3.528,8.65905,-1.64205
1679998252630,1178240984739347,3.62595,8.613001,-1.72395
1679998252633,1178240987241501,3.5500503,8.54595,-1.7839501
1679998252635,1178240989743424,3.6450002,8.54205,-1.98705
1679998252637,1178240992245501,3.6670501,8.56095,-1.8529501
1679998252640,1178240994747654,3.7480502,8.44095,-1.94895
1679998252642,1178240997249808,3.6769502,8.364,-1.9969501
1679998252644,1178240999751962,3.7410002,8.44095,-2.04495
1679998252648,1178241002254116,3.6409502,8.35005,-2.0970001
1679998252650,1178241004756034,3.7219503,8.359051,-1.9009501
1679998252652,1178241007258188,3.6690001,8.379001,-2.0020502
1679998252654,1178241009760342,3.8059502,8.37405,-1.9080001
1679998252657,1178241012262419,3.8470502,8.40495,-1.9750501
1679998252661,1178241014764328,4.0009503,8.54595,-1.9200001
1679998252663,1178241017266712,4.005,8.44095,-1.95105
1679998252665,1178241019768866,3.9450002,8.47395,-1.9699501
1679998252667,1178241022270789,4.01205,8.44305,-2.05395
1679998252672,1178241024772938,4.0470004,8.577001,-2.085
1679998252673,1178241027275015,4.0669503,8.565001,-2.2099502
1679998252675,1178241029777169,4.11705,8.544001,-2.217
1679998252678,1178241032279323,4.1290503,8.623051,-2.22405
1679998252682,1178241034781472,4.10505,8.653951,-2.2669501
1679998252683,1178241037283395,4.1290503,8.785951,-2.29905
1679998252685,1178241039785549,4.15605,8.89605,-2.2720501
1679998252687,1178241042287702,4.13595,8.874001,-2.28195
1679998252690,1178241044789789,4.17705,8.997001,-2.3460002
1679998252692,1178241047291943,4.12395,8.973001,-2.3130002
1679998252695,1178241049794097,4.19595,8.994,-2.325
1679998252697,1178241052296020,4.1460004,9.115951,-2.42595
1679998252700,1178241054798160,4.13595,9.118951,-2.57205
1679998252703,1178241057300237,4.07205,9.23595,-2.59095
1679998252705,1178241059802391,4.086,9.22395,-2.4450002
1679998252709,1178241062304545,4.15605,9.186001,-2.5429502
1679998252711,1178241064806698,4.01205,9.27,-2.5240502
1679998252713,1178241067308622,4.01205,9.219001,-2.4540002
1679998252715,1178241069810698,3.9420002,9.15705,-2.457
1679998252717,1178241072312852,3.9139502,9.22395,-2.32995
1679998252720,1178241074815015,4.005,9.198001,-2.2099502
1679998252723,1178241077317169,3.9259503,9.246,-2.2840502
1679998252725,1178241079819323,3.933,9.291,-1.9990501
1679998252728,1178241082321246,3.969,9.207001,-1.98705
1679998252730,1178241084823429,3.9160502,9.286051,-1.8700501
1679998252732,1178241087325583,3.8850002,9.20505,-1.8030001
1679998252734,1178241089827660,3.933,9.279,-1.71405
1679998252737,1178241092329890,3.9090002,9.19995,-1.7260501
1679998252740,1178241094831967,3.86595,9.27,-1.6710001
1679998252743,1178241097334115,3.86295,9.253051,-1.7380501
1679998252746,1178241099836038,3.9739501,9.22605,-1.64205
1679998252748,1178241102338192,3.9160502,9.27,-1.6830001
1679998252750,1178241104840269,3.9300003,9.267,-1.67805
1679998252752,1178241107342438,3.8940003,9.241051,-1.6020001
1679998252754,1178241109844592,3.8830502,9.114,-1.575
1679998252757,1178241112346746,3.9300003,9.121051,-1.4749501
1679998252760,1178241114848899,3.9160502,9.102,-1.63995
1679998252762,1178241117350832,3.86805,9.13095,-1.53495
1679998252770,1178241119852908,3.7699502,9.22605,-1.5780001
1679998252770,1178241122355062,3.7720501,9.234,-1.52505
1679998252771,1178241124857216,3.8440502,9.19995,-1.5319501
1679998252772,1178241127359356,3.7240503,9.17595,-1.6140001
1679998252774,1178241129861510,3.8440502,9.18105,-1.5799501
1679998252776,1178241132363433,3.801,9.186001,-1.5820501
1679998252780,1178241134865587,3.7200003,9.16395,-1.6110001
1679998252783,1178241137367673,3.7800002,9.13095,-1.6210501
1679998252785,1178241139869827,3.6670501,9.33405,-1.6570501
1679998252787,1178241142371980,3.7200003,9.246,-1.5589501
1679998252790,1178241144874134,3.70005,9.20505,-1.6500001
1679998252792,1178241147376057,3.6550503,9.18105,-1.64205
1679998252794,1178241149878192,3.6840003,9.174001,-1.71405
1679998252797,1178241152380346,3.6649501,9.109051,-1.64505
1679998252800,1178241154882423,3.7440002,9.042001,-1.7020501
1679998252802,1178241157384346,3.6649501,9.054001,-1.812
1679998252804,1178241159886731,3.6690001,9.02295,-1.88205
1679998252807,1178241162388909,3.5740502,8.88405,-1.8529501
1679998252810,1178241164890832,3.6859503,9.042001,-1.82895
1679998252812,1178241167392985,3.6090002,8.962951,-1.8700501
1679998252814,1178241169895062,3.6049502,8.79105,-1.899
1679998252816,1178241172397206,3.6379502,8.88195,-1.9030501
1679998252821,1178241174899360,3.732,8.81505,-1.8460501
1679998252824,1178241177401514,3.6019502,8.83905,-1.79595
1679998252826,1178241179903692,3.801,8.767051,-1.8240001
1679998252828,1178241182405615,3.8830502,8.79105,-1.5589501
1679998252832,1178241184907692,4.0279503,8.74995,-1.314
1679998252833,1178241187409846,4.16505,8.653951,-1.1029501
1679998252835,1178241189911784,4.17,8.649,-0.86595005
1679998252837,1178241192414168,4.26795,8.608951,-0.68205005
1679998252840,1178241194916091,4.3060503,8.41905,-0.68205005
1679998252842,1178241197418245,4.49805,8.508,-0.555
1679998252844,1178241199920399,4.60605,8.488951,-0.72495
1679998252849,1178241202422452,4.6200004,8.3880005,-0.79695004
1679998252851,1178241204924375,4.64895,8.39505,-0.71505004
1679998252852,1178241207426529,4.7299504,8.359051,-0.82605004
1679998252854,1178241209928914,4.8190503,8.323951,-0.72705
1679998252858,1178241212430841,4.98705,8.338051,-1.05795
1679998252861,1178241214932995,5.03205,8.509951,-1.0870501
1679998252865,1178241217435072,5.085,8.491051,-1.05795
1679998252866,1178241219937225,5.1610503,8.53005,-1.011
1679998252867,1178241222439148,5.19,8.59395,-1.2040501
1679998252870,1178241224941529,5.2980003,8.653951,-1.33305
1679998252872,1178241227443683,5.2380004,8.677951,-1.4959501
1679998252874,1178241229945606,5.181,8.70405,-1.4080501
1679998252879,1178241232447683,5.2759504,8.779051,-1.3069501
1679998252882,1178241234949836,5.25705,8.709001,-1.44105
1679998252883,1178241237451990,5.15205,8.6640005,-1.3810501
1679998252885,1178241239953913,5.214,8.733001,-1.3410001
1679998252887,1178241242456297,5.2260003,8.724,-1.35
1679998252890,1178241244958220,5.18505,8.69505,-1.317
1679998252892,1178241247460370,5.2000504,8.70405,-1.5469501
1679998252896,1178241249962524,5.2980003,8.71605,-1.7479501
1679998252898,1178241252464601,5.25705,8.74995,-1.5660001
1679998252900,1178241254966524,5.24805,8.71905,-1.5300001
1679998252905,1178241257468639,5.0989504,8.68995,-1.6300501
1679998252906,1178241259971024,5.16405,8.70705,-1.5300001
1679998252907,1178241262472947,4.6540504,8.52,-1.8720001
1679998252910,1178241264975101,3.8869503,8.35005,-5.1340504
1679998252912,1178241267477178,3.6840003,8.39505,-8.620951
1679998252915,1178241269979337,4.4170504,8.733001,-8.44905
1679998252917,1178241272481491,5.54505,9.246,-4.8520503
1679998252920,1178241274983414,6.15495,9.456,-0.97905004
1679998252922,1178241277485568,6.3250504,9.46605,1.18005
1679998252924,1178241279987722,6.1150503,9.1039505,1.1539501
1679998252927,1178241282489780,5.7580504,8.743051,-0.027
1679998252930,1178241284991934,5.1930003,8.508,-1.2780001
1679998252933,1178241287494088,5.4420004,8.496,-2.05905
1679998252935,1178241289996236,5.4970503,8.476951,-2.02605
1679998252937,1178241292498160,5.5300503,8.21595,-1.815
1679998252940,1178241295000313,5.2840505,8.211,-1.6110001
1679998252943,1178241297502390,5.31195,8.167951,-1.5319501
1679998252944,1178241300004544,5.16405,7.85895,-1.3879501
1679998252949,1178241302506698,5.0820003,7.76805,-1.33095
1679998252951,1178241305008852,5.26695,7.6789503,0.37995002
1679998252952,1178241307510775,4.76595,7.7250004,0.31800002
1679998252954,1178241310012929,4.53195,7.7800503,-1.19895
1679998252957,1178241312515006,4.7380505,7.7800503,-2.0730002
1679998252960,1178241315017145,4.9099503,7.938,-1.269
1679998252963,1178241317519298,4.7380505,8.056951,-1.7380501
1679998252965,1178241320021452,4.4359503,8.11305,-2.5140002
1679998252967,1178241322523375,3.8940003,8.46195,-2.6509502
1679998252971,1178241325025539,3.6840003,8.668051,-2.3110502
1679998252973,1178241327527693,4.42605,8.7619505,-1.7209501
1679998252975,1178241330029770,4.9939504,8.82405,-1.56105
1679998252977,1178241332531924,5.0800505,8.818951,-2.4540002
1679998252981,1178241335034078,5.2189503,9.02805,-2.778
1679998252983,1178241337536232,5.3170505,9.151951,-2.62695
1679998252985,1178241340038385,5.1060004,8.90295,-2.09505
1679998252987,1178241342540309,4.8910503,8.87205,-2.2789502
1679998252990,1178241345042404,4.881,8.85795,-2.4019501
1679998252992,1178241347544558,4.98705,8.901,-2.6119502
1679998252994,1178241350046712,4.96995,8.96805,-2.45895
1679998252997,1178241352548852,5.0680504,8.90295,-2.57205
1679998253000,1178241355050775,5.19705,8.920051,-2.64105
1679998253002,1178241357552929,5.04405,8.829,-2.6509502
1679998253004,1178241360055083,5.0080504,8.920051,-2.65995
1679998253010,1178241362557150,4.9630504,8.910001,-2.7610502
1679998253012,1178241365059304,4.97205,8.929951,-2.742
1679998253013,1178241367561227,5.0989504,8.92695,-2.6200502
1679998253015,1178241370063611,4.9410005,8.934,-2.59995
1679998253017,1178241372565534,4.9240503,8.917951,-2.6910002
1679998253020,1178241375067707,5.1139503,8.929951,-2.7610502
1679998253025,1178241377569861,5.1259503,9.0060005,-2.56695
1679998253026,1178241380071938,4.9960504,8.989051,-2.42805
1679998253028,1178241382573861,4.9080005,8.917951,-2.33205
1679998253031,1178241385076227,4.84095,9.01605,-2.38695
1679998253033,1178241387578381,4.893,8.86695,-2.31795
1679998253035,1178241390080304,5.0230503,8.974951,-2.2840502
1679998253037,1178241392582381,5.01105,8.913,-2.2080002
1679998253040,1178241395084534,4.90005,9.009001,-1.9630501
1679998253042,1178241397586688,4.7850003,8.862,-1.8870001
1679998253046,1178241400088611,4.776,8.910001,-1.7359501
1679998253048,1178241402590765,4.91505,9.03495,-1.48695
1679998253051,1178241405092919,5.0560503,8.98005,-1.3240501
1679998253053,1178241407595073,4.88805,8.922001,-1.1389501
1679998253055,1178241410097150,4.7569504,9.030001,-0.91200006
1679998253057,1178241412599304,4.821,8.89395,-0.88305
1679998253060,1178241415101227,4.848,8.898001,-0.98805004
1679998253069,1178241417603371,4.99095,8.922001,-0.84495
1679998253070,1178241420105524,4.8570004,8.922001,-0.68895006
1679998253071,1178241422607678,4.8190503,8.89095,-0.67200005
1679998253073,1178241425109755,4.79505,8.88195,-0.61695004
1679998253074,1178241427611909,4.8019505,8.89605,-0.402
1679998253076,1178241430113856,4.953,8.88195,-0.41595003
1679998253077,1178241432616010,4.8520503,8.949,-0.20805001
1679998253080,1178241435118395,4.8840003,8.98005,-0.072000004
1679998253083,1178241437620318,4.881,8.937,0.048
1679998253085,1178241440122385,4.9410005,8.898001,0.094950005
1679998253087,1178241442624539,4.905,8.829,-0.072000004
1679998253090,1178241445126692,5.013,8.908051,-0.162
1679998253092,1178241447628615,4.95795,8.932051,-0.23895001
1679998253095,1178241450130769,4.9360504,8.874001,-0.36795002
1679998253097,1178241452632942,4.9819503,8.87895,-0.56505
1679998253100,1178241455135096,4.9669504,8.90295,-0.84705
1679998253103,1178241457637173,4.98705,8.862,-1.13505
1679998253105,1178241460139327,4.9750504,8.98005,-1.3549501
1679998253107,1178241462641255,5.0080504,8.89095,-1.47
1679998253110,1178241465143409,4.9339504,8.910001,-1.6020001
1679998253112,1178241467645563,4.932,8.965051,-1.63995
1679998253115,1178241470147716,5.0389504,8.7949505,-1.79295
1679998253117,1178241472649807,4.91505,8.83605,-1.88205
1679998253123,1178241475151730,5.0490003,8.812051,-1.7479501
1679998253125,1178241477653884,4.9360504,8.818951,-1.8270001
1679998253126,1178241480199423,4.89795,8.89095,-1.83405
1679998253128,1178241482658125,4.893,8.929951,-1.7719501
1679998253132,1178241485160356,4.8499503,8.82195,-1.8240001
1679998253134,1178241487662433,4.932,8.934,-1.7550001
1679998253136,1178241490164587,4.9120502,8.874001,-1.76205
1679998253137,1178241492666510,4.94595,8.910001,-1.6609501
1679998253140,1178241495168669,4.92,8.953051,-1.7329501
1679998253143,1178241497670822,4.9440002,8.842951,-1.60395
1679998253145,1178241500172899,4.8790503,8.889001,-1.33305
1679998253147,1178241502675053,4.9240503,8.88195,-1.233
1679998253150,1178241505176980,4.809,8.818951,-1.161
1679998253152,1178241507679134,4.7569504,8.90295,-0.9289501
1679998253155,1178241510181288,4.75395,8.961,-0.79005
1679998253159,1178241512683442,4.611,8.944051,-0.73005
1679998253161,1178241515185524,4.7899504,8.91495,-0.50100005
1679998253163,1178241517687678,4.8790503,8.949,-0.45900002
1679998253164,1178241520189831,4.8840003,8.944051,-0.48105
1679998253167,1178241522691755,4.833,8.889001,-0.31500003
1679998253170,1178241525193832,4.9290004,8.922001,-0.342
1679998253172,1178241527696081,4.88595,8.913,-0.36795002
1679998253174,1178241530198235,4.88595,8.97,-0.43500003
1679998253177,1178241532700312,4.833,8.83605,-0.42600003
1679998253180,1178241535202235,4.84305,8.925,-0.36795002
1679998253183,1178241537704380,4.81395,8.87205,-0.282
1679998253185,1178241540206534,4.79295,8.886001,-0.162
1679998253187,1178241542708611,4.85505,8.917951,-0.112950005
1679998253190,1178241545210842,4.788,8.776051,-0.015000001
1679998253192,1178241547712918,4.7970004,8.886001,0.15495001
1679998253196,1178241550215057,4.80495,8.88195,0.15300001
1679998253198,1178241552716980,4.78305,8.87895,0.37095
1679998253200,1178241555219134,4.8360004,8.84805,0.33495003
1679998253202,1178241557721211,4.84095,8.92695,0.40005
1679998253204,1178241560223365,4.79295,8.898001,0.124050006
1679998253207,1178241562725510,4.7059503,8.91495,0.24195
1679998253210,1178241565227664,4.71105,8.917951,0.13605
1679998253212,1178241567729587,4.8019505,8.910001,0.22695
1679998253215,1178241570231741,4.8310504,8.88195,0.18195
1679998253217,1178241572733818,4.91505,8.83905,0.14805001
1679998253220,1178241575235961,4.80495,8.944051,0.055050004
1679998253224,1178241577738115,4.809,8.85495,-0.063
1679998253226,1178241580240269,4.70205,8.89605,-0.079050004
1679998253227,1178241582742192,4.6990504,8.86695,-0.33900002
1679998253230,1178241585244356,4.668,8.874001,-0.28905
1679998253233,1178241587746433,4.66095,8.961,-0.37500003
1679998253235,1178241590248587,4.69395,9.11205,-0.44205
1679998253238,1178241592750510,4.7470503,9.09,-0.55695003
1679998253240,1178241595252899,4.761,8.83605,-0.402
1679998253242,1178241597754822,4.728,8.961,-0.38295
1679998253245,1178241600256976,4.761,8.908051,-0.462
1679998253247,1178241602759052,4.9120502,9.03195,-0.423
1679998253250,1178241605261192,4.97895,8.98005,-0.45405003
1679998253252,1178241607763115,4.9339504,8.84805,-0.40395
1679998253254,1178241610265192,4.8499503,9.018001,-0.531
1679998253257,1178241612767423,4.73295,9.150001,-0.423
1679998253261,1178241615269602,4.76595,9.17595,-0.354
1679998253264,1178241617771679,4.8790503,8.77095,-0.23400001
1679998253265,1178241620273833,4.9339504,8.83395,-0.60795003
1679998253267,1178241622775756,4.94595,8.7310505,-0.57900006
1679998253271,1178241625277920,4.89795,8.434051,-0.41595003
1679998253273,1178241627780074,4.85505,8.78295,-0.78000003
1679998253275,1178241630282227,4.83795,8.673,-0.47595003
1679998253277,1178241632784304,4.821,8.925,-0.77295005
1679998253281,1178241635286458,5.09205,8.68995,-0.60300004
1679998253283,1178241637788390,5.08995,8.580001,-0.56895
1679998253286,1178241640290544,4.95795,8.653951,-0.52905005
1679998253288,1178241642792621,4.9630504,8.7949505,-0.39495003
1679998253291,1178241645294852,4.9750504,8.82195,-0.41400003
1679998253293,1178241647796929,4.8690004,8.85795,-0.36795002
1679998253296,1178241650299083,4.9080005,8.829,-0.31500003
1679998253298,1178241652801006,5.0149503,8.961,-0.24405001
1679998253300,1178241655303160,4.872,8.898001,-0.25005
1679998253304,1178241657805231,4.8450003,8.908051,-0.16005
1679998253305,1178241660307385,4.9549503,8.83905,-0.294
1679998253310,1178241662809539,5.0230503,8.87895,-0.30405003
1679998253311,1178241665311693,4.9099503,8.82405,-0.39705002
1679998253314,1178241667813616,4.9290004,8.809951,-0.40395
1679998253315,1178241670315775,4.87605,8.85795,-0.56700003
1679998253317,1178241672817852,4.96995,8.89095,-0.70095
1679998253321,1178241675320006,5.0730004,8.842951,-0.64095
1679998253323,1178241677822160,5.097,8.910001,-0.624
1679998253325,1178241680324299,5.0080504,8.84805,-0.744
1679998253327,1178241682826222,5.02995,8.917951,-0.50100005
1679998253330,1178241685328376,4.92705,8.874001,-0.55995005
1679998253333,1178241687830453,4.90005,8.89095,-0.41805002
1679998253335,1178241690332607,4.94805,8.938951,-0.342
1679998253337,1178241692834515,4.9360504,8.88405,-0.402
1679998253340,1178241695336900,4.8310504,8.922001,-0.40905002
1679998253343,1178241697838823,4.88595,8.830951,-0.42600003
1679998253346,1178241700340963,4.9170003,8.87895,-0.33900002
1679998253348,1178241702843117,4.9120502,8.86695,-0.34905002
1679998253350,1178241705345194,4.905,8.85795,-0.40695003
1679998253352,1178241707847117,4.893,8.953051,-0.34395
1679998253354,1178241710349501,4.965,8.89605,-0.24105
1679998253357,1178241712851679,4.8690004,8.917951,-0.246
1679998253360,1178241715353602,4.85505,8.898001,0.024
1679998253363,1178241717855679,4.8450003,8.932051,-0.10605001
1679998253365,1178241720357602,4.893,8.82195,-0.075
1679998253368,1178241722859987,4.9290004,8.997001,-0.043050002
1679998253371,1178241725362141,4.8520503,8.85495,-0.13605
1679998253372,1178241727864064,4.85505,8.929951,-0.012
1679998253375,1178241730366218,4.84095,8.865001,-0.13605
1679998253378,1178241732868295,4.8960004,8.889001,-0.09105001
1679998253380,1178241735370457,4.872,8.85795,-0.13095
1679998253384,1178241737872611,4.84095,8.89605,-0.23595001
1679998253386,1178241740374765,4.8499503,8.934,-0.26295
1679998253388,1178241742876693,4.8640504,8.84595,-0.21495001
1679998253399,1178241745378847,4.8640504,8.938951,-0.15495001
1679998253400,1178241747880924,4.905,8.961,-0.21300001
1679998253400,1178241750383078,4.872,8.89605,-0.13800001
1679998253400,1178241752885001,4.9240503,8.920051,-0.0049500004
1679998253400,1178241755387377,4.8190503,8.817,-0.034050003
1679998253402,1178241757889300,4.8169503,8.83395,-0.04095
1679998253405,1178241760391453,4.9240503,8.84595,-0.09900001
1679998253407,1178241762893530,4.87605,8.908051,-0.024
1679998253410,1178241765395693,4.8840003,8.830951,0.15795001
1679998253412,1178241767897616,4.84305,8.82405,0.06705
1679998253415,1178241770400001,4.848,8.946,0.26505002
1679998253417,1178241772901924,4.78305,8.953051,0.26805001
1679998253422,1178241775404054,4.8019505,8.88405,0.57195
1679998253425,1178241777906131,4.821,8.908051,0.82605004
1679998253427,1178241780408285,4.7179503,8.925,0.95295006
1679998253429,1178241782910208,4.776,8.78295,0.984
1679998253432,1178241785412348,4.6969504,8.79105,0.97395
1679998253433,1178241787914501,4.7899504,8.92695,0.79995006
1679998253436,1178241790416655,4.79505,8.829,0.69195
1679998253437,1178241792918809,4.6660504,8.86695,0.49800003
1679998253440,1178241795420886,4.80705,8.83905,0.35205
1679998253443,1178241797922785,4.80705,8.781,-0.063
1679998253448,1178241800424939,4.7970004,8.886001,0.016050002
1679998253448,1178241802927093,4.9669504,8.797951,-0.177
1679998253451,1178241805429247,4.8619504,8.800051,-0.31995
1679998253453,1178241807931309,4.788,8.889001,-0.32700002
1679998253457,1178241810433462,4.8019505,8.80305,-0.27195
1679998253460,1178241812935616,4.7730002,8.874001,-0.30405003
1679998253461,1178241815437539,4.8240004,8.853001,-0.29895002
1679998253464,1178241817939602,4.761,8.829,-0.22005
1679998253466,1178241820441833,4.8960004,8.85,-0.19800001
1679998253470,1178241822943987,4.881,8.82705,-0.15495001
1679998253471,1178241825446064,4.93905,8.89395,-0.124050006
1679998253473,1178241827947987,4.965,8.865001,-0.18900001
1679998253477,1178241830450117,4.9750504,8.818951,-0.31095
1679998253478,1178241832952271,4.8790503,8.83395,-0.294
1679998253482,1178241835454348,4.8690004,8.958,-0.351
1679998253484,1178241837956501,4.881,8.89095,-0.49005002
1679998253485,1178241840458655,4.932,8.98005,-0.43500003
1679998253487,1178241842960804,4.97895,8.961,-0.43995002
1679998253491,1178241845462727,4.97895,8.874001,-0.36105
1679998253493,1178241847964804,4.9219503,8.82405,-0.39000002
1679998253496,1178241850466958,5.0269504,8.889001,-0.45705003
1679998253498,1178241852968871,4.965,8.853001,-0.34905002
1679998253501,1178241855471256,5.0230503,8.86995,-0.37305
1679998253505,1178241857973179,4.9290004,8.805,-0.18105
1679998253506,1178241860475333,4.905,8.84595,-0.27705002
1679998253508,1178241862977401,4.87395,8.877001,-0.25995
1679998253513,1178241865479554,4.85505,8.917951,-0.31995
1679998253514,1178241867981708,4.8640504,8.87205,-0.28695002
1679998253515,1178241870483862,4.85505,8.85495,-0.23400001
1679998253518,1178241872985775,4.8570004,8.841001,-0.17400001
1679998253521,1178241875487929,4.90005,8.862,-0.282
1679998253524,1178241877990083,4.8690004,8.818951,-0.25995
1679998253526,1178241880492160,4.89795,8.829,-0.27
1679998253527,1178241882994083,4.8619504,8.89095,-0.354
1679998253531,1178241885496227,4.9120502,8.865001,-0.37305
1679998253533,1178241887998611,4.86705,8.7949505,-0.26295
1679998253535,1178241890500535,4.8190503,8.901,-0.32295
1679998253537,1178241893002688,4.8790503,8.721001,-0.30795002
1679998253540,1178241895504799,4.8570004,8.75895,-0.41805002
1679998253545,1178241898006953,4.92705,8.776051,-0.363
1679998253547,1178241900508876,4.9360504,8.757,-0.39195
1679998253548,1178241903010972,4.893,8.80305,-0.40395
1679998253551,1178241905513203,4.8640504,8.7619505,-0.49800003
1679998253553,1178241908015357,4.8960004,8.817,-0.37800002
1679998253555,1178241910517434,4.809,8.830951,-0.35895002
1679998253557,1178241913019588,4.8240004,8.85795,-0.33195
1679998253561,1178241915521530,4.893,8.7619505,-0.38505003
1679998253563,1178241918023684,4.7449503,8.793,-0.40695003
1679998253565,1178241920525837,4.80705,8.830951,-0.31095
1679998253567,1178241923027991,4.79505,8.83905,-0.23205002
1679998253574,1178241925530073,4.656,8.853001,-0.14295001
1679998253575,1178241928032227,4.7899504,8.85,-0.15300001
1679998253576,1178241930534150,4.85505,8.842951,-0.22200002
1679998253578,1178241933036304,4.7449503,8.87205,-0.11100001
1679998253581,1178241935538367,4.6579504,8.677951,-0.076950006
1679998253584,1178241938040598,4.5100503,8.52,-0.055050004
1679998253586,1178241940542675,4.4500504,8.314051,-0.07005
1679998253588,1178241943044598,4.1599503,7.9830003,-0.075
1679998253593,1178241945546761,3.2770503,7.9519506,0.076050006
1679998253594,1178241948049145,2.97195,8.08605,0.35700002
1679998253596,1178241950551068,3.07095,7.6720505,0.21795002
1679998253598,1178241953053145,3.1950002,7.66305,0.21795002
1679998253601,1178241955555299,2.94405,7.76595,-0.08205
1679998253603,1178241958057448,2.9220002,8.187,0.060000002
1679998253605,1178241960559371,3.147,7.9429502,-0.043050002
1679998253609,1178241963061525,3.52095,8.187,0.061950002
1679998253611,1178241965563679,3.5419502,8.3209505,0.052050002
1679998253613,1178241968065827,3.8130002,8.58195,-0.19095
1679998253615,1178241970567904,4.4550004,8.625,-0.11100001
1679998253617,1178241973070058,4.1599503,8.85495,0.01905
1679998253621,1178241975571981,4.40205,9.06795,-0.11805001
1679998253624,1178241978074044,4.464,9.258,0.08805001
1679998253626,1178241980576275,4.69005,9.21195,-0.04095
1679998253628,1178241983078429,5.13,9.14295,-0.124050006
1679998253632,1178241985580506,4.84095,9.43995,-0.18405001
1679998253633,1178241988082660,4.95795,9.397051,-0.08205
1679998253635,1178241990584583,5.0149503,9.607051,-0.59595
1679998253637,1178241993086737,5.0230503,9.595051,-0.52095
1679998253641,1178241995588890,4.99905,9.76095,-0.60495
1679998253642,1178241998091044,4.9890003,9.61905,-0.27195
1679998253647,1178242000593155,4.8520503,9.49005,-0.23400001
1679998253648,1178242003095309,5.1709504,9.492001,-0.79695004
1679998253651,1178242005597463,4.9440002,9.48795,-0.49800003
1679998253653,1178242008099386,4.9080005,9.52305,-0.41805002
1679998253655,1178242010601463,4.7970004,9.516001,-0.531
1679998253660,1178242013103660,5.1780005,9.391951,-0.97395
1679998253661,1178242015605814,4.9440002,9.315001,-0.93795
1679998253665,1178242018107891,5.56395,9.423,-0.56700003
1679998253666,1178242020609814,5.1109505,9.40905,-0.54105
1679998253668,1178242023111967,5.3310003,9.444,-0.735
1679998253670,1178242025614116,5.4700503,9.315001,-0.684
1679998253673,1178242028116193,5.2759504,9.385051,-0.81600004
1679998253675,1178242030618424,5.1109505,9.403951,-0.59595
1679998253677,1178242033120501,5.4900002,9.174001,-0.70305
1679998253681,1178242035622429,5.229,9.411,-0.85005003
1679998253684,1178242038124583,5.7790504,9.3490505,-0.771
1679998253687,1178242040626737,5.94705,9.22605,-0.40695003
1679998253689,1178242043128814,5.736,9.298051,-0.70095
1679998253691,1178242045630968,5.60895,9.391951,-0.87405
1679998253693,1178242048133121,5.6400003,9.1710005,-0.69900006
1679998253695,1178242050635275,5.367,9.222,-0.71505004
1679998253697,1178242053137429,5.5590005,9.282001,-0.36795002
1679998253702,1178242055639352,5.61705,9.195001,-0.69600004
1679998253704,1178242058141419,5.5950003,9.121051,-0.36795002
1679998253705,1178242060643573,5.5729504,9.094951,-1.5079501
1679998253708,1178242063145804,5.2930503,9.243,-0.012
1679998253711,1178242065647881,5.3479505,8.99205,-0.54495
1679998253713,1178242068150034,5.631,9.01305,-1.008
1679998253715,1178242070651929,5.66895,8.88195,-0.84705
1679998253718,1178242073154082,5.3770504,8.910001,-1.0360501
1679998253722,1178242075656159,5.46105,8.889001,-0.56700003
1679998253724,1178242078158313,5.7510004,8.829,-0.29595003
1679998253726,1178242080660458,5.0490003,8.806951,-0.651
1679998253728,1178242083162381,5.4199505,8.58195,-0.76305
1679998253731,1178242085664535,5.6119504,8.61795,-1.2709501
1679998253733,1178242088166689,5.4199505,8.673,-0.47400004
1679998253735,1178242090668766,5.3479505,8.476951,-0.48795003
1679998253737,1178242093170891,5.4490504,8.464951,-0.73200005
1679998253741,1178242095672814,5.4799504,8.38605,-0.67005
1679998253743,1178242098175198,5.406,8.319,-0.768
1679998253745,1178242100677352,5.4700503,8.415,-0.57195
1679998253747,1178242103179256,5.62095,8.30895,-0.85395
1679998253751,1178242105681333,5.41095,8.280001,-0.62205005
1679998253753,1178242108183487,5.5300503,8.302051,-0.79695004
1679998253755,1178242110685641,5.7289505,8.2570505,-0.34905002
1679998253759,1178242113187785,5.5140004,8.26095,-0.62700003
1679998253761,1178242115689939,5.6860504,8.191951,-0.72300005
1679998253764,1178242118191862,5.8110003,8.163,-0.81600004
1679998253765,1178242120694016,5.703,8.247001,-1.08
1679998253767,1178242123196092,5.54505,8.2900505,-1.1389501
1679998253770,1178242125698275,5.4300003,8.27295,-0.85200006
1679998253772,1178242128200198,5.571,8.37405,-0.55995005
1679998253775,1178242130702583,5.3910003,8.26095,-0.71805006
1679998253777,1178242133204506,5.6449504,8.496,-0.67200005
1679998253781,1178242135706669,5.59695,8.508,-0.84000003
1679998253783,1178242138208823,5.4199505,8.467051,-0.64605004
1679998253785,1178242140710900,5.59695,8.464951,-0.75900006
1679998253787,1178242143212823,5.5540504,8.42205,-0.85695004
1679998253790,1178242145715006,5.4490504,8.464951,-0.50505
1679998253792,1178242148217390,5.688,8.40705,-0.73905003
1679998253796,1178242150719313,5.50605,8.36205,-0.711
1679998253799,1178242153221390,5.54505,8.448,-0.079050004
1679998253801,1178242155723549,5.6520004,8.41005,-0.56505
1679998253803,1178242158225703,5.7310505,8.44095,-0.027
1679998253805,1178242160727626,5.6140504,8.37405,-0.45195
1679998253808,1178242163230011,5.5350003,8.49405,-0.19095
1679998253810,1178242165731934,5.4870005,8.49405,-0.49500003
1679998253814,1178242168234011,5.3170505,8.637,-0.39000002
1679998253816,1178242170736165,5.3749504,8.632951,-0.39195
1679998253817,1178242173238395,5.334,8.608951,-0.26805001
1679998253820,1178242175740472,5.1930003,8.70705,-0.22005
1679998253824,1178242178242612,5.04405,8.83905,-0.41400003
1679998253826,1178242180744535,4.89795,8.87205,-0.21300001
1679998253828,1178242183246689,4.8790503,8.86005,-0.624
1679998253831,1178242185748804,4.8289504,8.917951,-0.27
1679998253834,1178242188250958,4.6870503,8.901,-0.09900001
1679998253835,1178242190753112,4.66095,8.961,-0.423
1679998253837,1178242193255266,4.6009502,8.908051,-0.14505
1679998253840,1178242195757189,4.44495,9.183001,-0.13800001
1679998253843,1178242198259371,4.407,9.04905,-0.39495003
1679998253845,1178242200761525,4.45695,9.04395,-0.31800002
1679998253848,1178242203263602,4.479,9.15495,-0.120000005
1679998253851,1178242205765525,4.19595,9.00405,-0.49800003
1679998253853,1178242208267915,4.512,8.89395,-0.55995005
1679998253855,1178242210770069,4.2850504,8.96805,-0.38700002
1679998253858,1178242213271992,4.5030003,9.02295,-0.79200006
1679998253861,1178242215774146,4.539,9.066,-0.70305
1679998253863,1178242218276247,4.203,8.99895,-0.93600005
1679998253865,1178242220778401,4.59105,8.908051,-0.78000003
1679998253867,1178242223280554,4.3639503,9.127951,-0.72495
1679998253872,1178242225782708,4.4209504,8.86695,-0.85695004
1679998253873,1178242228284616,4.45305,8.87205,-0.88605005
1679998253876,1178242230786770,4.563,8.78295,-0.81600004
1679998253877,1178242233288847,4.66995,8.818951,-1.08405
1679998253880,1178242235791001,4.8019505,8.905951,-0.85200006
1679998253883,1178242238293155,4.6150503,8.830951,-0.88305
1679998253885,1178242240795333,4.70895,9.042001,-0.98805004
1679998253888,1178242243297256,4.8790503,8.805,-1.3120501
1679998253891,1178242245799410,4.7470503,8.965051,-1.065
1679998253893,1178242248301563,4.69395,8.99205,-0.97395
1679998253895,1178242250803635,4.6009502,8.953051,-1.09095
1679998253898,1178242253305789,4.6470003,9.102,-0.96900004
1679998253900,1178242255807943,4.79295,8.98005,-1.4080501
1679998253904,1178242258310097,4.7449503,8.986951,-1.24695
1679998253905,1178242260812025,4.86705,9.00105,-1.0530001
1679998253909,1178242263314179,4.91505,9.0400505,-0.90705
1679998253911,1178242265816256,4.5270004,9.15495,-0.79695004
1679998253914,1178242268318410,4.55805,9.16905,-0.93600005
1679998253916,1178242270820352,4.91505,9.135,-0.94095004
1679998253918,1178242273322736,4.78095,8.973001,-0.957
1679998253921,1178242275824659,4.8450003,9.085051,-0.90495
1679998253923,1178242278326813,4.76595,9.076051,-1.2400501
1679998253925,1178242280828905,4.60605,9.0400505,-0.83505005
1679998253928,1178242283331059,4.6849504,9.085051,-1.04595
1679998253932,1178242285833213,4.6990504,9.15495,-0.75900006
1679998253933,1178242288335136,4.60605,9.13305,-0.85905004
1679998253936,1178242290837290,4.64895,9.19995,-0.79695004
1679998253938,1178242293339458,4.563,9.17595,-0.87795
1679998253941,1178242295841612,4.5030003,9.126,-0.78495
1679998253944,1178242298343689,4.57905,9.23805,-0.97200006
1679998253948,1178242300845852,4.63005,9.02295,-0.56700003
1679998253949,1178242303347775,4.6729503,8.98005,-0.70605004
1679998253951,1178242305850160,4.16505,9.22605,-0.55305004
1679998253953,1178242308352083,4.7899504,8.88405,-0.75405
1679998253955,1178242310854237,4.395,9.10005,-0.64605004
1679998253958,1178242313356290,4.51695,9.04905,-0.92595005
1679998253960,1178242315858444,4.38495,9.1380005,-0.71295005
1679998253963,1178242318360367,4.5079503,9.174001,-0.69195
1679998253965,1178242320862521,4.6270504,8.944051,-0.83805007
1679998253968,1178242323364910,4.5,8.932051,-0.74895006
1679998253971,1178242325866833,4.3879504,9.19305,-0.78705
1679998253973,1178242328368910,4.4620504,8.997001,-1.005
1679998253975,1178242330871064,4.4620504,9.066,-0.74205005
1679998253978,1178242333373227,4.64895,8.937,-1.1149501
1679998253982,1178242335875150,4.3780503,8.779051,-0.98595005
1679998253986,1178242338377304,4.68195,8.961,-1.0210501
1679998253987,1178242340879458,4.75395,8.82705,-1.04595
1679998253989,1178242343381607,4.90005,8.7949505,-1.21605
1679998253993,1178242345883761,4.66095,8.79105,-1.33305
1679998253994,1178242348385837,4.7899504,8.74695,-1.14195
1679998253996,1178242350887761,4.64895,8.67105,-1.266
1679998253999,1178242353389914,5.0010004,8.625,-1.0720501
1679998254001,1178242355892054,5.0989504,8.509951,-1.51995
1679998254003,1178242358394208,4.69395,8.785951,-1.3789501
1679998254006,1178242360896362,4.96005,8.700001,-1.554
1679998254008,1178242363398439,4.89795,8.676001,-1.43595
1679998254013,1178242365900314,4.85505,8.635051,-1.3930501
1679998254016,1178242368402468,4.75005,8.776051,-1.3050001
1679998254019,1178242370904622,4.91505,8.47395,-1.44105
1679998254020,1178242373406776,5.23605,8.48205,-1.3410001
1679998254022,1178242375908847,5.1589503,8.54595,-1.3429501
1679998254025,1178242378411001,4.788,8.6970005,-1.2540001
1679998254027,1178242380913155,5.10405,8.57505,-1.5850501
1679998254029,1178242383415078,5.02005,8.677951,-1.60395
1679998254032,1178242385917213,5.1880503,8.55795,-0.99105006
1679998254034,1178242388419290,4.87605,8.601001,-1.2229501
1679998254036,1178242390921521,4.953,8.853001,-1.18005
1679998254037,1178242393423675,4.881,8.757,-1.5079501
1679998254040,1178242395925530,5.274,8.68995,-1.5469501
1679998254043,1178242398427684,5.01105,8.72595,-0.864
1679998254045,1178242400930068,4.63005,8.958,-1.10595
1679998254048,1178242403431991,4.656,8.769,-1.6210501
1679998254051,1178242405934044,4.8790503,8.91495,-1.077
1679998254053,1178242408436198,4.6540504,8.938951,-1.33605
1679998254056,1178242410938352,4.96005,8.908051,-1.42005
1679998254059,1178242413440275,4.8570004,8.767051,-1.0699501
1679998254062,1178242415942665,4.69005,8.78295,-0.34695002
1679998254064,1178242418444588,4.60605,8.83605,-0.64395005
1679998254066,1178242420946742,4.9080005,8.74005,-0.64395005
1679998254068,1178242423448819,4.63005,8.83905,-0.79905003
1679998254071,1178242425950972,4.8120003,8.944051,-0.81795
1679998254073,1178242428452901,4.6870503,9.042001,-0.71295005
1679998254075,1178242430955054,4.6579504,8.89395,-0.69900006
1679998254077,1178242433457208,4.00005,9.04695,-0.30105
1679998254080,1178242435959362,4.335,9.11205,-0.11505
1679998254083,1178242438461434,4.04505,9.19995,-0.59295005
1679998254085,1178242440963588,4.3380003,9.174001,-0.22395001
1679998254088,1178242443465511,4.6080003,9.06795,0.060000002
1679998254090,1178242445967665,4.3110003,9.16395,-0.39000002
1679998254092,1178242448469819,4.3900504,9.186001,-0.04095
1679998254097,1178242450971986,4.182,9.33705,-0.26805001
1679998254099,1178242453474063,3.7480502,9.385051,-0.60495
1679998254102,1178242455976217,3.624,9.387,-0.38700002
1679998254105,1178242458478347,3.8590503,9.538051,-0.34905002
1679998254106,1178242460980270,3.82995,9.28905,-0.73005
1679998254108,1178242463482424,4.0680003,9.37005,-0.19800001
1679998254112,1178242465984578,4.2780004,9.23805,-0.50100005
1679998254114,1178242468486732,3.9259503,9.397051,-0.79905003
1679998254116,1178242470988790,4.2319503,9.418051,-0.92100006
1679998254118,1178242473490944,4.2180004,9.47595,-0.76305
1679998254123,1178242475992867,3.9060001,9.279,-1.245
1679998254124,1178242478495034,4.4500504,9.306001,-1.0210501
1679998254126,1178242480997111,4.335,9.088051,-1.02705
1679998254128,1178242483499342,4.491,9.195001,-1.3410001
1679998254131,1178242486001419,4.6080003,8.985001,-1.24995
1679998254135,1178242488503544,4.14795,9.315001,-1.2930001
1679998254136,1178242491005467,4.6579504,8.87205,-1.365
1679998254138,1178242493507621,4.6150503,8.953051,-1.1389501
1679998254141,1178242496009775,4.6849504,8.830951,-1.491
1679998254146,1178242498511823,4.347,9.05895,-1.40505
1679998254147,1178242501013977,4.63905,8.78295,-1.149
1679998254148,1178242503516130,4.72095,8.809951,-1.3090501
1679998254151,1178242506018284,4.69005,8.842951,-1.2400501
1679998254153,1178242508520207,4.5100503,8.962951,-1.266
1679998254156,1178242511022275,4.69005,8.72595,-1.056
1679998254158,1178242513524429,4.63905,8.580001,-1.22595
1679998254161,1178242516026660,4.833,8.668051,-0.87405
1679998254163,1178242518528737,4.6150503,8.57505,-1.1659501
1679998254165,1178242521030891,4.6660504,8.38605,-1.0530001
1679998254168,1178242523532809,4.76595,8.91495,-0.97905004
1679998254172,1178242526034963,4.6750503,8.647051,-1.12695
1679998254174,1178242528537040,4.47195,8.938951,-0.91395
