system_ts_ms, sensor_ts_ns, gyrX, gyrY, gyrZ
1679998249019,1178237366692856,0.092675,-0.3067625,0.1040875
1679998249019,1178237369194779,0.098725,-0.3117125,0.102025
1679998249019,1178237371696932,0.103675,-0.3196875,0.0961125
1679998249019,1178237374199101,0.1067,-0.323675,0.092125
1679998249032,1178237376701178,0.1067,-0.3306875,0.08305
1679998249032,1178237379203332,0.1027125,-0.346775,0.07205
1679998249033,1178237381705486,0.0977625,-0.3587375,0.064075
1679998249033,1178237384207423,0.0886875,-0.367675,0.059125
1679998249033,1178237386709577,0.081675,-0.37867498,0.053075
1679998249035,1178237389211654,0.0757625,-0.3867875,0.0441375
1679998249037,1178237391713885,0.071775,-0.39875,0.0341
1679998249041,1178237394216038,0.059675,-0.4107125,0.026124999
1679998249042,1178237396718110,0.0526625,-0.42075,0.0210375
1679998249044,1178237399220033,0.0427625,-0.4307875,0.0100375
1679998249047,1178237401722187,0.03575,-0.4437125,0.0011
1679998249049,1178237404224264,0.0306625,-0.445775,-0.007975
1679998249051,1178237406726418,0.0257125,-0.456775,-0.0218625
1679998249054,1178237409228668,0.02365,-0.46667498,-0.0339625
1679998249058,1178237411730745,0.0177375,-0.472725,-0.0449625
1679998249059,1178237414232899,0.01375,-0.4807,-0.0589875
1679998249063,1178237416734822,0.015675,-0.48675,-0.07095
1679998249064,1178237419236976,0.0187,-0.4928,-0.083875
1679998249068,1178237421739129,0.01375,-0.499675,-0.0919875
1679998249070,1178237424241283,0.014712499,-0.50875,-0.10395
1679998249074,1178237426743365,0.014712499,-0.5176875,-0.11495
1679998249074,1178237429245519,0.0097624995,-0.5237375,-0.1208625
1679998249077,1178237431747673,0.0116875,-0.527725,-0.133925
1679998249078,1178237434249596,0.014712499,-0.53267497,-0.1419
1679998249082,1178237436751750,0.014712499,-0.5407875,-0.14795
1679998249084,1178237439253817,0.0196625,-0.5467,-0.160875
1679998249086,1178237441756048,0.0257125,-0.55275,-0.16995
1679998249092,1178237444258124,0.0257125,-0.5506875,-0.1758625
1679998249092,1178237446760278,0.027775,-0.5567375,-0.183975
1679998249094,1178237449262403,0.0367125,-0.560725,-0.1868625
1679998249097,1178237451764326,0.0367125,-0.566775,-0.1909875
1679998249099,1178237454266403,0.0367125,-0.5726875,-0.193875
1679998249102,1178237456768557,0.037675,-0.5808,-0.1978625
1679998249108,1178237459270788,0.037675,-0.5897375,-0.199925
1679998249108,1178237461772865,0.0397375,-0.5946875,-0.20487499
1679998249110,1178237464274788,0.038775,-0.6056875,-0.2079
1679998249112,1178237466776942,0.0407,-0.60775,-0.2088625
1679998249115,1178237469279096,0.0446875,-0.5977125,-0.2118875
1679998249120,1178237471781163,0.0477125,-0.5797,-0.2198625
1679998249120,1178237474283394,0.0556875,-0.549725,-0.22495
1679998249124,1178237476785471,0.0636625,-0.5187875,-0.2319625
1679998249126,1178237479287625,0.070675,-0.499675,-0.2349875
1679998249127,1178237481789509,0.07975,-0.488675,-0.238975
1679998249129,1178237484291663,0.087725,-0.472725,-0.24887499
1679998249132,1178237486793817,0.0996875,-0.477675,-0.249975
1679998249134,1178237489295894,0.10175,-0.5187875,-0.243925
1679998249136,1178237491798154,0.109725,-0.5698,-0.2369125
1679998249143,1178237494300230,0.11275,-0.6087125,-0.22495
1679998249144,1178237496802384,0.114675,-0.6358,-0.20487499
1679998249145,1178237499304307,0.1186625,-0.6677,-0.18287499
1679998249147,1178237501806442,0.1087625,-0.6667375,-0.166925
1679998249151,1178237504308519,0.0996875,-0.6578,-0.14795
1679998249152,1178237506810673,0.093775,-0.6527125,-0.127875
1679998249153,1178237509312827,0.0886875,-0.643775,-0.1098625
1679998249159,1178237511814981,0.0847,-0.6307125,-0.0919875
1679998249160,1178237514317150,0.0757625,-0.6177875,-0.0779625
1679998249162,1178237516819073,0.070675,-0.6056875,-0.067925
1679998249164,1178237519321150,0.06765,-0.588775,-0.0529375
1679998249167,1178237521823303,0.0636625,-0.577775,-0.0429
1679998249169,1178237524325534,0.065725,-0.5698,-0.034925
1679998249174,1178237526827683,0.0627,-0.560725,-0.029975
1679998249174,1178237529329760,0.0627,-0.5506875,-0.0248875
1679998249176,1178237531831683,0.0647625,-0.544775,-0.0199375
1679998249180,1178237534333833,0.065725,-0.544775,-0.017875
1679998249184,1178237536835987,0.06875,-0.538725,-0.01595
1679998249185,1178237539338064,0.0697125,-0.53267497,-0.01595
1679998249187,1178237541840294,0.070675,-0.5297875,-0.017875
1679998249194,1178237544342356,0.073699996,-0.5286875,-0.0209
1679998249195,1178237546844510,0.0727375,-0.5258,-0.0229625
1679998249195,1178237549346433,0.070675,-0.51975,-0.0248875
1679998249197,1178237551848587,0.0727375,-0.51975,-0.029975
1679998249200,1178237554350654,0.0746625,-0.5176875,-0.0339625
1679998249202,1178237556852885,0.0727375,-0.5176875,-0.0369875
1679998249204,1178237559354962,0.0746625,-0.5148,-0.0389125
1679998249209,1178237561857116,0.0757625,-0.511775,-0.039875
1679998249210,1178237564359270,0.0776875,-0.5097125,-0.0389125
1679998249212,1178237566861213,0.076725,-0.50875,-0.0369875
1679998249215,1178237569363366,0.081675,-0.500775,-0.0389125
1679998249218,1178237571865443,0.0856625,-0.4967875,-0.03795
1679998249220,1178237574367688,0.093775,-0.488675,-0.03795
1679998249227,1178237576869765,0.0996875,-0.4827625,-0.0339625
1679998249227,1178237579371919,0.10175,-0.47575,-0.0339625
1679998249228,1178237581873842,0.1076625,-0.4697,-0.0319
1679998249231,1178237584376006,0.114675,-0.46667498,-0.0259875
1679998249232,1178237586878083,0.114675,-0.46873748,-0.0229625
1679998249234,1178237589380237,0.1167375,-0.46475,-0.0209
1679998249236,1178237591882467,0.12265,-0.4637875,-0.017875
1679998249242,1178237594384544,0.120725,-0.461725,-0.012925
1679998249243,1178237596886467,0.1247125,-0.46475,-0.0119624995
1679998249244,1178237599388621,0.1296625,-0.4657125,-0.0108624995
1679998249247,1178237601890775,0.131725,-0.46667498,-0.0089375
1679998249250,1178237604392929,0.13365,-0.46667498,-0.007975
1679998249252,1178237606895092,0.1397,-0.46873748,-0.006875
1679998249259,1178237609397169,0.1397,-0.4736875,-0.006875
1679998249260,1178237611899323,0.1417625,-0.477675,-0.0059125
1679998249261,1178237614401246,0.1417625,-0.478775,-0.006875
1679998249263,1178237616903405,0.147675,-0.4827625,-0.0089375
1679998249264,1178237619405558,0.147675,-0.4907375,-0.006875
1679998249267,1178237621907712,0.147675,-0.4937625,-0.007975
1679998249270,1178237624409866,0.1516625,-0.500775,-0.0089375
1679998249276,1178237626911943,0.1527625,-0.5077875,-0.0089375
1679998249277,1178237629413847,0.15565,-0.5097125,-0.0108624995
1679998249278,1178237631916001,0.1626625,-0.5097125,-0.0108624995
1679998249281,1178237634418386,0.164725,-0.516725,-0.0099
1679998249282,1178237636920309,0.16775,-0.51975,-0.0108624995
1679998249285,1178237639422463,0.170775,-0.5267625,-0.0108624995
1679998249287,1178237641924539,0.1766875,-0.5297875,-0.0108624995
1679998249292,1178237644426693,0.17875,-0.53473747,-0.012925
1679998249293,1178237646928847,0.1797125,-0.5427125,-0.006875
1679998249295,1178237649430804,0.1837,-0.5478,-0.00495
1679998249297,1178237651932958,0.18975,-0.555775,-0.001925
1679998249300,1178237654435112,0.1907125,-0.565675,-0.001925
1679998249303,1178237656937266,0.1956625,-0.5698,0.0020625
1679998249309,1178237659439343,0.19965,-0.5787375,0.004125
1679998249310,1178237661941468,0.2017125,-0.593725,0.0111375
1679998249311,1178237664443391,0.202675,-0.60775,0.015125
1679998249312,1178237666945775,0.208725,-0.61875,0.0160875
1679998249315,1178237669447698,0.21065,-0.6347,0.0210375
1679998249316,1178237671949866,0.21367499,-0.6507875,0.026124999
1679998249319,1178237674452020,0.2167,-0.670725,0.0301125
1679998249327,1178237676954097,0.2206875,-0.6837875,0.031075
1679998249328,1178237679456020,0.224675,-0.698775,0.0341
1679998249329,1178237681958159,0.2267375,-0.7128,0.0380875
1679998249331,1178237684460544,0.230725,-0.7187125,0.0400125
1679998249333,1178237686962467,0.2297625,-0.7357625,0.042075
1679998249335,1178237689464621,0.2297625,-0.7458,0.042075
1679998249336,1178237691966702,0.2297625,-0.7547375,0.042075
1679998249341,1178237694468856,0.23265,-0.7607875,0.0441375
1679998249343,1178237696970779,0.2347125,-0.774675,0.0411125
1679998249344,1178237699472933,0.236775,-0.7877375,0.0451
1679998249347,1178237701975087,0.23567499,-0.7997,0.0441375
1679998249350,1178237704477245,0.23773749,-0.81675,0.0411125
1679998249352,1178237706979322,0.24365,-0.8377875,0.042075
1679998249354,1178237709481476,0.241725,-0.85676247,0.0411125
1679998249360,1178237711983654,0.24365,-0.874775,0.039049998
1679998249361,1178237714485577,0.246675,-0.8927875,0.037125
1679998249362,1178237716987961,0.2457125,-0.9097,0.0341
1679998249364,1178237719489884,0.2457125,-0.9227625,0.0320375
1679998249368,1178237721992019,0.2457125,-0.93775,0.0290125
1679998249371,1178237724494096,0.241725,-0.9557625,0.0270875
1679998249375,1178237726996250,0.241725,-0.97267497,0.0240625
1679998249376,1178237729498173,0.241725,-0.9857375,0.0240625
1679998249377,1178237732000327,0.2426875,-0.9997625,0.0240625
1679998249380,1178237734502462,0.2396625,-1.01475,0.0221375
1679998249383,1178237737004616,0.236775,-1.02575,0.0231
1679998249385,1178237739506769,0.23567499,-1.0417,0.0191125
1679998249387,1178237742008846,0.2347125,-1.0527,0.0231
1679998249391,1178237744510981,0.2267375,-1.0627375,0.0240625
1679998249392,1178237747012904,0.2206875,-1.0797875,0.0240625
1679998249394,1178237749515058,0.2187625,-1.0896875,0.0231
1679998249397,1178237752017443,0.2127125,-1.0978,0.0240625
1679998249401,1178237754519375,0.2057,-1.1037124,0.0231
1679998249403,1178237757021452,0.197725,-1.1116875,0.0221375
1679998249405,1178237759523606,0.1876875,-1.1198,0.0191125
1679998249408,1178237762025760,0.181775,-1.126675,0.0231
1679998249410,1178237764527683,0.1747625,-1.1287374,0.026124999
1679998249412,1178237767030067,0.1637625,-1.1257125,0.025024999
1679998249414,1178237769531990,0.153725,-1.115675,0.025024999
1679998249416,1178237772034067,0.148775,-1.1037124,0.0221375
1679998249420,1178237774536216,0.1467125,-1.0978,0.020075
1679998249423,1178237777038370,0.1467125,-1.0927125,0.0111375
1679998249425,1178237779540524,0.148775,-1.0786875,0.00605
1679998249427,1178237782042447,0.148775,-1.06975,1.375E-4
1679998249431,1178237784544847,0.15565,-1.05875,-0.0059125
1679998249432,1178237787046770,0.1637625,-1.0467875,-0.0149875
1679998249434,1178237789548923,0.16665,-1.0297375,-0.0119624995
1679998249437,1178237792051000,0.169675,-1.022725,-0.0039875
1679998249440,1178237794553154,0.175725,-1.0327625,0.0070125
1679998249444,1178237797055096,0.17875,-1.039775,0.0121
1679998249445,1178237799557481,0.1766875,-1.0177749,0.0121
1679998249447,1178237802059404,0.1736625,-0.9937125,0.0111375
1679998249450,1178237804561558,0.1626625,-0.9667625,0.013062499
1679998249452,1178237807063717,0.1527625,-0.9337625,0.009075
1679998249454,1178237809565794,0.1417625,-0.90475,0.0081124995
1679998249457,1178237812067717,0.13475,-0.874775,0.003025
1679998249460,1178237814569871,0.126775,-0.857725,0.003025
1679998249464,1178237817072240,0.120725,-0.8377875,0.0050875
1679998249466,1178237819574163,0.1197625,-0.818675,0.00605
1679998249467,1178237822076317,0.1167375,-0.79873747,0.009075
1679998249471,1178237824578394,0.115775,-0.780725,0.014025
1679998249473,1178237827080548,0.117699996,-0.763675,0.0221375
1679998249475,1178237829582485,0.1167375,-0.7467625,0.0320375
1679998249477,1178237832084639,0.120725,-0.7266875,0.0460625
1679998249482,1178237834586793,0.125675,-0.6967125,0.0600875
1679998249484,1178237837088947,0.1326875,-0.6716875,0.0760375
1679998249486,1178237839591009,0.137775,-0.654775,0.0950125
1679998249488,1178237842093163,0.148775,-0.62975,0.1150875
1679998249491,1178237844595317,0.1656875,-0.6028,0.13213749
1679998249493,1178237847097471,0.180675,-0.5808,0.14905
1679998249494,1178237849599394,0.186725,-0.56168747,0.1661
1679998249497,1178237852101563,0.1956625,-0.5357,0.1810875
1679998249500,1178237854603640,0.2057,-0.51975,0.1951125
1679998249503,1178237857105794,0.21573749,-0.5038,0.20405
1679998249504,1178237859607717,0.2187625,-0.4797375,0.207075
1679998249508,1178237862110096,0.21573749,-0.444675,0.2091375
1679998249512,1178237864612250,0.2127125,-0.4076875,0.2030875
1679998249513,1178237867114173,0.2057,-0.367675,0.1920875
1679998249515,1178237869616327,0.197725,-0.3317875,0.1810875
1679998249518,1178237872118385,0.1907125,-0.307725,0.1700875
1679998249520,1178237874620539,0.1837,-0.280775,0.1551
1679998249525,1178237877122770,0.17875,-0.2567125,0.146025
1679998249526,1178237879624847,0.1687125,-0.2387,0.130075
1679998249527,1178237882126770,0.1656875,-0.2277,0.1211375
1679998249531,1178237884628886,0.1637625,-0.21573749,0.1101375
1679998249532,1178237887131040,0.1637625,-0.21175,0.097075
1679998249534,1178237889633116,0.1626625,-0.2127125,0.0891
1679998249537,1178237892135270,0.158675,-0.2068,0.0820875
1679998249543,1178237894637419,0.153725,-0.202675,0.0741125
1679998249544,1178237897139573,0.147675,-0.202675,0.0710875
1679998249545,1178237899641496,0.1406625,-0.2068,0.069025
1679998249548,1178237902143650,0.137775,-0.21175,0.070125
1679998249551,1178237904645809,0.126775,-0.21779999,0.0710875
1679998249553,1178237907147886,0.1186625,-0.2217875,0.0730125
1679998249555,1178237909650040,0.109725,-0.2288,0.0790625
1679998249557,1178237912152193,0.104775,-0.23375,0.081125
1679998249561,1178237914654347,0.0996875,-0.2437875,0.0820875
1679998249563,1178237917156269,0.093775,-0.2607,0.0881375
1679998249564,1178237919658423,0.09075,-0.2737625,0.0961125
1679998249567,1178237922160500,0.09075,-0.2817375,0.1040875
1679998249570,1178237924662654,0.092675,-0.2957625,0.109037496
1679998249572,1178237927164804,0.0917125,-0.3067625,0.113025
1679998249574,1178237929666958,0.0947375,-0.318725,0.119075
1679998249577,1178237932169112,0.10065,-0.3278,0.12705
1679998249580,1178237934671035,0.1057375,-0.3377,0.130075
1679998249583,1178237937173092,0.1057375,-0.351725,0.136125
1679998249584,1178237939675245,0.1106875,-0.357775,0.141075
1679998249587,1178237942177399,0.114675,-0.362725,0.147125
1679998249590,1178237944679553,0.114675,-0.367675,0.1530375
1679998249593,1178237947181712,0.117699996,-0.3746875,0.157025
1679998249595,1178237949683635,0.1216875,-0.38073748,0.163075
1679998249597,1178237952185789,0.12265,-0.3777125,0.168025
1679998249600,1178237954687866,0.1216875,-0.37675,0.17407499
1679998249602,1178237957190020,0.12265,-0.37867498,0.180125
1679998249604,1178237959692189,0.1247125,-0.3727625,0.1810875
1679998249607,1178237962194342,0.1296625,-0.368775,0.185075
1679998249610,1178237964696265,0.1296625,-0.3697375,0.1881
1679998249612,1178237967198419,0.1307625,-0.3608,0.1881
1679998249614,1178237969700553,0.125675,-0.357775,0.1881
1679998249617,1178237972202630,0.12375,-0.35475,0.1860375
1679998249621,1178237974704784,0.125675,-0.345675,0.1860375
1679998249623,1178237977206938,0.12265,-0.335775,0.1881
1679998249625,1178237979709092,0.12265,-0.3317875,0.18205
1679998249627,1178237982211246,0.12265,-0.324775,0.1810875
1679998249632,1178237984713169,0.1216875,-0.3227125,0.1780625
1679998249633,1178237987215246,0.120725,-0.3207875,0.1771
1679998249639,1178237989717409,0.115775,-0.324775,0.1731125
1679998249650,1178237992219332,0.1137125,-0.3207875,0.169125
1679998249650,1178237994721717,0.11275,-0.3196875,0.1700875
1679998249651,1178237997223871,0.1087625,-0.3207875,0.168025
1679998249651,1178237999725794,0.1067,-0.3227125,0.1651375
1679998249651,1178238002227948,0.1057375,-0.329725,0.1700875
1679998249652,1178238004730025,0.104775,-0.33673748,0.1700875
1679998249652,1178238007232179,0.10175,-0.3377,0.1700875
1679998249654,1178238009734409,0.0996875,-0.3498,0.1720125
1679998249657,1178238012236486,0.0977625,-0.3597,0.17613749
1679998249660,1178238014738409,0.0966625,-0.3636875,0.179025
1679998249662,1178238017240563,0.092675,-0.367675,0.1810875
1679998249664,1178238019742717,0.0966625,-0.373725,0.185075
1679998249668,1178238022244774,0.0966625,-0.3777125,0.1860375
1679998249671,1178238024746928,0.093775,-0.3856875,0.1881
1679998249672,1178238027249082,0.0917125,-0.3917375,0.1881
1679998249675,1178238029751236,0.09075,-0.3966875,0.190025
1679998249677,1178238032253159,0.087725,-0.395725,0.191125
1679998249680,1178238034755332,0.087725,-0.401775,0.190025
1679998249682,1178238037257485,0.087725,-0.406725,0.1920875
1679998249684,1178238039759562,0.0847,-0.412775,0.191125
1679998249687,1178238042261716,0.0837375,-0.4147,0.191125
1679998249691,1178238044763894,0.0837375,-0.4158,0.1881
1679998249692,1178238047266048,0.082775,-0.4167625,0.1881
1679998249694,1178238049767971,0.081675,-0.4158,0.1860375
1679998249697,1178238052270125,0.07975,-0.4158,0.1871375
1679998249701,1178238054772236,0.0746625,-0.411675,0.1830125
1679998249702,1178238057274390,0.076725,-0.4087875,0.1810875
1679998249705,1178238059776543,0.076725,-0.411675,0.179025
1679998249707,1178238062278697,0.0746625,-0.4107125,0.1771
1679998249711,1178238064780861,0.0757625,-0.411675,0.17613749
1679998249713,1178238067282784,0.0757625,-0.4087875,0.1720125
1679998249714,1178238069784861,0.0757625,-0.4107125,0.17105
1679998249717,1178238072287092,0.0776875,-0.4137375,0.169125
1679998249719,1178238074789169,0.07975,-0.4186875,0.168025
1679998249722,1178238077291347,0.076725,-0.4197875,0.1651375
1679998249725,1178238079793501,0.073699996,-0.4158,0.1640375
1679998249727,1178238082295424,0.076725,-0.42267498,0.1651375
1679998249731,1178238084797501,0.0757625,-0.4268,0.1610125
1679998249732,1178238087299745,0.0727375,-0.423775,0.1621125
1679998249734,1178238089801899,0.06765,-0.42267498,0.168025
1679998249737,1178238092304053,0.065725,-0.428725,0.1700875
1679998249740,1178238094806130,0.060775,-0.434775,0.17105
1679998249744,1178238097308039,0.060775,-0.4357375,0.1750375
1679998249747,1178238099810193,0.0537625,-0.4387625,0.180125
1679998249748,1178238102312270,0.0517,-0.445775,0.1860375
1679998249751,1178238104814501,0.0477125,-0.45168748,0.1920875
1679998249753,1178238107316655,0.0416625,-0.4527875,0.1970375
1679998249755,1178238109818740,0.0397375,-0.461725,0.2050125
1679998249757,1178238112320664,0.0397375,-0.467775,0.2091375
1679998249760,1178238114822817,0.0397375,-0.47079998,0.21505
1679998249762,1178238117324971,0.0407,-0.4797375,0.2220625
1679998249764,1178238119827125,0.0427625,-0.4807,0.229075
1679998249767,1178238122329289,0.0427625,-0.4827625,0.235125
1679998249771,1178238124831366,0.04675,-0.4807,0.23705
1679998249772,1178238127333520,0.049775,-0.47575,0.2391125
1679998249775,1178238129835674,0.0537625,-0.47079998,0.24213749
1679998249777,1178238132337597,0.0556875,-0.4626875,0.2410375
1679998249781,1178238134839674,0.0587125,-0.45168748,0.2431
1679998249784,1178238137341904,0.065725,-0.44275,0.2440625
1679998249786,1178238139844072,0.0697125,-0.4268,0.2440625
1679998249788,1178238142346149,0.0746625,-0.4167625,0.2431
1679998249790,1178238144848303,0.081675,-0.4037,0.2410375
1679998249792,1178238147350226,0.0867625,-0.38279998,0.235125
1679998249795,1178238149852380,0.0917125,-0.368775,0.2330625
1679998249799,1178238152354519,0.093775,-0.3537875,0.229075
1679998249800,1178238154856673,0.0996875,-0.33673748,0.2250875
1679998249802,1178238157358826,0.10065,-0.3157,0.22013749
1679998249804,1178238159860903,0.104775,-0.296725,0.21505
1679998249807,1178238162363043,0.109725,-0.2756875,0.2080375
1679998249810,1178238164864966,0.1137125,-0.2536875,0.20405
1679998249813,1178238167367120,0.1137125,-0.23567499,0.19305
1679998249814,1178238169869274,0.117699996,-0.214775,0.1890625
1679998249819,1178238172371428,0.1216875,-0.192775,0.18205
1679998249821,1178238174873505,0.12375,-0.17173749,0.17407499
1679998249824,1178238177375659,0.125675,-0.1507,0.17105
1679998249826,1178238179877582,0.1216875,-0.1326875,0.1640375
1679998249828,1178238182379731,0.12375,-0.11275,0.157025
1679998249831,1178238184881884,0.12375,-0.093775,0.1480875
1679998249833,1178238187384038,0.12265,-0.0748,0.141075
1679998249835,1178238189886115,0.1216875,-0.059675,0.136125
1679998249837,1178238192388269,0.1186625,-0.0457875,0.13213749
1679998249840,1178238194890443,0.117699996,-0.0308,0.124025
1679998249843,1178238197392366,0.117699996,-0.0187,0.1170125
1679998249844,1178238199894520,0.115775,-0.0116875,0.114125
1679998249847,1178238202396674,0.1137125,-0.005775,0.1111
1679998249851,1178238204898814,0.109725,0.0033,0.1060125
1679998249852,1178238207400967,0.109725,0.0033,0.10505
1679998249856,1178238209903044,0.1057375,0.0033,0.10505
1679998249858,1178238212405198,0.1057375,0.006325,0.10505
1679998249860,1178238214907130,0.104775,0.0033,0.1060125
1679998249863,1178238217409207,0.103675,2.75E-4,0.1060125
1679998249865,1178238219911438,0.109725,0.0012375,0.109037496
1679998249867,1178238222413592,0.1106875,-0.0017875,0.1101375
1679998249871,1178238224915636,0.115775,-0.0067375,0.11605
1679998249872,1178238227417790,0.117699996,-0.0127875,0.120037496
1679998249875,1178238229919713,0.12265,-0.0187,0.125125
1679998249877,1178238232421867,0.126775,-0.0297,0.12705
1679998249881,1178238234924024,0.126775,-0.0347875,0.1280125
1679998249883,1178238237426178,0.1307625,-0.04675,0.1331
1679998249885,1178238239928332,0.1387375,-0.059675,0.1370875
1679998249887,1178238242430409,0.142725,-0.0666875,0.1431375
1679998249890,1178238244932563,0.14973749,-0.0807125,0.147125
1679998249893,1178238247434477,0.1507,-0.092675,0.1500125
1679998249895,1178238249936631,0.1527625,-0.10175,0.1530375
1679998249900,1178238252439015,0.1527625,-0.11275,0.157025
1679998249901,1178238254940939,0.1527625,-0.1216875,0.158125
1679998249903,1178238257443005,0.1527625,-0.136675,0.16005
1679998249905,1178238259945159,0.1507,-0.14973749,0.1621125
1679998249907,1178238262447313,0.148775,-0.1546875,0.1640375
1679998249911,1178238264949236,0.14575,-0.1607375,0.1640375
1679998249912,1178238267451385,0.1406625,-0.17173749,0.1661
1679998249914,1178238269953539,0.136675,-0.180675,0.1661
1679998249919,1178238272455693,0.1296625,-0.1857625,0.1640375
1679998249921,1178238274957770,0.1247125,-0.19167499,0.1640375
1679998249924,1178238277459924,0.12375,-0.20075,0.1621125
1679998249925,1178238279961847,0.1186625,-0.202675,0.1610125
1679998249928,1178238282464001,0.1137125,-0.202675,0.1590875
1679998249932,1178238284966154,0.104775,-0.2077625,0.157025
1679998249933,1178238287468289,0.10175,-0.2107875,0.1530375
1679998249935,1178238289970443,0.098725,-0.214775,0.152075
1679998249937,1178238292472520,0.0966625,-0.21573749,0.1500125
1679998249940,1178238294974674,0.08965,-0.2107875,0.1480875
1679998249943,1178238297476597,0.0847,-0.214775,0.1441
1679998249945,1178238299978741,0.07975,-0.219725,0.1441
1679998249947,1178238302480895,0.0757625,-0.2217875,0.1420375
1679998249950,1178238304982972,0.0727375,-0.224675,0.136125
1679998249952,1178238307485125,0.073699996,-0.225775,0.13213749
1679998249954,1178238309987279,0.0677875,-0.225775,0.130075
1679998249957,1178238312489424,0.0666875,-0.2217875,0.12705
1679998249963,1178238314991578,0.0647625,-0.2206875,0.1230625
1679998249964,1178238317493501,0.0647625,-0.2217875,0.1211375
1679998249966,1178238319995679,0.0647625,-0.2167,0.1150875
1679998249969,1178238322497756,0.0587125,-0.2107875,0.1120625
1679998249971,1178238324999910,0.0587125,-0.208725,0.109037496
1679998249973,1178238327501833,0.0627,-0.20075,0.10505
1679998249975,1178238330004217,0.0647625,-0.1947,0.102025
1679998249977,1178238332506165,0.0638,-0.1857625,0.097075
1679998249981,1178238335008318,0.0647625,-0.180675,0.0930875
1679998249983,1178238337510395,0.0697125,-0.170775,0.091025
1679998249985,1178238340012549,0.06875,-0.1656875,0.087037496
1679998249987,1178238342514472,0.071775,-0.164725,0.081125
1679998249990,1178238345016626,0.0727375,-0.1507,0.0771375
1679998249993,1178238347519011,0.070675,-0.1436875,0.07205
1679998249995,1178238350020934,0.0727375,-0.136675,0.070125
1679998249998,1178238352523102,0.0757625,-0.1287,0.0650375
1679998250000,1178238355025179,0.0776875,-0.115775,0.059125
1679998250002,1178238357527332,0.07975,-0.109725,0.0540375
1679998250006,1178238360029486,0.0757625,-0.1027125,0.0521125
1679998250008,1178238362531640,0.0757625,-0.0917125,0.048125
1679998250011,1178238365033794,0.076725,-0.09075,0.047025
1679998250013,1178238367535717,0.071775,-0.082775,0.0451
1679998250015,1178238370037871,0.06875,-0.076725,0.0441375
1679998250017,1178238372539948,0.0666875,-0.0757625,0.042075
1679998250021,1178238375042102,0.060775,-0.076725,0.0400125
1679998250024,1178238377544025,0.0587125,-0.0776875,0.0430375
1679998250025,1178238380046409,0.0567875,-0.076725,0.0441375
1679998250027,1178238382548332,0.0537625,-0.082775,0.0430375
1679998250031,1178238385050453,0.0507375,-0.0837375,0.0430375
1679998250032,1178238387552607,0.0477125,-0.0837375,0.0460625
1679998250035,1178238390054684,0.0446875,-0.0867625,0.047025
1679998250037,1178238392556607,0.04675,-0.0886875,0.0490875
1679998250041,1178238395059016,0.049775,-0.09075,0.0521125
1679998250044,1178238397561170,0.048675,-0.0867625,0.0551375
1679998250045,1178238400063093,0.0477125,-0.093775,0.0570625
1679998250047,1178238402565247,0.043725,-0.09075,0.0570625
1679998250051,1178238405067333,0.048675,-0.087725,0.058025
1679998250052,1178238407569486,0.0537625,-0.082775,0.061049998
1679998250055,1178238410071409,0.0528,-0.0787875,0.0631125
1679998250058,1178238412573794,0.0567875,-0.0727375,0.0631125
1679998250060,1178238415075948,0.0638,-0.06875,0.0650375
1679998250063,1178238417577871,0.0666875,-0.065725,0.069025
1679998250065,1178238420079948,0.070675,-0.0617375,0.069025
1679998250067,1178238422582102,0.0757625,-0.0556875,0.0671
1679998250071,1178238425084270,0.0858,-0.048675,0.0671
1679998250072,1178238427586193,0.0917125,-0.0397375,0.0710875
1679998250075,1178238430088577,0.0947375,-0.037675,0.0710875
1679998250077,1178238432590500,0.1007875,-0.0287375,0.0710875
1679998250083,1178238435092674,0.1027125,-0.021724999,0.070125
1679998250085,1178238437594751,0.103675,-0.0177375,0.0650375
1679998250086,1178238440096905,0.1067,-0.016775,0.0671
1679998250089,1178238442599059,0.1057375,-0.0116875,0.0650375
1679998250091,1178238445101213,0.103675,-0.0097624995,0.061049998
1679998250093,1178238447603107,0.10175,-0.0086624995,0.0600875
1679998250096,1178238450105261,0.0977625,-0.0077,0.058025
1679998250097,1178238452607415,0.093775,-0.004675,0.058025
1679998250100,1178238455109491,0.0897875,0.0012375,0.0561
1679998250103,1178238457611654,0.081675,-0.00275,0.0551375
1679998250105,1178238460113577,0.0807125,-0.00275,0.0561
1679998250107,1178238462615962,0.071775,-0.005775,0.0540375
1679998250111,1178238465118116,0.0647625,-0.0097624995,0.0540375
1679998250113,1178238467620039,0.0556875,-0.014712499,0.050049998
1679998250115,1178238470122126,0.048675,-0.0196625,0.048125
1679998250119,1178238472624280,0.043725,-0.0257125,0.0460625
1679998250122,1178238475126434,0.03575,-0.0347875,0.0451
1679998250124,1178238477628357,0.02475,-0.0457875,0.0411125
1679998250126,1178238480130741,0.0187,-0.049775,0.037125
1679998250128,1178238482632664,0.0116875,-0.0587125,0.037125
1679998250131,1178238485134818,0.0037125,-0.065725,0.037125
1679998250133,1178238487636895,0.0017875,-0.06875,0.0320375
1679998250135,1178238490139035,-0.0012375,-0.07975,0.0320375
1679998250137,1178238492641189,-0.0072875,-0.0947375,0.0290125
1679998250141,1178238495143343,-0.011275,-0.1057375,0.02805
1679998250143,1178238497645266,-0.0092124995,-0.125675,0.026124999
1679998250145,1178238500147405,-0.0122375,-0.137775,0.0290125
1679998250147,1178238502649559,-0.0202125,-0.1527625,0.026124999
1679998250150,1178238505151635,-0.0242,-0.1667875,0.0270875
1679998250153,1178238507653789,-0.028324999,-0.186725,0.0301125
1679998250156,1178238510155722,-0.0342375,-0.203775,0.0290125
1679998250158,1178238512658107,-0.039325,-0.219725,0.031075
1679998250164,1178238515160030,-0.0473,-0.2327875,0.0320375
1679998250165,1178238517662184,-0.0543125,-0.2407625,0.0341
1679998250168,1178238520164338,-0.0592625,-0.2487375,0.036025
1679998250169,1178238522666415,-0.0642125,-0.252725,0.0320375
1679998250171,1178238525168338,-0.0653125,-0.2536875,0.0341
1679998250173,1178238527670722,-0.071225,-0.2536875,0.036025
1679998250175,1178238530172646,-0.072325,-0.2517625,0.0341
1679998250177,1178238532674783,-0.071225,-0.2497,0.0341
1679998250181,1178238535176937,-0.07425,-0.246675,0.0341
1679998250184,1178238537679014,-0.071225,-0.2407625,0.0341
1679998250186,1178238540181245,-0.0672375,-0.23375,0.0341
1679998250188,1178238542683337,-0.06325,-0.2217875,0.037125
1679998250191,1178238545185491,-0.0583,-0.2107875,0.0400125
1679998250194,1178238547687414,-0.0512875,-0.1956625,0.0380875
1679998250196,1178238550189568,-0.0452375,-0.1846625,0.037125
1679998250198,1178238552691645,-0.0402875,-0.1667875,0.037125
1679998250201,1178238555193889,-0.0323125,-0.1516625,0.0460625
1679998250203,1178238557695966,-0.028324999,-0.136675,0.0411125
1679998250205,1178238560198120,-0.0202125,-0.1216875,0.039049998
1679998250208,1178238562700274,-0.0143,-0.0996875,0.0400125
1679998250211,1178238565202192,-0.00825,-0.082775,0.0411125
1679998250217,1178238567704346,-0.0022,-0.0677875,0.039049998
1679998250219,1178238570206423,0.004675,-0.0477125,0.039049998
1679998250221,1178238572708654,0.0097624995,-0.032725,0.037125
1679998250223,1178238575210807,0.01375,-0.016775,0.0331375
1679998250225,1178238577712884,0.0207625,-0.004675,0.031075
1679998250228,1178238580214807,0.0237875,0.005225,0.0301125
1679998250231,1178238582716961,0.026675,0.027224999,0.026124999
1679998250233,1178238585219091,0.02475,0.0372625,0.026124999
1679998250236,1178238587721168,0.027775,0.0473,0.0221375
1679998250237,1178238590223399,0.0297,0.055275,0.0210375
1679998250240,1178238592725476,0.0297,0.06325,0.0231
1679998250241,1178238595227399,0.026675,0.069299996,0.0231
1679998250243,1178238597729548,0.0237875,0.071225,0.020075
1679998250245,1178238600231702,0.021724999,0.071225,0.0191125
1679998250248,1178238602733779,0.015675,0.0752125,0.014025
1679998250251,1178238605236009,0.010725,0.0732875,0.015125
1679998250252,1178238607738086,0.004675,0.0732875,0.0121
1679998250255,1178238610240240,0.00275,0.069299996,0.0081124995
1679998250258,1178238612742394,6.875E-4,0.066275,0.00605
1679998250264,1178238615244317,-0.0033,0.061325,0.004125
1679998250271,1178238617746442,-0.00825,0.0592625,0.0011
1679998250271,1178238620248596,-0.0092124995,0.050325,-9.625E-4
1679998250271,1178238622750827,-0.0122375,0.0482625,-0.001925
1679998250272,1178238625252904,-0.0143,0.0372625,-0.0039875
1679998250273,1178238627755043,-0.0143,0.027224999,-0.007975
1679998250275,1178238630256966,-0.015262499,0.01925,-0.0108624995
1679998250277,1178238632759120,-0.0182875,0.0092124995,-0.0108624995
1679998250281,1178238635261197,-0.01925,2.75E-4,-0.0119624995
1679998250283,1178238637763428,-0.022275,-0.0097624995,-0.012925
1679998250285,1178238640265577,-0.0242,-0.0177375,-0.0149875
1679998250287,1178238642767654,-0.0253,-0.0257125,-0.017875
1679998250290,1178238645269577,-0.028324999,-0.026675,-0.018975
1679998250292,1178238647771731,-0.03025,-0.0336875,-0.017875
1679998250295,1178238650273909,-0.0342375,-0.038775,-0.0209
1679998250297,1178238652775986,-0.0352,-0.0446875,-0.0209
1679998250300,1178238655278216,-0.0352,-0.048675,-0.018975
1679998250304,1178238657780293,-0.0422125,-0.0526625,-0.018975
1679998250306,1178238660282447,-0.041249998,-0.0517,-0.0218625
1679998250308,1178238662784370,-0.0402875,-0.060775,-0.0218625
1679998250311,1178238665286524,-0.0402875,-0.0617375,-0.018975
1679998250313,1178238667788678,-0.0372625,-0.0617375,-0.0229625
1679998250315,1178238670290755,-0.039325,-0.0666875,-0.0218625
1679998250318,1178238672792918,-0.0372625,-0.070675,-0.0209
1679998250321,1178238675295071,-0.0372625,-0.076725,-0.0229625
1679998250323,1178238677797225,-0.0402875,-0.081675,-0.0209
1679998250325,1178238680299148,-0.0433125,-0.0807125,-0.023924999
1679998250329,1178238682801274,-0.044275,-0.0807125,-0.023924999
1679998250331,1178238685303351,-0.0452375,-0.0807125,-0.0259875
1679998250333,1178238687805582,-0.0452375,-0.07975,-0.0229625
1679998250336,1178238690307736,-0.0452375,-0.07975,-0.0218625
1679998250338,1178238692809813,-0.0422125,-0.0807125,-0.017875
1679998250341,1178238695311957,-0.0402875,-0.082775,-0.0119624995
1679998250344,1178238697813880,-0.0402875,-0.0837375,-0.006875
1679998250347,1178238700316034,-0.039325,-0.0847,-0.0039875
1679998250348,1178238702818110,-0.038225,-0.0847,-0.001925
1679998250351,1178238705320356,-0.028324999,-0.087725,0.0011
1679998250353,1178238707822510,-0.0213125,-0.087725,0.0020625
1679998250355,1178238710324587,-0.0202125,-0.0867625,0.0011
1679998250358,1178238712826510,-0.0182875,-0.09075,0.0011
1679998250361,1178238715328635,-0.017324999,-0.0886875,-9.625E-4
1679998250362,1178238717830789,-0.017324999,-0.092675,-0.001925
1679998250365,1178238720332866,-0.0143,-0.093775,-0.0039875
1679998250368,1178238722835097,-0.015262499,-0.093775,-0.007975
1679998250371,1178238725337178,-0.015262499,-0.095699996,-0.0108624995
1679998250373,1178238727839332,-0.017324999,-0.0947375,-0.0149875
1679998250375,1178238730341255,-0.0202125,-0.09075,-0.018975
1679998250377,1178238732843409,-0.022275,-0.0947375,-0.0229625
1679998250382,1178238735345477,-0.0242,-0.09075,-0.02695
1679998250385,1178238737847708,-0.0292875,-0.0856625,-0.0319
1679998250386,1178238740349785,-0.0323125,-0.0847,-0.0328625
1679998250388,1178238742851939,-0.038225,-0.0807125,-0.03795
1679998250392,1178238745354093,-0.0433125,-0.076725,-0.0358875
1679998250393,1178238747856016,-0.044275,-0.070675,-0.0389125
1679998250395,1178238750358170,-0.0512875,-0.0677875,-0.0419375
1679998250397,1178238752860246,-0.052249998,-0.0627,-0.0419375
1679998250401,1178238755362477,-0.052249998,-0.0537625,-0.0438625
1679998250402,1178238757864578,-0.0572,-0.0517,-0.0449625
1679998250405,1178238760366501,-0.0592625,-0.04675,-0.0449625
1679998250408,1178238762868655,-0.055275,-0.038775,-0.045925
1679998250411,1178238765371040,-0.0543125,-0.0297,-0.0499125
1679998250414,1178238767872948,-0.0512875,-0.0177375,-0.0529375
1679998250415,1178238770375025,-0.0482625,-0.010725,-0.0548625
1679998250419,1178238772877179,-0.0433125,-0.0037125,-0.0559625
1679998250422,1178238775379332,-0.0402875,0.0042625,-0.056925
1679998250425,1178238777881255,-0.0372625,0.016224999,-0.061875
1679998250427,1178238780383409,-0.0292875,0.0262625,-0.0658625
1679998250428,1178238782885563,-0.0232375,0.0323125,-0.0699875
1679998250432,1178238785387717,-0.0182875,0.039325,-0.072875
1679998250433,1178238787889794,-0.016224999,0.0452375,-0.0749375
1679998250435,1178238790391948,-0.0122375,0.049225,-0.0779625
1679998250438,1178238792894102,-0.0122375,0.0512875,-0.083875
1679998250440,1178238795396025,-0.011275,0.0562375,-0.086899996
1679998250442,1178238797898179,-0.0033,0.0592625,-0.086899996
1679998250445,1178238800400332,-0.0023375,0.0562375,-0.086899996
1679998250448,1178238802902486,-0.0072875,0.0543125,-0.086899996
1679998250451,1178238805404563,-0.0092124995,0.0532125,-0.084975
1679998250452,1178238807906717,-0.0133375,0.049225,-0.0859375
1679998250456,1178238810408645,-0.016224999,0.0433125,-0.0878625
1679998250458,1178238812910799,-0.0182875,0.0402875,-0.086899996
1679998250461,1178238815413184,-0.0232375,0.0342375,-0.084975
1679998250464,1178238817915107,-0.0262625,0.0262625,-0.084975
1679998250466,1178238820417184,-0.0323125,0.016224999,-0.084975
1679998250468,1178238822919319,-0.038225,2.75E-4,-0.0859375
1679998250471,1178238825421242,-0.0463375,-0.016775,-0.0859375
1679998250472,1178238827923395,-0.049225,-0.0336875,-0.0859375
1679998250475,1178238830425549,-0.0562375,-0.049775,-0.0878625
1679998250478,1178238832927717,-0.0642125,-0.0666875,-0.089925
1679998250481,1178238835429871,-0.072325,-0.0886875,-0.0939125
1679998250483,1178238837931948,-0.0793375,-0.1137125,-0.0979
1679998250485,1178238840434102,-0.089237496,-0.1296625,-0.1018875
1679998250488,1178238842936251,-0.0972125,-0.14973749,-0.105875
1679998250491,1178238845438174,-0.1062875,-0.17173749,-0.1079375
1679998250494,1178238847940328,-0.1082125,-0.19373749,-0.1098625
1679998250497,1178238850442481,-0.113299996,-0.2167,-0.11495
1679998250498,1178238852944635,-0.1172875,-0.23773749,-0.1159125
1679998250501,1178238855446731,-0.121275,-0.257675,-0.1189375
1679998250503,1178238857948885,-0.122237496,-0.269775,-0.1249875
1679998250505,1178238860450808,-0.121275,-0.2817375,-0.1249875
1679998250508,1178238862952962,-0.1282875,-0.2957625,-0.1249875
1679998250511,1178238865455126,-0.126225,-0.3067625,-0.122925
1679998250513,1178238867957280,-0.1252625,-0.313775,-0.12595
1679998250515,1178238870459434,-0.121275,-0.3117125,-0.12595
1679998250518,1178238872961504,-0.122237496,-0.3117125,-0.1238875
1679998250521,1178238875463428,-0.1203125,-0.312675,-0.1249875
1679998250523,1178238877965581,-0.1142625,-0.3086875,-0.1318625
1679998250525,1178238880467966,-0.111237496,-0.301675,-0.1318625
1679998250529,1178238882969889,-0.1082125,-0.29067498,-0.133925
1679998250532,1178238885472053,-0.1062875,-0.279675,-0.1309
1679998250533,1178238887974130,-0.0983125,-0.269775,-0.1318625
1679998250536,1178238890476284,-0.09625,-0.252725,-0.13695
1679998250537,1178238892978207,-0.093225,-0.2316875,-0.138875
1679998250541,1178238895480356,-0.089237496,-0.2167,-0.14093749
1679998250543,1178238897982740,-0.083325,-0.1986875,-0.144925
1679998250545,1178238900484663,-0.0803,-0.1747625,-0.150975
1679998250548,1178238902986740,-0.0752125,-0.1607375,-0.1538625
1679998250551,1178238905488913,-0.071225,-0.1417625,-0.15895
1679998250553,1178238907991067,-0.0683375,-0.1227875,-0.166925
1679998250555,1178238910492990,-0.06325,-0.1057375,-0.171875
1679998250558,1178238912995144,-0.061325,-0.0886875,-0.177925
1679998250561,1178238915497284,-0.0573375,-0.071775,-0.18287499
1679998250563,1178238917999438,-0.0583,-0.0526625,-0.1868625
1679998250565,1178238920501515,-0.0543125,-0.0367125,-0.194975
1679998250569,1178238923003668,-0.0512875,-0.0207625,-0.2019875
1679998250572,1178238925505803,-0.050325,-0.010725,-0.2019875
1679998250573,1178238928007726,-0.052249998,0.0012375,-0.20487499
1679998250575,1178238930509880,-0.0583,0.011275,-0.210925
1679998250578,1178238933012034,-0.0622875,0.0182875,-0.2149125
1679998250583,1178238935514188,-0.0642125,0.0182875,-0.215875
1679998250584,1178238938016255,-0.0642125,0.01925,-0.215875
1679998250586,1178238940518409,-0.072325,0.0202125,-0.221925
1679998250588,1178238943020332,-0.0763125,0.016224999,-0.2259125
1679998250591,1178238945522486,-0.0793375,0.0072875,-0.22495
1679998250593,1178238948024870,-0.0842875,-0.0017875,-0.2239875
1679998250595,1178238950526779,-0.091299996,-0.0127875,-0.2259125
1679998250598,1178238953028856,-0.093225,-0.021724999,-0.22687499
1679998250601,1178238955531010,-0.0983125,-0.038775,-0.227975
1679998250603,1178238958033164,-0.104225,-0.054725,-0.22687499
1679998250607,1178238960535068,-0.10725,-0.0697125,-0.22495
1679998250608,1178238963037222,-0.10725,-0.0867625,-0.2259125
1679998250612,1178238965539376,-0.1123375,-0.103675,-0.22687499
1679998250613,1178238968041530,-0.1142625,-0.1227875,-0.2259125
1679998250615,1178238970543607,-0.1172875,-0.137775,-0.22893749
1679998250618,1178238973045784,-0.1172875,-0.1557875,-0.22893749
1679998250621,1178238975547938,-0.1172875,-0.17875,-0.2308625
1679998250624,1178238978049861,-0.121275,-0.197725,-0.2308625
1679998250626,1178238980552015,-0.1233375,-0.2167,-0.2308625
1679998250628,1178238983054169,-0.1302125,-0.23773749,-0.2308625
1679998250631,1178238985556323,-0.132275,-0.2607,-0.23595
1679998250633,1178238988058400,-0.137225,-0.2707375,-0.2409
1679998250637,1178238990560631,-0.1423125,-0.2877875,-0.243925
1679998250638,1178238993062722,-0.1442375,-0.3037375,-0.2448875
1679998250641,1178238995564645,-0.149325,-0.3207875,-0.2479125
1679998250644,1178238998066798,-0.1552375,-0.3306875,-0.24887499
1679998250646,1178239000568952,-0.159225,-0.3377,-0.2539625
1679998250648,1178239003071029,-0.1632125,-0.3507625,-0.254925
1679998250651,1178239005573169,-0.1662375,-0.357775,-0.2558875
1679998250653,1178239008075323,-0.1683,-0.3606625,-0.2569875
1679998250655,1178239010577477,-0.1742125,-0.368775,-0.25795
1679998250659,1178239013079395,-0.1753125,-0.3647875,-0.25795
1679998250661,1178239015581549,-0.1772375,-0.368775,-0.2589125
1679998250666,1178239018083703,-0.1783375,-0.3707,-0.25795
1679998250667,1178239020585780,-0.1793,-0.3746875,-0.2589125
1679998250668,1178239023087703,-0.1793,-0.3727625,-0.2638625
1679998250673,1178239025590083,-0.1793,-0.3697375,-0.265925
1679998250674,1178239028092237,-0.176275,-0.367675,-0.2638625
1679998250675,1178239030594160,-0.1772375,-0.3636875,-0.265925
1679998250678,1178239033096314,-0.1783375,-0.362725,-0.265925
1679998250682,1178239035598386,-0.1772375,-0.3606625,-0.2668875
1679998250684,1178239038100540,-0.1742125,-0.356675,-0.270875
1679998250686,1178239040602694,-0.170225,-0.357775,-0.276925
1679998250689,1178239043104848,-0.171325,-0.356675,-0.2729375
1679998250692,1178239045606741,-0.1662375,-0.3537875,-0.2778875
1679998250694,1178239048108894,-0.1643125,-0.35475,-0.282975
1679998250696,1178239050610971,-0.165275,-0.356675,-0.2849
1679998250698,1178239053113125,-0.16225,-0.35475,-0.287925
1679998250701,1178239055615279,-0.160325,-0.3587375,-0.287925
1679998250706,1178239058117418,-0.1612875,-0.357775,-0.29095
1679998250707,1178239060619572,-0.160325,-0.362725,-0.2968625
1679998250709,1178239063121495,-0.1552375,-0.3727625,-0.2968625
1679998250711,1178239065623649,-0.15125,-0.3837625,-0.2979625
1679998250714,1178239068125803,-0.1563375,-0.3966875,-0.2968625
1679998250716,1178239070627884,-0.1533125,-0.4137375,-0.2998875
1679998250719,1178239073129808,-0.1563375,-0.4307875,-0.2998875
1679998250722,1178239075632192,-0.1632125,-0.445775,-0.3059375
1679998250724,1178239078134115,-0.17325,-0.46873748,-0.3009875
1679998250726,1178239080636264,-0.182325,-0.4907375,-0.2998875
1679998250728,1178239083138418,-0.1912625,-0.5137,-0.3009875
1679998250731,1178239085640495,-0.2013,-0.5427125,-0.2998875
1679998250733,1178239088142649,-0.2132625,-0.566775,-0.293975
1679998250735,1178239090644803,-0.2303125,-0.598675,-0.2919125
1679998250738,1178239093146980,-0.242275,-0.632775,-0.287925
1679998250741,1178239095649134,-0.2553375,-0.6677,-0.28393748
1679998250744,1178239098151057,-0.27225,-0.7007,-0.28187498
1679998250745,1178239100653134,-0.286275,-0.7277875,-0.271975
1679998250748,1178239103155288,-0.3003,-0.7566625,-0.2668875
1679998250754,1178239105657442,-0.3152875,-0.785675,-0.25795
1679998250755,1178239108159596,-0.330275,-0.8116625,-0.2528625
1679998250757,1178239110661750,-0.341275,-0.8327,-0.24887499
1679998250759,1178239113163692,-0.35021248,-0.85469997,-0.2429625
1679998250762,1178239115665846,-0.363275,-0.8666625,-0.2409
1679998250764,1178239118167923,-0.3773,-0.8757375,-0.238975
1679998250767,1178239120670076,-0.3862375,-0.8817875,-0.238975
1679998250769,1178239123172307,-0.3953125,-0.8897625,-0.238975
1679998250771,1178239125674399,-0.402325,-0.8886625,-0.238975
1679998250774,1178239128176322,-0.4093375,-0.890725,-0.2418625
1679998250775,1178239130678476,-0.413325,-0.8877,-0.24695
1679998250778,1178239133180630,-0.418275,-0.8837125,-0.24695
1679998250783,1178239135682707,-0.4192375,-0.873675,-0.2519
1679998250784,1178239138184861,-0.418275,-0.8597875,-0.2569875
1679998250786,1178239140687015,-0.4142875,-0.8457625,-0.260975
1679998250788,1178239143189168,-0.4112625,-0.82568747,-0.2638625
1679998250792,1178239145691073,-0.40425,-0.8047875,-0.2668875
1679998250794,1178239148193226,-0.39833748,-0.7827875,-0.26895
1679998250797,1178239150695380,-0.3922875,-0.7596875,-0.2679875
1679998250798,1178239153197457,-0.3832125,-0.7337,-0.270875
1679998250801,1178239155699380,-0.3663,-0.70675,-0.2668875
1679998250803,1178239158201745,-0.3592875,-0.6777375,-0.2699125
1679998250807,1178239160703899,-0.346225,-0.6477625,-0.2679875
1679998250809,1178239163205822,-0.3372875,-0.6166875,-0.2679875
1679998250811,1178239165707976,-0.3232625,-0.588775,-0.2649625
1679998250814,1178239168210053,-0.3092375,-0.565675,-0.2619375
1679998250815,1178239170712206,-0.2993375,-0.5407875,-0.259875
1679998250818,1178239173214437,-0.292325,-0.5157625,-0.2558875
1679998250821,1178239175716514,-0.2822875,-0.4907375,-0.2519
1679998250824,1178239178218423,-0.27225,-0.46873748,-0.249975
1679998250826,1178239180720577,-0.2652375,-0.4477,-0.24695
1679998250828,1178239183222731,-0.2602875,-0.434775,-0.2399375
1679998250832,1178239185724808,-0.2572625,-0.4186875,-0.238975
1679998250834,1178239188226952,-0.2542375,-0.40974998,-0.2349875
1679998250836,1178239190729106,-0.2553375,-0.4027375,-0.232925
1679998250838,1178239193231259,-0.2563,-0.3966875,-0.22893749
1679998250841,1178239195733182,-0.2563,-0.3927,-0.227975
1679998250845,1178239198235302,-0.2572625,-0.390775,-0.22687499
1679998250846,1178239200737456,-0.2602875,-0.38775,-0.2198625
1679998250848,1178239203239533,-0.26125,-0.3917375,-0.215875
1679998250851,1178239205741456,-0.2633125,-0.3917375,-0.2118875
1679998250853,1178239208243841,-0.269225,-0.3947625,-0.2118875
1679998250855,1178239210746015,-0.2743125,-0.401775,-0.2118875
1679998250858,1178239213247938,-0.280225,-0.4037,-0.210925
1679998250861,1178239215750015,-0.286275,-0.412775,-0.2099625
1679998250864,1178239218252245,-0.2883375,-0.4197875,-0.210925
1679998250866,1178239220754433,-0.2993375,-0.4257,-0.20487499
1679998250869,1178239223256510,-0.30525,-0.433675,-0.1989625
1679998250872,1178239225758433,-0.3113,-0.44275,-0.1969
1679998250873,1178239228260587,-0.3172125,-0.4486625,-0.19195
1679998250876,1178239230762770,-0.3232625,-0.455675,-0.193875
1679998250878,1178239233264924,-0.330275,-0.4657125,-0.1879625
1679998250881,1178239235767001,-0.336325,-0.472725,-0.1819125
1679998250884,1178239238269155,-0.3403125,-0.4797375,-0.177925
1679998250887,1178239240771290,-0.346225,-0.488675,-0.16995
1679998250891,1178239243273213,-0.3482875,-0.4917,-0.1659625
1679998250891,1178239245775366,-0.3532375,-0.494725,-0.1568875
1679998250893,1178239248277443,-0.3532375,-0.500775,-0.150975
1679998250895,1178239250779674,-0.358325,-0.5036625,-0.144925
1679998250898,1178239253281746,-0.357225,-0.5077875,-0.1419
1679998250900,1178239255783900,-0.357225,-0.5077875,-0.133925
1679998250903,1178239258286054,-0.3553,-0.5066875,-0.127875
1679998250907,1178239260787948,-0.3532375,-0.5036625,-0.1219625
1679998250908,1178239263290025,-0.35021248,-0.5017375,-0.1189375
1679998250911,1178239265792179,-0.347325,-0.49774998,-0.1128875
1679998250913,1178239268294409,-0.3433375,-0.494725,-0.1098625
1679998250915,1178239270796486,-0.33825,-0.4907375,-0.106975
1679998250919,1178239273298674,-0.335225,-0.4816625,-0.10395
1679998250922,1178239275800597,-0.3293125,-0.4747875,-0.100925
1679998250924,1178239278302751,-0.3262875,-0.46873748,-0.094875
1679998250926,1178239280804828,-0.3202375,-0.4626875,-0.0908875
1679998250928,1178239283307035,-0.314325,-0.455675,-0.0878625
1679998250931,1178239285809189,-0.30525,-0.445775,-0.083875
1679998250933,1178239288311266,-0.2963125,-0.4367,-0.0768625
1679998250935,1178239290813189,-0.291225,-0.428725,-0.0749375
1679998250938,1178239293315347,-0.2883375,-0.4186875,-0.0749375
1679998250941,1178239295817500,-0.2792625,-0.4137375,-0.0749375
1679998250945,1178239298319577,-0.27225,-0.406725,-0.07095
1679998250947,1178239300821808,-0.2662,-0.3977875,-0.0688875
1679998250948,1178239303323900,-0.2602875,-0.395725,-0.0688875
1679998250951,1178239305826054,-0.2552,-0.3966875,-0.0719125
1679998250953,1178239308327977,-0.25025,-0.395725,-0.0688875
1679998250955,1178239310830131,-0.2492875,-0.3997125,-0.0688875
1679998250958,1178239313332285,-0.2512125,-0.4076875,-0.0699875
1679998250962,1178239315834376,-0.25025,-0.406725,-0.07095
1679998250963,1178239318336529,-0.253275,-0.4107125,-0.0669625
1679998250965,1178239320838683,-0.2552,-0.417725,-0.0688875
1679998250968,1178239323340837,-0.2602875,-0.42473748,-0.0669625
1679998250971,1178239325842794,-0.26427498,-0.4296875,-0.0669625
1679998250973,1178239328344948,-0.2712875,-0.4406875,-0.062975
1679998250975,1178239330847025,-0.2762375,-0.4486625,-0.0589875
1679998250978,1178239333349256,-0.2822875,-0.4587,-0.056925
1679998250982,1178239335851391,-0.292325,-0.4706625,-0.056925
1679998250985,1178239338353468,-0.297275,-0.4816625,-0.051975
1679998250987,1178239340855621,-0.30525,-0.4907375,-0.0438625
1679998250989,1178239343357545,-0.3102,-0.500775,-0.039875
1679998250993,1178239345859683,-0.3172125,-0.5146625,-0.034925
1679998250997,1178239348361760,-0.3262875,-0.5256625,-0.028875
1679998250998,1178239350863991,-0.335225,-0.54175,-0.023924999
1679998250999,1178239353366068,-0.33825,-0.554675,-0.0199375
1679998251001,1178239355868222,-0.3443,-0.5647125,-0.01595
1679998251004,1178239358370145,-0.34925,-0.577775,-0.0099
1679998251006,1178239360872299,-0.3562625,-0.5867125,-0.0059125
1679998251009,1178239363374453,-0.3642375,-0.59675,-0.0028875
1679998251011,1178239365876607,-0.3642375,-0.598675,1.375E-4
1679998251013,1178239368378683,-0.3672625,-0.6017,0.003025
1679998251015,1178239370880856,-0.374275,-0.6087125,0.0011
1679998251020,1178239373383010,-0.3782625,-0.6117375,0.004125
1679998251022,1178239375884933,-0.379225,-0.6136625,0.004125
1679998251027,1178239378387044,-0.3773,-0.610775,0.0050875
1679998251028,1178239380889121,-0.3773,-0.6087125,0.00605
1679998251030,1178239383391352,-0.3762,-0.60775,0.004125
1679998251032,1178239385893429,-0.37125,-0.6017,0.003025
1679998251034,1178239388395583,-0.36519998,-0.5946875,0.004125
1679998251036,1178239390897736,-0.363275,-0.5957875,0.0011
1679998251038,1178239393399659,-0.358325,-0.5867125,-0.0028875
1679998251041,1178239395901736,-0.3542,-0.582725,-0.0028875
1679998251043,1178239398403890,-0.3452625,-0.5806625,-0.006875
1679998251045,1178239400906121,-0.335225,-0.5757125,-0.007975
1679998251048,1178239403408184,-0.3322,-0.57475,-0.0099
1679998251051,1178239405910338,-0.32725,-0.5687,-0.0108624995
1679998251053,1178239408412261,-0.3212,-0.5677375,-0.012925
1679998251057,1178239410914419,-0.3152875,-0.565675,-0.0169125
1679998251059,1178239413416496,-0.3122625,-0.5627875,-0.018975
1679998251061,1178239415918726,-0.3122625,-0.5597625,-0.01595
1679998251064,1178239418420803,-0.3102,-0.5577,-0.01595
1679998251066,1178239420922957,-0.314325,-0.5597625,-0.0209
1679998251068,1178239423424880,-0.3092375,-0.5597625,-0.0218625
1679998251074,1178239425927034,-0.3113,-0.56168747,-0.0229625
1679998251076,1178239428429188,-0.3122625,-0.560725,-0.023924999
1679998251077,1178239430931265,-0.314325,-0.566775,-0.02695
1679998251078,1178239433433501,-0.314325,-0.56374997,-0.0279125
1679998251081,1178239435935578,-0.31625,-0.565675,-0.0339625
1679998251083,1178239438437732,-0.314325,-0.5687,-0.0339625
1679998251086,1178239440939885,-0.3172125,-0.5696625,-0.034925
1679998251088,1178239443441803,-0.31625,-0.5737875,-0.0369875
1679998251094,1178239445943957,-0.3172125,-0.5737875,-0.03795
1679998251095,1178239448446111,-0.31625,-0.577775,-0.03795
1679998251097,1178239450948188,-0.31625,-0.5797,-0.0389125
1679998251098,1178239453450342,-0.3152875,-0.582725,-0.039875
1679998251101,1178239455952501,-0.319275,-0.5847875,-0.0389125
1679998251104,1178239458454424,-0.319275,-0.5847875,-0.0429
1679998251105,1178239460956809,-0.31625,-0.5867125,-0.0429
1679998251108,1178239463458732,-0.3152875,-0.5867125,-0.040975
1679998251110,1178239465960800,-0.3172125,-0.5897375,-0.040975
1679998251114,1178239468462953,-0.3202375,-0.5916625,-0.0419375
1679998251115,1178239470965107,-0.3202375,-0.593725,-0.0429
1679998251119,1178239473467030,-0.3232625,-0.593725,-0.039875
1679998251121,1178239475969174,-0.3262875,-0.5916625,-0.039875
1679998251123,1178239478471328,-0.32725,-0.5916625,-0.03795
1679998251126,1178239480973482,-0.3282125,-0.5806625,-0.0358875
1679998251128,1178239483475636,-0.3333,-0.5787375,-0.0339625
1679998251132,1178239485977689,-0.3312375,-0.576675,-0.0369875
1679998251134,1178239488479612,-0.3312375,-0.5757125,-0.0389125
1679998251136,1178239490981766,-0.3322,-0.5687,-0.03795
1679998251138,1178239493484150,-0.3312375,-0.5647125,-0.0389125
1679998251144,1178239495986058,-0.3282125,-0.5506875,-0.0419375
1679998251145,1178239498488212,-0.3262875,-0.5396875,-0.0449625
1679998251148,1178239500990289,-0.3212,-0.5267625,-0.050875
1679998251149,1178239503492443,-0.3152875,-0.5097125,-0.0548625
1679998251151,1178239505994347,-0.3073125,-0.494725,-0.062975
1679998251153,1178239508496501,-0.2982375,-0.47575,-0.067925
1679998251156,1178239510998655,-0.2893,-0.4626875,-0.073975
1679998251158,1178239513500809,-0.27719998,-0.4477,-0.083875
1679998251161,1178239516002899,-0.2662,-0.428725,-0.09295
1679998251164,1178239518505053,-0.253275,-0.417725,-0.0999625
1679998251166,1178239521007207,-0.236225,-0.401775,-0.106975
1679998251171,1178239523509130,-0.2193125,-0.38775,-0.117975
1679998251173,1178239526011549,-0.2072125,-0.38073748,-0.127875
1679998251174,1178239528513472,-0.19525,-0.3727625,-0.133925
1679998251176,1178239531015626,-0.1802625,-0.36574998,-0.139975
1679998251178,1178239533517703,-0.1672,-0.3606625,-0.1489125
1679998251181,1178239536019857,-0.15125,-0.351725,-0.1549625
1679998251186,1178239538521780,-0.1412125,-0.3507625,-0.160875
1679998251187,1178239541023934,-0.12925,-0.3477375,-0.166925
1679998251189,1178239543526087,-0.122237496,-0.3487,-0.171875
1679998251191,1178239546028241,-0.113299996,-0.351725,-0.1758625
1679998251193,1178239548530395,-0.105325,-0.3487,-0.1769625
1679998251197,1178239551032506,-0.0983125,-0.351725,-0.1819125
1679998251198,1178239553534660,-0.0902,-0.35475,-0.1898875
1679998251201,1178239556036583,-0.091299996,-0.357775,-0.1909875
1679998251203,1178239558538737,-0.0902,-0.367675,-0.1929125
1679998251207,1178239561041125,-0.0902,-0.37675,-0.1989625
1679998251209,1178239563543049,-0.088275,-0.3927,-0.20295
1679998251212,1178239566045125,-0.0902,-0.4037,-0.20693749
1679998251214,1178239568547279,-0.091299996,-0.4167625,-0.2099625
1679998251216,1178239571049202,-0.0922625,-0.4307875,-0.2198625
1679998251218,1178239573551347,-0.09625,-0.4467375,-0.2239875
1679998251221,1178239576053732,-0.0952875,-0.46667498,-0.22893749
1679998251224,1178239578555655,-0.0983125,-0.4827625,-0.237875
1679998251228,1178239581057732,-0.1062875,-0.5036625,-0.2429625
1679998251229,1178239583559915,-0.110275,-0.527725,-0.2448875
1679998251232,1178239586062069,-0.1142625,-0.5467,-0.2509375
1679998251234,1178239588563992,-0.116325,-0.571725,-0.25795
1679998251236,1178239591066146,-0.1243,-0.5916625,-0.259875
1679998251239,1178239593568308,-0.1282875,-0.6177875,-0.2638625
1679998251241,1178239596070462,-0.1282875,-0.64075,-0.2679875
1679998251245,1178239598572616,-0.1353,-0.664675,-0.2748625
1679998251247,1178239601074693,-0.1423125,-0.6887375,-0.2759625
1679998251248,1178239603576616,-0.1442375,-0.71775,-0.2748625
1679998251251,1178239606078789,-0.1463,-0.7407125,-0.27995
1679998251253,1178239608581174,-0.154275,-0.7627125,-0.276925
1679998251257,1178239611083097,-0.1582625,-0.79475,-0.2809125
1679998251259,1178239613585250,-0.165275,-0.8226625,-0.276925
1679998251262,1178239616087303,-0.1672,-0.851675,-0.2739
1679998251266,1178239618589457,-0.17325,-0.8767,-0.2729375
1679998251267,1178239621091380,-0.1802625,-0.9037875,-0.2699125
1679998251270,1178239623593534,-0.1892,-0.934725,-0.26895
1679998251272,1178239626095934,-0.1992375,-0.961675,-0.2649625
1679998251273,1178239628597857,-0.20927499,-0.989725,-0.2569875
1679998251276,1178239631099934,-0.2162875,-1.0197,-0.254925
1679998251279,1178239633602088,-0.22825,-1.0456874,-0.2528625
1679998251282,1178239636104242,-0.23925,-1.071675,-0.249975
1679998251284,1178239638606165,-0.25025,-1.09175,-0.24887499
1679998251286,1178239641108318,-0.2652375,-1.115675,-0.24695
1679998251291,1178239643610472,-0.2783,-1.132725,-0.2448875
1679998251293,1178239646112611,-0.2902625,-1.1477125,-0.24695
1679998251295,1178239648614688,-0.3042875,-1.159675,-0.2519
1679998251297,1178239651116842,-0.3172125,-1.1757625,-0.2539625
1679998251299,1178239653618996,-0.3282125,-1.1947374,-0.2569875
1679998251302,1178239656120943,-0.3372875,-1.2027125,-0.2649625
1679998251304,1178239658623097,-0.3432,-1.2027125,-0.2699125
1679998251306,1178239661125251,-0.347325,-1.2076625,-0.276925
1679998251308,1178239663627404,-0.3532375,-1.2087625,-0.2858625
1679998251311,1178239666129481,-0.3553,-1.2117875,-0.292875
1679998251313,1178239668631626,-0.36025,-1.2106875,-0.3029125
1679998251316,1178239671133549,-0.3553,-1.2057375,-0.3089625
1679998251320,1178239673635703,-0.3452625,-1.20175,-0.314875
1679998251323,1178239676137857,-0.3403125,-1.1966625,-0.3229875
1679998251325,1178239678639967,-0.3333,-1.1937749,-0.32793748
1679998251327,1178239681142121,-0.3282125,-1.1917125,-0.3328875
1679998251329,1178239683644275,-0.3223,-1.1867625,-0.3399
1679998251332,1178239686146429,-0.313225,-1.182775,-0.3499375
1679998251334,1178239688648376,-0.3092375,-1.1807125,-0.353925
1679998251336,1178239691150529,-0.3073125,-1.1807125,-0.35694999
1679998251338,1178239693652683,-0.302225,-1.176725,-0.359975
1679998251342,1178239696154760,-0.29425,-1.171775,-0.3658875
1679998251344,1178239698656914,-0.291225,-1.170675,-0.36795
1679998251347,1178239701158837,-0.2902625,-1.1746625,-0.370975
1679998251348,1178239703661222,-0.291225,-1.1787875,-0.3738625
1679998251351,1178239706163145,-0.2932875,-1.181675,-0.3749625
1679998251355,1178239708665318,-0.2952125,-1.1867625,-0.375925
1679998251357,1178239711167472,-0.297275,-1.192675,-0.375925
1679998251359,1178239713669548,-0.3003,-1.192675,-0.375925
1679998251362,1178239716171472,-0.30827498,-1.1937749,-0.3729
1679998251364,1178239718673856,-0.31625,-1.19075,-0.3729
1679998251366,1178239721176006,-0.324225,-1.19075,-0.36795
1679998251369,1178239723677929,-0.3322,-1.1966625,-0.3628625
1679998251373,1178239726180083,-0.341275,-1.1996875,-0.358875
1679998251374,1178239728682160,-0.3452625,-1.2067,-0.353925
1679998251376,1178239731184293,-0.35227498,-1.21275,-0.348975
1679998251378,1178239733686447,-0.3592875,-1.214675,-0.3449875
1679998251382,1178239736188600,-0.363275,-1.2207249,-0.3399
1679998251384,1178239738690524,-0.3672625,-1.2307625,-0.3359125
1679998251386,1178239741192692,-0.37125,-1.2307625,-0.3339875
1679998251389,1178239743694769,-0.3722125,-1.237775,-0.3309625
1679998251392,1178239746196923,-0.3762,-1.2406625,-0.3298625
1679998251395,1178239748699058,-0.3762,-1.2387375,-0.326975
1679998251397,1178239751200981,-0.3773,-1.237775,-0.32793748
1679998251399,1178239753703366,-0.3752375,-1.237775,-0.32793748
1679998251401,1178239756205289,-0.3733125,-1.2296625,-0.3309625
1679998251404,1178239758707443,-0.3702875,-1.2296625,-0.3328875
1679998251407,1178239761209601,-0.369325,-1.231725,-0.33495
1679998251409,1178239763711677,-0.36025,-1.2287,-0.3408625
1679998251411,1178239766213601,-0.3553,-1.2227875,-0.3438875
1679998251415,1178239768715985,-0.35227498,-1.2227875,-0.348975
1679998251416,1178239771218120,-0.347325,-1.2247125,-0.3559875
1679998251419,1178239773720043,-0.341275,-1.225675,-0.3579125
1679998251422,1178239776222197,-0.3372875,-1.2247125,-0.3609375
1679998251424,1178239778724274,-0.330275,-1.22375,-0.3689125
1679998251427,1178239781226428,-0.3262875,-1.2247125,-0.375925
1679998251429,1178239783728351,-0.3223,-1.226775,-0.381975
1679998251433,1178239786230735,-0.3223,-1.226775,-0.3889875
1679998251435,1178239788732659,-0.3172125,-1.2307625,-0.3958625
1679998251436,1178239791234812,-0.3152875,-1.23475,-0.3999875
1679998251439,1178239793736875,-0.3172125,-1.236675,-0.4059
1679998251442,1178239796239029,-0.31625,-1.2387375,-0.4129125
1679998251444,1178239798741183,-0.31625,-1.24575,-0.4189625
1679998251446,1178239801243106,-0.3213375,-1.2518,-0.419925
1679998251449,1178239803745491,-0.3232625,-1.2637625,-0.42295
1679998251452,1178239806247414,-0.325325,-1.275725,-0.4329875
1679998251453,1178239808749568,-0.330275,-1.2848,-0.4398625
1679998251456,1178239811251645,-0.336325,-1.2947,-0.4389
1679998251459,1178239813753812,-0.3433375,-1.3057,-0.4439875
1679998251462,1178239816255736,-0.35035,-1.314775,-0.446875
1679998251464,1178239818758120,-0.3553,-1.3267375,-0.4538875
1679998251465,1178239821260043,-0.3623125,-1.3347125,-0.4549875
1679998251469,1178239823762197,-0.3702875,-1.3426875,-0.4549875
1679998251472,1178239826264351,-0.3782625,-1.357675,-0.45787498
1679998251474,1178239828766428,-0.385275,-1.3657875,-0.45993748
1679998251476,1178239831268351,-0.39435,-1.3787125,-0.4648875
1679998251479,1178239833770505,-0.3993,-1.3957624,-0.463925
1679998251481,1178239836272884,-0.4082375,-1.407725,-0.46695
1679998251484,1178239838774807,-0.4203375,-1.4227124,-0.46695
1679998251487,1178239841276961,-0.429275,-1.4416875,-0.468875
1679998251489,1178239843779038,-0.4332625,-1.4597,-0.469975
1679998251492,1178239846281178,-0.44233748,-1.473725,-0.4709375
1679998251493,1178239848783101,-0.451275,-1.4927,-0.4739625
1679998251497,1178239851285486,-0.4582875,-1.5107125,-0.474925
1679998251498,1178239853787409,-0.468325,-1.5217125,-0.4758875
1679998251504,1178239856289548,-0.4763,-1.534775,-0.4758875
1679998251508,1178239858791625,-0.48633748,-1.5467374,-0.474925
1679998251510,1178239861293779,-0.4973375,-1.5626875,-0.474925
1679998251510,1178239863795932,-0.5053125,-1.578775,-0.474925
1679998251513,1178239866297855,-0.5132875,-1.5937625,-0.474925
1679998251518,1178239868800211,-0.523325,-1.6027,-0.4728625
1679998251518,1178239871302134,-0.5322625,-1.616725,-0.4719
1679998251518,1178239873804288,-0.53735,-1.6267625,-0.469975
1679998251521,1178239876306442,-0.5443625,-1.6357,-0.463925
1679998251523,1178239878808510,-0.5493125,-1.649725,-0.463925
1679998251526,1178239881310433,-0.5512375,-1.6627874,-0.45993748
1679998251528,1178239883812587,-0.55825,-1.6707625,-0.4569125
1679998251531,1178239886314971,-0.561275,-1.6808,-0.4549875
1679998251533,1178239888816894,-0.5603125,-1.693725,-0.4508625
1679998251536,1178239891319048,-0.5652625,-1.7037625,-0.4519625
1679998251538,1178239893821125,-0.5682875,-1.709675,-0.447975
1679998251542,1178239896323279,-0.57035,-1.7138,-0.4439875
1679998251545,1178239898825197,-0.5753,-1.709675,-0.441925
1679998251548,1178239901327582,-0.578325,-1.7087125,-0.441925
1679998251549,1178239903829505,-0.58134997,-1.7087125,-0.4409625
1679998251552,1178239906331659,-0.589325,-1.7067875,-0.4379375
1679998251554,1178239908833736,-0.5933125,-1.699775,-0.4389
1679998251556,1178239911335871,-0.594275,-1.6918,-0.4409625
1679998251558,1178239913838024,-0.60225,-1.687675,-0.4409625
1679998251562,1178239916340178,-0.6062375,-1.68575,-0.441925
1679998251565,1178239918842332,-0.61325,-1.676675,-0.44288749
1679998251567,1178239921344255,-0.622325,-1.677775,-0.4499
1679998251569,1178239923846332,-0.6263125,-1.6757125,-0.4508625
1679998251572,1178239926348486,-0.6312625,-1.67475,-0.4508625
1679998251573,1178239928850717,-0.6422625,-1.67475,-0.45595
1679998251576,1178239931352798,-0.6513375,-1.6698,-0.45787498
1679998251578,1178239933854951,-0.6612375,-1.6737875,-0.4629625
1679998251583,1178239936356875,-0.6703125,-1.671725,-0.4659875
1679998251585,1178239938859028,-0.6813125,-1.660725,-0.463925
1679998251587,1178239941361115,-0.6923125,-1.64175,-0.45993748
1679998251591,1178239943863269,-0.7063375,-1.6207125,-0.45993748
1679998251593,1178239946365423,-0.7143125,-1.6017375,-0.4508625
1679998251594,1178239948867577,-0.7272375,-1.5747875,-0.4409625
1679998251598,1178239951369524,-0.743325,-1.5497625,-0.4318875
1679998251599,1178239953871678,-0.7522625,-1.5217125,-0.4208875
1679998251601,1178239956373832,-0.7632625,-1.4877499,-0.4068625
1679998251606,1178239958875909,-0.7753625,-1.45475,-0.3909125
1679998251606,1178239961378139,-0.7913125,-1.4168,-0.3768875
1679998251609,1178239963880230,-0.80025,-1.3877875,-0.3658875
1679998251612,1178239966382384,-0.8102875,-1.35575,-0.3518625
1679998251614,1178239968884307,-0.820325,-1.3267375,-0.3408625
1679998251616,1178239971386461,-0.8292625,-1.30075,-0.3339875
1679998251620,1178239973888538,-0.8413625,-1.2628,-0.32793748
1679998251625,1178239976390692,-0.85525,-1.2298,-0.3218875
1679998251626,1178239978892846,-0.86735,-1.198725,-0.320925
1679998251628,1178239981395000,-0.8713375,-1.159675,-0.315975
1679998251631,1178239983897163,-0.8762875,-1.1147125,-0.3108875
1679998251632,1178239986399087,-0.8823375,-1.0758,-0.303875
1679998251635,1178239988901240,-0.8842625,-1.039775,-0.298925
1679998251636,1178239991403317,-0.88935,-0.995775,-0.2919125
1679998251639,1178239993905471,-0.891275,-0.9497125,-0.282975
1679998251644,1178239996407587,-0.8872875,-0.9037875,-0.2748625
1679998251644,1178239998909741,-0.8842625,-0.8558,-0.2699125
1679998251648,1178240001411664,-0.8762875,-0.807675,-0.2569875
1679998251649,1178240003913818,-0.8633625,-0.7568,-0.243925
1679998251652,1178240006415895,-0.8493375,-0.70867497,-0.22893749
1679998251653,1178240008918058,-0.836275,-0.6667375,-0.2198625
1679998251659,1178240011420211,-0.82335,-0.62273747,-0.2088625
1679998251661,1178240013922365,-0.8072625,-0.5836875,-0.193875
1679998251666,1178240016424264,-0.78925,-0.55275,-0.1819125
1679998251667,1178240018926418,-0.7772875,-0.5267625,-0.1689875
1679998251668,1178240021428572,-0.7632625,-0.500775,-0.1549625
1679998251669,1178240023930649,-0.748275,-0.483725,-0.144925
1679998251672,1178240026432803,-0.7412625,-0.47079998,-0.1379125
1679998251673,1178240028934967,-0.7332875,-0.4587,-0.1269125
1679998251678,1178240031437121,-0.72325,-0.4437125,-0.11495
1679998251681,1178240033939274,-0.7143125,-0.43175,-0.106975
1679998251683,1178240036441197,-0.7063375,-0.4327125,-0.095975
1679998251684,1178240038943269,-0.6953375,-0.433675,-0.084975
1679998251687,1178240041445423,-0.6853,-0.4357375,-0.073975
1679998251690,1178240043947577,-0.6763625,-0.4417875,-0.05995
1679998251692,1178240046449731,-0.6642625,-0.4467375,-0.0529375
1679998251695,1178240048951890,-0.6523,-0.456775,-0.0429
1679998251698,1178240051453813,-0.63635,-0.4626875,-0.0339625
1679998251699,1178240053955967,-0.6183375,-0.4657125,-0.0328625
1679998251702,1178240056458044,-0.6043125,-0.4736875,-0.0229625
1679998251704,1178240058960198,-0.5853375,-0.4797375,-0.0169125
1679998251706,1178240061462433,-0.5652625,-0.4937625,-0.017875
1679998251709,1178240063964510,-0.545325,-0.5038,-0.012925
1679998251712,1178240066466433,-0.5303375,-0.511775,-0.0108624995
1679998251714,1178240068968587,-0.5113625,-0.5237375,-0.012925
1679998251717,1178240071470761,-0.4912875,-0.5317125,-0.0099
1679998251720,1178240073972838,-0.4753375,-0.544775,-0.0089375
1679998251722,1178240076474992,-0.4653,-0.5577,-0.0108624995
1679998251724,1178240078977146,-0.44825,-0.5726875,-0.0108624995
1679998251726,1178240081479300,-0.435325,-0.5847875,-0.0119624995
1679998251729,1178240083981223,-0.4233625,-0.598675,-0.0119624995
1679998251733,1178240086483376,-0.4112625,-0.6117375,-0.0149875
1679998251734,1178240088985453,-0.40425,-0.62273747,-0.012925
1679998251736,1178240091487607,-0.39833748,-0.64075,-0.0119624995
1679998251738,1178240093989761,-0.3922875,-0.6557375,-0.0108624995
1679998251742,1178240096491915,-0.3892625,-0.66275,-0.0108624995
1679998251744,1178240098994069,-0.3862375,-0.676775,-0.006875
1679998251748,1178240101495977,-0.38225,-0.6857125,-0.0028875
1679998251750,1178240103998054,-0.3812875,-0.7007,-9.625E-4
1679998251752,1178240106500208,-0.38225,-0.7117,0.0011
1679998251753,1178240109002362,-0.3862375,-0.7238,0.004125
1679998251756,1178240111504510,-0.3892625,-0.730675,0.0111375
1679998251759,1178240114006664,-0.39325,-0.741675,0.0160875
1679998251762,1178240116508587,-0.402325,-0.7547375,0.0160875
1679998251765,1178240119010741,-0.4082375,-0.7627125,0.0210375
1679998251766,1178240121512794,-0.413325,-0.7678,0.025024999
1679998251770,1178240124014948,-0.42625,-0.7777,0.0301125
1679998251773,1178240126517102,-0.43835,-0.7877375,0.0331375
1679998251775,1178240129019256,-0.446325,-0.7926875,0.0380875
1679998251776,1178240131521179,-0.4563625,-0.797775,0.0411125
1679998251779,1178240134023324,-0.46928748,-0.8036875,0.0411125
1679998251783,1178240136525401,-0.4772625,-0.80079997,0.042075
1679998251785,1178240139027631,-0.4783625,-0.8067125,0.0430375
1679998251786,1178240141529708,-0.48235,-0.8036875,0.0430375
1679998251788,1178240144031876,-0.4893625,-0.7957125,0.0441375
1679998251792,1178240146534030,-0.49225,-0.79475,0.0430375
1679998251793,1178240149035953,-0.4912875,-0.7877375,0.042075
1679998251797,1178240151538030,-0.48633748,-0.7777,0.042075
1679998251799,1178240154040174,-0.4802875,-0.76876247,0.042075
1679998251801,1178240156542405,-0.47025,-0.753775,0.0400125
1679998251804,1178240159044481,-0.45925,-0.741675,0.037125
1679998251807,1178240161546405,-0.44935,-0.7337,0.037125
1679998251811,1178240164048592,-0.43725,-0.7247625,0.0331375
1679998251813,1178240166550746,-0.4252875,-0.71073747,0.0290125
1679998251816,1178240169052900,-0.40535,-0.70867497,0.025024999
1679998251818,1178240171555054,-0.3892625,-0.698775,0.0221375
1679998251819,1178240174057131,-0.3752375,-0.6947875,0.015125
1679998251823,1178240176559270,-0.3642375,-0.6917625,0.0081124995
1679998251824,1178240179061193,-0.347325,-0.681725,0.0011
1679998251826,1178240181563347,-0.3323375,-0.6727875,-0.007975
1679998251829,1178240184065501,-0.3243625,-0.6617875,-0.01595
1679998251831,1178240186567577,-0.3133625,-0.6468,-0.018975
1679998251834,1178240189069765,-0.303325,-0.6307125,-0.0279125
1679998251836,1178240191571919,-0.2913625,-0.6177875,-0.0429
1679998251839,1178240194074073,-0.281325,-0.6056875,-0.051975
1679998251841,1178240196575996,-0.2773375,-0.588775,-0.056925
1679998251845,1178240199078136,-0.270325,-0.5757125,-0.0658625
1679998251848,1178240201580213,-0.26633748,-0.5647125,-0.07095
1679998251849,1178240204082444,-0.2633125,-0.555775,-0.0749375
1679998251852,1178240206584598,-0.259325,-0.5457375,-0.08195
1679998251854,1178240209086674,-0.2553375,-0.544775,-0.08195
1679998251856,1178240211588602,-0.253275,-0.5487625,-0.0829125
1679998251859,1178240214090755,-0.2542375,-0.555775,-0.084975
1679998251863,1178240216592909,-0.253275,-0.565675,-0.084975
1679998251865,1178240219094986,-0.2473625,-0.576675,-0.0859375
1679998251867,1178240221597203,-0.2453,-0.5808,-0.0859375
1679998251869,1178240224099280,-0.2462625,-0.5927625,-0.083875
1679998251871,1178240226601434,-0.2432375,-0.598675,-0.083875
1679998251874,1178240229103357,-0.2343,-0.6017,-0.08195
1679998251876,1178240231605511,-0.2343,-0.6028,-0.0809875
1679998251879,1178240234107679,-0.22935,-0.6017,-0.083875
1679998251883,1178240236609755,-0.2233,-0.599775,-0.083875
1679998251885,1178240239111909,-0.21725,-0.5977125,-0.084975
1679998251887,1178240241614059,-0.20625,-0.6067875,-0.0908875
1679998251889,1178240244116213,-0.2052875,-0.621775,-0.0908875
1679998251892,1178240246618136,-0.2013,-0.637725,-0.0908875
1679998251895,1178240249120290,-0.20927499,-0.6578,-0.0939125
1679998251897,1178240251622386,-0.2102375,-0.675675,-0.0979
1679998251899,1178240254124617,-0.2132625,-0.6908,-0.0999625
1679998251903,1178240256626694,-0.2193125,-0.7057875,-0.100925
1679998251905,1178240259128847,-0.2242625,-0.7167875,-0.10395
1679998251906,1178240261630770,-0.22825,-0.725725,-0.105875
1679998251909,1178240264132929,-0.237325,-0.7337,-0.106975
1679998251911,1178240266635006,-0.24035,-0.7387875,-0.1079375
1679998251914,1178240269137160,-0.242275,-0.7447,-0.1098625
1679998251916,1178240271639391,-0.2432375,-0.7486875,-0.108899996
1679998251920,1178240274141472,-0.2473625,-0.7547375,-0.1128875
1679998251926,1178240276643626,-0.25025,-0.7596875,-0.111925
1679998251927,1178240279145549,-0.2462625,-0.7557,-0.1109625
1679998251929,1178240281647703,-0.2462625,-0.7557,-0.108899996
1679998251931,1178240284149856,-0.2462625,-0.7557,-0.106975
1679998251933,1178240286651933,-0.2453,-0.7517125,-0.1098625
1679998251935,1178240289154087,-0.2453,-0.747725,-0.1109625
1679998251937,1178240291656241,-0.23925,-0.7447,-0.1109625
1679998251940,1178240294158164,-0.2363625,-0.7407125,-0.1128875
1679998251943,1178240296660332,-0.237325,-0.741675,-0.111925
1679998251944,1178240299162486,-0.23333749,-0.73768747,-0.111925
1679998251948,1178240301664563,-0.2303125,-0.72875,-0.1109625
1679998251949,1178240304166717,-0.23127499,-0.7217375,-0.1098625
1679998251952,1178240306668871,-0.23127499,-0.7126625,-0.106975
1679998251954,1178240309171043,-0.2303125,-0.7016625,-0.106975
1679998251958,1178240311672966,-0.2343,-0.6947875,-0.1049125
1679998251962,1178240314175120,-0.2343,-0.6906625,-0.10395
1679998251964,1178240316677197,-0.2332,-0.6826875,-0.1018875
1679998251965,1178240319179332,-0.2432375,-0.6747125,-0.10395
1679998251967,1178240321681563,-0.248325,-0.66275,-0.1029875
1679998251969,1178240324183640,-0.2542375,-0.6466625,-0.100925
1679998251972,1178240326685563,-0.258225,-0.6347,-0.1018875
1679998251974,1178240329187717,-0.2673,-0.6246625,-0.0979
1679998251977,1178240331689871,-0.2792625,-0.609675,-0.0919875
1679998251979,1178240334191948,-0.2872375,-0.6007375,-0.0939125
1679998251983,1178240336694178,-0.30827498,-0.5586625,-0.0908875
1679998251985,1178240339196250,-0.4873,-0.2277,-0.0479875
1679998251987,1178240341698173,-0.9752875,0.6122875,0.0730125
1679998251989,1178240344200327,-1.6643,1.54825,0.2690875
1679998251992,1178240346702481,-2.1192875,1.7472125,0.377025
1679998251996,1178240349204563,-2.1692,1.2233375,0.3531
1679998251998,1178240351706717,-2.035275,0.5643,0.2861375
1679998252000,1178240354208871,-1.8942,0.137225,0.223025
1679998252002,1178240356711024,-1.8583125,0.1463,0.201025
1679998252004,1178240359212948,-2.02125,0.5652625,0.2490125
1679998252007,1178240361715092,-2.173325,0.8402625,0.3040125
1679998252009,1178240364217246,-2.15325,0.6752625,0.306075
1679998252012,1178240366719400,-2.04325,0.4442625,0.2960375
1679998252015,1178240369221477,-2.007225,0.4882625,0.306075
1679998252017,1178240371723644,-1.9722999,0.72421247,0.2861375
1679998252019,1178240374225798,-1.7303,1.1433125,0.1280125
1679998252023,1178240376727721,-0.3293125,3.46225,-0.425975
1679998252024,1178240379229798,0.8287125,4.5233374,-0.512875
1679998252027,1178240381732029,0.16775,3.1682749,-0.073975
1679998252029,1178240384234115,-0.578325,2.4413126,0.097075
1679998252033,1178240386736269,-0.5643,2.6912875,-0.1249875
1679998252035,1178240389238423,0.3007125,3.49525,-0.227975
1679998252037,1178240391740346,-0.0543125,2.712325,-0.0688875
1679998252039,1178240394242442,-0.104225,2.7002249,-0.0529375
1679998252043,1178240396744596,-0.027224999,2.5722125,-0.0438625
1679998252045,1178240399246827,-0.027224999,2.3683,0.015125
1679998252047,1178240401748904,-0.027224999,2.128225,0.02805
1679998252049,1178240404250808,0.0037125,1.90025,0.031075
1679998252052,1178240406752962,-0.0213125,1.5932125,0.014025
1679998252054,1178240409255116,-0.015262499,1.2962124,0.009075
1679998252057,1178240411757192,0.0017875,1.012275,0.0121
1679998252061,1178240414259399,0.005775,0.74525,0.009075
1679998252063,1178240416761476,0.0067375,0.517275,0.0070125
1679998252065,1178240419263630,0.010725,0.3213375,0.0081124995
1679998252067,1178240421765553,0.016775,0.1582625,0.00605
1679998252072,1178240424267712,0.0207625,0.0243375,0.0050875
1679998252073,1178240426769789,0.02475,-0.082775,0.0011
1679998252075,1178240429271943,0.0207625,-0.159775,0.003025
1679998252077,1178240431774097,0.0187,-0.2066625,0.004125
1679998252079,1178240434276250,0.0198,-0.230725,0.0020625
1679998252082,1178240436778169,0.01375,-0.2327875,0.0011
1679998252084,1178240439280322,0.010725,-0.21367499,0.0020625
1679998252087,1178240441782476,0.0067375,-0.1846625,0.003025
1679998252089,1178240444284553,0.005775,-0.14973749,0.004125
1679998252092,1178240446786683,0.0037125,-0.1076625,0.003025
1679998252094,1178240449288837,0.0037125,-0.0617375,0.0020625
1679998252097,1178240451790760,0.00275,-0.0127875,0.004125
1679998252099,1178240454292914,-0.0012375,0.03025,0.003025
1679998252103,1178240456794991,-0.0033,0.0702625,0.003025
1679998252104,1178240459297145,-0.0022,0.1172875,0.003025
1679998252108,1178240461799068,-0.0022,0.1632125,0.004125
1679998252111,1178240464301452,-0.005225,0.2052875,0.0081124995
1679998252112,1178240466803606,-0.0033,0.2512125,0.0070125
1679998252114,1178240469305524,-0.0012375,0.3003,0.0100375
1679998252117,1178240471807601,6.875E-4,0.3433375,0.0121
1679998252121,1178240474309755,-0.0033,0.3773,0.009075
1679998252123,1178240476811904,-0.0022,0.4112625,0.0121
1679998252125,1178240479313827,-0.0022,0.4503125,0.01705
1679998252127,1178240481816212,6.875E-4,0.478225,0.01705
1679998252129,1178240484318135,0.004675,0.501325,0.01705
1679998252132,1178240486820288,0.004675,0.5242875,0.0191125
1679998252134,1178240489322370,-0.0012375,0.5402375,0.014025
1679998252137,1178240491824524,0.0017875,0.54725,0.01705
1679998252143,1178240494326447,0.00275,0.5533,0.020075
1679998252143,1178240496828832,6.875E-4,0.55825,0.015125
1679998252145,1178240499330764,0.00275,0.5603125,0.013062499
1679998252147,1178240501832918,0.004675,0.5622375,0.014025
1679998252149,1178240504334995,0.0067375,0.556325,0.0191125
1679998252152,1178240506837149,0.0067375,0.55233747,0.020075
1679998252153,1178240509339072,0.0067375,0.54725,0.0191125
1679998252157,1178240511841231,0.0037125,0.54821247,0.014025
1679998252161,1178240514343384,0.004675,0.544225,0.0160875
1679998252162,1178240516845538,0.0067375,0.53625,0.0160875
1679998252164,1178240519347615,0.0077,0.5313,0.014025
1679998252167,1178240521849769,0.0077,0.5212625,0.009075
1679998252170,1178240524351923,0.0088,0.5083375,0.004125
1679998252172,1178240526853846,0.0097624995,0.49225,-9.625E-4
1679998252174,1178240529355923,0.004675,0.46928748,-0.0089375
1679998252177,1178240531858178,6.875E-4,0.4362875,-0.017875
1679998252184,1178240534360332,0.00275,0.39627498,-0.034925
1679998252185,1178240536862409,-0.0072875,0.3452625,-0.064899996
1679998252186,1178240539364332,-0.0182875,0.291225,-0.095975
1679998252188,1178240541866461,-0.0292875,0.2303125,-0.1329625
1679998252191,1178240544368615,-0.0422125,0.16733749,-0.177925
1679998252192,1178240546870769,-0.049225,0.1032625,-0.2239875
1679998252194,1178240549372923,-0.06325,0.0402875,-0.2668875
1679998252197,1178240551875000,-0.0792,-0.0317625,-0.31295
1679998252200,1178240554377140,-0.093225,-0.095699996,-0.3579125
1679998252202,1178240556879063,-0.10725,-0.159775,-0.3969625
1679998252204,1178240559381217,-0.115225,-0.2167,-0.4299625
1679998252206,1178240561883294,-0.127325,-0.268675,-0.4609
1679998252210,1178240564385528,-0.1332375,-0.312675,-0.4789125
1679998252212,1178240566887605,-0.1353,-0.3507625,-0.496925
1679998252214,1178240569389759,-0.1452,-0.3966875,-0.5159
1679998252216,1178240571891682,-0.1472625,-0.4357375,-0.5308875
1679998252221,1178240574393832,-0.1533125,-0.4797375,-0.529925
1679998252224,1178240576895909,-0.1452,-0.511775,-0.513975
1679998252226,1178240579398063,-0.1342,-0.56168747,-0.480975
1679998252228,1178240581900294,-0.1232,-0.609675,-0.4398625
1679998252231,1178240584402400,-0.111237496,-0.65174997,-0.3988875
1679998252233,1178240586904323,-0.0972125,-0.697675,-0.3509
1679998252235,1178240589406477,-0.08525,-0.7566625,-0.2998875
1679998252236,1178240591908630,-0.0682,-0.8067125,-0.2479125
1679998252241,1178240594410784,-0.050325,-0.8556625,-0.1989625
1679998252242,1178240596912852,-0.0402875,-0.907775,-0.155925
1679998252244,1178240599415006,-0.028324999,-0.94476247,-0.1128875
1679998252248,1178240601916929,-0.0072875,-0.9857375,-0.0779625
1679998252250,1178240604419083,0.010725,-1.0197,-0.040975
1679998252252,1178240606921227,0.0237875,-1.061775,-0.0108624995
1679998252254,1178240609423381,0.027775,-1.1067375,0.009075
1679998252258,1178240611925535,0.0317625,-1.1517,0.02805
1679998252261,1178240614427611,0.0427625,-1.1776875,0.0341
1679998252265,1178240616929535,0.0517,-1.204775,0.039049998
1679998252266,1178240619431688,0.0647625,-1.225675,0.0411125
1679998252268,1178240621933842,0.087725,-1.23475,0.036025
1679998252270,1178240624435996,0.117699996,-1.2387375,0.026124999
1679998252272,1178240626938073,0.1436875,-1.242725,0.0121
1679998252274,1178240629440232,0.170775,-1.2387375,-0.0039875
1679998252279,1178240631942386,0.1967625,-1.2397,-0.0218625
1679998252284,1178240634444309,0.22275,-1.247675,-0.040975
1679998252285,1178240636946463,0.23773749,-1.2617,-0.061875
1679998252287,1178240639448540,0.257675,-1.2777874,-0.0829125
1679998252287,1178240641950770,0.2756875,-1.2967625,-0.105875
1679998252290,1178240644452847,0.2897125,-1.3107874,-0.128975
1679998252293,1178240646955001,0.302775,-1.3176625,-0.1519375
1679998252295,1178240649457150,0.3207875,-1.3187625,-0.1758625
1679998252300,1178240651959073,0.3427875,-1.319725,-0.2008875
1679998252301,1178240654461150,0.3718,-1.319725,-0.221925
1679998252303,1178240656963381,0.4037,-1.3206875,-0.243925
1679998252305,1178240659465535,0.4277625,-1.313675,-0.2638625
1679998252307,1178240661967622,0.45168748,-1.3107874,-0.2809125
1679998252312,1178240664469545,0.4747875,-1.3047374,-0.2919125
1679998252314,1178240666971699,0.4967875,-1.3096875,-0.303875
1679998252316,1178240669473852,0.5077875,-1.319725,-0.3108875
1679998252317,1178240671975904,0.5176875,-1.3277,-0.3188625
1679998252319,1178240674478135,0.527725,-1.3396626,-0.3218875
1679998252323,1178240676980212,0.527725,-1.357675,-0.3229875
1679998252325,1178240679482366,0.5207125,-1.3726625,-0.3179
1679998252327,1178240681984299,0.5207125,-1.3937,-0.31295
1679998252331,1178240684486453,0.511775,-1.413775,-0.3078625
1679998252333,1178240686988530,0.510675,-1.4397625,-0.3029125
1679998252335,1178240689490761,0.5077875,-1.4606625,-0.292875
1679998252337,1178240691992837,0.5027,-1.4777125,-0.2888875
1679998252341,1178240694494991,0.494725,-1.4927,-0.28393748
1679998252344,1178240696997145,0.4877125,-1.5046625,-0.276925
1679998252345,1178240699499068,0.4807,-1.5027375,-0.270875
1679998252348,1178240702001207,0.4607625,-1.4887125,-0.2638625
1679998252349,1178240704503284,0.4378,-1.462725,-0.2569875
1679998252352,1178240707005515,0.4048,-1.429725,-0.2519
1679998252354,1178240709507592,0.3597,-1.3836625,-0.2479125
1679998252356,1178240712009746,0.3058,-1.3316875,-0.2429625
1679998252360,1178240714511693,0.2457125,-1.27875,-0.237875
1679998252362,1178240717013847,0.1857625,-1.23475,-0.23595
1679998252364,1178240719515923,0.11275,-1.1897875,-0.237875
1679998252367,1178240722018077,0.0347875,-1.1457875,-0.232925
1679998252372,1178240724520241,-0.0462,-1.1046749,-0.2308625
1679998252374,1178240727022395,-0.1302125,-1.0657625,-0.232925
1679998252375,1178240729524318,-0.215325,-1.0247875,-0.2319625
1679998252377,1178240732026472,-0.3003,-0.9876625,-0.22495
1679998252383,1178240734528616,-0.38225,-0.9477875,-0.2228875
1679998252385,1178240737030693,-0.4662625,-0.9007625,-0.2209625
1679998252387,1178240739532847,-0.5402375,-0.8556625,-0.2088625
1679998252388,1178240742035000,-0.6092625,-0.813725,-0.1978625
1679998252391,1178240744537154,-0.66825,-0.7706875,-0.1868625
1679998252392,1178240747039077,-0.7183,-0.7266875,-0.171875
1679998252394,1178240749541231,-0.7572125,-0.68475,-0.155925
1679998252400,1178240752043308,-0.787325,-0.64075,-0.14093749
1679998252402,1178240754545462,-0.8133125,-0.6007375,-0.1249875
1679998252403,1178240757047693,-0.8342125,-0.5647125,-0.111925
1679998252405,1178240759549760,-0.836275,-0.54175,-0.100925
1679998252408,1178240762051683,-0.83325,-0.522775,-0.086899996
1679998252411,1178240764553837,-0.8243125,-0.505725,-0.0768625
1679998252412,1178240767055914,-0.808225,-0.5036625,-0.0699875
1679998252414,1178240769558071,-0.792275,-0.5066875,-0.0589875
1679998252417,1178240772060225,-0.76725,-0.5127375,-0.0559625
1679998252423,1178240774562379,-0.731225,-0.5247,-0.045925
1679998252424,1178240777064533,-0.70125,-0.5366625,-0.040975
1679998252426,1178240779566471,-0.6633,-0.544775,-0.0389125
1679998252427,1178240782068625,-0.62425,-0.543675,-0.034925
1679998252433,1178240784570702,-0.5852,-0.543675,-0.0328625
1679998252434,1178240787072856,-0.5402375,-0.544775,-0.0358875
1679998252436,1178240789575010,-0.4962375,-0.5407875,-0.0358875
1679998252437,1178240792077187,-0.45319998,-0.53267497,-0.0389125
1679998252441,1178240794579341,-0.4142875,-0.5237375,-0.0438625
1679998252443,1178240797081264,-0.3722125,-0.5137,-0.045925
1679998252445,1178240799583341,-0.336325,-0.500775,-0.051975
1679998252448,1178240802085500,-0.3042875,-0.483725,-0.0658625
1679998252451,1178240804587654,-0.2732125,-0.4657125,-0.0759
1679998252452,1178240807089808,-0.2462625,-0.4467375,-0.086899996
1679998252455,1178240809591962,-0.2233,-0.43175,-0.0939125
1679998252457,1178240812093885,-0.2083125,-0.4137375,-0.1049125
1679998252460,1178240814596039,-0.1973125,-0.3997125,-0.1159125
1679998252464,1178240817098192,-0.1903,-0.3856875,-0.1269125
1679998252465,1178240819600346,-0.18425,-0.3746875,-0.1379125
1679998252467,1178240822102423,-0.1863125,-0.3746875,-0.144925
1679998252472,1178240824604562,-0.1892,-0.3777125,-0.1549625
1679998252473,1178240827106485,-0.19525,-0.37867498,-0.161975
1679998252475,1178240829608639,-0.2013,-0.3856875,-0.1659625
1679998252477,1178240832110716,-0.204325,-0.395725,-0.166925
1679998252482,1178240834612947,-0.2123,-0.4076875,-0.1689875
1679998252484,1178240837115096,-0.2162875,-0.4156625,-0.16995
1679998252486,1178240839617172,-0.2193125,-0.4277625,-0.16995
1679998252488,1178240842119096,-0.2193125,-0.4477,-0.1689875
1679998252491,1178240844621264,-0.2193125,-0.4637875,-0.1659625
1679998252493,1178240847123418,-0.215325,-0.4767125,-0.1579875
1679998252496,1178240849625572,-0.2123,-0.49568748,-0.1568875
1679998252500,1178240852127649,-0.204325,-0.5157625,-0.1519375
1679998252503,1178240854629784,-0.1973125,-0.5366625,-0.1428625
1679998252504,1178240857131938,-0.1903,-0.554675,-0.1379125
1679998252506,1178240859633861,-0.1832875,-0.5677375,-0.1318625
1679998252507,1178240862136015,-0.1793,-0.588775,-0.1238875
1679998252512,1178240864638092,-0.1683,-0.599775,-0.1199
1679998252514,1178240867140341,-0.1632125,-0.610775,-0.1159125
1679998252516,1178240869642418,-0.16225,-0.621775,-0.106975
1679998252517,1178240872144572,-0.15619999,-0.62975,-0.1018875
1679998252521,1178240874646726,-0.15125,-0.6386875,-0.095975
1679998252524,1178240877148649,-0.149325,-0.6417125,-0.0889625
1679998252526,1178240879650726,-0.1472625,-0.64075,-0.0809875
1679998252528,1178240882152880,-0.1463,-0.6386875,-0.0768625
1679998252531,1178240884655125,-0.15125,-0.6386875,-0.0749375
1679998252532,1178240887157202,-0.1533125,-0.631675,-0.0699875
1679998252534,1178240889659355,-0.154275,-0.626725,-0.0609125
1679998252537,1178240892161279,-0.1573,-0.6197125,-0.0589875
1679998252541,1178240894663432,-0.1573,-0.6127,-0.0578875
1679998252543,1178240897165514,-0.154275,-0.5977125,-0.04895
1679998252545,1178240899667745,-0.15125,-0.582725,-0.040975
1679998252547,1178240902169822,-0.1452,-0.571725,-0.0369875
1679998252550,1178240904671976,-0.1392875,-0.5577,-0.0279125
1679998252552,1178240907173899,-0.1342,-0.5357,-0.0169125
1679998252555,1178240909676053,-0.12925,-0.5066875,-0.0119624995
1679998252559,1178240912178207,-0.121275,-0.4797375,-0.0089375
1679998252561,1178240914680284,-0.113299996,-0.4467375,-0.0039875
1679998252563,1178240917182437,-0.1012,-0.40974998,1.375E-4
1679998252565,1178240919684586,-0.0952875,-0.3757875,0.0050875
1679998252568,1178240922186740,-0.088275,-0.3447125,0.0100375
1679998252570,1178240924688663,-0.077275,-0.312675,0.014025
1679998252572,1178240927190817,-0.071225,-0.268675,0.0111375
1679998252574,1178240929692894,-0.061325,-0.2267375,0.013062499
1679998252577,1178240932195136,-0.055275,-0.192775,0.014025
1679998252581,1178240934697213,-0.0512875,-0.148775,0.013062499
1679998252583,1178240937199367,-0.0482625,-0.0966625,0.009075
1679998252585,1178240939701275,-0.044275,-0.059675,0.0100375
1679998252587,1178240942203428,-0.039325,-0.0306625,0.004125
1679998252591,1178240944705505,-0.038225,-0.005775,1.375E-4
1679998252592,1178240947207659,-0.0433125,0.0133375,-9.625E-4
1679998252596,1178240949709804,-0.0452375,0.028324999,0.0011
1679998252598,1178240952211958,-0.0473,0.0402875,0.0011
1679998252601,1178240954713881,-0.050325,0.044275,0.00605
1679998252602,1178240957216035,-0.0482625,0.0452375,0.009075
1679998252604,1178240959718189,-0.052249998,0.050325,0.0100375
1679998252607,1178240962220266,-0.0562375,0.0363,0.0191125
1679998252610,1178240964722420,-0.0572,0.0202125,0.0240625
1679998252611,1178240967224573,-0.055275,0.027224999,0.0290125
1679998252614,1178240969726727,-0.0543125,0.0433125,0.0380875
1679998252617,1178240972228881,-0.0512875,0.0452375,0.0490875
1679998252620,1178240974730804,-0.050325,0.0433125,0.058025
1679998252623,1178240977232881,-0.0452375,0.0363,0.0671
1679998252625,1178240979735035,-0.0422125,0.0262625,0.075075
1679998252627,1178240982237270,-0.0402875,0.0182875,0.0851125
1679998252631,1178240984739347,-0.0402875,0.0092124995,0.0900625
1679998252633,1178240987241501,-0.0402875,-0.0037125,0.0961125
1679998252635,1178240989743424,-0.0422125,-0.0287375,0.103125
1679998252637,1178240992245501,-0.0422125,-0.0517,0.109037496
1679998252640,1178240994747654,-0.0462,-0.060775,0.1111
1679998252642,1178240997249808,-0.0422125,-0.0746625,0.1150875
1679998252644,1178240999751962,-0.0452375,-0.092675,0.120037496
1679998252648,1178241002254111,-0.0462,-0.10175,0.1211375
1679998252651,1178241004756034,-0.0452375,-0.104775,0.125125
1679998252652,1178241007258188,-0.0452375,-0.10175,0.135025
1679998252654,1178241009760342,-0.0433125,-0.093775,0.1390125
1679998252657,1178241012262405,-0.041249998,-0.0867625,0.146025
1679998252661,1178241014764328,-0.0372625,-0.081675,0.152075
1679998252663,1178241017266712,-0.033275,-0.076725,0.1560625
1679998252665,1178241019768866,-0.0242,-0.0636625,0.158125
1679998252667,1178241022270789,-0.0182875,-0.060775,0.1610125
1679998252672,1178241024772938,-0.0143,-0.059675,0.1651375
1679998252673,1178241027275015,-0.005225,-0.054725,0.1640375
1679998252675,1178241029777169,0.004675,-0.0537625,0.1640375
1679998252678,1178241032279323,0.014712499,-0.0517,0.168025
1679998252682,1178241034781472,0.0198,-0.048675,0.1661
1679998252683,1178241037283395,0.027775,-0.049775,0.169125
1679998252685,1178241039785549,0.0347875,-0.0517,0.1621125
1679998252688,1178241042287702,0.048675,-0.0537625,0.157025
1679998252690,1178241044789789,0.05775,-0.04675,0.1551
1679998252693,1178241047291943,0.0587125,-0.0457875,0.152075
1679998252695,1178241049794097,0.060775,-0.0397375,0.1441
1679998252697,1178241052296020,0.060775,-0.0317625,0.1370875
1679998252701,1178241054798160,0.0638,-0.026675,0.1280125
1679998252704,1178241057300237,0.0627,-0.015675,0.1230625
1679998252705,1178241059802391,0.0587125,-0.010725,0.119075
1679998252709,1178241062304545,0.0528,0.0012375,0.1071125
1679998252711,1178241064806698,0.0427625,0.0133375,0.098037496
1679998252714,1178241067308622,0.0336875,0.022275,0.097075
1679998252715,1178241069810698,0.026675,0.0292875,0.097075
1679998252717,1178241072312852,0.016775,0.038225,0.0961125
1679998252720,1178241074815015,0.010725,0.0463375,0.0950125
1679998252723,1178241077317169,0.00275,0.050325,0.0930875
1679998252725,1178241079819323,-0.0033,0.049225,0.097075
1679998252728,1178241082321246,-0.006325,0.0532125,0.097075
1679998252731,1178241084823429,-0.00825,0.0532125,0.0950125
1679998252733,1178241087325583,-0.0103124995,0.0543125,0.09405
1679998252735,1178241089827660,-0.011275,0.0482625,0.09405
1679998252737,1178241092329890,-0.0092124995,0.0482625,0.09405
1679998252741,1178241094831961,-0.0033,0.0433125,0.091025
1679998252743,1178241097334115,-2.75E-4,0.0372625,0.09405
1679998252746,1178241099836038,-0.005225,0.033275,0.0930875
1679998252748,1178241102338192,0.0017875,0.0232375,0.0900625
1679998252751,1178241104840284,0.004675,0.0143,0.0891
1679998252753,1178241107342438,0.0037125,0.0042625,0.087037496
1679998252755,1178241109844592,6.875E-4,-6.875E-4,0.086075
1679998252757,1178241112346746,0.0017875,-0.0116875,0.0851125
1679998252760,1178241114848899,-2.75E-4,-0.0196625,0.0820875
1679998252764,1178241117350832,-2.75E-4,-0.0257125,0.0790625
1679998252770,1178241119852908,-0.0012375,-0.0347875,0.078099996
1679998252771,1178241122355062,-0.005225,-0.0477125,0.0730125
1679998252771,1178241124857216,-0.0072875,-0.0627,0.070125
1679998252772,1178241127359356,-0.0092124995,-0.071775,0.0741125
1679998252774,1178241129861510,-0.0103124995,-0.07975,0.0710875
1679998252777,1178241132363433,-0.0132,-0.0917125,0.0710875
1679998252781,1178241134865587,-0.0143,-0.1027125,0.0671
1679998252784,1178241137367673,-0.01925,-0.115775,0.069025
1679998252786,1178241139869827,-0.0202125,-0.12773749,0.0730125
1679998252787,1178241142371980,-0.0202125,-0.137775,0.0710875
1679998252791,1178241144874134,-0.03025,-0.148775,0.07205
1679998252793,1178241147376057,-0.0323125,-0.159775,0.07205
1679998252794,1178241149878192,-0.0292875,-0.1656875,0.0741125
1679998252797,1178241152380346,-0.03025,-0.1766875,0.07205
1679998252800,1178241154882423,-0.033275,-0.1876875,0.07205
1679998252802,1178241157384346,-0.038225,-0.1986875,0.0760375
1679998252804,1178241159886755,-0.041249998,-0.2077625,0.0771375
1679998252807,1178241162388909,-0.049225,-0.214775,0.0771375
1679998252810,1178241164890832,-0.049225,-0.2176625,0.0771375
1679998252812,1178241167392985,-0.0543125,-0.2267375,0.0730125
1679998252815,1178241169895052,-0.0622875,-0.225775,0.0760375
1679998252816,1178241172397206,-0.071225,-0.2267375,0.075075
1679998252822,1178241174899360,-0.0782375,-0.2297625,0.0771375
1679998252825,1178241177401514,-0.0842875,-0.2316875,0.075075
1679998252827,1178241179903692,-0.0952875,-0.2327875,0.0741125
1679998252828,1178241182405615,-0.1012,-0.2277,0.0730125
1679998252833,1178241184907692,-0.1032625,-0.2127125,0.070125
1679998252833,1178241187409846,-0.0952875,-0.1797125,0.064075
1679998252835,1178241189911784,-0.077275,-0.1357125,0.053075
1679998252837,1178241192414168,-0.050325,-0.087725,0.0430375
1679998252841,1178241194916091,-0.0202125,-0.043725,0.037125
1679998252842,1178241197418245,0.01375,-0.00275,0.0270875
1679998252844,1178241199920399,0.048675,0.0342375,0.020075
1679998252849,1178241202422452,0.076725,0.061325,0.0160875
1679998252851,1178241204924375,0.1027125,0.0803,0.013062499
1679998252852,1178241207426529,0.12773749,0.1013375,0.0111375
1679998252854,1178241209928914,0.15675,0.12925,0.0111375
1679998252858,1178241212430841,0.17875,0.1582625,0.009075
1679998252862,1178241214932995,0.20075,0.18727499,0.0100375
1679998252865,1178241217435072,0.22275,0.2162875,0.0070125
1679998252866,1178241219937225,0.247775,0.248325,0.003025
1679998252868,1178241222439148,0.2657875,0.2842125,1.375E-4
1679998252870,1178241224941529,0.280775,0.3172125,-0.007975
1679998252872,1178241227443683,0.2987875,0.3433375,-0.017875
1679998252875,1178241229945606,0.307725,0.3672625,-0.0259875
1679998252879,1178241232447683,0.318725,0.3993,-0.0369875
1679998252883,1178241234949836,0.33467498,0.4433,-0.0479875
1679998252883,1178241237451990,0.3477375,0.4932125,-0.0559625
1679998252885,1178241239953913,0.362725,0.5462875,-0.0688875
1679998252887,1178241242456297,0.3817,0.60225,-0.0829125
1679998252891,1178241244958220,0.39875,0.65725,-0.0919875
1679998252892,1178241247460370,0.4107125,0.7063375,-0.0999625
1679998252896,1178241249962524,0.412775,0.7363125,-0.108899996
1679998252898,1178241252464601,0.412775,0.7602375,-0.1128875
1679998252901,1178241254966524,0.4158,0.78429997,-0.12595
1679998252905,1178241257468639,0.412775,0.8053375,-0.1359875
1679998252906,1178241259971024,0.4107125,0.8262375,-0.1428625
1679998252907,1178241262472947,0.411675,0.863225,-0.150975
1679998252911,1178241264975101,0.390775,0.979275,-0.14795
1679998252912,1178241267477178,0.279675,1.2882375,-0.122925
1679998252915,1178241269979337,0.060775,1.7183375,-0.09295
1679998252917,1178241272481491,-0.1643125,1.986325,-0.0759
1679998252920,1178241274983414,-0.292325,1.9793125,-0.0829125
1679998252922,1178241277485568,-0.297275,1.8543249,-0.1079375
1679998252924,1178241279987703,-0.22825,1.7743,-0.138875
1679998252927,1178241282489780,-0.1452,1.8272375,-0.166925
1679998252930,1178241284991934,-0.094325,1.963225,-0.183975
1679998252933,1178241287494088,-0.082225,2.10925,-0.183975
1679998252935,1178241289996236,-0.09625,2.206325,-0.1758625
1679998252937,1178241292498160,-0.113299996,2.25225,-0.1678875
1679998252940,1178241295000313,-0.1252625,2.27425,-0.1568875
1679998252943,1178241297502390,-0.121275,2.2983124,-0.14093749
1679998252945,1178241300004544,-0.110275,2.3343375,-0.1269125
1679998252949,1178241302506698,-0.099275,2.3643124,-0.108899996
1679998252952,1178241305008852,-0.0792,2.398275,-0.0908875
1679998252953,1178241307510775,-0.0253,2.4982374,-0.0779625
1679998252955,1178241310012929,0.0627,2.6152499,-0.0688875
1679998252957,1178241312515006,0.0947375,2.63725,-0.040975
1679998252960,1178241315017145,0.087725,2.6313374,-0.0209
1679998252963,1178241317519298,0.0996875,2.6882625,-0.012925
1679998252965,1178241320021452,0.1167375,2.756325,-0.0039875
1679998252967,1178241322523385,0.0968,2.772275,0.0111375
1679998252972,1178241325025539,0.0708125,2.7922125,0.025024999
1679998252973,1178241327527693,0.0507375,2.810225,0.0411125
1679998252975,1178241330029770,0.049775,2.7922125,0.0521125
1679998252977,1178241332531924,0.060775,2.7853374,0.0570625
1679998252981,1178241335034078,0.0567875,2.788225,0.061049998
1679998252983,1178241337536232,0.032725,2.7863,0.0561
1679998252985,1178241340038385,0.014712499,2.76925,0.048125
1679998252987,1178241342540309,0.0158125,2.73625,0.047025
1679998252990,1178241345042404,0.0187,2.7002249,0.050049998
1679998252992,1178241347544558,0.016775,2.656225,0.050049998
1679998252995,1178241350046712,0.0077,2.6142874,0.0521125
1679998252998,1178241352548852,0.0097624995,2.5623126,0.0521125
1679998253001,1178241355050775,0.0088,2.5062125,0.0540375
1679998253002,1178241357552929,0.010725,2.448325,0.053075
1679998253005,1178241360055083,0.005775,2.3882375,0.053075
1679998253010,1178241362557150,-0.0012375,2.3252625,0.053075
1679998253012,1178241365059304,0.00275,2.2543125,0.0490875
1679998253013,1178241367561227,0.00275,2.183225,0.048125
1679998253015,1178241370063611,0.00275,2.10925,0.047025
1679998253017,1178241372565534,-0.0012375,2.0383,0.047025
1679998253021,1178241375067707,-0.0033,1.9613,0.0460625
1679998253026,1178241377569861,-0.0033,1.8913125,0.0460625
1679998253027,1178241380071938,-0.0022,1.826275,0.0430375
1679998253028,1178241382573861,-2.75E-4,1.760275,0.0411125
1679998253032,1178241385076227,-0.0022,1.6952375,0.0400125
1679998253033,1178241387578381,-0.0022,1.634325,0.039049998
1679998253035,1178241390080304,6.875E-4,1.5723125,0.037125
1679998253037,1178241392582381,6.875E-4,1.51525,0.037125
1679998253041,1178241395084534,-0.0033,1.463275,0.0380875
1679998253043,1178241397586688,-0.0012375,1.4103374,0.02805
1679998253046,1178241400088611,-0.0022,1.3652375,0.0331375
1679998253049,1178241402590765,-0.0022,1.3352625,0.0341
1679998253051,1178241405092919,-0.005225,1.3072125,0.0341
1679998253053,1178241407595073,-0.0061875,1.292225,0.031075
1679998253055,1178241410097150,-0.0012375,1.2882375,0.0301125
1679998253057,1178241412599304,-0.0072875,1.2802625,0.0270875
1679998253061,1178241415101227,-0.005225,1.281225,0.02805
1679998253069,1178241417603371,-0.0061875,1.282325,0.02805
1679998253071,1178241420105524,-0.0072875,1.2893375,0.02805
1679998253071,1178241422607678,-0.011275,1.3003374,0.0240625
1679998253073,1178241425109755,-0.0103124995,1.3102375,0.025024999
1679998253074,1178241427611909,-0.011275,1.325225,0.025024999
1679998253076,1178241430113856,-0.011275,1.3443375,0.025024999
1679998253077,1178241432616010,-0.011275,1.3682625,0.025024999
1679998253081,1178241435118395,-0.0122375,1.3993375,0.0221375
1679998253084,1178241437620318,-0.011275,1.436325,0.0221375
1679998253086,1178241440122385,-0.0122375,1.4733125,0.0221375
1679998253087,1178241442624539,-0.0122375,1.512225,0.020075
1679998253091,1178241445126692,-0.0103124995,1.551275,0.020075
1679998253092,1178241447628615,-0.0103124995,1.58125,0.020075
1679998253095,1178241450130769,-0.0143,1.60325,0.0160875
1679998253097,1178241452632942,-0.0132,1.6212626,0.013062499
1679998253100,1178241455135096,-0.015262499,1.6292375,0.014025
1679998253103,1178241457637173,-0.0122375,1.6193374,0.013062499
1679998253105,1178241460139327,-0.0092124995,1.5973375,0.0111375
1679998253107,1178241462641255,-0.011275,1.5632375,0.0111375
1679998253111,1178241465143409,-0.0132,1.5173125,0.0111375
1679998253112,1178241467645563,-0.0132,1.4663,0.009075
1679998253115,1178241470147716,-0.0122375,1.4113,0.0100375
1679998253119,1178241472649807,-0.0122375,1.353275,0.0121
1679998253123,1178241475151730,-0.011275,1.287275,0.013062499
1679998253125,1178241477653884,-0.0092124995,1.226225,0.0121
1679998253127,1178241480199423,-0.00825,1.16325,0.014025
1679998253128,1178241482658125,-0.0072875,1.0962875,0.0121
1679998253132,1178241485160356,-0.0033,1.0302875,0.0121
1679998253134,1178241487662433,-0.0072875,0.9673125,0.013062499
1679998253136,1178241490164587,-0.005225,0.89925,0.0121
1679998253138,1178241492666510,-0.0022,0.8342125,0.013062499
1679998253141,1178241495168669,-0.0022,0.776325,0.0111375
1679998253143,1178241497670822,0.0017875,0.7222875,0.0121
1679998253145,1178241500172899,0.0017875,0.6692125,0.0111375
1679998253147,1178241502675053,-0.0012375,0.6183375,0.0121
1679998253151,1178241505176980,6.875E-4,0.5702125,0.0121
1679998253153,1178241507679134,0.0067375,0.5413375,0.0121
1679998253155,1178241510181288,6.875E-4,0.51425,0.014025
1679998253159,1178241512683442,0.0017875,0.4912875,0.01705
1679998253161,1178241515185524,0.0017875,0.4802875,0.0191125
1679998253164,1178241517687678,0.00275,0.4712125,0.0210375
1679998253165,1178241520189831,0.0017875,0.468325,0.0191125
1679998253168,1178241522691755,0.0017875,0.468325,0.0191125
1679998253170,1178241525193832,0.0037125,0.47025,0.0160875
1679998253172,1178241527696081,0.0037125,0.473275,0.015125
1679998253175,1178241530198235,0.0017875,0.4712125,0.014025
1679998253177,1178241532700312,0.0037125,0.468325,0.0121
1679998253180,1178241535202235,0.0037125,0.468325,0.0111375
1679998253183,1178241537704380,6.875E-4,0.46928748,0.0111375
1679998253185,1178241540206534,0.00275,0.4712125,0.0111375
1679998253187,1178241542708611,0.00275,0.4772625,0.0111375
1679998253190,1178241545210842,0.00275,0.49225,0.0100375
1679998253192,1178241547712918,0.0017875,0.5072375,0.0100375
1679998253196,1178241550215057,0.0017875,0.533225,0.0111375
1679998253198,1178241552716980,-2.75E-4,0.5643,0.0111375
1679998253201,1178241555219134,-2.75E-4,0.5933125,0.009075
1679998253202,1178241557721211,6.875E-4,0.6202625,0.0111375
1679998253205,1178241560223365,-2.75E-4,0.6513375,0.0121
1679998253207,1178241562725510,0.0017875,0.677325,0.0081124995
1679998253210,1178241565227664,6.875E-4,0.7063375,0.0100375
1679998253213,1178241567729587,-0.0033,0.7293,0.0100375
1679998253215,1178241570231741,-0.0012375,0.75625,0.0100375
1679998253218,1178241572733808,6.875E-4,0.781275,0.0111375
1679998253221,1178241575235961,0.00275,0.8012125,0.0121
1679998253224,1178241577738115,-0.0022,0.81633747,0.013062499
1679998253226,1178241580240269,-0.0012375,0.8292625,0.013062499
1679998253228,1178241582742202,6.875E-4,0.836275,0.014025
1679998253230,1178241585244356,-0.0022,0.8393,0.01705
1679998253234,1178241587746433,-0.0012375,0.8322875,0.0221375
1679998253235,1178241590248587,-0.0022,0.8262375,0.0231
1679998253239,1178241592750510,-0.0022,0.8173,0.0231
1679998253240,1178241595252899,-0.0022,0.8053375,0.026124999
1679998253242,1178241597754822,-0.0022,0.78925,0.031075
1679998253245,1178241600256976,-0.0022,0.7772875,0.0290125
1679998253247,1178241602759052,6.875E-4,0.7602375,0.031075
1679998253251,1178241605261192,-0.0012375,0.7442875,0.0301125
1679998253252,1178241607763115,-0.005225,0.7272375,0.031075
1679998253255,1178241610265192,-0.0022,0.7112875,0.02805
1679998253257,1178241612767423,-2.75E-4,0.6953375,0.0240625
1679998253261,1178241615269602,-0.005225,0.682275,0.02805
1679998253264,1178241617771679,-2.75E-4,0.666325,0.02805
1679998253265,1178241620273833,-0.0012375,0.655325,0.0290125
1679998253267,1178241622775756,-0.005225,0.644325,0.02805
1679998253272,1178241625277920,-0.005225,0.62425,0.0270875
1679998253273,1178241627780074,-0.0022,0.6092625,0.026124999
1679998253275,1178241630282227,-0.0022,0.5863,0.02805
1679998253277,1178241632784304,-0.0061875,0.5643,0.0301125
1679998253281,1178241635286458,-0.005225,0.539275,0.0270875
1679998253283,1178241637788390,-0.0033,0.512325,0.02805
1679998253286,1178241640290544,-0.0012375,0.4882625,0.0231
1679998253288,1178241642792621,-0.005225,0.4662625,0.0210375
1679998253291,1178241645294852,-0.0012375,0.445225,0.0221375
1679998253293,1178241647796929,-0.0012375,0.4283125,0.025024999
1679998253297,1178241650299083,-0.0033,0.418275,0.0231
1679998253298,1178241652801006,-0.0033,0.402325,0.0231
1679998253301,1178241655303160,-0.005225,0.3922875,0.0210375
1679998253305,1178241657805231,-0.0061875,0.3843125,0.0210375
1679998253306,1178241660307385,-0.005225,0.3782625,0.0221375
1679998253310,1178241662809539,-0.0022,0.3702875,0.020075
1679998253312,1178241665311693,-0.0072875,0.357225,0.0191125
1679998253314,1178241667813616,-0.0092124995,0.3392125,0.01705
1679998253315,1178241670315775,-0.00825,0.319275,0.0160875
1679998253318,1178241672817852,-0.005225,0.2932875,0.0160875
1679998253321,1178241675320006,-0.0061875,0.26427498,0.014025
1679998253323,1178241677822160,-0.0033,0.22825,0.0111375
1679998253325,1178241680324299,-0.0061875,0.1942875,0.009075
1679998253327,1178241682826222,-0.0033,0.1582625,0.0081124995
1679998253331,1178241685328376,-0.0012375,0.126225,0.0050875
1679998253333,1178241687830453,-0.0022,0.100237496,0.004125
1679998253335,1178241690332607,-0.0033,0.0803,0.0050875
1679998253338,1178241692834515,-2.75E-4,0.0653125,0.004125
1679998253340,1178241695336900,0.00275,0.049225,0.003025
1679998253343,1178241697838823,6.875E-4,0.0292875,0.003025
1679998253346,1178241700340963,0.0037125,0.011275,0.0020625
1679998253348,1178241702843117,0.00275,-0.0097624995,1.375E-4
1679998253350,1178241705345194,0.00275,-0.0257125,-0.0028875
1679998253352,1178241707847117,0.005775,-0.0416625,-0.001925
1679998253355,1178241710349501,0.005775,-0.059675,-9.625E-4
1679998253357,1178241712851679,0.0048125,-0.0697125,-0.001925
1679998253360,1178241715353602,0.0077,-0.0807125,-0.001925
1679998253363,1178241717855679,0.0088,-0.0847,-9.625E-4
1679998253365,1178241720357602,0.005775,-0.0867625,0.0020625
1679998253368,1178241722859987,0.005775,-0.0917125,-9.625E-4
1679998253371,1178241725362141,0.0088,-0.0886875,-0.001925
1679998253373,1178241727864064,0.0077,-0.0947375,-9.625E-4
1679998253375,1178241730366218,0.0097624995,-0.0996875,-9.625E-4
1679998253378,1178241732868295,0.0097624995,-0.1076625,-0.001925
1679998253380,1178241735370457,0.0097624995,-0.11275,-0.0028875
1679998253385,1178241737872611,0.0088,-0.117699996,-0.0059125
1679998253387,1178241740374765,0.010725,-0.126775,-0.0059125
1679998253391,1178241742876693,0.0116875,-0.1326875,-0.0028875
1679998253400,1178241745378847,0.01375,-0.1406625,-0.0059125
1679998253400,1178241747880924,0.0116875,-0.147675,-0.0039875
1679998253400,1178241750383078,0.010725,-0.1546875,-0.0028875
1679998253400,1178241752885001,0.0097624995,-0.1626625,-0.00495
1679998253401,1178241755387377,0.010725,-0.1637625,-0.0028875
1679998253403,1178241757889300,0.0116875,-0.1607375,-0.00495
1679998253405,1178241760391453,0.01375,-0.1577125,-0.0028875
1679998253407,1178241762893530,0.0158125,-0.1527625,-0.0039875
1679998253410,1178241765395693,0.0158125,-0.1516625,-0.0039875
1679998253412,1178241767897616,0.016775,-0.1467125,-0.0039875
1679998253415,1178241770400001,0.0187,-0.136675,-0.001925
1679998253418,1178241772901924,0.01375,-0.120725,-9.625E-4
1679998253422,1178241775404054,0.0067375,-0.1057375,-9.625E-4
1679998253425,1178241777906131,0.005775,-0.07975,-0.001925
1679998253427,1178241780408285,0.0048125,-0.037675,-0.0028875
1679998253429,1178241782910208,6.875E-4,0.0103124995,-9.625E-4
1679998253432,1178241785412348,-0.0012375,0.0622875,-9.625E-4
1679998253434,1178241787914501,-0.0022,0.116325,0.0011
1679998253436,1178241790416655,-0.0033,0.1662375,0.0020625
1679998253438,1178241792918809,-0.0092124995,0.204325,0.003025
1679998253441,1178241795420886,-0.0061875,0.2343,0.003025
1679998253443,1178241797922785,-0.005225,0.2553375,0.004125
1679998253448,1178241800424939,-0.0033,0.26633748,0.00605
1679998253448,1178241802927093,-0.0033,0.2682625,0.0050875
1679998253451,1178241805429247,-0.0053625,0.2633125,0.0050875
1679998253453,1178241807931309,-0.0012375,0.253275,0.0050875
1679998253457,1178241810433462,-0.0033,0.2413125,0.00605
1679998253461,1178241812935616,-0.0023375,0.2272875,0.0050875
1679998253462,1178241815437539,-0.0012375,0.2162875,0.0070125
1679998253465,1178241817939602,0.00275,0.203225,0.0100375
1679998253466,1178241820441833,0.00275,0.193325,0.014025
1679998253470,1178241822943987,0.00275,0.1852125,0.015125
1679998253471,1178241825446064,0.00165,0.1793,0.013062499
1679998253473,1178241827947987,0.0037125,0.170225,0.0111375
1679998253477,1178241830450117,0.00275,0.1632125,0.013062499
1679998253478,1178241832952271,0.004675,0.149325,0.0121
1679998253483,1178241835454348,0.0037125,0.1362625,0.0111375
1679998253484,1178241837956501,0.0077,0.1172875,0.0121
1679998253485,1178241840458655,0.0077,0.099275,0.009075
1679998253488,1178241842960804,0.0077,0.082225,0.0070125
1679998253491,1178241845462727,0.0097624995,0.0572,0.0070125
1679998253493,1178241847964804,0.0086624995,0.0312125,0.0070125
1679998253496,1178241850466948,0.010725,0.016224999,0.0050875
1679998253498,1178241852968871,0.0166375,-0.0067375,0.0020625
1679998253501,1178241855471256,0.010725,-0.0287375,1.375E-4
1679998253506,1178241857973179,0.0086624995,-0.0427625,-9.625E-4
1679998253506,1178241860475333,0.0166375,-0.060775,0.0020625
1679998253508,1178241862977401,0.015675,-0.081675,1.375E-4
1679998253513,1178241865479554,0.01375,-0.0947375,-0.0028875
1679998253514,1178241867981708,0.01375,-0.1078,-0.001925
1679998253515,1178241870483862,0.0177375,-0.1227875,-9.625E-4
1679998253518,1178241872985775,0.0166375,-0.1337875,-0.001925
1679998253521,1178241875487929,0.015675,-0.142725,-0.0039875
1679998253525,1178241877990083,0.0166375,-0.1577125,-0.001925
1679998253526,1178241880492160,0.015675,-0.1667875,-0.00495
1679998253527,1178241882994073,0.015675,-0.1766875,-0.0028875
1679998253532,1178241885496227,0.014712499,-0.19373749,-9.625E-4
1679998253534,1178241887998611,0.015675,-0.208725,0.0011
1679998253535,1178241890500535,0.015675,-0.2237125,-0.001925
1679998253538,1178241893002688,0.01375,-0.2387,-9.625E-4
1679998253541,1178241895504799,0.0177375,-0.2567125,-0.001925
1679998253545,1178241898006953,0.0177375,-0.26675,1.375E-4
1679998253547,1178241900508876,0.0166375,-0.2827,1.375E-4
1679998253549,1178241903010972,0.0196625,-0.29975,0.0011
1679998253551,1178241905513203,0.0166375,-0.3157,1.375E-4
1679998253553,1178241908015357,0.015675,-0.33467498,0.0011
1679998253555,1178241910517434,0.014712499,-0.3526875,0.004125
1679998253558,1178241913019588,0.014712499,-0.3697375,0.00605
1679998253561,1178241915521530,0.015675,-0.3867875,0.0050875
1679998253564,1178241918023684,0.0187,-0.401775,0.0081124995
1679998253566,1178241920525837,0.0166375,-0.4107125,0.009075
1679998253568,1178241923027991,0.01375,-0.423775,0.009075
1679998253574,1178241925530073,0.015675,-0.4367,0.0121
1679998253575,1178241928032227,0.015675,-0.4406875,0.0160875
1679998253576,1178241930534150,0.01375,-0.4417875,0.01705
1679998253578,1178241933036304,0.0097624995,-0.4467375,0.0210375
1679998253584,1178241935538367,0.0086624995,-0.4527875,0.0210375
1679998253584,1178241938040598,0.0116875,-0.4527875,0.0210375
1679998253586,1178241940542675,0.010725,-0.45168748,0.0221375
1679998253588,1178241943044598,0.01375,-0.4497625,0.031075
1679998253593,1178241945546761,0.0116875,-0.4527875,0.0400125
1679998253595,1178241948049145,0.014712499,-0.4577375,0.0600875
1679998253596,1178241950551068,0.0196625,-0.4417875,0.09405
1679998253598,1178241953053145,0.0226875,-0.4357375,0.122099996
1679998253601,1178241955555299,0.02365,-0.4327125,0.147125
1679998253603,1178241958057448,0.0297,-0.428725,0.1731125
1679998253605,1178241960559371,0.0297,-0.428725,0.2050125
1679998253609,1178241963061525,0.0336875,-0.43175,0.229075
1679998253612,1178241965563679,0.0317625,-0.4387625,0.245025
1679998253614,1178241968065827,0.0336875,-0.4477,0.2611125
1679998253615,1178241970567904,0.032725,-0.4657125,0.268125
1679998253618,1178241973070058,0.0336875,-0.46873748,0.2721125
1679998253621,1178241975571981,0.034649998,-0.47079998,0.2761
1679998253624,1178241978074044,0.03575,-0.478775,0.27513748
1679998253626,1178241980576275,0.0336875,-0.4917,0.27101249
1679998253628,1178241983078429,0.0336875,-0.48675,0.2641375
1679998253632,1178241985580506,0.03575,-0.48675,0.251075
1679998253634,1178241988082660,0.0257125,-0.489775,0.2391125
1679998253635,1178241990584583,0.0306625,-0.483725,0.223025
1679998253637,1178241993086737,0.0306625,-0.4928,0.1970375
1679998253641,1178241995588890,0.02365,-0.500775,0.1771
1679998253642,1178241998091044,0.02475,-0.521675,0.16005
1679998253647,1178242000593155,0.021724999,-0.53075,0.146025
1679998253648,1178242003095309,0.0226875,-0.5487625,0.135025
1679998253651,1178242005597463,0.021724999,-0.571725,0.125125
1679998253653,1178242008099386,0.021724999,-0.5907,0.11605
1679998253655,1178242010601463,0.021724999,-0.6138,0.1120625
1679998253661,1178242013103660,0.0187,-0.632775,0.1111
1679998253663,1178242015605814,0.0207625,-0.654775,0.10505
1679998253665,1178242018107891,0.0226875,-0.670725,0.103125
1679998253667,1178242020609814,0.015675,-0.6887375,0.098037496
1679998253668,1178242023111967,0.0196625,-0.697675,0.098037496
1679998253671,1178242025614116,0.0177375,-0.714725,0.100099996
1679998253673,1178242028116193,0.0177375,-0.72875,0.0991375
1679998253675,1178242030618424,0.0177375,-0.747725,0.0950125
1679998253678,1178242033120501,0.014712499,-0.763675,0.097075
1679998253681,1178242035622429,0.0187,-0.77275,0.09405
1679998253684,1178242038124583,0.0116875,-0.7937875,0.086075
1679998253687,1178242040626737,0.015675,-0.79873747,0.075075
1679998253689,1178242043128814,0.010725,-0.8217,0.061049998
1679998253692,1178242045630968,0.015675,-0.82774997,0.053075
1679998253693,1178242048133121,0.0116875,-0.8437,0.0411125
1679998253695,1178242050635275,0.010725,-0.85676247,0.0301125
1679998253698,1178242053137429,0.010725,-0.8778,0.020075
1679998253703,1178242055639352,0.0067375,-0.8916875,0.015125
1679998253704,1178242058141419,0.0097624995,-0.901725,0.004125
1679998253706,1178242060643573,0.00275,-0.9257875,-0.0059125
1679998253708,1178242063145804,0.00275,-0.9387125,-0.018975
1679998253711,1178242065647881,6.875E-4,-0.94875,-0.0259875
1679998253713,1178242068150034,6.875E-4,-0.9697875,-0.028875
1679998253715,1178242070651929,-0.0033,-0.978725,-0.0389125
1679998253719,1178242073154082,-0.0072875,-0.989725,-0.050875
1679998253722,1178242075656159,-0.00935,-1.006775,-0.0548625
1679998253724,1178242078158313,-0.0072875,-1.0077375,-0.056925
1679998253726,1178242080660458,-0.00935,-1.016675,-0.0669625
1679998253728,1178242083162381,-0.0072875,-1.0297375,-0.0688875
1679998253731,1178242085664535,-0.006325,-1.0357875,-0.0699875
1679998253733,1178242088166689,-0.0133375,-1.03675,-0.078925
1679998253735,1178242090668766,-0.017324999,-1.04775,-0.084975
1679998253738,1178242093170891,-0.011275,-1.055725,-0.083875
1679998253741,1178242095672814,-0.0133375,-1.0577875,-0.0889625
1679998253743,1178242098175198,-0.015262499,-1.0566875,-0.089925
1679998253746,1178242100677352,-0.0122375,-1.0566875,-0.089925
1679998253751,1178242103179256,-0.0103124995,-1.05875,-0.0859375
1679998253751,1178242105681333,-0.0143,-1.055725,-0.083875
1679998253753,1178242108183487,-0.0122375,-1.0487125,-0.0759
1679998253755,1178242110685641,-0.0122375,-1.0538,-0.0719125
1679998253759,1178242113187785,-0.0163625,-1.0577875,-0.073975
1679998253762,1178242115689939,-0.0133375,-1.044725,-0.0669625
1679998253764,1178242118191862,-0.017324999,-1.0437624,-0.0609125
1679998253766,1178242120694016,-0.0143,-1.028775,-0.0559625
1679998253768,1178242123196092,-0.015262499,-1.027675,-0.0529375
1679998253771,1178242125698275,-0.015262499,-1.0267125,-0.04895
1679998253773,1178242128200198,-0.0163625,-1.022725,-0.0419375
1679998253775,1178242130702583,-0.0163625,-1.0137875,-0.034925
1679998253778,1178242133204506,-0.017324999,-1.006775,-0.0339625
1679998253781,1178242135706669,-0.015262499,-0.9937125,-0.0339625
1679998253784,1178242138208823,-0.0182875,-0.9906875,-0.03795
1679998253785,1178242140710900,-0.022275,-0.97377497,-0.0429
1679998253788,1178242143212823,-0.0243375,-0.9548,-0.0548625
1679998253791,1178242145715006,-0.0342375,-0.9466875,-0.064899996
1679998253792,1178242148217390,-0.0342375,-0.9246875,-0.0749375
1679998253798,1178242150719313,-0.033275,-0.9007625,-0.086899996
1679998253800,1178242153221390,-0.041249998,-0.89375,-0.10395
1679998253801,1178242155723549,-0.0372625,-0.86075,-0.11495
1679998253803,1178242158225703,-0.0402875,-0.8377875,-0.1318625
1679998253805,1178242160727626,-0.0433125,-0.808775,-0.149875
1679998253808,1178242163230011,-0.0482625,-0.77275,-0.16995
1679998253811,1178242165731934,-0.0573375,-0.7407125,-0.1879625
1679998253815,1178242168234011,-0.061325,-0.697675,-0.1989625
1679998253816,1178242170736165,-0.0622875,-0.6567,-0.20693749
1679998253818,1178242173238395,-0.0702625,-0.62975,-0.2179375
1679998253821,1178242175740472,-0.06435,-0.593725,-0.2319625
1679998253824,1178242178242612,-0.06435,-0.5506875,-0.2409
1679998253826,1178242180744535,-0.0702625,-0.5247,-0.2479125
1679998253828,1178242183246689,-0.0672375,-0.4846875,-0.249975
1679998253831,1178242185748804,-0.066275,-0.44275,-0.2509375
1679998253834,1178242188250958,-0.0672375,-0.42267498,-0.2509375
1679998253836,1178242190753112,-0.0653125,-0.389675,-0.24695
1679998253838,1178242193255266,-0.06325,-0.357775,-0.2409
1679998253841,1178242195757189,-0.0622875,-0.323675,-0.232925
1679998253844,1178242198259371,-0.06325,-0.3007125,-0.2239875
1679998253845,1178242200761525,-0.0592625,-0.2756875,-0.216975
1679998253848,1178242203263602,-0.0603625,-0.2597375,-0.205975
1679998253851,1178242205765525,-0.052249998,-0.2327875,-0.193875
1679998253853,1178242208267915,-0.0512875,-0.21175,-0.183975
1679998253856,1178242210770069,-0.0493625,-0.192775,-0.1709125
1679998253858,1178242213271992,-0.04235,-0.1747625,-0.1659625
1679998253861,1178242215774146,-0.04235,-0.16775,-0.1549625
1679998253864,1178242218276247,-0.039325,-0.153725,-0.149875
1679998253866,1178242220778401,-0.0383625,-0.1447875,-0.14795
1679998253868,1178242223280554,-0.0383625,-0.1326875,-0.1419
1679998253872,1178242225782708,-0.0353375,-0.126775,-0.1329625
1679998253874,1178242228284616,-0.0323125,-0.1247125,-0.12595
1679998253876,1178242230786770,-0.0323125,-0.1247125,-0.1199
1679998253878,1178242233288847,-0.028324999,-0.120725,-0.117975
1679998253881,1178242235791001,-0.0273625,-0.1247125,-0.117975
1679998253883,1178242238293155,-0.0273625,-0.1227875,-0.11495
1679998253886,1178242240795333,-0.03025,-0.12979999,-0.117975
1679998253888,1178242243297256,-0.0273625,-0.125675,-0.1208625
1679998253891,1178242245799410,-0.0323125,-0.131725,-0.1208625
1679998253893,1178242248301563,-0.033275,-0.137775,-0.1219625
1679998253896,1178242250803635,-0.028324999,-0.136675,-0.1219625
1679998253898,1178242253305789,-0.033275,-0.1507,-0.1128875
1679998253901,1178242255807943,-0.028324999,-0.147675,-0.111925
1679998253904,1178242258310097,-0.0262625,-0.153725,-0.116875
1679998253905,1178242260812025,-0.0292875,-0.158675,-0.116875
1679998253909,1178242263314179,-0.028324999,-0.1607375,-0.1109625
1679998253912,1178242265816256,-0.028324999,-0.1656875,-0.111925
1679998253915,1178242268318410,-0.03025,-0.16775,-0.111925
1679998253916,1178242270820352,-0.028324999,-0.169675,-0.105875
1679998253918,1178242273322736,-0.0262625,-0.1747625,-0.106975
1679998253921,1178242275824659,-0.028324999,-0.1766875,-0.1079375
1679998253923,1178242278326813,-0.0262625,-0.1766875,-0.1079375
1679998253926,1178242280828905,-0.0292875,-0.1777875,-0.1018875
1679998253928,1178242283331059,-0.0243375,-0.1747625,-0.1029875
1679998253932,1178242285833213,-0.0262625,-0.1766875,-0.0979
