system_ts_ms, sensor_ts_ns, accX, accY, accZ
1679994865702,1174854056192650,1.07295,4.14195,9.156
1679994865703,1174854058694727,1.02795,4.1200504,9.02595
1679994865706,1174854061196592,1.0129501,4.056,8.9740505
1679994865709,1174854063698515,0.99705005,3.9769502,8.952001
1679994865711,1174854066200669,1.0030501,4.02705,8.98305
1679994865713,1174854068702746,0.95295006,3.9570003,9.085951
1679994865722,1174854071204592,0.86805004,3.86595,9.184951
1679994865723,1174854073706515,0.85395,3.9739501,9.14595
1679994865723,1174854076208592,0.91305006,3.9739501,9.181951
1679994865723,1174854078710515,0.87495005,3.9450002,9.09405
1679994865726,1174854081212616,0.768,3.9190502,9.163051
1679994865728,1174854083714539,0.693,3.96705,9.193951
1679994865730,1174854086216616,0.70995003,3.933,9.151051
1679994865733,1174854088718462,0.588,3.96495,9.21105
1679994865736,1174854091220390,0.564,3.969,9.153001
1679994865739,1174854093722467,0.54705,3.8929503,9.175051
1679994865741,1174854096224313,0.37695003,3.9619503,9.0379505
1679994865743,1174854098726467,0.34395,4.00995,9.108001
1679994865750,1174854101228428,0.37005,4.06995,9.12195
1679994865750,1174854103730275,0.27195,3.9379501,8.998051
1679994865751,1174854106232351,0.372,4.065,9.022051
1679994865753,1174854108734275,0.35295,4.08405,9.05805
1679994865756,1174854111236121,0.38700002,3.9259503,8.96895
1679994865758,1174854113738198,0.33900002,4.005,8.919001
1679994865760,1174854116240352,0.43500003,4.0080004,8.916
1679994865763,1174854118742198,0.53505003,4.05795,8.93505
1679994865766,1174854121244121,0.58095,4.02105,8.896951
1679994865768,1174854123746198,0.57405,3.9859502,9.031051
1679994865770,1174854126248112,0.62895006,4.0009503,8.991
1679994865773,1174854128749958,0.69600004,3.92895,8.98095
1679994865776,1174854131252035,0.71295005,3.99795,9.06705
1679994865779,1174854133754189,0.68895006,3.9930003,9.1369505
1679994865781,1174854136256112,0.69600004,4.0020003,9.019051
1679994865785,1174854138757958,0.78705,4.0339503,9.031051
1679994865788,1174854141260035,0.72405005,4.0459504,8.98095
1679994865789,1174854143761953,0.68595004,4.0410004,9.010051
1679994865791,1174854146263799,0.72195005,4.044,9.08895
1679994865793,1174854148765876,0.75795,4.149,9.019051
1679994865796,1174854151268030,0.70995003,4.116,9.13395
1679994865801,1174854153769953,0.75105006,4.1059504,8.896951
1679994865802,1174854156271794,0.66705,4.1200504,9.11505
1679994865804,1174854158773640,0.67905,4.1389503,8.94495
1679994865806,1174854161275794,0.64500004,4.1350503,9.03405
1679994865808,1174854163777871,0.61200005,4.1659503,8.98095
1679994865811,1174854166279813,0.58095,4.1470504,9.06495
1679994865813,1174854168781659,0.62895006,4.1269503,9.012
1679994865818,1174854171283736,0.66195005,4.1059504,9.09105
1679994865819,1174854173785659,0.61695004,4.03905,9.09105
1679994865823,1174854176287530,0.66195005,4.12305,9.108001
1679994865824,1174854178789683,0.62100005,4.1389503,9.120001
1679994865827,1174854181291530,0.68100005,4.05795,9.084001
1679994865829,1174854183793606,0.66,4.0960503,9.028951
1679994865834,1174854186295530,0.72405005,4.0630503,9.12705
1679994865835,1174854188797606,0.684,4.056,9.06495
1679994865836,1174854191299453,0.70095,4.12305,9.13395
1679994865838,1174854193801376,0.60195005,4.0669503,9.08895
1679994865841,1174854196303530,0.67395,4.0129504,9.1369505
1679994865843,1174854198805592,0.65505004,4.09305,9.09105
1679994865846,1174854201307439,0.69600004,4.1130004,9.07005
1679994865851,1174854203809362,0.64095,4.1730003,9.040951
1679994865852,1174854206311439,0.63795,4.104,9.055051
1679994865853,1174854208813362,0.69795,4.089,9.175051
1679994865857,1174854211315208,0.71295005,4.116,9.02595
1679994865861,1174854213817362,0.70995003,4.0669503,9.204
1679994865862,1174854216319208,0.70995003,3.96705,9.07005
1679994865864,1174854218821266,0.63795,4.0459504,9.12705
1679994865869,1174854221323189,0.65295005,4.05795,9.09405
1679994865870,1174854223825035,0.64500004,4.0410004,9.06
1679994865871,1174854226327112,0.60705,4.07205,9.048
1679994865873,1174854228829035,0.717,3.9960003,8.8279505
1679994865876,1174854231331097,0.633,4.0350003,8.943001
1679994865878,1174854233833020,0.63795,3.969,9.06705
1679994865881,1174854236335097,0.66495,4.00995,9.019051
1679994865885,1174854238836943,0.648,3.9499502,9.10095
1679994865887,1174854241338890,0.57405,3.9220502,9.0070505
1679994865889,1174854243840967,0.68895006,3.9100502,9.049951
1679994865891,1174854246343121,0.65505004,3.9379501,9.1390505
1679994865893,1174854248844967,0.588,3.9409502,9.08895
1679994865897,1174854251346876,0.624,3.8779502,9.085951
1679994865903,1174854253848953,0.58095,3.9769502,9.09105
1679994865903,1174854256350876,0.58305,3.8740501,9.019051
1679994865904,1174854258852722,0.633,3.9169502,9.07005
1679994865906,1174854261354799,0.60195005,3.9120002,9.12705
1679994865908,1174854263856934,0.61905,4.0020003,9.12495
1679994865911,1174854266358780,0.73605,3.9139502,9.0720005
1679994865913,1174854268860704,0.633,3.969,9.02595
1679994865919,1174854271362780,0.68100005,3.8929503,8.988001
1679994865920,1174854273864713,0.61005,4.017,8.99505
1679994865921,1174854276366559,0.69600004,3.9619503,9.05805
1679994865924,1174854278868636,0.67200005,3.9450002,9.004951
1679994865927,1174854281370559,0.684,3.9570003,9.019051
1679994865928,1174854283872636,0.70095,3.9790502,8.998051
1679994865930,1174854286374583,0.72705,4.0080004,8.920951
1679994865935,1174854288876429,0.60195005,3.9430501,9.0
1679994865937,1174854291378506,0.684,4.0140004,8.98305
1679994865940,1174854293880410,0.61005,3.933,9.09405
1679994865942,1174854296382256,0.64305,3.8740501,9.05805
1679994865944,1174854298884410,0.60195005,4.0080004,9.022051
1679994865946,1174854301386487,0.67395,3.9889503,9.019051
1679994865952,1174854303888410,0.63105005,3.9910502,9.11295
1679994865952,1174854306390270,0.70995003,3.9169502,9.12705
1679994865954,1174854308892347,0.669,3.9499502,9.129001
1679994865956,1174854311394270,0.60705,3.9240003,9.05805
1679994865958,1174854313896116,0.64095,3.9810002,9.108001
1679994865961,1174854316398270,0.71505004,3.9169502,9.163051
1679994865964,1174854318900347,0.66195005,3.9,9.12495
1679994865970,1174854321402270,0.75105006,3.9550502,9.07695
1679994865971,1174854323904116,0.744,3.9960003,8.96895
1679994865973,1174854326406193,0.753,3.9100502,9.12705
1679994865974,1174854328908116,0.74805003,3.9499502,9.040951
1679994865977,1174854331410193,0.82005006,3.9169502,9.148951
1679994865980,1174854333912039,0.72,3.9310503,9.06705
1679994865985,1174854336413962,0.83895004,3.8620503,9.07695
1679994865986,1174854338916015,0.79395,3.9450002,9.07005
1679994865986,1174854341417938,0.79605,3.92895,9.024
1679994865988,1174854343920015,0.78705,4.02105,9.175051
1679994865993,1174854346421938,0.753,3.9619503,9.11505
1679994865993,1174854348923991,0.67695004,3.9910502,8.97105
1679994865996,1174854351425914,0.73905003,3.9120002,9.177
1679994866001,1174854353927761,0.69105005,3.8760002,9.11295
1679994866002,1174854356429838,0.78195006,3.8830502,9.073951
1679994866004,1174854358931689,0.684,3.92895,9.036
1679994866006,1174854361433843,0.71505004,3.9910502,9.13395
1679994866012,1174854363935766,0.684,3.9379501,9.192
1679994866013,1174854366437843,0.72405005,3.9570003,9.12495
1679994866014,1174854368939723,0.648,3.9100502,9.012
1679994866018,1174854371441646,0.69105005,3.9120002,9.073951
1679994866019,1174854373943492,0.669,3.9259503,9.148951
1679994866021,1174854376445569,0.62100005,3.86595,9.016951
1679994866028,1174854378947718,0.70500004,3.9529502,9.084001
1679994866028,1174854381449641,0.70995003,3.8809502,9.06
1679994866030,1174854383951487,0.633,3.9139502,9.048
1679994866031,1174854386453564,0.67695004,3.8760002,9.06
1679994866035,1174854388955487,0.63105005,3.828,9.0070505
1679994866037,1174854391457337,0.69600004,3.9100502,9.11295
1679994866038,1174854393959414,0.69600004,3.8260503,9.022051
1679994866041,1174854396461568,0.63600004,3.9529502,9.0720005
1679994866044,1174854398963491,0.693,3.9889503,8.998051
1679994866051,1174854401465337,0.77205,3.9100502,9.0
1679994866052,1174854403967414,0.76500005,3.969,9.05805
1679994866052,1174854406469337,0.72705,3.8740501,9.03405
1679994866053,1174854408971183,0.73200005,3.89805,9.016951
1679994866056,1174854411473313,0.669,3.936,9.204
1679994866059,1174854413975390,0.75795,3.9070501,9.043051
1679994866061,1174854416477313,0.74805003,4.05105,8.904
1679994866063,1174854418979159,0.648,3.9450002,8.96205
1679994866068,1174854421481231,0.684,3.9840002,9.0
1679994866069,1174854423983154,0.66705,3.96495,9.019051
1679994866071,1174854426485001,0.76995003,4.005,9.1369505
1679994866073,1174854428987154,0.684,4.06005,9.07005
1679994866077,1174854431488992,0.66,4.06005,9.052951
1679994866079,1174854433991069,0.669,4.05795,9.084001
1679994866081,1174854436492992,0.76305,3.9790502,9.022051
1679994866085,1174854438994828,0.624,4.0009503,9.07005
1679994866087,1174854441496905,0.64995,3.99795,9.049951
1679994866089,1174854443998828,0.64995,4.032,9.0379505
1679994866091,1174854446500982,0.67395,3.9840002,9.1060505
1679994866093,1174854449002828,0.60705,3.9619503,9.12705
1679994866096,1174854451504886,0.61005,4.0339503,9.12495
1679994866099,1174854454006809,0.624,4.0339503,9.11505
1679994866101,1174854456508886,0.648,4.0080004,9.024
1679994866104,1174854459010732,0.60495,4.0630503,8.979
1679994866107,1174854461512655,0.59505004,4.0630503,9.10305
1679994866109,1174854464014823,0.61005,4.00995,9.085951
1679994866111,1174854466516669,0.61200005,4.017,9.10095
1679994866113,1174854469018746,0.64500004,4.02495,9.0720005
1679994866117,1174854471520669,0.58095,3.9739501,9.156
1679994866119,1174854474022530,0.70305,4.00995,9.048
1679994866123,1174854476524607,0.68100005,3.9910502,9.031051
1679994866124,1174854479026530,0.72900003,4.0020003,9.048
1679994866128,1174854481528607,0.693,3.8419502,9.02595
1679994866130,1174854484030530,0.82500005,3.9889503,9.06
1679994866131,1174854486532607,0.717,3.99795,9.12195
1679994866134,1174854489034453,0.72900003,3.936,9.1060505
1679994866137,1174854491536607,0.76500005,4.0080004,9.04605
1679994866139,1174854494038544,0.69795,3.96705,8.97105
1679994866141,1174854496540390,0.80100006,3.9889503,8.991
1679994866144,1174854499042467,0.76500005,3.969,9.055051
1679994866146,1174854501544390,0.66705,3.9499502,9.06495
1679994866148,1174854504046237,0.744,3.9019501,9.148951
1679994866151,1174854506548313,0.76005006,3.9019501,8.98305
1679994866153,1174854509050467,0.72900003,3.9739501,9.08205
1679994866157,1174854511552313,0.71505004,3.9790502,9.08205
1679994866160,1174854514054237,0.70995003,3.9550502,9.06705
1679994866162,1174854516556328,0.708,4.02495,9.12705
1679994866164,1174854519058252,0.72705,4.017,9.08895
1679994866167,1174854521560098,0.78900003,4.0279503,9.07005
1679994866169,1174854524062175,0.70095,4.077,9.036
1679994866171,1174854526564329,0.74805003,4.02105,9.261001
1679994866174,1174854529066261,0.65505004,3.9139502,9.1699505
1679994866177,1174854531568107,0.71505004,3.9619503,9.117001
1679994866180,1174854534070184,0.68595004,3.8260503,9.196951
1679994866182,1174854536572107,0.76995003,3.8449502,9.09105
1679994866184,1174854539073953,0.708,3.8470502,9.061951
1679994866187,1174854541576030,0.70095,3.8929503,9.010051
1679994866190,1174854544078184,0.72900003,3.7399502,9.040951
1679994866191,1174854546580030,0.76500005,3.831,8.93805
1679994866194,1174854549081953,0.75795,3.8620503,8.896951
1679994866198,1174854551583804,0.73395,3.9120002,8.77305
1679994866200,1174854554085881,0.80100006,3.9720001,8.787001
1679994866202,1174854556587804,0.69105005,4.06995,8.79195
1679994866204,1174854559089881,0.76500005,4.06005,8.80095
1679994866206,1174854561591790,0.73905003,4.2450004,8.76105
1679994866208,1174854564093867,0.82500005,4.2190504,8.86095
1679994866211,1174854566595790,0.75105006,4.15395,8.859
1679994866214,1174854569097636,0.79395,4.22805,8.96205
1679994866217,1174854571599727,0.88695,4.2709503,9.06
1679994866219,1174854574101650,0.91305006,4.242,9.129001
1679994866222,1174854576603727,1.0030501,4.19205,9.192
1679994866224,1174854579105650,1.056,4.2379503,9.156
1679994866227,1174854581607722,0.98205006,4.1659503,9.337951
1679994866229,1174854584109645,1.03005,4.0810504,9.321
1679994866231,1174854586611722,1.0849501,4.0960503,9.325951
1679994866235,1174854589113568,1.1209501,4.0339503,9.26595
1679994866238,1174854591615492,1.0879501,3.9619503,9.394951
1679994866240,1174854594117645,1.08,3.9910502,9.307051
1679994866241,1174854596619492,1.0540501,3.92895,9.27795
1679994866244,1174854599121568,1.03005,3.9499502,9.295051
1679994866247,1174854601623425,0.84405005,3.9379501,9.193951
1679994866249,1174854604125348,0.88995004,3.9019501,9.18
1679994866251,1174854606627425,0.82695,3.8500502,9.153001
1679994866254,1174854609129348,0.72,3.8260503,9.12705
1679994866257,1174854611631425,0.648,3.83505,9.12705
1679994866259,1174854614133362,0.52305,3.9379501,9.1369505
1679994866261,1174854616635208,0.55395,3.92895,9.06
1679994866264,1174854619137285,0.47505003,3.9190502,9.10305
1679994866266,1174854621639208,0.483,3.9430501,8.98095
1679994866269,1174854624141314,0.41595003,3.9499502,9.073951
1679994866273,1174854626643160,0.32505003,3.936,8.94495
1679994866274,1174854629145314,0.252,3.969,9.022051
1679994866277,1174854631647251,0.279,3.9480002,9.016951
1679994866279,1174854634149328,0.171,3.9889503,8.916
1679994866281,1174854636651174,0.15900001,4.06995,8.98305
1679994866284,1174854639153097,0.19500001,4.1130004,8.93295
1679994866287,1174854641655174,0.11895001,4.125,8.93805
1679994866288,1174854644157083,0.24105,4.149,8.884951
1679994866291,1174854646659160,0.11595,4.1680503,9.0
1679994866294,1174854649161083,0.15,4.17495,9.049951
1679994866296,1174854651662929,0.24795002,4.221,9.024
1679994866300,1174854654165006,0.32205,4.23,9.07005
1679994866301,1174854656666929,0.31695002,4.326,9.10305
1679994866304,1174854659169006,0.38895002,4.28595,9.09795
1679994866307,1174854661670929,0.483,4.326,9.217951
1679994866310,1174854664172775,0.50895,4.2109504,9.085951
1679994866312,1174854666674852,0.57405,4.2780004,9.09795
1679994866314,1174854669176775,0.72,4.23,9.261001
1679994866317,1174854671678852,0.70095,4.21395,9.151051
1679994866319,1174854674180775,0.79395,4.22805,9.187051
1679994866321,1174854676682880,0.91305006,4.2109504,9.120001
1679994866324,1174854679184803,0.83205,4.14195,9.208051
1679994866336,1174854681686650,0.96795005,4.18695,9.168
1679994866336,1174854684188727,1.0129501,4.2190504,9.225
1679994866336,1174854686690650,0.9990001,4.17495,9.199051
1679994866336,1174854689192492,0.98505,4.116,9.177
1679994866336,1174854691694646,1.0200001,4.15905,9.13395
1679994866339,1174854694196492,0.915,4.0800004,9.1060505
1679994866341,1174854696698569,0.96300006,4.0339503,9.156
1679994866343,1174854699200482,0.90405005,4.14195,9.1369505
1679994866348,1174854701702559,0.92505,4.0140004,9.120001
1679994866349,1174854704204405,0.96105003,4.092,9.228001
1679994866351,1174854706706328,0.92700005,4.0350003,9.1369505
1679994866354,1174854709208453,0.95100003,4.089,9.010051
1679994866356,1174854711710299,0.80100006,4.15905,9.012
1679994866358,1174854714212376,0.82305,4.0140004,9.084001
1679994866361,1174854716714299,0.80100006,4.11105,9.052951
1679994866363,1174854719216366,0.66,4.0669503,9.07695
1679994866366,1174854721718212,0.67200005,4.15395,9.028951
1679994866368,1174854724220135,0.65505004,4.0800004,9.024
1679994866371,1174854726722289,0.63105005,4.1200504,9.07695
1679994866374,1174854729224380,0.59505004,4.08405,9.05805
1679994866376,1174854731726226,0.56205004,4.20195,8.952001
1679994866379,1174854734228149,0.50895,4.092,9.028951
1679994866381,1174854736729995,0.56895,4.12305,8.94495
1679994866386,1174854739232067,0.51600003,4.08705,9.004951
1679994866388,1174854741733990,0.43500003,4.1350503,9.07695
1679994866391,1174854744236067,0.53295004,4.077,9.085951
1679994866393,1174854746737990,0.492,4.0810504,9.0070505
1679994866394,1174854749240067,0.52605003,4.11795,9.012
1679994866396,1174854751741918,0.47100002,4.02705,9.06
1679994866399,1174854754243842,0.55005,4.077,8.943001
1679994866401,1174854756745919,0.54495,4.02495,9.0
1679994866404,1174854759247842,0.55695003,4.0630503,8.96895
1679994866409,1174854761749890,0.56595004,4.017,9.07005
1679994866409,1174854764251813,0.648,3.9720001,9.028951
1679994866411,1174854766753890,0.57105005,4.0459504,9.07695
1679994866413,1174854769255736,0.60705,4.0080004,9.031051
1679994866416,1174854771757659,0.60195005,3.9769502,8.896951
1679994866419,1174854774259722,0.59805006,4.0810504,8.9740505
1679994866423,1174854776761876,0.64095,3.99795,8.988001
1679994866426,1174854779263722,0.624,3.9070501,9.06495
1679994866428,1174854781765645,0.59505004,3.96705,9.06
1679994866430,1174854784307467,0.708,3.9810002,9.06495
1679994866432,1174854786769621,0.61695004,3.9450002,9.043051
1679994866434,1174854789271467,0.61695004,4.017,9.004951
1679994866437,1174854791773544,0.69600004,4.0009503,9.05805
1679994866439,1174854794275467,0.777,3.9889503,9.03405
1679994866441,1174854796777510,0.73395,3.936,9.11295
1679994866444,1174854799279433,0.67395,3.8860502,8.928
1679994866447,1174854801781279,0.657,3.9910502,9.010051
1679994866449,1174854804283356,0.693,4.032,9.085951
1679994866451,1174854806785279,0.78000003,4.065,9.04605
1679994866454,1174854809287130,0.74595004,3.969,9.049951
1679994866457,1174854811789284,0.82005006,3.9379501,9.12495
1679994866461,1174854814291361,0.77505004,3.9550502,9.07905
1679994866463,1174854816793221,0.78195006,3.9240003,9.024
1679994866466,1174854819295144,0.69795,3.9430501,8.96895
1679994866468,1174854821797298,0.73395,3.9810002,9.10995
1679994866470,1174854824299144,0.67395,3.8500502,8.967
1679994866472,1174854826801221,0.74595004,3.9430501,9.1060505
1679994866475,1174854829303158,0.71505004,3.9450002,9.06495
1679994866477,1174854831805005,0.75105006,3.8860502,9.1369505
1679994866480,1174854834307081,0.69105005,3.9379501,8.98305
1679994866482,1174854836808996,0.78405005,3.9100502,9.09105
1679994866485,1174854839311149,0.64095,3.8929503,9.0070505
1679994866488,1174854841812996,0.71295005,3.8899503,8.986051
1679994866489,1174854844315072,0.67200005,3.831,9.061951
1679994866491,1174854846816996,0.717,3.9,9.06
1679994866494,1174854849319058,0.66705,3.9169502,9.172951
1679994866500,1174854851820904,0.66195005,3.8470502,9.09405
1679994866501,1174854854322827,0.80100006,3.936,9.040951
1679994866503,1174854856824981,0.72705,3.9570003,9.1369505
1679994866505,1174854859326832,0.76005006,3.8520002,9.10305
1679994866508,1174854861828909,0.717,3.9070501,9.156
1679994866509,1174854864330755,0.78705,3.8740501,9.031051
1679994866511,1174854866832678,0.76500005,3.9070501,9.07905
1679994866514,1174854869334755,0.72195005,3.9,9.05805
1679994866517,1174854871836636,0.78705,3.8689501,9.016951
1679994866519,1174854874338713,0.71505004,3.936,9.06
1679994866522,1174854876840636,0.768,3.8569503,9.07905
1679994866525,1174854879342713,0.73200005,3.936,9.156
1679994866527,1174854881844554,0.77205,3.9240003,9.084001
1679994866529,1174854884346477,0.73905003,4.0009503,9.08205
1679994866531,1174854886848554,0.72405005,4.0009503,8.95905
1679994866536,1174854889350400,0.72195005,3.8449502,9.036
1679994866538,1174854891852554,0.69795,3.9310503,9.048
1679994866541,1174854894354477,0.67905,3.9259503,9.0720005
1679994866543,1174854896856554,0.73605,3.9529502,9.04605
1679994866544,1174854899358400,0.73395,3.8539503,9.07905
1679994866547,1174854901860323,0.744,3.9070501,8.9740505
1679994866549,1174854904362400,0.73395,3.99795,9.11505
1679994866552,1174854906864323,0.79200006,3.933,9.108001
1679994866554,1174854909366400,0.80100006,3.9550502,9.084001
1679994866559,1174854911868323,0.80595005,3.9,9.0070505
1679994866559,1174854914370405,0.684,3.9720001,9.012
1679994866561,1174854916872251,0.684,3.9190502,9.153001
1679994866564,1174854919374175,0.744,3.9910502,9.165
1679994866567,1174854921876251,0.74805003,3.8569503,9.07905
1679994866569,1174854924378107,0.71295005,3.8419502,9.120001
1679994866575,1174854926880260,0.753,3.92895,9.225
1679994866577,1174854929382107,0.64995,4.0279503,9.09105
1679994866578,1174854931884030,0.74805003,3.9430501,9.129001
1679994866582,1174854934386102,0.72705,3.933,9.196951
1679994866583,1174854936887948,0.837,3.8760002,9.052951
1679994866584,1174854939389871,0.80595005,3.92895,9.153001
1679994866588,1174854941892025,0.76305,3.9430501,9.0379505
1679994866589,1174854944394102,0.83205,3.9480002,9.23505
1679994866592,1174854946895963,0.78000003,3.831,9.144
1679994866594,1174854949397886,0.79905003,3.9139502,9.165
1679994866597,1174854951899963,0.76305,3.9769502,9.153001
1679994866599,1174854954401886,0.79395,3.9600003,9.1060505
1679994866601,1174854956903750,0.72,3.9190502,9.09405
1679994866604,1174854959405904,0.77205,4.06995,9.10995
1679994866608,1174854961907981,0.669,4.0129504,8.991
1679994866611,1174854964409904,0.76500005,3.9450002,9.120001
1679994866612,1174854966911764,0.80100006,4.053,9.04605
1679994866614,1174854969413841,0.777,4.0339503,9.048
1679994866617,1174854971915764,0.71505004,4.02495,9.09405
1679994866620,1174854974417610,0.86595005,4.077,9.09795
1679994866622,1174854976919764,0.81495005,4.0339503,9.07005
1679994866624,1174854979421563,0.82500005,4.0140004,9.048
1679994866627,1174854981923640,0.753,4.053,9.036
1679994866629,1174854984425486,0.79605,4.0279503,9.08205
1679994866631,1174854986927640,0.81105006,3.96495,9.085951
1679994866634,1174854989429544,0.657,4.0810504,8.986051
1679994866637,1174854991931621,0.777,4.044,9.0379505
1679994866639,1174854994433467,0.86805004,4.02495,9.14595
1679994866641,1174854996935390,0.81795,4.02705,9.06
1679994866644,1174854999437467,0.76995003,4.02,9.1699505
1679994866649,1174855001939323,0.74100006,4.017,9.08205
1679994866651,1174855004441476,0.72900003,3.9889503,9.175051
1679994866652,1174855006943399,0.72900003,3.99795,9.12495
1679994866654,1174855009445246,0.73395,4.017,9.055051
1679994866657,1174855011947347,0.67905,3.9529502,9.13395
1679994866660,1174855014449193,0.68595004,3.9310503,9.117001
1679994866661,1174855016951116,0.70995003,3.9,9.085951
1679994866664,1174855019453193,0.67395,4.0140004,8.94495
1679994866667,1174855021955356,0.78000003,3.99795,9.052951
1679994866669,1174855024457202,0.68895006,3.9889503,9.085951
1679994866671,1174855026959125,0.75105006,3.9769502,9.0379505
1679994866674,1174855029461202,0.74595004,4.0810504,9.163051
1679994866677,1174855031963125,0.77205,4.0129504,9.117001
1679994866679,1174855034464971,0.76305,4.05795,9.012
1679994866682,1174855036967048,0.75600004,4.032,9.175051
1679994866686,1174855039469202,0.77505004,3.9450002,9.1060505
1679994866689,1174855041971178,0.74805003,4.08405,9.073951
1679994866691,1174855044473024,0.80805004,3.9790502,9.048
1679994866692,1174855046975101,0.744,4.11795,9.08205
1679994866694,1174855049476947,0.77205,3.9889503,9.061951
1679994866697,1174855051978870,0.78705,4.053,9.004951
1679994866700,1174855054480966,0.777,4.0009503,9.0720005
1679994866702,1174855056983120,0.71505004,3.9570003,9.06
1679994866704,1174855059484966,0.708,4.017,9.09405
1679994866707,1174855061986889,0.72195005,4.0459504,9.1060505
1679994866709,1174855064488726,0.76005006,3.9720001,9.07905
1679994866713,1174855066990803,0.73605,4.0080004,9.07695
1679994866715,1174855069492726,0.72900003,3.9859502,9.04605
1679994866718,1174855071994573,0.70995003,3.9570003,9.022051
1679994866719,1174855074496740,0.68100005,4.0470004,9.07905
1679994866726,1174855076998817,0.71295005,3.8590503,9.084001
1679994866727,1174855079500740,0.61695004,4.056,8.991
1679994866728,1174855082002587,0.67695004,3.9889503,8.964001
1679994866730,1174855084504664,0.684,4.017,9.12705
1679994866732,1174855087006587,0.67905,3.96495,9.06495
1679994866734,1174855089508664,0.74595004,4.032,8.99505
1679994866736,1174855092010587,0.669,3.969,9.11505
1679994866740,1174855094512664,0.70500004,3.9,9.108001
1679994866741,1174855097014592,0.66495,4.06005,9.144
1679994866743,1174855099516438,0.75795,3.9570003,9.049951
1679994866746,1174855102018515,0.74100006,3.9570003,9.10305
1679994866749,1174855104520438,0.68100005,4.0020003,9.06495
1679994866751,1174855107022534,0.66495,4.02,9.061951
1679994866754,1174855109524457,0.68100005,4.0140004,9.172951
1679994866757,1174855112026534,0.777,4.0669503,9.073951
1679994866761,1174855114528380,0.64095,4.053,9.08895
1679994866762,1174855117030322,0.77205,4.06995,9.141001
1679994866764,1174855119532399,0.70305,4.0459504,9.196951
1679994866767,1174855122034245,0.74100006,4.0009503,9.11505
1679994866769,1174855124536399,0.65505004,3.99795,9.10095
1679994866771,1174855127038322,0.717,3.9840002,9.073951
1679994866774,1174855129540159,0.71505004,3.99795,9.043051
1679994866776,1174855132042236,0.68595004,3.96705,9.15795
1679994866779,1174855134544159,0.70305,4.0080004,9.168
1679994866781,1174855137046236,0.63105005,3.9930003,9.06705
1679994866783,1174855139548082,0.73605,4.005,9.187051
1679994866786,1174855142050240,0.708,4.0630503,9.1369505
1679994866788,1174855144552086,0.70095,4.06005,9.144
1679994866792,1174855147054009,0.75600004,4.089,9.10305
1679994866794,1174855149556086,0.753,4.0020003,9.172951
1679994866798,1174855152058058,0.61395,4.0410004,9.12705
1679994866800,1174855154560135,0.78705,3.9619503,9.12195
1679994866802,1174855157062058,0.648,4.0140004,9.031051
1679994866804,1174855159564135,0.69600004,4.005,9.144
1679994866807,1174855162065990,0.68895006,4.02105,9.177
1679994866809,1174855164567914,0.70500004,4.053,9.10995
1679994866812,1174855167069990,0.62100005,4.0410004,9.172951
1679994866814,1174855169572144,0.669,3.936,9.117001
1679994866817,1174855172073981,0.67905,4.0410004,8.964001
1679994866820,1174855174575904,0.57405,4.0129504,9.1369505
1679994866822,1174855177077750,0.669,3.9910502,9.13395
1679994866824,1174855179579827,0.66195005,3.9720001,9.129001
1679994866828,1174855182081750,0.61395,3.9840002,9.153001
1679994866829,1174855184583596,0.55200005,4.02495,9.141001
1679994866832,1174855187085750,0.72405005,3.9450002,9.192
1679994866836,1174855189587827,0.72705,3.9430501,9.07905
1679994866838,1174855192089654,0.717,4.065,9.09795
1679994866840,1174855194591577,0.69795,3.9310503,9.048
1679994866842,1174855197093654,0.69105005,4.032,9.05805
1679994866845,1174855199595577,0.75600004,4.05795,9.163051
1679994866848,1174855202097423,0.624,4.0080004,9.12195
1679994866849,1174855204599577,0.66195005,3.99795,9.05805
1679994866852,1174855207101654,0.69105005,4.0080004,9.196951
1679994866854,1174855209603500,0.66,4.02105,9.117001
1679994866857,1174855212105404,0.70995003,3.9720001,9.0070505
1679994866860,1174855214607481,0.69795,3.9499502,8.9740505
1679994866862,1174855217109404,0.66195005,3.9790502,9.12705
1679994866864,1174855219611250,0.588,3.9379501,9.06
1679994866868,1174855222113380,0.64995,3.9049501,9.03405
1679994866870,1174855224615457,0.61005,3.8929503,9.108001
1679994866874,1174855227117303,0.684,3.9550502,9.028951
1679994866876,1174855229619226,0.67395,4.0129504,9.144
1679994866878,1174855232121303,0.57105005,3.9720001,8.94705
1679994866879,1174855234623169,0.61200005,3.9859502,9.040951
1679994866882,1174855237125093,0.61005,3.99795,9.08895
1679994866884,1174855239627246,0.624,3.9840002,8.991
1679994866889,1174855242129093,0.61200005,4.00995,9.010051
1679994866890,1174855244631169,0.62895006,4.02705,8.964001
1679994866891,1174855247133093,0.60195005,3.8830502,9.010051
1679994866894,1174855249634939,0.57795,4.0140004,9.08205
1679994866897,1174855252137016,0.69795,3.9739501,9.031051
1679994866900,1174855254638900,0.67695004,3.9169502,9.06705
1679994866902,1174855257140977,0.64095,4.017,9.022051
1679994866905,1174855259642900,0.648,4.0410004,8.94705
1679994866907,1174855262144977,0.58095,3.9529502,9.172951
1679994866911,1174855264646895,0.67695004,3.9960003,9.043051
1679994866914,1174855267148741,0.648,3.9810002,9.10305
1679994866915,1174855269650818,0.59805006,3.8929503,9.07695
1679994866918,1174855272152972,0.648,4.0350003,9.148951
1679994866920,1174855274654895,0.58995,3.9019501,9.07695
1679994866924,1174855277156761,0.71505004,4.0129504,9.06
1679994866924,1174855279658838,0.6,3.9430501,9.189
1679994866928,1174855282160761,0.67695004,3.9910502,9.1060505
1679994866929,1174855284662607,0.684,4.0129504,9.010051
1679994866933,1174855287164650,0.61695004,3.9910502,9.031051
1679994866935,1174855289666804,0.65295005,4.0350003,9.172951
1679994866937,1174855292168650,0.65505004,3.9070501,9.177
1679994866940,1174855294670573,0.65505004,3.9139502,9.199051
1679994866941,1174855297172419,0.66195005,3.8779502,9.205951
1679994866944,1174855299674501,0.753,3.9790502,9.06705
1679994866949,1174855302176424,0.69795,3.9480002,9.040951
1679994866951,1174855304678270,0.68595004,3.9070501,9.036
1679994866958,1174855307180424,0.74100006,3.8929503,9.14595
1679994866958,1174855309682501,0.684,3.9070501,9.11505
1679994866958,1174855312184347,0.72705,3.9,9.031051
1679994866959,1174855314686270,0.63105005,3.86595,9.096001
1679994866962,1174855317188347,0.74595004,3.9190502,9.117001
1679994866964,1174855319690251,0.744,3.9310503,9.13395
1679994866967,1174855322192328,0.71505004,3.9810002,9.165
1679994866969,1174855324694251,0.61395,3.9720001,9.084001
1679994866972,1174855327196098,0.657,3.99795,9.040951
1679994866974,1174855329698151,0.68100005,3.9550502,8.998051
1679994866977,1174855332200074,0.69795,3.9840002,8.991
1679994866980,1174855334702151,0.53295004,3.9379501,8.998051
1679994866982,1174855337204074,0.72705,3.9600003,9.04605
1679994866986,1174855339706151,0.65295005,3.8710501,9.024
1679994866988,1174855342208074,0.67695004,3.9889503,9.043051
1679994866991,1174855344709920,0.669,3.9220502,9.048
1679994866993,1174855347211997,0.684,3.9450002,9.10995
1679994866995,1174855349713920,0.68895006,4.03905,9.06
1679994866998,1174855352216059,0.61905,3.9430501,9.024
1679994867000,1174855354717905,0.61395,3.9070501,9.022051
1679994867002,1174855357219982,0.63105005,4.005,8.991
1679994867004,1174855359721905,0.51405,4.02105,9.085951
1679994867008,1174855362223756,0.507,3.9070501,9.205951
1679994867009,1174855364725833,0.61905,3.936,9.07905
1679994867012,1174855367227679,0.61200005,3.9049501,9.012
1679994867014,1174855369729833,0.56895,3.9070501,9.04605
1679994867018,1174855372231756,0.52095,3.9810002,8.887951
1679994867021,1174855374733587,0.58305,4.02105,9.117001
1679994867026,1174855377235664,0.53805,3.9550502,9.073951
1679994867027,1174855379737587,0.63795,3.9450002,9.022051
1679994867029,1174855382672049,0.564,3.9619503,9.12195
1679994867031,1174855384913218,0.60195005,3.9049501,9.129001
1679994867034,1174855387243679,0.65295005,4.0279503,9.0070505
1679994867036,1174855389745602,0.65295005,3.9769502,9.132
1679994867038,1174855392247448,0.56895,3.9259503,9.07005
1679994867040,1174855394749525,0.55905,3.9120002,9.09405
1679994867042,1174855397251453,0.67905,3.8620503,9.06
1679994867044,1174855399753530,0.61005,4.0080004,9.117001
1679994867049,1174855402255377,0.62595004,3.9769502,9.09795
1679994867050,1174855404757530,0.66195005,3.9619503,8.9740505
1679994867053,1174855407259467,0.744,3.9120002,9.043051
1679994867058,1174855409761544,0.72405005,4.0740004,9.03405
1679994867063,1174855412263391,0.60495,3.9790502,9.073951
1679994867065,1174855414765319,0.624,4.05105,9.085951
1679994867065,1174855417267165,0.69105005,3.9859502,8.94705
1679994867067,1174855419769242,0.72,4.0350003,9.049951
1679994867069,1174855422271396,0.657,3.9619503,9.1369505
1679994867071,1174855424773242,0.67395,3.9570003,9.084001
1679994867074,1174855427275165,0.63105005,3.8470502,9.084001
1679994867075,1174855429777030,0.66195005,3.89805,9.08895
1679994867077,1174855432279107,0.66705,3.9450002,9.14595
1679994867079,1174855434781030,0.744,3.9550502,9.13395
1679994867082,1174855437283107,0.64500004,3.9810002,9.120001
1679994867085,1174855439785020,0.69600004,3.9120002,9.02595
1679994867088,1174855442287097,0.71505004,3.9810002,9.141001
1679994867090,1174855444789020,0.75795,3.9720001,9.085951
1679994867092,1174855447291097,0.58305,4.00995,8.99505
1679994867095,1174855449792943,0.61395,3.8929503,9.10305
1679994867101,1174855452294866,0.68100005,3.936,9.022051
1679994867103,1174855454797020,0.624,3.9739501,9.12195
1679994867104,1174855457299097,0.75795,3.9450002,9.148951
1679994867106,1174855459800958,0.67905,3.8620503,9.052951
1679994867108,1174855462302881,0.65295005,3.9259503,9.05805
1679994867110,1174855464804958,0.64500004,3.86595,8.93295
1679994867112,1174855467306804,0.693,3.9840002,9.117001
1679994867115,1174855469808958,0.65295005,3.9220502,9.1699505
1679994867117,1174855472310871,0.70500004,3.8040001,9.06495
1679994867119,1174855474812717,0.69795,3.8500502,9.07005
1679994867122,1174855477314794,0.63105005,3.8880002,9.12195
1679994867125,1174855479816717,0.62895006,3.9379501,9.05805
1679994867128,1174855482318530,0.64500004,3.8590503,9.1369505
1679994867129,1174855484820683,0.669,3.9310503,9.08205
1679994867132,1174855487322530,0.64095,3.9190502,9.049951
1679994867136,1174855489824606,0.71505004,3.8569503,9.1699505
1679994867139,1174855492326521,0.69105005,3.9070501,9.06705
1679994867141,1174855494828367,0.70095,3.9120002,9.108001
1679994867143,1174855497330444,0.61695004,3.96495,9.12705
1679994867147,1174855499832598,0.70995003,3.8110502,9.141001
1679994867148,1174855502334444,0.71295005,3.89805,9.1060505
1679994867150,1174855504836396,0.73605,3.8809502,9.27795
1679994867152,1174855507338473,0.69600004,3.86595,9.193951
1679994867154,1174855509840396,0.73605,3.9790502,9.163051
1679994867157,1174855512342242,0.73200005,3.933,9.09795
1679994867159,1174855514844319,0.69795,3.969,9.228001
1679994867161,1174855517346482,0.73905003,3.8950503,9.14595
1679994867164,1174855519848405,0.78000003,3.8689501,9.25605
1679994867167,1174855522350251,0.74805003,4.0339503,9.096001
1679994867169,1174855524852328,0.75795,3.9810002,9.187051
1679994867176,1174855527354222,0.74805003,4.0459504,9.12495
1679994867177,1174855529856068,0.76500005,3.8809502,9.129001
1679994867179,1174855532358145,0.76005006,3.9550502,9.337951
1679994867183,1174855534860299,0.63600004,3.9619503,9.163051
1679994867184,1174855537362145,0.70995003,4.0080004,9.096001
1679994867186,1174855539864073,0.70095,4.02,8.98305
1679994867188,1174855542366150,0.68895006,3.89805,9.04605
1679994867189,1174855544867996,0.73905003,4.0410004,9.18
1679994867192,1174855547369919,0.68100005,4.0800004,9.10305
1679994867195,1174855549871746,0.753,3.9600003,9.13395
1679994867197,1174855552373900,0.72195005,4.0140004,9.156
1679994867200,1174855554875977,0.76995003,4.0339503,9.132
1679994867203,1174855557377900,0.66495,4.02105,9.181951
1679994867205,1174855559879747,0.64095,3.9769502,9.07905
1679994867210,1174855562381828,0.72,4.05105,9.1699505
1679994867212,1174855564883752,0.73395,3.9960003,9.196951
1679994867213,1174855567385828,0.69105005,4.017,9.165
1679994867218,1174855569887785,0.68595004,3.9259503,9.1390505
1679994867219,1174855572389861,0.76500005,4.0009503,9.196951
1679994867221,1174855574891785,0.72900003,4.0009503,9.129001
1679994867225,1174855577393861,0.669,4.0080004,9.117001
1679994867227,1174855579895708,0.744,3.92895,9.1060505
1679994867228,1174855582397606,0.65505004,3.9450002,9.0379505
1679994867230,1174855584899683,0.69600004,3.9120002,9.07905
1679994867234,1174855587401606,0.65295005,4.0009503,9.1699505
1679994867235,1174855589903683,0.62895006,3.8740501,9.108001
1679994867237,1174855592405529,0.59295005,3.9619503,9.160951
1679994867241,1174855594907442,0.633,3.8860502,9.08895
1679994867242,1174855597409519,0.67695004,3.92895,9.0720005
1679994867245,1174855599911365,0.66195005,3.9,9.052951
1679994867250,1174855602413288,0.67395,3.9220502,9.09405
1679994867251,1174855604915457,0.61695004,3.9220502,9.10995
1679994867253,1174855607417303,0.61905,3.9889503,9.016951
1679994867255,1174855609919380,0.61200005,3.936,9.096001
1679994867257,1174855612421303,0.55905,3.8400002,9.0379505
1679994867261,1174855614923380,0.60195005,3.9,9.055051
1679994867262,1174855617425235,0.54495,3.8899503,8.98305
1679994867265,1174855619927389,0.57405,3.9100502,8.964001
1679994867268,1174855622429312,0.61005,3.9499502,8.98095
1679994867269,1174855624931389,0.588,3.8620503,9.1060505
1679994867272,1174855627433235,0.61005,3.8539503,8.99505
1679994867275,1174855629935144,0.61200005,3.9190502,9.022051
1679994867277,1174855632437221,0.65295005,3.9259503,9.085951
1679994867279,1174855634939144,0.70500004,3.8040001,9.151051
1679994867283,1174855637440990,0.62595004,3.8500502,9.12705
1679994867286,1174855639943067,0.56595004,3.7800002,9.09405
1679994867289,1174855642444990,0.73395,3.8419502,9.156
1679994867291,1174855644947067,0.693,3.7680001,9.12705
1679994867293,1174855647448876,0.67395,3.8620503,9.073951
1679994867294,1174855649951029,0.73605,3.8830502,9.193951
1679994867297,1174855652452952,0.76005006,3.7780502,9.141001
1679994867300,1174855654954799,0.71295005,3.8569503,9.168
1679994867302,1174855657456876,0.79200006,3.8590503,9.285001
1679994867304,1174855659958827,0.76005006,3.7870502,9.189
1679994867308,1174855662460904,0.64995,3.8380501,9.192
1679994867309,1174855664962750,0.86295,3.8500502,9.144
1679994867312,1174855667464904,0.78405005,3.9100502,9.156
1679994867315,1174855669966760,0.73905003,3.7780502,9.10995
1679994867318,1174855672468683,0.813,3.7750502,9.15795
1679994867320,1174855674970760,0.73395,3.8520002,9.148951
1679994867325,1174855677472583,0.91005003,3.9810002,9.205951
1679994867327,1174855679974506,0.72195005,3.9049501,9.160951
1679994867329,1174855682476660,0.79605,3.8830502,9.13395
1679994867331,1174855684978506,0.744,3.8950503,9.14595
1679994867333,1174855687480583,0.70500004,3.9720001,9.0720005
1679994867335,1174855689982491,0.67200005,3.9720001,9.15795
1679994867338,1174855692484568,0.58995,3.9220502,9.151051
1679994867343,1174855694986414,0.73905003,3.9169502,9.1369505
1679994867343,1174855697488337,0.61395,3.8860502,9.129001
1679994867345,1174855699990491,0.59505004,3.9019501,9.09795
1679994867347,1174855702492370,0.66495,3.9910502,9.05805
1679994867349,1174855704994447,0.624,3.9769502,8.9740505
1679994867352,1174855707496370,0.65505004,3.9169502,9.048
1679994867355,1174855709998447,0.56205004,3.8539503,9.08895
1679994867358,1174855712500312,0.60495,3.9169502,9.052951
1679994867361,1174855715002235,0.47505003,3.8569503,8.96205
1679994867363,1174855717504389,0.45600003,3.9769502,9.024
1679994867365,1174855720006274,0.64095,3.8860502,9.10095
1679994867368,1174855722508351,0.56205004,3.9070501,9.07905
1679994867370,1174855725010274,0.507,3.8569503,8.9740505
1679994867372,1174855727512121,0.55200005,3.9120002,9.052951
1679994867375,1174855730014198,0.49695003,3.9,9.048
1679994867377,1174855732516121,0.528,3.9169502,9.048
1679994867380,1174855735018198,0.57405,3.9409502,9.052951
1679994867382,1174855737520121,0.61005,3.9310503,9.016951
1679994867384,1174855740022198,0.56595004,3.8160002,9.028951
1679994867389,1174855742524029,0.56895,3.9409502,9.04605
1679994867391,1174855745025952,0.68895006,3.8260503,9.049951
1679994867392,1174855747528029,0.64095,3.9910502,9.028951
1679994867395,1174855750029875,0.57600003,3.9,9.084001
1679994867399,1174855752532054,0.768,3.8860502,9.012
1679994867401,1174855755033977,0.67200005,3.8569503,9.1060505
1679994867403,1174855757536054,0.72705,3.8230503,9.12495
1679994867405,1174855760037900,0.684,3.8160002,9.07695
1679994867407,1174855762539828,0.74595004,3.8950503,9.0070505
1679994867409,1174855765041905,0.76500005,3.9379501,8.976001
1679994867412,1174855767543751,0.62595004,3.9259503,8.9740505
1679994867414,1174855770045905,0.717,3.8929503,9.108001
1679994867417,1174855772547838,0.64500004,3.9,9.06495
1679994867420,1174855775049684,0.744,3.9,9.1369505
1679994867422,1174855777551761,0.72,3.9570003,9.132
1679994867425,1174855780053684,0.73905003,3.933,8.920951
1679994867428,1174855782555534,0.669,3.8760002,9.11505
1679994867429,1174855785057688,0.648,3.9720001,9.043051
1679994867432,1174855787559765,0.633,3.9070501,9.040951
1679994867437,1174855790061626,0.624,3.9049501,9.07005
1679994867439,1174855792563549,0.69105005,3.8620503,9.06
1679994867441,1174855795065626,0.64095,3.83505,9.10095
1679994867443,1174855797567549,0.65505004,3.8260503,9.108001
1679994867445,1174855800069626,0.68595004,3.8569503,9.09405
1679994867447,1174855802571558,0.63105005,3.7870502,9.0
1679994867449,1174855805073405,0.70500004,3.828,9.022051
1679994867452,1174855807575481,0.669,3.9480002,9.085951
1679994867455,1174855810077405,0.57405,3.831,9.048
1679994867458,1174855812579295,0.61905,3.9430501,9.05805
1679994867461,1174855815081449,0.60195005,3.8899503,9.05805
1679994867463,1174855817583526,0.633,3.8230503,9.232051
1679994867465,1174855820085449,0.64995,3.8809502,9.096001
1679994867467,1174855822587299,0.61005,3.9840002,9.144
1679994867470,1174855825089376,0.73395,3.933,9.061951
1679994867474,1174855827591299,0.62595004,3.8899503,9.07005
1679994867477,1174855830093376,0.753,3.9550502,9.031051
1679994867478,1174855832595304,0.66705,3.9430501,9.07905
1679994867480,1174855835097381,0.71295005,3.9019501,9.165
1679994867482,1174855837599227,0.61695004,3.9720001,9.199051
1679994867485,1174855840101150,0.63795,3.9450002,9.141001
1679994867488,1174855842603227,0.59505004,3.89805,9.156
1679994867489,1174855845105164,0.61005,3.9430501,9.1369505
1679994867492,1174855847607241,0.57405,3.9379501,9.108001
1679994867495,1174855850109164,0.61905,3.9529502,9.084001
1679994867497,1174855852611010,0.63105005,3.936,9.175051
1679994867501,1174855855113059,0.70305,4.0080004,8.98095
1679994867502,1174855857614982,0.56205004,3.8779502,9.1060505
1679994867505,1174855860116828,0.55200005,3.9430501,9.1369505
1679994867507,1174855862618905,0.57600003,3.8830502,9.15795
1679994867512,1174855865121039,0.61005,3.936,9.016951
1679994867513,1174855867622962,0.61005,3.969,9.022051
1679994867516,1174855870124808,0.51600003,3.9190502,9.13395
1679994867519,1174855872626885,0.58095,3.8830502,9.10095
1679994867520,1174855875128808,0.58305,3.8590503,9.15795
1679994867523,1174855877630832,0.52095,3.9100502,9.10995
1679994867526,1174855880132678,0.61005,3.8569503,9.144
1679994867528,1174855882634832,0.657,3.8740501,9.061951
1679994867530,1174855885136755,0.624,3.86595,9.09105
1679994867532,1174855887638602,0.669,3.8400002,8.952001
1679994867536,1174855890140674,0.59805006,3.9600003,9.163051
1679994867537,1174855892642598,0.61695004,4.00995,9.019051
1679994867541,1174855895144444,0.66705,3.9840002,9.177
1679994867543,1174855897646521,0.66,3.9619503,9.177
1679994867546,1174855900148448,0.648,3.9169502,9.043051
1679994867550,1174855902650525,0.78900003,3.8830502,9.144
1679994867551,1174855905152448,0.63105005,3.8500502,9.096001
1679994867553,1174855907654266,0.72405005,3.9790502,8.99505
1679994867555,1174855910156343,0.67695004,3.9910502,9.055051
1679994867557,1174855912658266,0.67395,3.92895,9.12495
1679994867560,1174855915160343,0.79200006,3.9810002,9.151051
1679994867562,1174855917662266,0.71295005,3.9220502,9.07905
1679994867565,1174855920164313,0.69795,4.02495,9.028951
1679994867567,1174855922666236,0.71505004,3.9810002,9.10095
1679994867569,1174855925168313,0.73905003,4.0080004,9.07905
1679994867572,1174855927670159,0.68595004,3.9720001,9.09795
1679994867575,1174855930172096,0.67695004,3.9910502,9.08205
1679994867583,1174855932674173,0.624,4.0279503,9.049951
1679994867583,1174855935176327,0.73200005,3.9220502,9.07695
1679994867583,1174855937678173,0.693,4.0350003,9.132
1679994867587,1174855940180106,0.69795,3.9889503,9.12705
1679994867589,1174855942681952,0.63105005,4.02495,9.144
1679994867591,1174855945184029,0.588,3.9619503,9.156
1679994867593,1174855947685952,0.63600004,4.044,9.10995
1679994867595,1174855950187798,0.61395,3.9840002,9.120001
1679994867598,1174855952689942,0.61695004,4.0470004,9.04605
1679994867600,1174855955192019,0.55395,4.00995,9.18
1679994867602,1174855957693865,0.60195005,4.0470004,9.015
1679994867605,1174855960195788,0.57795,3.9499502,9.07905
1679994867607,1174855962697942,0.61005,4.017,9.213
1679994867609,1174855965199788,0.669,3.9190502,9.07005
1679994867612,1174855967701865,0.57795,4.03905,9.1390505
1679994867617,1174855970203788,0.61200005,3.9720001,9.15795
1679994867618,1174855972705630,0.64095,3.9859502,9.12705
1679994867620,1174855975207707,0.59505004,4.0080004,9.1060505
1679994867626,1174855977709553,0.588,4.056,9.168
1679994867628,1174855980211698,0.63795,4.00995,9.085951
1679994867629,1174855982742236,0.63795,4.044,9.216001
1679994867631,1174855985215467,0.684,4.0339503,9.040951
1679994867633,1174855987717544,0.59295005,3.9139502,9.11505
1679994867636,1174855990219467,0.63795,3.96705,9.11505
1679994867638,1174855992721524,0.70500004,3.9550502,9.160951
1679994867641,1174855995223370,0.65295005,3.9910502,9.08895
1679994867642,1174855997725524,0.66705,3.9499502,9.11505
1679994867645,1174856000227447,0.62895006,3.9259503,9.108001
1679994867648,1174856002729524,0.67395,4.02705,9.052951
1679994867650,1174856005231380,0.708,3.9430501,9.05805
1679994867653,1174856007733303,0.64095,4.0129504,9.12495
1679994867658,1174856010235380,0.753,3.9550502,9.120001
1679994867658,1174856012737534,0.59805006,3.8899503,9.22305
1679994867662,1174856015239390,0.693,3.9570003,9.1369505
1679994867664,1174856017741313,0.67395,3.9550502,9.14595
1679994867666,1174856020243159,0.70305,3.9120002,9.204
1679994867669,1174856022745236,0.72705,3.8950503,9.213
1679994867670,1174856025247202,0.62595004,3.9960003,9.25395
1679994867673,1174856027749048,0.78000003,3.9259503,9.217951
1679994867676,1174856030251202,0.657,3.9,9.273001
1679994867678,1174856032753048,0.69795,3.8569503,9.073951
1679994867680,1174856035255144,0.657,3.8569503,9.232051
1679994867683,1174856037757067,0.657,3.9720001,9.132
1679994867686,1174856040259144,0.66705,3.8779502,9.07695
1679994867688,1174856042760991,0.67695004,3.9220502,9.11295
1679994867689,1174856045262914,0.73905003,4.0009503,9.193951
1679994867693,1174856047765110,0.61695004,3.9240003,9.10995
1679994867696,1174856050267187,0.648,3.9,9.14595
1679994867700,1174856052769034,0.64095,4.0669503,9.229951
1679994867702,1174856055270957,0.62595004,3.8830502,9.151051
1679994867704,1174856057773034,0.61695004,3.9259503,9.26805
1679994867708,1174856060274957,0.67395,3.9049501,9.220051
1679994867710,1174856062776803,0.78000003,3.9070501,9.184951
1679994867711,1174856065278957,0.77205,3.9169502,9.129001
1679994867712,1174856067781025,0.73905003,3.8689501,9.193951
1679994867715,1174856070282871,0.717,3.9529502,9.220051
1679994867718,1174856072784794,0.63795,3.8899503,9.168
1679994867720,1174856075286871,0.66,3.8830502,9.172951
1679994867724,1174856077788731,0.70995003,3.864,9.148951
1679994867728,1174856080290654,0.744,3.8880002,9.26805
1679994867729,1174856082792731,0.66195005,3.8230503,9.153001
1679994867730,1174856085294654,0.64305,3.80205,9.216001
1679994867732,1174856087796731,0.6,3.7780502,9.048
1679994867741,1174856090298582,0.624,3.9100502,9.1390505
1679994867742,1174856092800505,0.67695004,3.8779502,9.09795
1679994867743,1174856095302582,0.65505004,3.9430501,9.184951
1679994867744,1174856097804457,0.58605003,3.9480002,9.165
1679994867747,1174856100306534,0.67200005,3.8590503,9.1390505
1679994867748,1174856102808457,0.59505004,3.9840002,9.0720005
1679994867750,1174856105310534,0.669,3.8809502,9.1060505
1679994867752,1174856107812457,0.67695004,3.8880002,9.204
1679994867758,1174856110314255,0.62100005,3.8830502,9.160951
1679994867759,1174856112816332,0.66,3.8500502,9.09105
1679994867760,1174856115318255,0.684,3.8520002,9.06705
1679994867762,1174856117820332,0.633,3.8590503,8.98095
1679994867768,1174856120322226,0.648,3.7710001,9.055051
1679994867769,1174856122824303,0.59505004,3.8830502,9.163051
1679994867770,1174856125326149,0.669,3.8070002,9.153001
1679994867774,1174856127828303,0.60195005,3.86595,9.085951
1679994867777,1174856130330221,0.60195005,3.8830502,9.151051
1679994867778,1174856132832068,0.60495,3.8590503,9.144
1679994867783,1174856135334144,0.67905,3.8539503,9.08895
1679994867784,1174856137835991,0.657,3.8539503,9.120001
1679994867786,1174856140337914,0.62895006,3.9600003,9.05805
1679994867788,1174856142839981,0.58095,3.9409502,9.084001
1679994867793,1174856145342135,0.60195005,3.96705,9.052951
1679994867793,1174856147843981,0.54705,3.9450002,9.049951
1679994867798,1174856150345904,0.61200005,3.9190502,9.07905
1679994867799,1174856152847745,0.66,3.96705,9.06705
1679994867800,1174856155349822,0.61200005,3.96705,9.14595
1679994867802,1174856157851745,0.63600004,3.9019501,9.0
1679994867809,1174856160353822,0.62595004,3.9019501,9.208051
1679994867809,1174856162855732,0.55200005,3.9139502,9.06495
1679994867812,1174856165357809,0.624,3.9480002,9.12705
1679994867813,1174856167859732,0.53805,3.8899503,9.0
1679994867816,1174856170361809,0.54,3.9100502,9.0379505
1679994867818,1174856172863655,0.633,3.8569503,9.108001
1679994867821,1174856175365568,0.588,3.8860502,9.019051
1679994867823,1174856177867645,0.59505004,3.936,9.11505
1679994867826,1174856180369568,0.62100005,3.8809502,9.049951
1679994867829,1174856182871645,0.648,3.9550502,9.10995
1679994867830,1174856185373559,0.66195005,3.86595,9.11505
1679994867832,1174856187875405,0.56895,3.92895,9.08205
1679994867836,1174856190377482,0.624,3.9169502,9.043051
1679994867837,1174856192879405,0.63600004,3.8809502,9.0720005
1679994867840,1174856195381458,0.63600004,3.828,9.13395
1679994867842,1174856197883381,0.66195005,3.9499502,8.98095
1679994867846,1174856200385227,0.57105005,3.8710501,9.12495
1679994867850,1174856202887304,0.65295005,3.9049501,9.132
1679994867851,1174856205389227,0.60705,3.828,9.108001
1679994867854,1174856207891303,0.69795,3.86595,9.117001
1679994867856,1174856210393150,0.61395,3.8070002,9.07905
1679994867858,1174856212895303,0.60705,3.9070501,9.12495
1679994867860,1174856215397208,0.65295005,3.8400002,9.085951
1679994867863,1174856217899284,0.61905,3.89805,9.187051
1679994867865,1174856220401131,0.54,3.9139502,8.95005
1679994867867,1174856222903054,0.54495,3.86595,9.06
1679994867870,1174856225405131,0.59805006,3.8569503,9.010051
1679994867872,1174856227907040,0.47295,3.8689501,9.085951
1679994867876,1174856230409117,0.528,3.79695,9.096001
1679994867878,1174856232911040,0.51900005,3.8380501,9.09105
1679994867880,1174856235412886,0.49905002,3.9070501,9.004951
1679994867883,1174856237914963,0.60195005,3.8760002,9.144
1679994867889,1174856240416886,0.63105005,3.8449502,9.06705
1679994867890,1174856242918963,0.61200005,3.9190502,9.22305
1679994867892,1174856245499040,0.55395,3.9259503,9.048
1679994867893,1174856247922977,0.59505004,3.9769502,9.1060505
1679994867896,1174856250424823,0.55905,3.8950503,9.132
1679994867898,1174856252926746,0.56595004,3.9499502,9.048
1679994867901,1174856255428823,0.57600003,3.9910502,9.205951
1679994867902,1174856257930669,0.52095,3.9379501,9.05805
1679994867906,1174856260432597,0.58095,3.96495,9.129001
1679994867908,1174856262934674,0.62100005,3.92895,9.181951
1679994867910,1174856265436828,0.55200005,3.7849503,9.05805
1679994867913,1174856267938674,0.56595004,3.9430501,9.13395
1679994867916,1174856270440597,0.54705,3.9790502,9.016951
1679994867918,1174856272942698,0.588,3.8779502,9.061951
1679994867921,1174856275444621,0.54195005,3.9550502,9.193951
1679994867925,1174856277946467,0.54495,3.9480002,9.156
1679994867928,1174856280448568,0.56595004,3.9220502,9.05805
1679994867930,1174856283084338,0.63795,3.8569503,9.1390505
1679994867932,1174856285452568,0.57105005,3.9480002,9.148951
1679994867933,1174856287954415,0.61395,3.8950503,9.10305
1679994867936,1174856290456338,0.528,3.9049501,9.09105
1679994867938,1174856292958529,0.59295005,3.9100502,9.09405
1679994867941,1174856295460606,0.61695004,3.8520002,9.228001
1679994867942,1174856297962453,0.61395,3.8539503,9.165
1679994867946,1174856300464376,0.67200005,3.8689501,9.0070505
1679994867948,1174856302966439,0.61005,3.8929503,9.175051
1679994867952,1174856305468285,0.669,3.795,9.055051
1679994867955,1174856307970208,0.67200005,3.8809502,9.0720005
1679994867956,1174856310472362,0.66195005,3.864,9.18
1679994867958,1174856312974213,0.63105005,3.76605,8.99295
1679994867961,1174856315476290,0.55005,3.9100502,9.043051
1679994867963,1174856317978213,0.624,3.9310503,9.073951
1679994867967,1174856320480059,0.708,3.8929503,9.07005
1679994867968,1174856322982160,0.669,3.8740501,9.10995
1679994867971,1174856325484006,0.56595004,3.8419502,9.040951
1679994867972,1174856327986160,0.57405,3.8590503,9.08205
1679994867976,1174856330488083,0.61905,3.8400002,9.048
1679994867978,1174856332990160,0.58605003,3.8760002,9.08895
1679994867982,1174856335492020,0.57105005,3.8110502,9.07005
1679994867984,1174856337993943,0.58095,3.8830502,9.148951
1679994867987,1174856340496020,0.55905,3.8830502,9.11505
1679994867988,1174856342997943,0.57405,3.8740501,9.061951
1679994867991,1174856345500020,0.66495,3.8830502,9.09405
1679994867992,1174856348001934,0.62100005,3.8809502,9.1699505
1679994867996,1174856350504011,0.62100005,3.8500502,9.14595
1679994868001,1174856353005857,0.67200005,3.9810002,9.208051
1679994868002,1174856355507780,0.68895006,3.9619503,9.21105
1679994868004,1174856358009842,0.66,3.8539503,9.12495
1679994868006,1174856360511765,0.684,3.9480002,9.14595
1679994868008,1174856363013842,0.62595004,3.8590503,9.160951
1679994868010,1174856365515765,0.624,3.9049501,9.09795
1679994868012,1174856368017612,0.64095,3.9139502,9.07695
1679994868016,1174856370519699,0.63105005,3.8830502,9.120001
1679994868018,1174856373021622,0.59295005,3.8860502,9.187051
1679994868021,1174856375523468,0.6,3.9049501,9.1369505
1679994868024,1174856378025622,0.64095,3.9259503,9.225
1679994868026,1174856380527684,0.60195005,3.9720001,9.108001
1679994868028,1174856383029530,0.62100005,3.96495,9.204
1679994868030,1174856385531453,0.54495,3.86595,9.163051
1679994868033,1174856388033530,0.60195005,3.9019501,9.12705
1679994868037,1174856390535463,0.624,3.8740501,9.217951
1679994868041,1174856393037309,0.58305,3.9,9.22305
1679994868043,1174856395539463,0.57795,3.8950503,9.28005
1679994868045,1174856398041540,0.62100005,3.9450002,9.07905
1679994868046,1174856400543463,0.51600003,3.86595,9.1369505
1679994868048,1174856403045314,0.58305,3.9,9.085951
1679994868050,1174856405547391,0.61905,3.96495,9.181951
1679994868054,1174856408049314,0.52095,3.8929503,9.175051
1679994868056,1174856410551160,0.57405,3.9049501,9.024
1679994868059,1174856413053299,0.61905,3.8860502,9.12705
1679994868061,1174856415555145,0.633,3.8400002,9.189
1679994868063,1174856418057222,0.588,3.8470502,9.15795
1679994868066,1174856420559145,0.64995,3.83505,9.084001
1679994868068,1174856423060977,0.588,3.9379501,9.049951
1679994868070,1174856425563054,0.624,3.9190502,9.201
1679994868074,1174856428064977,0.588,3.8809502,9.1060505
1679994868077,1174856430567054,0.56205004,3.7780502,9.12705
1679994868079,1174856433068982,0.59295005,3.8380501,9.09795
1679994868081,1174856435571059,0.58995,3.7510502,9.016951
1679994868083,1174856438072982,0.588,3.795,9.06
1679994868086,1174856440574829,0.588,3.8209503,9.148951
1679994868088,1174856443076905,0.61005,3.8569503,8.98095
1679994868091,1174856445578838,0.60195005,3.8950503,9.031051
1679994868093,1174856448080991,0.58095,3.8449502,9.06
1679994868096,1174856450582838,0.61005,3.9120002,9.12495
1679994868099,1174856453084914,0.67905,3.80205,9.184951
1679994868100,1174856455586771,0.57795,3.8899503,9.117001
1679994868103,1174856458088924,0.63600004,3.8569503,9.172951
1679994868108,1174856460590848,0.61695004,3.8779502,9.03405
1679994868110,1174856463092925,0.62595004,3.9070501,9.189
1679994868112,1174856465594761,0.61200005,3.9480002,9.156
1679994868114,1174856468096684,0.60195005,3.8779502,9.012
1679994868116,1174856470598761,0.68100005,3.8929503,9.10305
1679994868118,1174856473100607,0.59295005,3.936,9.0379505
1679994868120,1174856475602761,0.64995,3.8500502,9.12495
1679994868124,1174856478104679,0.58605003,3.9120002,9.132
1679994868127,1174856480606525,0.63105005,3.8899503,9.184951
1679994868129,1174856483108602,0.648,3.9529502,9.06705
1679994868131,1174856485610448,0.60195005,3.9240003,9.1060505
1679994868133,1174856488112371,0.69795,4.0129504,9.061951
1679994868136,1174856490614439,0.63600004,3.9379501,9.184951
1679994868139,1174856493116362,0.61005,3.8539503,9.1369505
1679994868141,1174856495618439,0.633,3.969,9.144
1679994868143,1174856498120362,0.56595004,3.8590503,9.151051
1679994868146,1174856500622410,0.58995,3.8860502,9.153001
1679994868149,1174856503124256,0.657,3.9220502,9.181951
1679994868151,1174856505626179,0.69105005,4.0339503,9.07905
1679994868153,1174856508128256,0.61200005,3.8710501,9.25605
1679994868156,1174856510630419,0.58605003,3.9120002,9.11505
1679994868158,1174856513132265,0.60195005,3.9430501,9.08205
1679994868160,1174856515634188,0.58095,3.9720001,9.168
1679994868163,1174856518136265,0.63105005,3.8740501,9.229951
1679994868166,1174856520638111,0.55905,3.8860502,9.132
1679994868168,1174856523140034,0.57405,3.8760002,9.06495
1679994868170,1174856525642111,0.64095,3.8089502,9.160951
1679994868173,1174856528144035,0.61200005,4.00995,9.175051
1679994868176,1174856530646111,0.66495,3.8929503,9.06705
1679994868179,1174856533148035,0.58605003,3.933,9.049951
1679994868180,1174856535649881,0.58995,3.8950503,9.11505
1679994868183,1174856538151958,0.59505004,3.9190502,9.199051
1679994868188,1174856540653857,0.648,3.8740501,9.085951
1679994868190,1174856543155934,0.67395,3.9190502,9.0720005
1679994868192,1174856545657857,0.66705,3.9840002,9.12195
1679994868193,1174856548159934,0.61905,3.8689501,9.07905
1679994868196,1174856550661780,0.62100005,3.8260503,9.049951
1679994868198,1174856553163698,0.62895006,3.9480002,9.05805
1679994868202,1174856555665775,0.65295005,3.8620503,9.15795
1679994868212,1174856558167698,0.66,3.9220502,9.036
1679994868212,1174856560669775,0.63105005,3.7729502,9.148951
1679994868212,1174856563171698,0.69795,3.83505,9.08895
1679994868212,1174856565673775,0.64995,3.8400002,9.07695
1679994868213,1174856568175621,0.684,3.8950503,9.11295
1679994868216,1174856570677544,0.59505004,3.8209503,9.132
1679994868218,1174856573179631,0.66195005,3.89805,9.12195
1679994868220,1174856575681554,0.59805006,3.8740501,9.06
1679994868225,1174856578183631,0.59295005,3.8520002,9.085951
1679994868227,1174856580685554,0.61395,3.8160002,9.09795
1679994868229,1174856583187400,0.60705,3.8950503,9.1699505
1679994868231,1174856585689477,0.53295004,3.9310503,9.096001
1679994868233,1174856588191323,0.57600003,3.7870502,9.1699505
1679994868236,1174856590693246,0.58605003,3.8760002,9.13395
1679994868238,1174856593195323,0.633,3.9499502,9.1390505
1679994868241,1174856595697482,0.57600003,3.7540503,9.11295
1679994868243,1174856598199328,0.483,3.9019501,9.151051
1679994868246,1174856600701251,0.57105005,3.8740501,9.1060505
1679994868250,1174856603203328,0.648,3.864,9.10305
1679994868251,1174856605705211,0.61200005,3.8760002,9.048
1679994868254,1174856608207058,0.61905,3.8400002,9.108001
1679994868256,1174856610709135,0.61395,3.83295,9.163051
1679994868259,1174856613211288,0.54495,3.86595,9.031051
1679994868262,1174856615713135,0.54,3.8140502,9.07905
1679994868266,1174856618214981,0.624,3.8740501,9.11295
1679994868268,1174856620716904,0.57600003,3.7830002,9.049951
1679994868269,1174856623219058,0.55695003,3.6750002,9.024
1679994868271,1174856625721135,0.54195005,3.8449502,8.98095
1679994868274,1174856628222967,0.55695003,3.8190002,9.108001
1679994868276,1174856630724890,0.60495,3.80205,9.120001
1679994868278,1174856633226967,0.59805006,3.8590503,9.175051
1679994868280,1174856635728890,0.57600003,3.9139502,9.120001
1679994868283,1174856638230731,0.58095,3.79905,9.096001
1679994868286,1174856640732885,0.57105005,3.795,9.163051
1679994868288,1174856643234962,0.669,3.8380501,9.096001
1679994868290,1174856645736808,0.61005,3.8230503,9.052951
1679994868292,1174856648238731,0.65295005,3.9049501,9.11295
1679994868296,1174856650740818,0.68895006,3.83505,9.25905
1679994868300,1174856653242664,0.64500004,3.9430501,9.0379505
1679994868302,1174856655744587,0.59295005,3.864,9.163051
1679994868304,1174856658246659,0.66,3.8380501,9.096001
1679994868306,1174856660748582,0.60495,3.8449502,9.15795
1679994868309,1174856663250659,0.564,3.9840002,9.13395
1679994868311,1174856665752505,0.69795,3.92895,9.1060505
1679994868313,1174856668254428,0.624,3.9910502,9.049951
1679994868316,1174856670756515,0.71505004,3.8740501,9.09405
1679994868319,1174856673258438,0.59295005,3.8449502,9.204
1679994868320,1174856675760515,0.62895006,3.8710501,9.12495
1679994868325,1174856678262438,0.61005,3.9480002,9.13395
1679994868326,1174856680764490,0.61005,3.936,9.204
1679994868328,1174856683266413,0.61395,3.9190502,9.1390505
1679994868330,1174856685768260,0.624,3.9049501,9.132
1679994868333,1174856688270337,0.588,3.8590503,9.217951
1679994868338,1174856690772265,0.6,3.9070501,9.144
1679994868340,1174856693274342,0.59505004,3.8620503,9.175051
1679994868342,1174856695776265,0.67395,3.8419502,9.085951
1679994868344,1174856698278342,0.648,3.8260503,9.043051
1679994868346,1174856700780203,0.57795,3.9019501,9.141001
1679994868348,1174856703282126,0.64095,3.7680001,9.061951
1679994868350,1174856705784203,0.61200005,3.83295,9.148951
1679994868353,1174856708286126,0.633,3.8760002,9.11505
1679994868356,1174856710788217,0.54,3.8950503,9.1060505
1679994868358,1174856713290063,0.633,3.8470502,9.073951
1679994868360,1174856715791986,0.59505004,3.8110502,9.163051
1679994868363,1174856718294063,0.69105005,3.8419502,9.11505
1679994868366,1174856720795986,0.60195005,3.80205,9.09795
1679994868371,1174856723297866,0.60495,3.795,9.07695
1679994868372,1174856725800020,0.66,3.8449502,9.06705
1679994868375,1174856728302097,0.62595004,3.79905,9.003
1679994868377,1174856730804005,0.64095,3.8569503,9.13395
1679994868380,1174856733305851,0.64995,3.86595,9.175051
1679994868382,1174856735807928,0.64095,3.8260503,9.11505
1679994868384,1174856738309851,0.61695004,3.8929503,9.153001
1679994868389,1174856740811668,0.63105005,3.8209503,9.132
1679994868391,1174856743313822,0.61695004,3.8899503,9.148951
1679994868392,1174856745815899,0.65295005,3.9049501,9.0720005
1679994868393,1174856748317745,0.63600004,3.89805,9.11295
1679994868398,1174856750819668,0.648,3.8809502,9.14595
1679994868399,1174856753321765,0.58305,3.86595,9.175051
1679994868400,1174856755823611,0.66195005,3.9480002,9.084001
1679994868403,1174856758325535,0.633,3.9,9.148951
1679994868406,1174856760827688,0.55005,3.86595,9.156
1679994868408,1174856763329539,0.66195005,3.83505,9.08205
1679994868412,1174856765831615,0.68895006,3.8880002,9.13395
1679994868414,1174856768333539,0.63795,3.8419502,9.07005
1679994868416,1174856770835385,0.70500004,3.8569503,9.13395
1679994868419,1174856773337486,0.684,3.795,9.201
1679994868421,1174856775839409,0.693,3.8110502,9.12495
1679994868424,1174856778341563,0.624,3.8809502,9.141001
1679994868427,1174856780843409,0.51900005,3.8040001,9.160951
1679994868429,1174856783345486,0.588,3.9379501,9.11295
1679994868431,1174856785847342,0.66195005,3.831,9.117001
1679994868433,1174856788349496,0.60195005,3.86595,9.1369505
1679994868436,1174856790851419,0.669,3.8520002,9.201
1679994868438,1174856793353496,0.55695003,3.9,9.172951
1679994868441,1174856795855347,0.657,3.8740501,9.196951
1679994868443,1174856798357270,0.693,3.9,9.175051
1679994868446,1174856800859347,0.63795,3.8569503,9.261001
1679994868452,1174856803361154,0.58095,3.8470502,9.22305
1679994868453,1174856805863308,0.66195005,3.83295,9.07905
1679994868455,1174856808365231,0.67395,3.8380501,9.12495
1679994868458,1174856810867077,0.66195005,3.9139502,9.12495
1679994868459,1174856813369154,0.624,3.9739501,9.144
1679994868461,1174856815871010,0.67200005,3.8260503,9.204
1679994868463,1174856818372933,0.68595004,3.86595,9.14595
1679994868466,1174856820875010,0.61695004,3.8899503,9.199051
1679994868468,1174856823376933,0.58305,3.9049501,9.144
1679994868471,1174856825879010,0.72,3.8569503,9.165
1679994868473,1174856828380918,0.72195005,3.864,9.201
1679994868476,1174856830882995,0.63795,3.9910502,9.0070505
1679994868478,1174856833384841,0.648,3.8520002,9.175051
1679994868481,1174856835886764,0.69600004,3.8470502,9.12495
1679994868483,1174856838388841,0.67695004,3.864,9.10095
1679994868488,1174856840891000,0.59805006,3.8590503,9.24705
1679994868489,1174856843392846,0.65505004,3.8539503,9.192
1679994868491,1174856845894769,0.65295005,3.7710001,9.12705
1679994868493,1174856848396880,0.60705,3.9,9.21105
1679994868496,1174856850898727,0.67695004,3.8740501,9.117001
1679994868499,1174856853400650,0.67395,3.8740501,9.181951
1679994868501,1174856855902727,0.61695004,3.8950503,9.1390505
1679994868503,1174856858404650,0.624,3.864,9.129001
1679994868507,1174856860906746,0.63795,3.8880002,9.204
1679994868509,1174856863408669,0.63105005,3.8929503,9.084001
1679994868511,1174856865910515,0.63600004,3.8760002,9.217951
1679994868513,1174856868412592,0.669,3.8419502,9.163051
1679994868516,1174856870914505,0.684,3.9379501,9.14595
1679994868519,1174856873416582,0.73200005,3.9070501,9.229951
1679994868521,1174856875918505,0.71505004,3.864,9.12495
1679994868525,1174856878420577,0.77205,3.8470502,9.192
1679994868528,1174856880922423,0.75795,3.7800002,9.096001
1679994868530,1174856883424346,0.669,3.9480002,9.3
1679994868531,1174856885926423,0.669,3.936,9.165
1679994868533,1174856888428346,0.66,3.8929503,9.144
1679994868536,1174856890930409,0.64500004,3.936,9.163051
1679994868539,1174856893432332,0.657,3.8620503,9.120001
1679994868542,1174856895934409,0.67905,3.9139502,9.07695
1679994868544,1174856898436255,0.64095,3.86595,9.073951
1679994868546,1174856900938192,0.58305,3.8689501,9.12705
1679994868548,1174856903440269,0.67695004,3.83505,9.129001
1679994868551,1174856905942115,0.69600004,3.9019501,9.043051
1679994868553,1174856908444269,0.65295005,3.7780502,9.096001
1679994868556,1174856910946192,0.61695004,3.9720001,9.1060505
1679994868558,1174856913448082,0.65505004,3.936,9.022051
1679994868563,1174856915950159,0.60195005,3.9139502,9.1390505
1679994868565,1174856918452082,0.66,3.8899503,9.08895
1679994868567,1174856920953904,0.67905,3.9450002,9.11505
1679994868570,1174856923455981,0.59505004,3.9120002,9.11295
1679994868572,1174856925958134,0.61395,3.7800002,9.0379505
1679994868574,1174856928459981,0.564,3.9499502,9.12495
1679994868576,1174856930961904,0.70095,3.8809502,9.129001
1679994868579,1174856933463972,0.648,3.8929503,9.06495
1679994868581,1174856935965895,0.62100005,3.8380501,9.1390505
1679994868583,1174856938467741,0.72705,3.864,9.10305
1679994868587,1174856940969818,0.648,3.9100502,9.129001
1679994868588,1174856943471741,0.633,3.92895,9.252001
1679994868592,1174856945973833,0.60195005,3.9379501,9.213
1679994868594,1174856948475679,0.588,3.8880002,9.117001
1679994868598,1174856950977602,0.64500004,3.8140502,9.08895
1679994868600,1174856953479756,0.66,3.9379501,9.187051
1679994868602,1174856955981814,0.61695004,3.9960003,9.1369505
1679994868605,1174856958483660,0.58305,3.89805,9.096001
1679994868608,1174856960985583,0.62595004,3.9070501,9.156
1679994868609,1174856963487660,0.669,3.9499502,9.151051
1679994868611,1174856965989506,0.588,3.8590503,9.144
1679994868613,1174856968491434,0.64500004,3.933,9.11295
1679994868616,1174856970993588,0.61905,3.9499502,9.144
1679994868619,1174856973495665,0.58995,3.9810002,9.07695
1679994868621,1174856975997511,0.60705,3.8449502,9.09405
1679994868625,1174856978499477,0.64305,3.9049501,9.189
1679994868627,1174856981001554,0.63600004,3.8760002,9.085951
1679994868629,1174856983503400,0.63105005,3.8860502,9.12495
1679994868631,1174856986005323,0.63105005,3.8539503,9.117001
1679994868633,1174856988507400,0.588,3.9570003,9.196951
1679994868637,1174856991009328,0.64095,3.8470502,9.11505
1679994868640,1174856993511405,0.59805006,3.9,9.096001
1679994868642,1174856996013251,0.63795,3.8590503,9.220051
1679994868644,1174856998515175,0.64500004,3.9,9.172951
1679994868646,1174857001017299,0.58995,3.9019501,9.132
1679994868648,1174857003519223,0.62595004,3.8929503,9.10995
1679994868651,1174857006021299,0.57105005,3.8760002,9.141001
1679994868653,1174857008523223,0.62895006,3.9790502,9.12705
1679994868656,1174857011025285,0.59505004,3.9190502,9.192
1679994868659,1174857013527208,0.588,3.8779502,9.073951
1679994868661,1174857016029054,0.64995,3.9450002,9.12495
1679994868663,1174857018531131,0.64995,3.83295,9.172951
1679994868666,1174857021033054,0.55695003,3.9310503,9.12495
1679994868670,1174857023535131,0.55200005,3.828,9.108001
1679994868671,1174857026037054,0.52995,3.8569503,9.144
1679994868675,1174857028538900,0.71295005,3.8760002,9.096001
1679994868677,1174857031040953,0.633,3.9220502,9.08895
1679994868679,1174857033542876,0.669,3.9169502,9.23505
1679994868681,1174857036044953,0.55005,3.9100502,9.12705
1679994868683,1174857038546799,0.60495,3.9190502,9.06495
1679994868687,1174857041048953,0.669,3.8160002,9.07695
1679994868690,1174857043550789,0.669,3.9430501,9.168
1679994868692,1174857046052712,0.64095,3.7920003,9.13395
1679994868694,1174857048554789,0.54495,3.9739501,9.153001
1679994868696,1174857051056712,0.64095,3.86595,9.12195
1679994868699,1174857053558568,0.657,3.9139502,9.1060505
1679994868701,1174857056060722,0.66195005,3.8830502,9.120001
1679994868703,1174857058562799,0.72195005,3.8470502,9.181951
1679994868706,1174857061064722,0.64995,3.8809502,9.08895
1679994868708,1174857063566568,0.56595004,3.8590503,9.10995
1679994868712,1174857066068631,0.58995,3.9120002,9.156
1679994868714,1174857068570554,0.58995,3.8860502,9.156
1679994868717,1174857071072400,0.60495,3.8620503,9.11295
1679994868719,1174857073574554,0.64095,3.8830502,9.10095
1679994868721,1174857076076645,0.684,3.92895,9.12195
1679994868723,1174857078578491,0.57105005,3.9049501,9.177
1679994868726,1174857081080415,0.588,3.8740501,9.229951
1679994868728,1174857083582261,0.6,3.8860502,9.156
1679994868731,1174857086084319,0.63105005,3.8620503,9.09795
1679994868733,1174857088586242,0.504,3.8569503,9.085951
1679994868736,1174857091088319,0.58305,3.9810002,9.141001
1679994868740,1174857093590242,0.633,3.8929503,9.09795
1679994868743,1174857096092333,0.63795,3.8209503,9.07005
1679994868744,1174857098594256,0.53295004,3.8809502,9.07905
1679994868746,1174857101096102,0.56205004,3.8860502,9.153001
1679994868750,1174857103598179,0.61395,3.9859502,9.10995
1679994868752,1174857106100126,0.62595004,3.92895,9.144
1679994868755,1174857108602203,0.56205004,3.83295,9.05805
1679994868758,1174857111104126,0.57405,3.9240003,9.192
1679994868760,1174857113606203,0.55005,3.7920003,9.11505
1679994868761,1174857116108049,0.56895,3.83295,9.10995
1679994868763,1174857118610203,0.53805,3.9070501,9.11295
1679994868766,1174857121112126,0.64500004,3.9019501,9.120001
1679994868768,1174857123613972,0.48705003,3.9619503,9.1060505
1679994868771,1174857126116049,0.58305,3.8779502,9.07005
1679994868773,1174857128617987,0.49005002,3.83295,9.0379505
1679994868776,1174857131120064,0.52095,3.9169502,9.108001
1679994868779,1174857133621910,0.58095,3.8400002,9.26595
1679994868781,1174857136124064,0.588,3.831,9.048
1679994868784,1174857138625991,0.57795,3.9240003,9.12495
1679994868788,1174857141127837,0.58995,3.9739501,9.129001
1679994868790,1174857143629914,0.60495,3.7849503,9.085951
1679994868792,1174857146131760,0.61905,3.8400002,9.096001
1679994868793,1174857148633693,0.669,3.7920003,9.120001
1679994868797,1174857151135770,0.58305,3.8230503,9.151051
1679994868799,1174857153637693,0.657,3.9070501,9.193951
1679994868801,1174857156139770,0.52605003,3.9480002,9.199051
1679994868803,1174857158641693,0.60495,3.7870502,8.991
1679994868806,1174857161143765,0.624,3.8470502,9.016951
1679994868808,1174857163645612,0.59505004,3.8779502,9.192
1679994868811,1174857166147535,0.63795,3.8929503,9.085951
1679994868814,1174857168649612,0.64095,3.8190002,9.165
1679994868816,1174857171151732,0.62100005,3.8620503,9.09405
1679994868819,1174857173653579,0.67695004,3.79695,9.14595
1679994868821,1174857176155502,0.57600003,3.8740501,9.1699505
1679994868826,1174857178657588,0.55905,3.9190502,9.09795
1679994868828,1174857181159434,0.669,3.9019501,9.108001
1679994868837,1174857183661357,0.69795,3.8209503,9.172951
1679994868837,1174857186163203,0.62100005,3.9480002,9.13395
1679994868837,1174857188665357,0.64095,3.795,9.24195
1679994868838,1174857191167420,0.528,3.8880002,9.13395
1679994868838,1174857193669266,0.73200005,3.8400002,9.199051
1679994868841,1174857196171189,0.60705,3.86595,9.193951
1679994868843,1174857198673266,0.669,3.8860502,9.28995
1679994868846,1174857201175107,0.69795,3.8950503,9.204
1679994868848,1174857203677030,0.648,3.8689501,9.213
1679994868851,1174857206179184,0.67395,3.76095,9.382951
1679994868853,1174857208681261,0.59805006,3.8590503,9.352051
1679994868856,1174857211183107,0.63600004,3.8089502,9.39105
1679994868859,1174857213685044,0.63795,3.8590503,9.369
1679994868863,1174857216187121,0.65505004,3.80205,9.39795
1679994868864,1174857218689044,0.6,3.83505,9.276
1679994868869,1174857221191131,0.669,3.76305,9.37395
1679994868870,1174857223693054,0.633,3.8230503,9.26805
1679994868872,1174857226195131,0.717,3.8070002,9.27795
1679994868875,1174857228696977,0.66705,3.9889503,9.26805
1679994868877,1174857231198900,0.64305,3.8590503,9.27795
1679994868878,1174857233700991,0.66195005,3.9259503,9.26805
1679994868882,1174857236202837,0.70095,3.86595,9.229951
1679994868883,1174857238704991,0.693,3.9070501,9.29205
1679994868886,1174857241206838,0.58605003,3.864,9.429001
1679994868888,1174857243708761,0.64095,3.8830502,9.29205
1679994868891,1174857246210814,0.58995,3.9859502,9.29205
1679994868893,1174857248712660,0.753,3.8779502,9.346951
1679994868896,1174857251214583,0.67695004,3.8860502,9.37395
1679994868901,1174857253716655,0.85095006,3.89805,9.43395
1679994868903,1174857256218809,0.79395,3.8400002,9.57705
1679994868907,1174857258720655,0.79395,3.8140502,9.573001
1679994868908,1174857261222578,0.76500005,3.7510502,9.679951
1679994868909,1174857263724655,0.86805004,3.6840003,9.7879505
1679994868911,1174857266226588,0.82305,3.663,9.711
1679994868913,1174857268728434,0.73395,3.6010501,9.82905
1679994868918,1174857271230511,0.79200006,3.6460502,9.8550005
1679994868920,1174857273732434,0.78000003,3.591,9.90795
1679994868921,1174857276234497,0.82695,3.6409502,9.925051
1679994868924,1174857278736343,0.80595005,3.6169503,9.823951
1679994868927,1174857281238266,0.83205,3.52605,9.867001
1679994868929,1174857283740420,0.88305,3.6510003,9.89805
1679994868931,1174857286242497,0.84405005,3.555,9.795
1679994868933,1174857288744338,0.9289501,3.6460502,9.807
1679994868938,1174857291246261,0.9990001,3.696,9.738001
1679994868941,1174857293748338,1.0009501,3.7080002,9.798
1679994868943,1174857296250184,0.88500005,3.663,9.85995
1679994868944,1174857298752102,0.9889501,3.759,9.7570505
1679994868947,1174857301254256,1.1040001,3.66,9.74295
1679994868949,1174857303756102,1.0519501,3.6769502,9.754951
1679994868951,1174857306258179,1.07595,3.7420502,9.63195
1679994868953,1174857308760102,1.0519501,3.7750502,9.679951
1679994868956,1174857311261949,1.03995,3.79695,9.66405
1679994868958,1174857313764025,0.98700005,3.7510502,9.618
1679994868961,1174857316265872,0.96795005,3.7680001,9.56505
1679994868963,1174857318768025,0.93195003,3.79905,9.735001
1679994868966,1174857321269934,0.80805004,3.7350001,9.7879505
1679994868968,1174857323772010,0.74805003,3.8230503,9.835951
1679994868971,1174857326273857,0.71295005,3.7159503,9.8890505
1679994868975,1174857328775780,0.62100005,3.8040001,10.01805
1679994868977,1174857331277862,0.62895006,3.80205,10.04205
1679994868980,1174857333779785,0.56205004,3.8110502,9.984
1679994868982,1174857336281862,0.51600003,3.7750502,9.92205
1679994868984,1174857338783785,0.46305,3.8520002,9.915001
1679994868987,1174857341285867,0.47100002,3.8040001,9.9199505
1679994868989,1174857343787713,0.43500003,3.831,9.975
1679994868991,1174857346289636,0.40395,3.795,9.805051
1679994868993,1174857348791482,0.38895002,3.8160002,9.88605
1679994868998,1174857351293535,0.303,3.8400002,9.8220005
1679994869000,1174857353795689,0.39600003,3.8380501,9.769051
1679994869001,1174857356297535,0.40605003,3.8230503,9.798
1679994869004,1174857358799458,0.32505003,3.7849503,9.814051
1679994869008,1174857361301535,0.32505003,3.7920003,9.7879505
1679994869009,1174857363803381,0.37500003,3.8419502,9.646951
1679994869014,1174857366305304,0.24495001,3.9,9.604051
1679994869015,1174857368807381,0.31305,3.8380501,9.501
1679994869017,1174857371309535,0.291,3.8400002,9.40695
1679994869020,1174857373811390,0.25995,3.9100502,9.438001
1679994869022,1174857376313313,0.35295,3.8380501,9.358951
1679994869024,1174857378815390,0.17595,3.8899503,9.37395
1679994869027,1174857381317313,0.15405001,3.9139502,9.328051
1679994869029,1174857383819159,0.17595,4.005,9.307051
1679994869031,1174857386321313,0.13995,3.933,9.39105
1679994869033,1174857388823390,0.12105001,3.9259503,9.37605
1679994869036,1174857391325236,0.10395,3.9450002,9.24705
1679994869038,1174857393827159,0.043950003,4.06005,9.25605
1679994869041,1174857396329016,0.043950003,4.1130004,9.26805
1679994869043,1174857398831093,0.051000003,4.1200504,9.10305
1679994869046,1174857401333016,-0.030000001,4.056,9.096001
1679994869050,1174857403835093,-0.01995,4.14405,9.08895
1679994869052,1174857406337011,-0.00795,4.09905,9.1060505
1679994869054,1174857408839088,-0.123,4.20405,8.964001
1679994869057,1174857411340934,-0.18105,4.36005,8.84895
1679994869059,1174857413842857,-0.147,4.209,9.036
1679994869061,1174857416344934,-0.21900001,4.2190504,8.952001
1679994869063,1174857418846838,-0.21195,4.2900004,8.991
1679994869066,1174857421348915,-0.29805002,4.29495,8.896951
1679994869068,1174857423850838,-0.26205,4.33605,8.866051
1679994869071,1174857426352915,-0.31995,4.15605,8.986051
1679994869075,1174857428854775,-0.29805002,4.326,8.83005
1679994869078,1174857431356698,-0.27705002,4.2379503,8.703
1679994869080,1174857433858852,-0.37005,4.29495,8.904
1679994869082,1174857436360698,-0.34605002,4.2109504,8.883
1679994869084,1174857438862756,-0.31995,4.242,8.976001
1679994869089,1174857441364679,-0.37500003,4.2829504,8.988001
1679994869092,1174857443866525,-0.34095,4.2259502,8.96205
1679994869093,1174857446368602,-0.19005,4.0800004,8.979
1679994869094,1174857448870515,-0.21900001,4.12305,9.153001
1679994869096,1174857451372592,-0.135,4.0810504,9.11505
1679994869101,1174857453874515,-0.231,4.0279503,9.208051
1679994869102,1174857456376361,-0.09195001,3.9409502,9.25395
1679994869104,1174857458878438,-0.094950005,3.9190502,9.160951
1679994869108,1174857461380361,0.018000001,3.8230503,9.208051
1679994869109,1174857463882208,-0.022950001,3.795,9.07695
1679994869111,1174857466384361,0.09,3.79695,9.010051
1679994869114,1174857468886438,0.04695,3.7060502,9.040951
1679994869117,1174857471388371,0.09705,3.6720002,8.95905
1679994869119,1174857473890218,0.05595,3.6820502,8.859
1679994869121,1174857476392295,0.126,3.5959501,8.907001
1679994869126,1174857478894184,0.06105,3.52395,8.94495
1679994869129,1174857481396261,0.102000006,3.5650501,8.835
1679994869131,1174857483898184,0.06105,3.4999502,8.83695
1679994869132,1174857486400261,0.18105,3.45705,8.799001
1679994869134,1174857488902184,0.19995001,3.3990002,8.868
1679994869136,1174857491404040,0.19005,3.39,8.95905
1679994869142,1174857493906117,0.11895001,3.5119503,8.811001
1679994869142,1174857496407963,0.043950003,3.38505,8.844001
1679994869146,1174857498909886,0.058950003,3.426,8.89995
1679994869148,1174857501411963,0.094950005,3.3060002,8.895
1679994869149,1174857503913886,0.123,3.3060002,8.86095
1679994869151,1174857506415963,0.075,3.31095,8.976001
1679994869153,1174857508917886,0.102000006,3.2629502,8.92605
1679994869157,1174857511419732,0.07305,3.3630002,8.91195
1679994869159,1174857513921809,0.13305001,3.2440503,8.97105
1679994869163,1174857516423732,0.025050001,3.153,8.844001
1679994869165,1174857518925886,-0.06105,3.249,8.904
1679994869167,1174857521427770,-0.15195,3.2010002,8.847
1679994869169,1174857523929847,-0.135,3.2029502,8.799001
1679994869171,1174857526431770,-0.12795001,3.1720502,8.91405
1679994869174,1174857528933616,-0.10395,3.213,8.875951
1679994869176,1174857531435693,-0.18795002,3.141,8.998051
1679994869179,1174857533937621,-0.21900001,3.0670502,9.10995
1679994869181,1174857536439698,-0.29805002,3.1240501,9.18
1679994869183,1174857538941621,-0.31995,3.0229502,9.295051
1679994869186,1174857541443698,-0.31995,3.1240501,9.27105
1679994869188,1174857543945544,-0.34800002,3.0690002,9.40995
1679994869191,1174857546447458,-0.45900002,2.94705,9.319051
1679994869193,1174857548949534,-0.33405003,2.9680502,9.30195
1679994869196,1174857551451381,-0.33900002,3.03795,9.25605
1679994869200,1174857553953534,-0.33405003,2.8890002,9.27795
1679994869202,1174857556455473,-0.20205002,2.9200501,9.031051
1679994869204,1174857558957549,-0.24300002,2.8870502,9.096001
1679994869208,1174857561459396,-0.23400001,2.86995,8.964001
1679994869209,1174857563961319,-0.21705002,2.83695,9.048
1679994869211,1174857566463396,-0.10395,2.7889502,9.004951
1679994869213,1174857568965309,-0.13995,2.8530002,9.05805
1679994869216,1174857571467386,-0.06105,2.7930002,8.9740505
1679994869219,1174857573969309,-0.08505,2.8129501,9.0
1679994869222,1174857576471155,-0.01305,2.73795,9.012
1679994869224,1174857578973223,-0.006,2.832,8.821051
1679994869228,1174857581475146,0.040050004,2.7240002,8.94495
1679994869229,1174857583976992,-0.006,2.63295,8.92605
1679994869231,1174857586479146,0.04695,2.631,9.073951
1679994869233,1174857588981223,0.10695001,2.6260502,8.91405
1679994869238,1174857591483102,0.075,2.631,8.952001
1679994869240,1174857593985025,0.20505,2.60205,9.031051
1679994869241,1174857596486871,0.186,2.568,9.14595
1679994869244,1174857598989025,0.186,2.48895,9.085951
1679994869246,1174857601491097,0.22605,2.4769502,9.085951
1679994869249,1174857603992943,0.16605,2.4150002,9.18
1679994869251,1174857606494866,0.15,2.46795,9.192
1679994869254,1174857608996943,0.18105,2.46105,9.09795
1679994869257,1174857611498794,0.08295,2.47005,9.11505
1679994869259,1174857614000948,0.13305001,2.43705,9.264001
1679994869261,1174857616502871,0.12795001,2.4409502,9.249001
1679994869263,1174857619004717,0.075,2.403,9.21105
1679994869266,1174857621506789,0.08505,2.4439502,9.204
1679994869268,1174857624008713,0.04695,2.48895,9.208051
1679994869271,1174857626510559,0.054,2.463,9.27795
1679994869276,1174857629012636,0.01305,2.45295,9.23505
1679994869278,1174857631514809,0.058950003,2.46495,9.12495
1679994869280,1174857634016733,-0.016050002,2.42505,9.177
1679994869282,1174857636518579,0.030000001,2.4490502,9.264001
1679994869284,1174857639020656,-0.058950003,2.47005,9.193951
1679994869287,1174857641522545,-0.049050003,2.4510002,9.24195
1679994869289,1174857644024391,-0.13095,2.4150002,9.285001
1679994869292,1174857646526468,-0.109050006,2.49195,9.307051
1679994869293,1174857649028391,-0.14505,2.4390001,9.438001
1679994869296,1174857651530468,-0.11595,2.3820002,9.56505
1679994869301,1174857654032391,-0.08295,2.4049501,9.74295
1679994869302,1174857656534468,-0.08505,2.38905,9.75
1679994869305,1174857659036314,-0.06105,2.403,9.867001
1679994869307,1174857661538237,-0.030000001,2.36505,9.92895
1679994869309,1174857664040314,0.07305,2.3430002,9.946051
1679994869313,1174857666542222,0.102000006,2.32905,9.975
1679994869315,1174857669044299,0.13095,2.3359501,9.87195
1679994869317,1174857671546222,0.162,2.3700001,9.826051
1679994869319,1174857674048299,0.27195,2.38905,9.70905
1679994869321,1174857676550145,0.28095,2.42505,9.56505
1679994869324,1174857679052078,0.384,2.4799502,9.69705
1679994869327,1174857681553924,0.45405003,2.48895,9.56505
1679994869329,1174857684056078,0.47505003,2.46105,9.498
1679994869331,1174857686558155,0.55200005,2.42895,9.56505
1679994869334,1174857689060078,0.48705003,2.3770502,9.702001
1679994869338,1174857691561938,0.62595004,2.42505,9.60105
1679994869339,1174857694064015,0.55005,2.4390001,9.654
1679994869341,1174857696565862,0.624,2.36205,9.56295
1679994869344,1174857699067785,0.64995,2.367,9.537001
1679994869346,1174857701569934,0.67200005,2.3170502,9.537001
1679994869350,1174857704071781,0.56895,2.3140502,9.477
1679994869352,1174857706573858,0.55005,2.28795,9.679951
1679994869354,1174857709075781,0.47805002,2.30205,9.592051
1679994869356,1174857711577862,0.423,2.19495,9.673051
1679994869359,1174857714079708,0.507,2.2690501,9.64395
1679994869361,1174857716581631,0.36,2.295,9.63
1679994869364,1174857719083785,0.30495003,2.30205,9.649051
1679994869367,1174857721585862,0.23295002,2.2759502,9.649051
1679994869369,1174857724087723,0.24795002,2.32905,9.56505
1679994869371,1174857726589646,0.17400001,2.2350001,9.68295
1679994869375,1174857729091723,0.11895001,2.3740501,9.634951
1679994869377,1174857731593569,0.15705001,2.3790002,9.69495
1679994869380,1174857734095713,0.13800001,2.3460002,9.628051
1679994869381,1174857736597559,0.08295,2.3719501,9.73995
1679994869385,1174857739099482,0.054,2.3500502,9.811951
1679994869390,1174857741601559,0.03705,2.3070002,9.766951
1679994869392,1174857744103405,-0.022950001,2.2789502,9.819
1679994869394,1174857746605328,0.04695,2.26395,9.7879505
1679994869395,1174857749107405,0.030000001,2.2759502,9.903001
1679994869397,1174857751609328,-0.01995,2.259,9.891001
1679994869399,1174857754111405,-0.09705,2.2710001,9.814051
1679994869401,1174857756613338,0.025050001,2.25705,9.71595
1679994869405,1174857759115184,0.094950005,2.3140502,9.778951
1679994869407,1174857761617261,0.18300001,2.1730502,9.77595
1679994869409,1174857764119415,0.075,2.25,9.73305
1679994869411,1174857766621227,0.010950001,2.2399502,9.666
1679994869414,1174857769123150,-0.006,2.29095,9.723001
1679994869417,1174857771625227,0.075,2.2669501,9.71595
1679994869420,1174857774127150,0.13305001,2.214,9.655951
1679994869422,1174857776628983,0.094950005,2.2350001,9.642
1679994869425,1174857779131059,0.07095,2.15205,9.61305
1679994869428,1174857781632983,0.06795,2.23305,9.798
1679994869430,1174857784135059,0.094950005,2.2039502,9.76395
1679994869432,1174857786636997,0.11100001,2.30205,9.679951
1679994869434,1174857789138843,0.162,2.283,9.667951
1679994869437,1174857791640920,0.102000006,2.20005,9.795
1679994869439,1174857794142843,0.078,2.2690501,9.838051
1679994869441,1174857796644920,0.171,2.2690501,9.73995
1679994869444,1174857799146852,0.19305001,2.2399502,9.798
1679994869447,1174857801648929,0.171,2.1679502,9.72105
1679994869449,1174857804150775,0.14205001,2.23095,9.69705
1679994869451,1174857806652698,0.13800001,2.3050501,9.654
1679994869461,1174857809154766,0.135,2.2789502,9.61095
1679994869461,1174857811656689,0.171,2.22105,9.65205
1679994869461,1174857814158766,0.33405003,2.223,9.738001
1679994869463,1174857816660689,0.23595001,2.25705,9.774
1679994869464,1174857819162790,0.34095,2.2789502,9.766951
1679994869467,1174857821664636,0.31500003,2.25195,9.846001
1679994869468,1174857824166559,0.37995002,2.2039502,9.951
1679994869471,1174857826668636,0.37500003,2.11995,9.846001
1679994869474,1174857829170482,0.37005,2.223,9.87195
1679994869476,1174857831672650,0.39600003,2.1420002,9.802051
1679994869478,1174857834174573,0.48705003,2.1040502,9.89295
1679994869481,1174857836676419,0.34605002,2.154,9.766951
1679994869483,1174857839178496,0.46095002,2.08905,9.802051
1679994869486,1174857841680371,0.37500003,2.1780002,9.723001
1679994869489,1174857844182294,0.42000002,2.1079502,9.86505
1679994869491,1174857846684371,0.43905002,2.1760502,9.814051
1679994869494,1174857849186525,0.38895002,2.15205,9.807
1679994869496,1174857851688361,0.43500003,2.11305,9.834001
1679994869501,1174857854190285,0.46605003,2.12805,9.786
1679994869503,1174857856692361,0.40605003,2.2020001,9.834001
1679994869505,1174857859194285,0.41295,2.2069502,9.762
1679994869507,1174857861696112,0.45105,2.1780002,9.640051
1679994869509,1174857864198189,0.44400004,2.21895,9.735001
1679994869511,1174857866700112,0.40395,2.1420002,9.726001
1679994869514,1174857869202189,0.37695003,2.25,9.70905
1679994869516,1174857871704112,0.43905002,2.1730502,9.72795
1679994869519,1174857874205953,0.38205,2.15895,9.835951
1679994869523,1174857876708030,0.363,2.18805,9.807
1679994869525,1174857879209953,0.41595003,2.2090502,9.834001
1679994869527,1174857881711799,0.363,2.14395,9.903001
1679994869530,1174857884213948,0.34395,2.14395,9.84105
1679994869532,1174857886716025,0.37695003,2.1079502,9.91695
1679994869533,1174857889217871,0.37500003,2.12805,9.76395
1679994869539,1174857891719794,0.41595003,2.0629501,9.7879505
1679994869542,1174857894221881,0.34095,1.9600501,9.831
1679994869542,1174857896723804,0.32205,2.0320501,9.73995
1679994869544,1174857899225650,0.31695002,1.9980001,9.805051
1679994869547,1174857901727804,0.25005,1.9770001,9.71895
1679994869549,1174857904229881,0.231,1.8379501,9.726001
1679994869551,1174857906731722,0.21195,1.8190501,9.71595
1679994869554,1174857909233645,0.26205,1.8760501,9.819
1679994869556,1174857911735722,0.14205001,1.8019501,9.814051
1679994869559,1174857914237568,0.171,1.914,9.7879505
1679994869561,1174857916739722,0.18105,1.8259501,9.85305
1679994869564,1174857919241645,0.162,1.845,9.72105
1679994869568,1174857921743491,0.14505,1.7659501,9.86205
1679994869569,1174857924245568,0.13305001,1.812,9.73305
1679994869574,1174857926747386,0.11595,1.7830501,9.771001
1679994869576,1174857929249539,0.10695001,1.8829501,9.73095
1679994869578,1174857931751462,0.09,1.74195,9.65205
1679994869582,1174857934253309,0.09705,1.761,9.72105
1679994869583,1174857936755410,0.022950001,1.7899501,9.735001
1679994869585,1174857939257256,-0.06105,1.90005,9.646951
1679994869588,1174857941759179,-0.126,1.8190501,9.702001
1679994869589,1174857944261256,-0.13995,1.7560501,9.673051
1679994869591,1174857946763179,-0.123,1.7539501,9.5130005
1679994869594,1174857949265266,-0.11100001,1.7490001,9.714001
1679994869597,1174857951767189,-0.18795002,1.797,9.502951
1679994869601,1174857954269266,-0.22605,1.6819501,9.771001
1679994869602,1174857956771112,-0.16395001,1.7299501,9.75195
1679994869604,1174857959273049,-0.126,1.7830501,9.76395
1679994869608,1174857961775203,-0.10695001,1.6819501,9.637051
1679994869609,1174857964277280,-0.12105001,1.692,9.769051
1679994869613,1174857966779126,-0.01995,1.71105,9.73995
1679994869615,1174857969281059,-0.087000005,1.6849501,9.616051
1679994869617,1174857971782905,-0.05595,1.692,9.640051
1679994869620,1174857974284982,-0.01995,1.7179501,9.70905
1679994869622,1174857976786905,-0.075,1.6680001,9.558001
1679994869626,1174857979288982,-0.094950005,1.6849501,9.658951
1679994869627,1174857981790910,-0.034950003,1.67505,9.711
1679994869629,1174857984292987,-0.094950005,1.6969501,9.738001
1679994869633,1174857986794833,-0.147,1.6650001,9.69705
1679994869634,1174857989296756,-0.19500001,1.7370001,9.679951
1679994869637,1174857991798818,-0.11895001,1.6819501,9.640051
1679994869639,1174857994300741,-0.16605,1.6530001,9.59595
1679994869642,1174857996802818,-0.186,1.7010001,9.622951
1679994869644,1174857999304741,-0.17805001,1.7299501,9.582001
1679994869647,1174858001806833,-0.171,1.7490001,9.573001
1679994869650,1174858004308679,-0.15195,1.7040001,9.558001
1679994869652,1174858006810603,-0.231,1.6890001,9.465
1679994869654,1174858009312679,-0.018000001,1.70895,9.538951
1679994869657,1174858011814579,-0.102000006,1.8349501,9.558001
1679994869660,1174858014316656,-0.15405001,1.8330001,9.53205
1679994869661,1174858016818579,-0.063,1.6819501,9.625051
1679994869664,1174858019320425,-0.12795001,1.6849501,9.59595
1679994869667,1174858021822497,-0.11595,1.69395,9.618
1679994869669,1174858024324420,-0.102000006,1.70895,9.606001
1679994869673,1174858026826266,-0.09900001,1.6699501,9.691951
1679994869675,1174858029328343,-0.123,1.713,9.649051
1679994869677,1174858031830497,-0.16905001,1.7880001,9.616051
1679994869679,1174858034332372,-0.20205002,1.7010001,9.774
1679994869682,1174858036834295,-0.15900001,1.6339501,9.747001
1679994869684,1174858039336372,-0.186,1.677,9.670951
1679994869689,1174858041838299,-0.21195,1.6390501,9.537001
1679994869691,1174858044340145,-0.12795001,1.6129501,9.60105
1679994869692,1174858046842222,-0.291,1.57395,9.63195
1679994869694,1174858049344376,-0.22905001,1.5270001,9.56805
1679994869697,1174858051846222,-0.21405001,1.641,9.57705
1679994869700,1174858054348141,-0.20205002,1.55295,9.711
1679994869702,1174858056849987,-0.22200002,1.6180501,9.646951
1679994869704,1174858059352064,-0.26205,1.5460501,9.57705
1679994869708,1174858061853987,-0.29805002,1.53795,9.57495
1679994869709,1174858064355833,-0.33705002,1.5820501,9.549001
1679994869712,1174858066857977,-0.32895002,1.55295,9.57705
1679994869714,1174858069360054,-0.42000002,1.55295,9.655951
1679994869717,1174858071861900,-0.39900002,1.62495,9.537001
1679994869719,1174858074363823,-0.41805002,1.6129501,9.594001
1679994869722,1174858076865900,-0.44895002,1.5979501,9.57705
1679994869726,1174858079367824,-0.41805002,1.5960001,9.69495
1679994869728,1174858081869900,-0.58095,1.6150501,9.561001
1679994869730,1174858084371824,-0.54,1.6200001,9.61995
1679994869732,1174858086873656,-0.54495,1.644,9.594001
1679994869734,1174858089375733,-0.54495,1.62195,9.59595
1679994869738,1174858091877656,-0.6,1.67505,9.60105
1679994869740,1174858094379810,-0.60705,1.6890001,9.673051
1679994869741,1174858096881656,-0.69600004,1.6530001,9.673051
1679994869744,1174858099383766,-0.76005006,1.6699501,9.66405
1679994869747,1174858101885689,-0.82995003,1.677,9.570001
1679994869749,1174858104387535,-0.83205,1.74705,9.55305
1679994869753,1174858106889603,-0.83505005,1.6969501,9.55605
1679994869755,1174858109391526,-0.86100006,1.677,9.64395
1679994869758,1174858111893603,-0.89205,1.7730001,9.505051
1679994869759,1174858114395526,-0.93000007,1.8000001,9.54405
1679994869764,1174858116897352,-0.85605,1.881,9.52005
1679994869767,1174858119399429,-0.89895004,1.7920501,9.465
1679994869768,1174858121901352,-0.88500005,1.8139501,9.56505
1679994869770,1174858124403198,-0.93000007,1.7920501,9.592051
1679994869771,1174858126905275,-0.873,1.845,9.606001
1679994869775,1174858129407396,-0.90705,1.917,9.477
1679994869777,1174858131909319,-0.84195006,1.9050001,9.498
1679994869780,1174858134411165,-0.84705,1.8589501,9.622951
1679994869781,1174858136913242,-0.83895004,1.7950501,9.703951
1679994869784,1174858139415165,-0.81795,1.8690001,9.666
1679994869787,1174858141917001,-0.72,1.8690001,9.762
1679994869789,1174858144419155,-0.60705,1.89495,9.747001
1679994869792,1174858146921001,-0.59295005,1.84695,9.67605
1679994869794,1174858149423078,-0.49005002,1.9120501,9.56805
1679994869797,1174858151924987,-0.44700003,1.881,9.625051
1679994869802,1174858154426834,-0.45600003,1.7680501,9.57495
1679994869804,1174858156928911,-0.37005,1.8019501,9.65205
1679994869806,1174858159430848,-0.32895002,1.7880001,9.703951
1679994869810,1174858161933001,-0.30105,1.8520501,9.771001
1679994869810,1174858164434848,-0.31500003,1.7490001,9.723001
1679994869812,1174858166936925,-0.25500003,1.7710501,9.783
1679994869814,1174858169438848,-0.20205002,1.6609501,9.8550005
1679994869816,1174858171940708,-0.19005,1.6650001,9.714001
1679994869820,1174858174442785,-0.28605002,1.764,9.726001
1679994869822,1174858176944708,-0.31995,1.728,9.807
1679994869825,1174858179446862,-0.28095,1.7299501,9.774
1679994869829,1174858181948732,-0.23595001,1.8550501,9.738001
1679994869830,1174858184450809,-0.28605002,1.7560501,9.68805
1679994869832,1174858186952655,-0.27195,1.6680001,9.72795
1679994869834,1174858189454578,-0.31995,1.7010001,9.702001
1679994869838,1174858191956641,-0.32895002,1.74705,9.670951
1679994869842,1174858194458487,-0.34800002,1.8090001,9.658951
1679994869843,1174858196960641,-0.41595003,1.7040001,9.654
1679994869845,1174858199462564,-0.43005002,1.7299501,9.642
1679994869847,1174858201964410,-0.507,1.692,9.72795
1679994869848,1174858204466463,-0.504,1.677,9.75
1679994869851,1174858206968386,-0.45405003,1.641,9.88605
1679994869854,1174858209470463,-0.44400004,1.608,9.880951
1679994869857,1174858211972309,-0.507,1.5790501,9.979951
1679994869859,1174858214474453,-0.531,1.50705,9.958051
1679994869861,1174858216976376,-0.53805,1.47105,9.963
1679994869864,1174858219478222,-0.47805002,1.5169501,9.89295
1679994869866,1174858221980299,-0.55395,1.5169501,9.814051
1679994869869,1174858224482222,-0.47805002,1.455,9.880951
1679994869871,1174858226984093,-0.531,1.50705,9.835951
1679994869876,1174858229486169,-0.57405,1.4950501,9.89805
1679994869878,1174858231988093,-0.57105005,1.5409501,9.817051
1679994869881,1174858234490169,-0.55200005,1.55505,9.799951
1679994869883,1174858236992088,-0.52605003,1.5460501,9.7570505
1679994869885,1174858239493934,-0.46605003,1.57395,9.702001
1679994869888,1174858241996011,-0.48705003,1.51005,9.762
1679994869891,1174858244497934,-0.49695003,1.52205,9.831
1679994869892,1174858247000088,-0.432,1.4830501,9.846001
1679994869895,1174858249501925,-0.45105,1.5649501,9.817051
1679994869897,1174858252003771,-0.40605003,1.5270001,9.72795
1679994869900,1174858254505848,-0.42495003,1.4950501,9.691951
1679994869902,1174858257007771,-0.36,1.4950501,9.735001
1679994869904,1174858259509848,-0.39600003,1.4569501,9.759001
1679994869907,1174858262011771,-0.43500003,1.5169501,9.699
1679994869910,1174858264513848,-0.44895002,1.3879501,9.811951
1679994869913,1174858267015771,-0.43005002,1.3920001,9.67605
1679994869916,1174858269517607,-0.50100005,1.3780501,9.61305
1679994869918,1174858272019684,-0.47295,1.3060501,9.77595
1679994869921,1174858274521607,-0.57405,1.3759501,9.766951
1679994869923,1174858277023684,-0.492,1.3920001,9.75
1679994869925,1174858279525607,-0.55200005,1.3920001,9.7570505
1679994869928,1174858282027689,-0.51000005,1.35405,9.691951
1679994869930,1174858284529535,-0.61395,1.3300501,9.84105
1679994869932,1174858287031458,-0.70095,1.23,9.726001
1679994869934,1174858289533304,-0.64995,1.3609501,9.817051
1679994869937,1174858292035405,-0.67395,1.40205,9.666
1679994869941,1174858294537559,-0.58605003,1.43295,9.670951
1679994869944,1174858297039405,-0.70305,1.4140501,9.63195
1679994869947,1174858299541328,-0.64500004,1.5000001,9.622951
1679994869950,1174858302043433,-0.67905,1.4809501,9.56505
1679994869952,1174858304545357,-0.66,1.4280001,9.714001
1679994869953,1174858307047203,-0.57795,1.4809501,9.69495
1679994869955,1174858309549357,-0.51900005,1.43295,9.786
1679994869958,1174858312051433,-0.61005,1.38495,9.817051
1679994869960,1174858314553304,-0.57795,1.43805,9.805051
1679994869961,1174858317055227,-0.58605003,1.368,9.843
1679994869964,1174858319557304,-0.75600004,1.3879501,9.679951
1679994869967,1174858322059150,-0.648,1.34895,9.766951
1679994869969,1174858324561072,-0.60495,1.4140501,9.72105
1679994869972,1174858327063226,-0.657,1.3420501,9.699
1679994869975,1174858329565072,-0.69105005,1.2870001,9.691951
1679994869977,1174858332067149,-0.777,1.3110001,9.63195
1679994869980,1174858334568995,-0.58995,1.3420501,9.65205
1679994869982,1174858337070918,-0.67905,1.419,9.628051
1679994869984,1174858339572995,-0.60705,1.3279501,9.726001
1679994869988,1174858342074894,-0.61200005,1.419,9.666
1679994869992,1174858344576971,-0.61005,1.3300501,9.65205
1679994869993,1174858347078894,-0.57600003,1.4070001,9.522
1679994869994,1174858349580971,-0.6,1.383,9.690001
1679994869997,1174858352082894,-0.58305,1.4809501,9.63195
1679994870001,1174858354584732,-0.57795,1.4500501,9.484051
1679994870002,1174858357086809,-0.58605003,1.3920001,9.517051
1679994870004,1174858359588655,-0.60495,1.44,9.465
1679994870008,1174858362090809,-0.64500004,1.5000001,9.345
1679994870009,1174858364592732,-0.69600004,1.4980501,9.51
1679994870012,1174858367094568,-0.68895006,1.416,9.66405
1679994870015,1174858369596645,-0.65295005,1.47105,9.508051
1679994870017,1174858372098568,-0.62205005,1.4809501,9.594001
1679994870020,1174858374600415,-0.68595004,1.3920001,9.55605
1679994870022,1174858377102506,-0.62895006,1.3800001,9.5130005
1679994870026,1174858379604659,-0.62205005,1.368,9.759001
1679994870029,1174858382106582,-0.51900005,1.2970501,9.74505
1679994870031,1174858384608429,-0.54195005,1.2559501,9.92895
1679994870033,1174858387110515,-0.45600003,1.26795,9.781051
1679994870034,1174858389612438,-0.44400004,1.2270001,9.68805
1679994870037,1174858392114284,-0.46800002,1.218,9.679951
1679994870039,1174858394616361,-0.51405,1.3440001,9.628051
1679994870042,1174858397118515,-0.504,1.30095,9.65205
1679994870044,1174858399620348,-0.44895002,1.263,9.667951
1679994870047,1174858402122271,-0.44895002,1.2970501,9.517051
1679994870049,1174858404624117,-0.61395,1.3660501,9.64395
1679994870052,1174858407126194,-0.43995002,1.3090501,9.46695
1679994870054,1174858409628121,-0.49005002,1.31595,9.522
1679994870057,1174858412130198,-0.53505003,1.24395,9.477
1679994870060,1174858414632121,-0.49905002,1.2889501,9.57495
1679994870063,1174858417134198,-0.55395,1.3039501,9.592051
1679994870066,1174858419636058,-0.60495,1.31595,9.438001
1679994870068,1174858422137981,-0.64995,1.31595,9.441
1679994870070,1174858424640135,-0.56895,1.4089501,9.4140005
1679994870072,1174858427141981,-0.68895006,1.23405,9.457951
1679994870074,1174858429644058,-0.70500004,1.2889501,9.37605
1679994870077,1174858432145981,-0.66495,1.27005,9.40695
1679994870086,1174858434648058,-0.684,1.31595,9.331051
1679994870086,1174858437149904,-0.67695004,1.30095,9.39105
1679994870086,1174858439651827,-0.67395,1.2889501,9.37905
1679994870087,1174858442153990,-0.77505004,1.27995,9.41205
1679994870089,1174858444655836,-0.78705,1.2100501,9.321
1679994870092,1174858447157913,-0.82695,1.26495,9.32295
1679994870094,1174858449659759,-0.75795,1.31805,9.393001
1679994870097,1174858452161698,-0.68895006,1.3300501,9.462001
1679994870102,1174858454663774,-0.777,1.3560001,9.526951
1679994870103,1174858457165698,-0.76500005,1.2270001,9.57495
1679994870106,1174858459667774,-0.708,1.2220501,9.394951
1679994870108,1174858462169669,-0.79605,1.2529501,9.43395
1679994870110,1174858464671515,-0.63795,1.3369501,9.43395
1679994870112,1174858467173592,-0.693,1.3440001,9.40695
1679994870114,1174858469675515,-0.69105005,1.31805,9.39795
1679994870117,1174858472177592,-0.648,1.251,9.31095
1679994870120,1174858474679506,-0.61005,1.194,9.40695
1679994870122,1174858477181583,-0.64500004,1.143,9.460051
1679994870125,1174858479683506,-0.59505004,1.09095,9.41205
1679994870128,1174858482185583,-0.57795,1.011,9.517051
1679994870129,1174858484687429,-0.54,1.0500001,9.481951
1679994870132,1174858487189338,-0.45405003,0.91305006,9.358951
1679994870134,1174858489691184,-0.60705,0.91305006,9.41205
1679994870139,1174858492193338,-0.63795,0.80100006,9.393001
1679994870141,1174858494695415,-0.63105005,0.79605,9.429001
1679994870144,1174858497197261,-0.70305,0.80100006,9.321
1679994870145,1174858499699184,-0.60705,0.82005006,9.505051
1679994870148,1174858502201030,-0.57795,0.85395,9.393001
1679994870149,1174858504703107,-0.64500004,0.76695,9.429001
1679994870151,1174858507205040,-0.64995,0.84900004,9.529051
1679994870155,1174858509707194,-0.53505003,0.83400005,9.55305
1679994870157,1174858512209040,-0.528,0.82695,9.549001
1679994870159,1174858514711117,-0.58995,0.96105003,9.585
1679994870162,1174858517213040,-0.59805006,0.882,9.457951
1679994870164,1174858519715144,-0.54705,0.94200003,9.561001
1679994870167,1174858522216990,-0.564,1.02795,9.585
1679994870169,1174858524718913,-0.53505003,0.94905007,9.45495
1679994870171,1174858527221067,-0.48000002,1.008,9.517051
1679994870176,1174858529722914,-0.54495,1.146,9.5460005
1679994870179,1174858532224990,-0.49500003,1.20105,9.61305
1679994870181,1174858534726837,-0.46800002,1.0879501,9.55305
1679994870183,1174858537228784,-0.55905,1.1149501,9.57495
1679994870184,1174858539730861,-0.57105005,1.16205,9.59595
1679994870187,1174858542232707,-0.528,1.194,9.64395
1679994870189,1174858544734861,-0.42000002,1.2250501,9.61995
1679994870192,1174858547236784,-0.42000002,1.23405,9.558001
1679994870194,1174858549738852,-0.38895002,1.1910001,9.654
1679994870197,1174858552240698,-0.38205,1.2220501,9.711
1679994870201,1174858554742621,-0.38895002,1.074,9.831
1679994870202,1174858557244698,-0.25005,1.062,10.01595
1679994870204,1174858559746539,-0.29595003,1.011,10.095
1679994870208,1174858562248693,-0.26895002,0.95895004,10.13805
1679994870210,1174858564750616,-0.20700002,0.92505,10.308001
1679994870213,1174858567252693,-0.15705001,0.777,10.258051
1679994870219,1174858569754524,-0.16905001,0.81795,10.1310005
1679994870220,1174858572256447,-0.10695001,0.77205,10.114051
1679994870221,1174858574758524,-0.17805001,0.717,10.02795
1679994870223,1174858577260447,-0.19005,0.79395,9.988951
1679994870226,1174858579762293,-0.18105,0.78900003,9.86205
1679994870228,1174858582264361,-0.13800001,0.88695,9.805051
1679994870230,1174858584766284,-0.16605,0.87705004,9.81
1679994870232,1174858587268130,-0.252,0.906,9.747001
1679994870234,1174858589770284,-0.19305001,0.92505,9.795
1679994870237,1174858592272361,-0.16395001,0.93705004,9.762
1679994870239,1174858594774193,-0.246,1.0030501,9.73095
1679994870242,1174858597276116,-0.16605,1.014,9.826051
1679994870244,1174858599778193,-0.13995,0.95595,9.72795
1679994870247,1174858602280040,-0.15195,0.96405005,9.640051
1679994870251,1174858604781977,-0.10395,1.014,9.73095
1679994870253,1174858607284130,-0.17595,1.0380001,9.634951
1679994870255,1174858609785977,-0.11400001,0.96795005,9.604051
1679994870258,1174858612288054,-0.054,1.03995,9.640051
1679994870261,1174858614789977,-0.063,1.0309501,9.534
1679994870262,1174858617291823,-0.028050002,1.0360501,9.514951
1679994870266,1174858619793900,-0.00795,0.95205003,9.56295
1679994870268,1174858622295823,-0.08505,0.94200003,9.526951
1679994870270,1174858624797977,-0.13800001,1.0639501,9.561001
1679994870272,1174858627299800,-0.16905001,1.014,9.541051
1679994870274,1174858629801877,-0.15,0.99495006,9.42195
1679994870277,1174858632303800,-0.25695002,0.98505,9.58005
1679994870280,1174858634805646,-0.20700002,0.91095006,9.525001
1679994870282,1174858637307765,-0.279,0.97095007,9.63195
1679994870284,1174858639809688,-0.291,0.94500005,9.63195
1679994870289,1174858642311765,-0.33195,0.94695,9.649051
1679994870291,1174858644813688,-0.45105,0.906,9.625051
1679994870293,1174858647315544,-0.40095,0.96105003,9.55605
1679994870295,1174858649817621,-0.47805002,0.91305006,9.46695
1679994870297,1174858652319544,-0.483,0.966,9.4140005
1679994870300,1174858654821621,-0.55905,0.96105003,9.498
1679994870302,1174858657323544,-0.59295005,0.99705005,9.5130005
1679994870306,1174858659825596,-0.55395,0.98805004,9.58905
1679994870309,1174858662327519,-0.62205005,0.846,9.61995
1679994870310,1174858664829365,-0.62595004,0.94905007,9.68805
1679994870312,1174858667331442,-0.657,0.98295003,9.56805
1679994870314,1174858669833365,-0.657,0.96105003,9.673051
1679994870317,1174858672335428,-0.78000003,0.86295,9.5460005
1679994870319,1174858674837351,-0.68895006,0.882,9.472051
1679994870322,1174858677339428,-0.61905,0.91800004,9.526951
1679994870326,1174858679841226,-0.71505004,0.87000006,9.561001
1679994870329,1174858682343150,-0.648,1.03995,9.541051
1679994870331,1174858684845226,-0.68595004,1.0500001,9.585
1679994870333,1174858687347073,-0.72495,1.011,9.457951
1679994870337,1174858689848981,-0.837,1.11195,9.501
1679994870341,1174858692351135,-0.70095,1.059,9.508051
1679994870342,1174858694852981,-0.68595004,1.107,9.60795
1679994870343,1174858697355058,-0.76305,1.12695,9.538951
1679994870344,1174858699856981,-0.80595005,1.074,9.498
1679994870348,1174858702359039,-0.77205,1.218,9.53205
1679994870349,1174858704860885,-0.63105005,1.19595,9.59895
1679994870352,1174858707362808,-0.62205005,1.23405,9.640051
1679994870355,1174858709864962,-0.693,1.16205,9.783
1679994870357,1174858712366808,-0.64500004,1.2889501,9.795
1679994870359,1174858714868871,-0.55395,1.1910001,9.958051
1679994870364,1174858717370794,-0.57105005,1.19595,10.08495
1679994870366,1174858719872640,-0.44400004,1.19805,10.132951
1679994870368,1174858722374717,-0.34095,1.12695,10.255051
1679994870370,1174858724876635,-0.38205,1.1719501,10.284
1679994870372,1174858727378712,-0.27705002,1.1190001,10.272
1679994870374,1174858729880635,-0.231,1.0860001,10.288951
1679994870377,1174858732382712,-0.22395001,1.0570501,10.210051
1679994870380,1174858734884567,-0.25005,1.08105,10.26
1679994870382,1174858737386721,-0.19005,1.014,10.284
1679994870385,1174858739888567,-0.16395001,1.0669501,10.03995
1679994870387,1174858742390490,-0.135,1.0999501,10.059
1679994870389,1174858744892567,-0.07095,1.16505,10.01595
1679994870392,1174858747394409,-0.025050001,1.1890501,10.04205
1679994870395,1174858749896332,0.042000003,1.27995,9.964951
1679994870398,1174858752398409,0.034950003,1.3110001,10.02
1679994870401,1174858754900563,0.087000005,1.26795,10.02495
1679994870403,1174858757402418,0.06795,1.2940501,9.939
1679994870405,1174858759904342,0.07305,1.368,10.03995
1679994870410,1174858762406418,0.094950005,1.31295,9.982051
1679994870412,1174858764908342,0.06105,1.416,9.988951
1679994870413,1174858767410188,0.01995,1.52205,9.963
1679994870414,1174858769912275,-0.00795,1.4239501,9.802051
1679994870417,1174858772414428,-0.028050002,1.47105,9.955951
1679994870420,1174858774916275,-0.123,1.455,9.9199505
1679994870422,1174858777418198,-0.15,1.4929501,9.86205
1679994870425,1174858779920289,-0.17400001,1.4830501,9.8220005
1679994870428,1174858782422135,-0.291,1.5340501,9.798
1679994870430,1174858784924058,-0.28905,1.5190501,9.86505
1679994870432,1174858787425904,-0.39195,1.55805,9.654
1679994870435,1174858789928058,-0.38895002,1.4790001,9.73995
1679994870439,1174858792430116,-0.42795002,1.4640001,9.57705
1679994870443,1174858794931962,-0.528,1.47405,9.592051
1679994870444,1174858797433885,-0.528,1.4809501,9.703951
1679994870445,1174858799935962,-0.46800002,1.4760001,9.55095
1679994870448,1174858802437909,-0.62595004,1.4790001,9.625051
1679994870449,1174858804939755,-0.56205004,1.536,9.549001
1679994870453,1174858807441909,-0.68100005,1.536,9.64395
1679994870455,1174858809943971,-0.73200005,1.4790001,9.655951
1679994870459,1174858812445894,-0.66,1.4310001,9.549001
1679994870460,1174858814947740,-0.78705,1.6129501,9.594001
1679994870462,1174858817449817,-0.76995003,1.5619501,9.57495
1679994870465,1174858819951740,-0.73905003,1.5499501,9.61305
1679994870469,1174858822453808,-0.61005,1.4929501,9.592051
1679994870470,1174858824955731,-0.75795,1.50705,9.628051
1679994870472,1174858827457577,-0.72495,1.4569501,9.703951
1679994870476,1174858829959649,-0.63105005,1.51005,9.759001
1679994870479,1174858832461572,-0.63795,1.5169501,9.76395
1679994870480,1174858834963419,-0.55695003,1.4830501,9.819
1679994870483,1174858837465496,-0.53295004,1.43505,9.87195
1679994870485,1174858839967649,-0.55905,1.5289501,9.937051
1679994870488,1174858842469530,-0.46095002,1.50705,9.963
1679994870491,1174858844971453,-0.49905002,1.491,9.963
1679994870493,1174858847473530,-0.38700002,1.5409501,9.979951
1679994870496,1174858849975453,-0.42495003,1.4980501,10.00395
1679994870498,1174858852477338,-0.32895002,1.4449501,10.128
1679994870501,1174858854979415,-0.23595001,1.5960001,10.236
1679994870502,1174858857481569,-0.15900001,1.54305,10.152
1679994870506,1174858859983492,-0.07095,1.572,10.177951
1679994870508,1174858862485338,-0.123,1.54305,10.234051
1679994870510,1174858864987415,-0.10395,1.644,10.24995
1679994870513,1174858867489338,0.034950003,1.6609501,10.102051
1679994870516,1174858869991184,0.040050004,1.58895,10.267051
1679994870518,1174858872493271,0.09,1.5340501,10.114051
1679994870520,1174858874995194,0.079950005,1.641,10.14
1679994870523,1174858877497271,0.17595,1.6530001,10.143001
1679994870525,1174858879999194,0.17805001,1.713,10.18095
1679994870528,1174858882501040,0.13995,1.7209501,10.111051
1679994870529,1174858885003145,0.16395001,1.6530001,10.114051
1679994870532,1174858887505068,0.16605,1.7299501,10.02
1679994870535,1174858890006914,0.14205001,1.7880001,10.056001
1679994870537,1174858892509068,0.17595,1.7230501,10.095
1679994870541,1174858895011169,0.043950003,1.728,10.095
1679994870543,1174858897513092,0.03705,1.7880001,9.94095
1679994870545,1174858900014938,0.054,1.7179501,9.901051
1679994870547,1174858902517015,-0.094950005,1.6339501,10.07295
1679994870551,1174858905018943,-0.147,1.6150501,9.826051
1679994870553,1174858907521020,-0.19800001,1.6530001,10.008
1679994870556,1174858910022866,-0.19005,1.6530001,9.89595
1679994870558,1174858912524790,-0.29595003,1.5979501,9.976951
1679994870559,1174858915026867,-0.30795002,1.58595,9.786
1679994870562,1174858917528819,-0.41295,1.6030501,9.955951
1679994870565,1174858920030896,-0.36495003,1.5600001,9.831
1679994870567,1174858922532819,-0.39900002,1.6530001,9.766951
1679994870570,1174858925034896,-0.38895002,1.54305,9.738001
1679994870572,1174858927536819,-0.46605003,1.5649501,9.814051
1679994870575,1174858930038665,-0.51000005,1.5460501,9.7570505
1679994870577,1174858932540742,-0.45900002,1.6200001,9.754951
1679994870581,1174858935042665,-0.42795002,1.53795,9.691951
1679994870582,1174858937544752,-0.49500003,1.6060501,9.70905
1679994870584,1174858940046675,-0.42495003,1.5820501,9.71895
1679994870588,1174858942548521,-0.39405003,1.5700501,9.754951
1679994870591,1174858945050598,-0.47295,1.5340501,9.642
1679994870592,1174858947552511,-0.41805002,1.67295,9.699
1679994870594,1174858950054357,-0.38700002,1.4950501,9.667951
1679994870597,1174858952556434,-0.32700002,1.47105,9.711
1679994870599,1174858955058588,-0.291,1.47405,9.69495
1679994870602,1174858957560434,-0.32505003,1.58895,9.811951
1679994870604,1174858960062367,-0.291,1.5190501,9.762
1679994870607,1174858962564444,-0.29595003,1.52205,9.793051
1679994870610,1174858965066367,-0.19500001,1.4119501,9.77595
1679994870612,1174858967568213,-0.23595001,1.452,9.690001
1679994870615,1174858970070275,-0.21705002,1.4929501,9.867001
1679994870617,1174858972572429,-0.231,1.51005,9.807
1679994870620,1174858975074352,-0.15705001,1.50495,9.82905
1679994870623,1174858977576198,-0.16605,1.491,9.786
1679994870626,1174858980078256,-0.09705,1.572,9.72105
1679994870629,1174858982580102,-0.08295,1.54305,9.75
1679994870631,1174858985082026,-0.11100001,1.5409501,9.690001
1679994870633,1174858987584179,-0.09195001,1.50495,9.658951
1679994870635,1174858990086026,-0.054,1.6099501,9.69495
1679994870637,1174858992588097,-0.042000003,1.536,9.774
1679994870641,1174858995090021,-0.10695001,1.5169501,9.759001
1679994870642,1174858997591867,-0.11595,1.39995,9.8220005
1679994870645,1174859000093944,-0.147,1.54305,9.69495
1679994870649,1174859002595905,-0.11595,1.4470501,9.747001
1679994870650,1174859005097982,-0.13095,1.4929501,9.8550005
1679994870652,1174859007599905,-0.14505,1.4830501,9.766951
1679994870656,1174859010101982,-0.17805001,1.5409501,9.75195
1679994870658,1174859012603905,-0.231,1.416,9.835951
1679994870661,1174859015105712,-0.26205,1.455,9.81
1679994870665,1174859017607789,-0.29805002,1.43805,9.766951
1679994870667,1174859020109712,-0.33195,1.43505,9.774
1679994870669,1174859022611789,-0.35595003,1.4929501,9.759001
1679994870670,1174859025113707,-0.246,1.5460501,9.72105
1679994870672,1174859027615784,-0.291,1.38495,9.762
1679994870675,1174859030117707,-0.27405003,1.4569501,9.69705
1679994870677,1174859032619553,-0.31305,1.419,9.786
1679994870680,1174859035121616,-0.25995,1.5310501,9.8550005
1679994870683,1174859037623462,-0.26895002,1.5190501,9.805051
1679994870686,1174859040125616,-0.25500003,1.4790001,9.846001
1679994870688,1174859042627539,-0.27405003,1.40205,9.81
1679994870690,1174859045129385,-0.27405003,1.38495,9.817051
1679994870692,1174859047631438,-0.27705002,1.3950001,9.802051
1679994870696,1174859050133361,-0.21195,1.4119501,9.738001
1679994870698,1174859052635207,-0.279,1.50705,9.82905
1679994870702,1174859055137269,-0.26205,1.43295,9.811951
1679994870704,1174859057639423,-0.37500003,1.3660501,9.781051
1679994870718,1174859060141346,-0.33705002,1.371,9.76395
1679994870718,1174859062643192,-0.28605002,1.4640001,9.71895
1679994870718,1174859065145269,-0.252,1.2919501,9.738001
1679994870718,1174859067647183,-0.26895002,1.36395,9.667951
1679994870718,1174859070149260,-0.26895002,1.3800001,9.666
1679994870718,1174859072651183,-0.35805002,1.3420501,9.74505
1679994870720,1174859075153260,-0.30795002,1.299,9.70695
1679994870722,1174859077655083,-0.23400001,1.368,9.771001
1679994870726,1174859080157006,-0.19305001,1.2870001,9.67605
1679994870728,1174859082659083,-0.24300002,1.299,9.69705
1679994870729,1174859085161006,-0.28905,1.3090501,9.66405
1679994870732,1174859087663087,-0.25995,1.2610501,9.64395
1679994870735,1174859090165010,-0.26895002,1.28505,9.73095
1679994870739,1174859092666856,-0.34395,1.263,9.834001
1679994870742,1174859095168933,-0.19500001,1.24605,9.604051
1679994870743,1174859097670765,-0.22605,1.23405,9.640051
1679994870746,1174859100172688,-0.26700002,1.3110001,9.747001
1679994870748,1174859102674842,-0.15705001,1.27695,9.703951
1679994870750,1174859105176688,-0.279,1.2730501,9.658951
1679994870752,1174859107678765,-0.246,1.30095,9.61305
1679994870755,1174859110180683,-0.25695002,1.3039501,9.55605
1679994870757,1174859112682760,-0.231,1.3060501,9.63195
1679994870759,1174859115184606,-0.26895002,1.2870001,9.66405
1679994870762,1174859117686529,-0.30795002,1.24605,9.72795
1679994870765,1174859120188664,-0.24300002,1.3039501,9.678
1679994870768,1174859122690741,-0.34395,1.2870001,9.71895
1679994870769,1174859125192587,-0.30495003,1.2940501,9.661051
1679994870772,1174859127694510,-0.35595003,1.27995,9.5460005
1679994870777,1174859130196592,-0.26205,1.3090501,9.60795
1679994870779,1174859132698438,-0.34395,1.2580501,9.549001
1679994870782,1174859135200361,-0.32505003,1.38495,9.673051
1679994870783,1174859137702515,-0.30795002,1.27695,9.57705
1679994870786,1174859140204361,-0.34800002,1.31595,9.549001
1679994870788,1174859142706452,-0.36,1.35405,9.655951
1679994870790,1174859145208299,-0.40395,1.27005,9.549001
1679994870792,1174859147710222,-0.43005002,1.24395,9.649051
1679994870795,1174859150212299,-0.36,1.24395,9.72795
1679994870797,1174859152714222,-0.47505003,1.251,9.658951
1679994870799,1174859155216304,-0.40605003,1.16505,9.71895
1679994870802,1174859157718227,-0.41805002,1.2390001,9.646951
1679994870805,1174859160220304,-0.40095,1.23,9.640051
1679994870808,1174859162722150,-0.46800002,1.2250501,9.642
1679994870809,1174859165224073,-0.49005002,1.3300501,9.502951
1679994870813,1174859167726155,-0.42795002,1.2940501,9.61995
1679994870816,1174859170228309,-0.38205,1.34895,9.622951
1679994870818,1174859172730155,-0.35595003,1.31595,9.606001
1679994870821,1174859175232063,-0.45900002,1.3399501,9.514951
1679994870824,1174859177734140,-0.35805002,1.4569501,9.52005
1679994870826,1174859180235986,-0.40605003,1.42095,9.594001
1679994870828,1174859182737909,-0.33195,1.3420501,9.606001
1679994870830,1174859185239986,-0.40800002,1.3590001,9.654
1679994870832,1174859187741919,-0.42495003,1.42095,9.56505
1679994870837,1174859190243996,-0.42000002,1.404,9.642
1679994870838,1174859192745842,-0.48705003,1.404,9.541051
1679994870842,1174859195247765,-0.41295,1.39995,9.64395
1679994870844,1174859197749846,-0.45405003,1.39005,9.703951
1679994870846,1174859200251769,-0.411,1.371,9.64395
1679994870848,1174859202753615,-0.37995002,1.39995,9.70695
1679994870852,1174859205255769,-0.38895002,1.27005,9.714001
1679994870853,1174859207757870,-0.40095,1.43505,9.762
1679994870857,1174859210259716,-0.46095002,1.3110001,9.795
1679994870859,1174859212761639,-0.432,1.2940501,9.783
1679994870861,1174859215263716,-0.384,1.3110001,9.814051
1679994870863,1174859217765639,-0.39600003,1.3729501,9.7570505
1679994870866,1174859220267530,-0.32700002,1.3090501,9.805051
1679994870868,1174859222769683,-0.33705002,1.4119501,9.71595
1679994870870,1174859225271760,-0.32505003,1.39995,9.769051
1679994870875,1174859227773606,-0.372,1.3800001,9.766951
1679994870876,1174859230275452,-0.37995002,1.3300501,9.766951
1679994870877,1174859232777605,-0.32895002,1.3660501,9.7570505
1679994870881,1174859235279529,-0.34395,1.3780501,9.64395
1679994870883,1174859237781606,-0.28605002,1.4089501,9.58905
1679994870886,1174859240283438,-0.25005,1.3800001,9.814051
1679994870889,1174859242785361,-0.37500003,1.4470501,9.786
1679994870891,1174859245287438,-0.35295,1.4280001,9.714001
1679994870893,1174859247789284,-0.34395,1.43805,9.72795
1679994870896,1174859250291452,-0.39405003,1.43505,9.69705
1679994870898,1174859252793375,-0.33705002,1.4980501,9.8220005
1679994870900,1174859255295221,-0.38895002,1.4430001,9.75195
1679994870902,1174859257797298,-0.35805002,1.5000001,9.673051
1679994870905,1174859260299144,-0.38205,1.5000001,9.774
