system_ts_ms, sensor_ts_ns, gyrX, gyrY, gyrZ
1679994865702,1174854056192650,0.0017875,-0.03135,0.083325
1679994865703,1174854058694727,0.01375,-0.03135,0.0774125
1679994865706,1174854061196592,0.016775,-0.0213125,0.067375
1679994865709,1174854063698515,0.0207625,-0.0042625,0.062425
1679994865711,1174854066200669,0.0237875,0.0177375,0.0554125
1679994865713,1174854068702746,0.0257125,0.0386375,0.0523875
1679994865722,1174854071204592,0.0198,0.0606375,0.0433125
1679994865723,1174854073706515,0.014712499,0.07865,0.0383625
1679994865723,1174854076208592,0.0127875,0.0917125,0.0323125
1679994865723,1174854078710539,0.0097624995,0.1027125,0.0243375
1679994865726,1174854081212616,0.005775,0.1126125,0.0193875
1679994865728,1174854083714539,-2.75E-4,0.108625,0.0163625
1679994865730,1174854086216616,0.0017875,0.1057375,0.0103124995
1679994865733,1174854088718462,-0.0022,0.1067,0.0083875
1679994865736,1174854091220390,-0.0042625,0.0947375,0.006325
1679994865739,1174854093722467,-0.0033,0.0856625,0.0083875
1679994865741,1174854096224313,-0.0033,0.076725,0.00935
1679994865743,1174854098726467,-0.0022,0.0666875,0.0103124995
1679994865750,1174854101228428,-0.0012375,0.0556875,0.0114124995
1679994865750,1174854103730275,-0.0042625,0.0407,0.012375
1679994865751,1174854106232351,-0.0033,0.0306625,0.0154
1679994865753,1174854108734275,-0.0022,0.0196625,0.023375
1679994865756,1174854111236121,-2.75E-4,0.0056375,0.0243375
1679994865758,1174854113738198,0.00275,-0.0033,0.028324999
1679994865760,1174854116240352,-0.0042625,-0.0103124995,0.0323125
1679994865763,1174854118742198,-0.0012375,-0.0193875,0.034375
1679994865766,1174854121244121,-2.75E-4,-0.0273625,0.0363
1679994865768,1174854123746189,-0.0033,-0.03135,0.0383625
1679994865771,1174854126248112,-0.0061875,-0.0323125,0.0413875
1679994865774,1174854128749958,-0.0042625,-0.0323125,0.0413875
1679994865777,1174854131252035,-0.0061875,-0.03135,0.04235
1679994865779,1174854133754189,-0.0042625,-0.0303875,0.040425
1679994865785,1174854136256112,-0.0061875,-0.0262625,0.039325
1679994865785,1174854138757958,-0.0061875,-0.0213125,0.0383625
1679994865788,1174854141260035,-0.0072875,-0.0193875,0.034375
1679994865790,1174854143761953,-0.005225,-0.017324999,0.03135
1679994865791,1174854146263799,-0.005225,-0.0133375,0.028324999
1679994865793,1174854148765876,-0.0061875,-0.0143,0.0243375
1679994865796,1174854151268030,-0.0061875,-0.006325,0.0243375
1679994865802,1174854153769953,-0.0072875,-2.75E-4,0.0213125
1679994865802,1174854156271794,-0.011275,-2.75E-4,0.0243375
1679994865804,1174854158773640,-0.00825,0.0026125,0.023375
1679994865807,1174854161275794,-0.0061875,0.004675,0.02035
1679994865808,1174854163777871,-0.011275,0.0077,0.0224125
1679994865811,1174854166279813,-0.0143,0.0077,0.0253
1679994865813,1174854168781659,-0.011275,0.0116875,0.0253
1679994865818,1174854171283736,-0.0122375,0.013612499,0.0264
1679994865819,1174854173785659,-0.0132,0.010725,0.0273625
1679994865823,1174854176287530,-0.016224999,0.0086624995,0.028324999
1679994865825,1174854178789683,-0.016224999,0.0077,0.029424999
1679994865827,1174854181291530,-0.0171875,0.0086624995,0.0323125
1679994865829,1174854183793606,-0.0202125,0.010725,0.0334125
1679994865835,1174854186295530,-0.022275,0.0116875,0.0303875
1679994865835,1174854188797606,-0.0182875,0.0086624995,0.0303875
1679994865836,1174854191299453,-0.0232375,0.01265,0.0323125
1679994865838,1174854193801376,-0.0242,0.013612499,0.0303875
1679994865841,1174854196303530,-0.0281875,0.014712499,0.03135
1679994865844,1174854198805592,-0.0281875,0.0177375,0.0303875
1679994865846,1174854201307439,-0.0242,0.021724999,0.028324999
1679994865851,1174854203809362,-0.0251625,0.020624999,0.029424999
1679994865852,1174854206311439,-0.0251625,0.0226875,0.0273625
1679994865853,1174854208813362,-0.0232375,0.02365,0.0273625
1679994865857,1174854211315208,-0.021175,0.0246125,0.0253
1679994865861,1174854213817362,-0.0232375,0.0257125,0.023375
1679994865863,1174854216319208,-0.0202125,0.0276375,0.023375
1679994865864,1174854218821266,-0.021175,0.0297,0.0213125
1679994865869,1174854221323189,-0.01925,0.0246125,0.0213125
1679994865870,1174854223825035,-0.021175,0.0246125,0.0163625
1679994865871,1174854226327112,-0.0202125,0.02365,0.0143
1679994865873,1174854228829035,-0.0202125,0.0196625,0.0133375
1679994865876,1174854231331097,-0.021175,0.020624999,0.0143
1679994865879,1174854233833020,-0.0202125,0.021724999,0.0163625
1679994865881,1174854236335097,-0.0202125,0.0257125,0.0154
1679994865885,1174854238836943,-0.021175,0.020624999,0.0193875
1679994865887,1174854241338890,-0.0202125,0.0196625,0.017324999
1679994865889,1174854243840967,-0.0171875,0.020624999,0.017324999
1679994865891,1174854246343121,-0.016224999,0.0187,0.02035
1679994865893,1174854248844967,-0.0171875,0.0177375,0.0224125
1679994865898,1174854251346876,-0.016224999,0.0166375,0.0163625
1679994865903,1174854253848953,-0.016224999,0.0166375,0.0163625
1679994865904,1174854256350876,-0.014162499,0.014712499,0.02035
1679994865904,1174854258852722,-0.0122375,0.014712499,0.0224125
1679994865907,1174854261354799,-0.0132,0.014712499,0.0193875
1679994865908,1174854263856934,-0.0122375,0.013612499,0.0163625
1679994865911,1174854266358780,-0.015262499,0.0116875,0.0163625
1679994865913,1174854268860704,-0.0132,0.0086624995,0.0163625
1679994865919,1174854271362780,-0.0132,0.0067375,0.0154
1679994865920,1174854273864713,-0.0132,0.0037125,0.0133375
1679994865921,1174854276366559,-0.0122375,0.010725,0.0143
1679994865924,1174854278868636,-0.014162499,0.004675,0.012375
1679994865927,1174854281370559,-0.014162499,-2.75E-4,0.0133375
1679994865928,1174854283872636,-0.0132,0.00165,0.0133375
1679994865931,1174854286374583,-0.014162499,6.875E-4,0.0133375
1679994865935,1174854288876429,-0.0122375,-0.0053625,0.0133375
1679994865937,1174854291378506,-0.0132,-0.006325,0.0143
1679994865941,1174854293880410,-0.0122375,-0.006325,0.0163625
1679994865942,1174854296382256,-0.0122375,-0.011275,0.0143
1679994865944,1174854298884410,-0.0122375,-0.0133375,0.0143
1679994865947,1174854301386487,-0.0092124995,-0.0103124995,0.0143
1679994865952,1174854303888410,-0.015262499,-0.0133375,0.0163625
1679994865953,1174854306390270,-0.011275,-0.017324999,0.0143
1679994865954,1174854308892347,-0.0092124995,-0.02035,0.012375
1679994865956,1174854311394270,-0.010175,-0.0243375,0.0114124995
1679994865958,1174854313896116,-0.010175,-0.0243375,0.0133375
1679994865961,1174854316398270,-0.0061875,-0.023375,0.0143
1679994865964,1174854318900347,-0.00825,-0.0243375,0.0103124995
1679994865970,1174854321402270,-0.0092124995,-0.023375,0.0114124995
1679994865971,1174854323904116,-0.0061875,-0.02035,0.0103124995
1679994865973,1174854326406193,-0.0072875,-0.0213125,0.0083875
1679994865975,1174854328908116,-0.0072875,-0.02035,0.007425
1679994865977,1174854331410193,-0.005225,-0.017324999,0.00935
1679994865980,1174854333912039,-0.0042625,-0.0163625,0.0044
1679994865985,1174854336413962,-0.0022,-0.0143,0.0023375
1679994865986,1174854338916015,-0.0012375,-0.00935,0.0033
1679994865986,1174854341417938,-0.0022,-0.0053625,0.0023375
1679994865988,1174854343920015,-0.0012375,-0.0103124995,0.0044
1679994865993,1174854346421938,-0.0042625,-0.0072875,0.0023375
1679994865993,1174854348923991,-0.0031625,-0.0033,0.0033
1679994865996,1174854351425914,-0.0031625,-0.0042625,0.0044
1679994866002,1174854353927761,-0.0022,-0.0042625,0.0044
1679994866003,1174854356429838,-0.005225,-2.75E-4,0.0023375
1679994866004,1174854358931689,-0.0061875,-2.75E-4,0.0033
1679994866006,1174854361433843,-0.0022,-0.0042625,0.0044
1679994866012,1174854363935766,-0.0031625,-0.001375,0.0023375
1679994866013,1174854366437843,-0.0042625,-2.75E-4,0.0033
1679994866014,1174854368939723,-0.0012375,6.875E-4,0.0053625
1679994866018,1174854371441646,-2.75E-4,0.00165,0.006325
1679994866020,1174854373943492,-0.0012375,0.0026125,0.0053625
1679994866021,1174854376445569,-0.0022,6.875E-4,0.0053625
1679994866028,1174854378947718,-2.75E-4,-0.0023375,0.006325
1679994866028,1174854381449641,-2.75E-4,-0.001375,0.0053625
1679994866030,1174854383951487,0.0048125,-0.0023375,0.0044
1679994866031,1174854386453564,0.00275,-2.75E-4,0.0044
1679994866036,1174854388955491,0.00275,-2.75E-4,0.0053625
1679994866037,1174854391457337,-0.0012375,-0.0023375,0.0023375
1679994866039,1174854393959414,-2.75E-4,-0.0023375,0.0044
1679994866041,1174854396461568,0.0017875,-0.0033,4.125E-4
1679994866044,1174854398963491,0.0017875,-0.0033,4.125E-4
1679994866051,1174854401465337,-2.75E-4,-2.75E-4,-6.875E-4
1679994866052,1174854403967414,0.0037125,-0.0053625,-0.00165
1679994866053,1174854406469337,0.0067375,-0.0033,-0.004675
1679994866053,1174854408971183,0.0048125,-0.0033,-0.003575
1679994866056,1174854411473313,0.005775,-2.75E-4,-0.004675
1679994866059,1174854413975390,0.0048125,-0.0042625,-0.0066
1679994866061,1174854416477313,0.0077,-0.0053625,-0.004675
1679994866063,1174854418979159,0.0088,-0.0042625,-0.004675
1679994866068,1174854421481231,0.005775,-0.0033,-0.0066
1679994866069,1174854423983154,0.0067375,-0.0033,-0.004675
1679994866071,1174854426485001,0.0077,-0.006325,-0.004675
1679994866074,1174854428987145,0.010725,-0.0072875,-0.0056375
1679994866077,1174854431488992,0.0097624995,-0.006325,-0.0026125
1679994866079,1174854433991069,0.0067375,-0.0103124995,-0.00165
1679994866085,1174854436492992,0.005775,-0.0103124995,-0.003575
1679994866085,1174854438994828,0.011825,-0.00825,-0.0026125
1679994866087,1174854441496905,0.0127875,-0.012375,-6.875E-4
1679994866090,1174854443998828,0.0088,-0.012375,-0.0026125
1679994866091,1174854446500982,0.0127875,-0.012375,-6.875E-4
1679994866094,1174854449002828,0.01375,-0.0133375,-6.875E-4
1679994866096,1174854451504886,0.010725,-0.012375,0.001375
1679994866099,1174854454006809,0.011825,-0.0133375,0.0023375
1679994866101,1174854456508886,0.011825,-0.017324999,0.001375
1679994866104,1174854459010732,0.0088,-0.0182875,4.125E-4
1679994866107,1174854461512655,0.0127875,-0.0182875,0.001375
1679994866109,1174854464014823,0.0097624995,-0.01925,4.125E-4
1679994866111,1174854466516669,0.0088,-0.017324999,0.0044
1679994866113,1174854469018746,0.0097624995,-0.017324999,0.0033
1679994866117,1174854471520669,0.0127875,-0.015262499,0.0023375
1679994866119,1174854474022530,0.0158125,-0.02035,0.001375
1679994866123,1174854476524607,0.01375,-0.01925,0.001375
1679994866125,1174854479026530,0.0127875,-0.0163625,0.0023375
1679994866128,1174854481528607,0.014712499,-0.01925,4.125E-4
1679994866130,1174854484030530,0.014712499,-0.0163625,-0.0026125
1679994866132,1174854486532607,0.010725,-0.015262499,4.125E-4
1679994866134,1174854489034453,0.011825,-0.0143,-0.00165
1679994866137,1174854491536607,0.0127875,-0.0143,-0.004675
1679994866140,1174854494038544,0.011825,-0.011275,-0.003575
1679994866141,1174854496540390,0.010725,-0.012375,-0.003575
1679994866144,1174854499042467,0.010725,-0.011275,-0.0026125
1679994866147,1174854501544390,0.0127875,-0.00935,-0.0056375
1679994866148,1174854504046237,0.0077,-0.0072875,-0.0026125
1679994866152,1174854506548313,0.0127875,-0.0072875,-0.0026125
1679994866153,1174854509050467,0.0127875,-0.00935,-0.004675
1679994866157,1174854511552313,0.011825,-0.0053625,-0.0026125
1679994866160,1174854514054237,0.01375,-0.0072875,-0.0026125
1679994866162,1174854516556328,0.0127875,-0.0033,-0.0026125
1679994866164,1174854519058252,0.0127875,-0.0042625,-0.004675
1679994866167,1174854521560098,0.016775,-0.006325,-0.0056375
1679994866169,1174854524062175,0.0158125,-0.006325,-0.0026125
1679994866171,1174854526564329,0.011825,-0.0053625,-0.0026125
1679994866174,1174854529066261,0.0127875,-0.00825,-0.004675
1679994866177,1174854531568107,0.01375,-0.0072875,-0.0026125
1679994866181,1174854534070184,0.016775,-0.0053625,-0.0026125
1679994866182,1174854536572107,0.0237875,-0.00825,-0.00165
1679994866184,1174854539073953,0.0257125,-0.00935,4.125E-4
1679994866187,1174854541576030,0.0287375,-0.0103124995,4.125E-4
1679994866190,1174854544078184,0.038775,-0.012375,0.0023375
1679994866191,1174854546580030,0.043725,-0.0143,0.0044
1679994866194,1174854549081958,0.0488125,-0.0163625,0.0033
1679994866198,1174854551583804,0.0537625,-0.0213125,0.0053625
1679994866200,1174854554085881,0.0587125,-0.02035,0.007425
1679994866202,1174854556587804,0.0617375,-0.02035,0.0103124995
1679994866204,1174854559089881,0.0598125,-0.0243375,0.017324999
1679994866207,1174854561591790,0.0598125,-0.023375,0.0253
1679994866209,1174854564093867,0.055825,-0.023375,0.029424999
1679994866211,1174854566595790,0.04675,-0.0262625,0.040425
1679994866214,1174854569097650,0.0397375,-0.02035,0.0493625
1679994866217,1174854571599727,0.0317625,-0.01925,0.0603625
1679994866219,1174854574101650,0.027775,-0.0253,0.0704
1679994866222,1174854576603727,0.0198,-0.02035,0.0823625
1679994866224,1174854579105650,0.014712499,-0.0163625,0.094325
1679994866227,1174854581607722,0.011825,-0.0163625,0.1023
1679994866229,1174854584109645,0.0067375,-0.0143,0.1093125
1679994866232,1174854586611722,0.005775,-0.006325,0.116325
1679994866235,1174854589113568,0.0037125,0.004675,0.122375
1679994866238,1174854591615492,0.005775,0.01265,0.1203125
1679994866241,1174854594117645,0.0048125,0.02365,0.11935
1679994866242,1174854596619492,0.0048125,0.0367125,0.113299996
1679994866244,1174854599121568,0.005775,0.048675,0.1073875
1679994866247,1174854601623425,0.0097624995,0.0617375,0.0994125
1679994866249,1174854604125348,0.011825,0.076725,0.0903375
1679994866252,1174854606627425,0.011825,0.0886875,0.078375
1679994866254,1174854609129348,0.010725,0.097625,0.067375
1679994866258,1174854611631439,0.0158125,0.1057375,0.056375
1679994866260,1174854614133362,0.0198,0.11165,0.0444125
1679994866261,1174854616635208,0.0207625,0.115637496,0.0334125
1679994866264,1174854619137285,0.0207625,0.114675,0.023375
1679994866267,1174854621639237,0.0268125,0.1106875,0.012375
1679994866269,1174854624141314,0.027775,0.108625,0.0044
1679994866274,1174854626643160,0.0268125,0.10065,-0.0026125
1679994866274,1174854629145314,0.0287375,0.0856625,-0.004675
1679994866277,1174854631647251,0.027775,0.0746625,-0.0116875
1679994866279,1174854634149328,0.027775,0.064625,-0.014575
1679994866281,1174854636651174,0.0237875,0.0496375,-0.015675
1679994866284,1174854639153097,0.0207625,0.031625,-0.0196625
1679994866287,1174854641655160,0.014712499,0.0166375,-0.0196625
1679994866289,1174854644157083,0.0097624995,0.004675,-0.015675
1679994866291,1174854646659160,0.0037125,-0.0103124995,-0.0187
1679994866294,1174854649161083,-0.0022,-0.0243375,-0.0176
1679994866297,1174854651662929,-0.005225,-0.041249998,-0.015675
1679994866300,1174854654165006,-0.00825,-0.05335,-0.015675
1679994866302,1174854656666929,-0.014162499,-0.0622875,-0.0176
1679994866304,1174854659169006,-0.0171875,-0.078375,-0.0116875
1679994866307,1174854661670929,-0.014162499,-0.0823625,-0.014575
1679994866311,1174854664172775,-0.01925,-0.0842875,-0.0166375
1679994866312,1174854666674852,-0.021175,-0.08635,-0.0196625
1679994866314,1174854669176775,-0.0202125,-0.0903375,-0.0187
1679994866317,1174854671678852,-0.021175,-0.091299996,-0.0215875
1679994866319,1174854674180775,-0.0202125,-0.083325,-0.02365
1679994866321,1174854676682880,-0.021175,-0.0812625,-0.0226875
1679994866329,1174854679184803,-0.0232375,-0.0713625,-0.0246125
1679994866336,1174854681686650,-0.0262625,-0.061325,-0.0276375
1679994866336,1174854684188727,-0.0242,-0.05335,-0.0286
1679994866336,1174854686690646,-0.0262625,-0.0433125,-0.0297
1679994866336,1174854689192492,-0.0262625,-0.03025,-0.0336875
1679994866336,1174854691694646,-0.027224999,-0.0213125,-0.034649998
1679994866339,1174854694196492,-0.0281875,-0.0143,-0.0325875
1679994866341,1174854696698569,-0.03025,-0.00825,-0.0356125
1679994866343,1174854699200482,-0.0251625,-0.001375,-0.0356125
1679994866348,1174854701702559,-0.027224999,0.010725,-0.034649998
1679994866349,1174854704204405,-0.027224999,0.0196625,-0.0356125
1679994866351,1174854706706328,-0.0251625,0.020624999,-0.037675
1679994866354,1174854709208453,-0.0242,0.031625,-0.036575
1679994866356,1174854711710299,-0.027224999,0.0336875,-0.0386375
1679994866358,1174854714212376,-0.0292875,0.03575,-0.034649998
1679994866361,1174854716714299,-0.0281875,0.03575,-0.0336875
1679994866364,1174854719216366,-0.0292875,0.0367125,-0.034649998
1679994866366,1174854721718212,-0.03025,0.0397375,-0.034649998
1679994866369,1174854724220135,-0.032175,0.0407,-0.031625
1679994866371,1174854726722289,-0.0342375,0.0367125,-0.0286
1679994866374,1174854729224380,-0.0361625,0.0306625,-0.0297
1679994866376,1174854731726226,-0.0352,0.0257125,-0.0276375
1679994866379,1174854734228149,-0.038225,0.02475,-0.0276375
1679994866381,1174854736729995,-0.0422125,0.0226875,-0.0276375
1679994866386,1174854739232067,-0.0422125,0.0166375,-0.0286
1679994866388,1174854741733990,-0.043175,0.01265,-0.026675
1679994866392,1174854744236067,-0.0452375,0.004675,-0.0226875
1679994866393,1174854746737990,-0.0462,6.875E-4,-0.0226875
1679994866394,1174854749240067,-0.0452375,-0.0042625,-0.026675
1679994866397,1174854751741918,-0.0452375,-0.006325,-0.025575
1679994866399,1174854754243842,-0.0462,-0.011275,-0.0215875
1679994866402,1174854756745919,-0.0462,-0.0143,-0.02365
1679994866404,1174854759247842,-0.044275,-0.0213125,-0.0276375
1679994866409,1174854761749890,-0.0452375,-0.0253,-0.0286
1679994866409,1174854764251813,-0.0471625,-0.028324999,-0.026675
1679994866411,1174854766753890,-0.049225,-0.03025,-0.0286
1679994866414,1174854769255736,-0.0462,-0.0292875,-0.0297
1679994866416,1174854771757659,-0.0462,-0.034375,-0.0336875
1679994866419,1174854774259722,-0.0462,-0.0372625,-0.0336875
1679994866424,1174854776761876,-0.0501875,-0.0363,-0.0336875
1679994866427,1174854779263722,-0.049225,-0.0363,-0.036575
1679994866428,1174854781765645,-0.052249998,-0.0353375,-0.0336875
1679994866430,1174854784307467,-0.0471625,-0.0323125,-0.0336875
1679994866432,1174854786769621,-0.0462,-0.0323125,-0.0325875
1679994866435,1174854789271467,-0.049225,-0.03025,-0.031625
1679994866438,1174854791773544,-0.0471625,-0.0273625,-0.036575
1679994866440,1174854794275467,-0.0512875,-0.0273625,-0.0356125
1679994866442,1174854796777510,-0.049225,-0.0213125,-0.0325875
1679994866444,1174854799279433,-0.0501875,-0.017324999,-0.031625
1679994866447,1174854801781279,-0.044275,-0.0163625,-0.031625
1679994866449,1174854804283356,-0.044275,-0.015262499,-0.0325875
1679994866452,1174854806785284,-0.0422125,-0.0143,-0.0297
1679994866455,1174854809287130,-0.044275,-0.012375,-0.031625
1679994866459,1174854811789284,-0.0462,-0.0103124995,-0.0297
1679994866462,1174854814291375,-0.0402875,-0.011275,-0.0286
1679994866463,1174854816793221,-0.0402875,-0.0042625,-0.031625
1679994866466,1174854819295144,-0.038225,-0.0053625,-0.0297
1679994866468,1174854821797298,-0.0352,-0.006325,-0.0276375
1679994866470,1174854824299144,-0.0372625,-0.0042625,-0.0276375
1679994866472,1174854826801221,-0.038225,-0.006325,-0.026675
1679994866475,1174854829303158,-0.0342375,-0.0042625,-0.0215875
1679994866477,1174854831805005,-0.0342375,-0.006325,-0.0226875
1679994866480,1174854834307081,-0.0342375,-0.0042625,-0.020624999
1679994866482,1174854836808996,-0.033275,-0.0053625,-0.020624999
1679994866485,1174854839311149,-0.0292875,-0.0033,-0.0187
1679994866489,1174854841812996,-0.032175,-0.0033,-0.0187
1679994866489,1174854844315072,-0.0342375,-0.0023375,-0.015675
1679994866492,1174854846816996,-0.0281875,-0.0033,-0.009625
1679994866495,1174854849319058,-0.0292875,-0.0033,-0.0086624995
1679994866501,1174854851820904,-0.0251625,-0.0053625,-0.003575
1679994866501,1174854854322827,-0.0232375,-0.0072875,-6.875E-4
1679994866503,1174854856824981,-0.022275,-0.0103124995,-6.875E-4
1679994866507,1174854859326832,-0.021175,-0.00825,0.001375
1679994866508,1174854861828909,-0.0232375,-0.00935,0.001375
1679994866509,1174854864330755,-0.0202125,-0.0133375,0.0023375
1679994866511,1174854866832678,-0.015262499,-0.0133375,0.0053625
1679994866514,1174854869334755,-0.014162499,-0.00935,0.0044
1679994866517,1174854871836636,-0.014162499,-0.0103124995,0.0044
1679994866519,1174854874338713,-0.016224999,-0.00935,0.0023375
1679994866522,1174854876840636,-0.015262499,-0.012375,0.001375
1679994866525,1174854879342713,-0.016224999,-0.00935,0.0044
1679994866528,1174854881844554,-0.015262499,-0.006325,0.0033
1679994866529,1174854884346477,-0.0132,-0.00825,0.0044
1679994866532,1174854886848554,-0.0132,-0.0072875,0.0023375
1679994866536,1174854889350400,-0.0122375,-0.0072875,0.0033
1679994866539,1174854891852554,-0.011275,-0.006325,0.0044
1679994866541,1174854894354477,-0.011275,-0.006325,0.0033
1679994866543,1174854896856554,-0.010175,-0.0072875,0.0053625
1679994866545,1174854899358400,-0.0092124995,-0.00825,0.0053625
1679994866547,1174854901860323,-0.0072875,-0.006325,0.006325
1679994866549,1174854904362400,-0.0061875,-0.0072875,0.0083875
1679994866553,1174854906864323,-0.0031625,-0.00935,0.0053625
1679994866554,1174854909366400,-0.0042625,-0.0103124995,0.0033
1679994866559,1174854911868328,-0.0022,-0.011275,0.006325
1679994866560,1174854914370405,-0.005225,-0.012375,0.006325
1679994866562,1174854916872251,-0.0042625,-0.012375,0.007425
1679994866565,1174854919374175,-0.0042625,-0.00935,0.006325
1679994866567,1174854921876251,-0.0042625,-0.0072875,0.007425
1679994866569,1174854924378107,-0.0031625,-0.00935,0.0083875
1679994866576,1174854926880260,-0.0031625,-0.011275,0.00935
1679994866577,1174854929382107,-0.0031625,-0.0072875,0.00935
1679994866578,1174854931884030,-0.0031625,-0.0042625,0.0083875
1679994866582,1174854934386102,-0.0031625,-0.00825,0.00935
1679994866583,1174854936887948,-0.0031625,-0.006325,0.0103124995
1679994866585,1174854939389871,0.0017875,-0.0042625,0.0103124995
1679994866589,1174854941892025,0.0017875,-0.0072875,0.012375
1679994866589,1174854944394102,-2.75E-4,-0.0033,0.0154
1679994866592,1174854946895963,-2.75E-4,-0.0023375,0.0133375
1679994866595,1174854949397886,0.0017875,-2.75E-4,0.0133375
1679994866597,1174854951899963,0.0048125,-0.001375,0.012375
1679994866599,1174854954401886,-0.0022,6.875E-4,0.0133375
1679994866602,1174854956903750,-0.0022,0.00275,0.0163625
1679994866604,1174854959405904,-2.75E-4,0.0037125,0.0143
1679994866609,1174854961907981,-2.75E-4,0.004675,0.0143
1679994866611,1174854964409904,-2.75E-4,0.00275,0.0154
1679994866612,1174854966911764,0.0017875,0.0077,0.0154
1679994866614,1174854969413841,0.0017875,0.0077,0.02035
1679994866617,1174854971915764,-0.0042625,0.0037125,0.02035
1679994866620,1174854974417610,-0.0031625,0.0056375,0.02035
1679994866622,1174854976919764,-0.0042625,0.0067375,0.02035
1679994866625,1174854979421563,-0.0031625,0.0067375,0.0224125
1679994866627,1174854981923640,-0.0031625,0.0077,0.02035
1679994866629,1174854984425486,-0.005225,0.004675,0.0213125
1679994866632,1174854986927640,-0.0072875,0.0086624995,0.028324999
1679994866634,1174854989429544,-0.005225,0.0077,0.029424999
1679994866637,1174854991931621,-0.0061875,0.0067375,0.0273625
1679994866640,1174854994433467,-0.0022,0.0067375,0.0303875
1679994866642,1174854996935390,-0.0022,0.0056375,0.03135
1679994866644,1174854999437467,-0.0042625,0.0067375,0.03135
1679994866650,1174855001939323,-0.0031625,0.0067375,0.0323125
1679994866651,1174855004441476,-0.0012375,0.0056375,0.0303875
1679994866652,1174855006943399,-0.0012375,0.0077,0.028324999
1679994866655,1174855009445246,0.0017875,0.0077,0.028324999
1679994866658,1174855011947347,0.0037125,0.0086624995,0.028324999
1679994866660,1174855014449193,0.0017875,0.01265,0.0273625
1679994866662,1174855016951116,-0.0012375,0.0116875,0.029424999
1679994866664,1174855019453193,-2.75E-4,0.014712499,0.029424999
1679994866668,1174855021955356,-0.0031625,0.014712499,0.0273625
1679994866669,1174855024457202,-0.0022,0.014712499,0.0264
1679994866672,1174855026959125,-0.0031625,0.01375,0.0253
1679994866674,1174855029461202,-0.005225,0.015675,0.0264
1679994866677,1174855031963125,-0.0061875,0.0166375,0.0243375
1679994866680,1174855034464971,-0.0061875,0.01375,0.0243375
1679994866682,1174855036967048,-0.0072875,0.0116875,0.0253
1679994866686,1174855039469202,-0.0072875,0.0116875,0.0243375
1679994866691,1174855041971178,-0.0072875,0.0116875,0.023375
1679994866691,1174855044473024,-0.0072875,0.01375,0.0243375
1679994866692,1174855046975101,-0.0072875,0.01265,0.0224125
1679994866695,1174855049476947,-0.0092124995,0.01265,0.0253
1679994866698,1174855051978889,-0.0092124995,0.0116875,0.0253
1679994866700,1174855054480966,-0.010175,0.0086624995,0.023375
1679994866702,1174855056983120,-0.0092124995,0.0116875,0.0224125
1679994866704,1174855059484966,-0.010175,0.0116875,0.0213125
1679994866707,1174855061986889,-0.011275,0.0116875,0.0213125
1679994866709,1174855064488726,-0.011275,0.01375,0.0213125
1679994866714,1174855066990803,-0.0122375,0.014712499,0.0213125
1679994866715,1174855069492726,-0.0132,0.015675,0.023375
1679994866718,1174855071994573,-0.0122375,0.0166375,0.023375
1679994866719,1174855074496740,-0.0122375,0.015675,0.02035
1679994866726,1174855076998817,-0.010175,0.0166375,0.02035
1679994866727,1174855079500740,-0.0122375,0.0177375,0.0193875
1679994866728,1174855082002587,-0.0132,0.021724999,0.0163625
1679994866730,1174855084504664,-0.014162499,0.021724999,0.0163625
1679994866732,1174855087006587,-0.015262499,0.02475,0.017324999
1679994866734,1174855089508664,-0.0122375,0.02475,0.017324999
1679994866736,1174855092010587,-0.0122375,0.0226875,0.017324999
1679994866740,1174855094512664,-0.015262499,0.02475,0.017324999
1679994866742,1174855097014592,-0.015262499,0.021724999,0.0163625
1679994866744,1174855099516438,-0.014162499,0.021724999,0.0163625
1679994866747,1174855102018515,-0.016224999,0.021724999,0.0193875
1679994866749,1174855104520438,-0.0171875,0.0187,0.017324999
1679994866751,1174855107022534,-0.016224999,0.0226875,0.017324999
1679994866754,1174855109524457,-0.022275,0.021724999,0.017324999
1679994866760,1174855112026534,-0.01925,0.0187,0.0193875
1679994866761,1174855114528380,-0.01925,0.020624999,0.0193875
1679994866762,1174855117030322,-0.01925,0.0196625,0.0193875
1679994866764,1174855119532399,-0.016224999,0.0177375,0.0193875
1679994866767,1174855122034245,-0.0182875,0.0177375,0.017324999
1679994866769,1174855124536399,-0.01925,0.0177375,0.0154
1679994866772,1174855127038322,-0.016224999,0.0166375,0.0163625
1679994866774,1174855129540159,-0.0171875,0.01375,0.012375
1679994866777,1174855132042236,-0.0202125,0.01375,0.0103124995
1679994866780,1174855134544159,-0.0182875,0.015675,0.0114124995
1679994866781,1174855137046236,-0.015262499,0.020624999,0.0143
1679994866784,1174855139548082,-0.016224999,0.0187,0.0114124995
1679994866787,1174855142050240,-0.01925,0.0177375,0.0114124995
1679994866789,1174855144552086,-0.016224999,0.0226875,0.0103124995
1679994866792,1174855147054009,-0.015262499,0.020624999,0.0114124995
1679994866794,1174855149556086,-0.0171875,0.02365,0.0103124995
1679994866799,1174855152058058,-0.01925,0.02475,0.007425
1679994866800,1174855154560135,-0.0182875,0.0276375,0.0133375
1679994866802,1174855157062058,-0.016224999,0.0196625,0.0103124995
1679994866804,1174855159564135,-0.0171875,0.0257125,0.0083875
1679994866807,1174855162065990,-0.015262499,0.031625,0.00935
1679994866809,1174855164567914,-0.0171875,0.0257125,0.0044
1679994866812,1174855167069990,-0.0202125,0.0276375,0.0053625
1679994866814,1174855169572144,-0.021175,0.0276375,0.0053625
1679994866817,1174855172073981,-0.0171875,0.0297,0.006325
1679994866820,1174855174575904,-0.0182875,0.0257125,0.006325
1679994866822,1174855177077750,-0.01925,0.02475,0.006325
1679994866824,1174855179579827,-0.021175,0.021724999,0.0044
1679994866828,1174855182081750,-0.01925,0.021724999,0.006325
1679994866830,1174855184583596,-0.0182875,0.0187,0.0044
1679994866832,1174855187085750,-0.01925,0.0196625,0.001375
1679994866836,1174855189587827,-0.0171875,0.020624999,0.0023375
1679994866839,1174855192089654,-0.01925,0.0196625,0.001375
1679994866840,1174855194591577,-0.021175,0.0177375,4.125E-4
1679994866842,1174855197093654,-0.021175,0.0166375,4.125E-4
1679994866845,1174855199595577,-0.0171875,0.0196625,4.125E-4
1679994866848,1174855202097423,-0.0202125,0.0177375,4.125E-4
1679994866850,1174855204599577,-0.0232375,0.0187,-0.00165
1679994866852,1174855207101654,-0.0232375,0.020624999,-0.00165
1679994866854,1174855209603500,-0.021175,0.02365,0.001375
1679994866858,1174855212105404,-0.021175,0.021724999,0.001375
1679994866861,1174855214607481,-0.0242,0.021724999,0.0023375
1679994866862,1174855217109404,-0.0232375,0.021724999,0.0023375
1679994866864,1174855219611250,-0.021175,0.0196625,0.0023375
1679994866869,1174855222113380,-0.0232375,0.021724999,0.0023375
1679994866870,1174855224615457,-0.0242,0.0166375,0.0023375
1679994866875,1174855227117303,-0.022275,0.020624999,0.0023375
1679994866876,1174855229619226,-0.0251625,0.020624999,0.0033
1679994866878,1174855232121303,-0.0262625,0.0187,0.0033
1679994866880,1174855234623169,-0.0251625,0.0187,0.0053625
1679994866882,1174855237125093,-0.0251625,0.0166375,0.0023375
1679994866884,1174855239627246,-0.0242,0.014712499,0.0033
1679994866889,1174855242129093,-0.027224999,0.0166375,0.001375
1679994866890,1174855244631169,-0.0262625,0.014712499,4.125E-4
1679994866892,1174855247133093,-0.0292875,0.014712499,-0.00165
1679994866894,1174855249634939,-0.027224999,0.010725,0.0023375
1679994866897,1174855252137016,-0.0292875,0.0086624995,-6.875E-4
1679994866900,1174855254638900,-0.027224999,0.0067375,-6.875E-4
1679994866902,1174855257140977,-0.027224999,0.0067375,-0.00165
1679994866905,1174855259642900,-0.0292875,0.0056375,-0.003575
1679994866907,1174855262144977,-0.0281875,0.00165,-0.003575
1679994866911,1174855264646895,-0.0242,0.0037125,-0.00165
1679994866914,1174855267148741,-0.0262625,0.0067375,-0.0026125
1679994866915,1174855269650818,-0.0251625,0.0037125,-0.003575
1679994866918,1174855272152972,-0.027224999,6.875E-4,-0.003575
1679994866921,1174855274654895,-0.0242,0.0037125,-0.004675
1679994866924,1174855277156761,-0.0232375,0.0037125,-0.003575
1679994866924,1174855279658838,-0.021175,0.00275,-0.0026125
1679994866928,1174855282160761,-0.0242,0.00165,-0.003575
1679994866930,1174855284662607,-0.0251625,0.00165,-0.003575
1679994866933,1174855287164650,-0.0242,0.00165,-0.004675
1679994866935,1174855289666804,-0.0242,-2.75E-4,-0.003575
1679994866938,1174855292168650,-0.0232375,0.00275,-0.0026125
1679994866940,1174855294670573,-0.021175,0.0037125,-0.0026125
1679994866941,1174855297172419,-0.0232375,0.004675,-0.0026125
1679994866944,1174855299674501,-0.0242,0.00275,-6.875E-4
1679994866949,1174855302176424,-0.022275,0.0056375,-0.00165
1679994866952,1174855304678270,-0.021175,0.0077,-0.003575
1679994866959,1174855307180424,-0.022275,0.0037125,-0.0026125
1679994866959,1174855309682501,-0.022275,0.0037125,-0.003575
1679994866959,1174855312184347,-0.022275,0.0056375,-0.0026125
1679994866959,1174855314686270,-0.021175,0.0067375,-0.003575
1679994866962,1174855317188328,-0.0242,0.0077,-0.00165
1679994866964,1174855319690251,-0.0202125,0.0086624995,-6.875E-4
1679994866967,1174855322192328,-0.0202125,0.0086624995,-0.00165
1679994866969,1174855324694251,-0.0251625,0.0116875,-0.004675
1679994866972,1174855327196098,-0.0242,0.0086624995,-0.003575
1679994866974,1174855329698151,-0.0232375,0.0086624995,-0.00165
1679994866977,1174855332200074,-0.0202125,0.0086624995,0.001375
1679994866980,1174855334702151,-0.022275,0.0077,0.0033
1679994866982,1174855337204074,-0.0232375,0.0116875,0.0044
1679994866986,1174855339706151,-0.022275,0.0116875,0.0044
1679994866989,1174855342208074,-0.0232375,0.0067375,0.0033
1679994866991,1174855344709920,-0.0262625,0.0056375,0.001375
1679994866993,1174855347211997,-0.0242,0.0056375,0.0033
1679994866995,1174855349713920,-0.0242,0.0056375,0.0053625
1679994866998,1174855352216059,-0.027224999,0.004675,0.007425
1679994867000,1174855354717905,-0.027224999,0.0086624995,0.007425
1679994867002,1174855357219982,-0.0281875,0.00275,0.006325
1679994867004,1174855359721905,-0.0251625,0.00165,0.0053625
1679994867009,1174855362223756,-0.0242,0.004675,0.007425
1679994867010,1174855364725833,-0.0242,0.0037125,0.0083875
1679994867013,1174855367227679,-0.022275,0.0037125,0.007425
1679994867015,1174855369729833,-0.021175,0.0037125,0.007425
1679994867018,1174855372231756,-0.021175,6.875E-4,0.0103124995
1679994867021,1174855374733587,-0.0232375,-2.75E-4,0.00935
1679994867026,1174855377235664,-0.022275,6.875E-4,0.0083875
1679994867028,1174855379737587,-0.022275,-0.0023375,0.007425
1679994867030,1174855382672049,-0.0171875,-0.0023375,0.0083875
1679994867031,1174855384913218,-0.0171875,-0.006325,0.007425
1679994867034,1174855387243679,-0.016224999,-0.0103124995,0.006325
1679994867036,1174855389745602,-0.0182875,-0.011275,0.007425
1679994867038,1174855392247448,-0.0132,-0.0143,0.007425
1679994867040,1174855394749525,-0.0132,-0.0163625,0.0053625
1679994867042,1174855397251453,-0.0132,-0.015262499,0.007425
1679994867045,1174855399753530,-0.014162499,-0.0143,0.0044
1679994867049,1174855402255377,-0.0122375,-0.015262499,0.0044
1679994867050,1174855404757530,-0.0132,-0.0163625,0.0053625
1679994867053,1174855407259467,-0.015262499,-0.01925,0.0053625
1679994867062,1174855409761544,-0.0182875,-0.0163625,0.0033
1679994867063,1174855412263391,-0.0171875,-0.0143,0.0044
1679994867065,1174855414765319,-0.0182875,-0.0143,0.007425
1679994867065,1174855417267165,-0.0202125,-0.0133375,0.006325
1679994867067,1174855419769242,-0.016224999,-0.0133375,0.007425
1679994867069,1174855422271396,-0.0171875,-0.00825,0.00935
1679994867071,1174855424773242,-0.0202125,-0.006325,0.0114124995
1679994867075,1174855427275184,-0.0202125,-0.0042625,0.00935
1679994867075,1174855429777030,-0.01925,-0.0023375,0.0103124995
1679994867078,1174855432279107,-0.021175,-0.001375,0.0114124995
1679994867080,1174855434781030,-0.0202125,6.875E-4,0.017324999
1679994867082,1174855437283107,-0.0182875,0.00275,0.017324999
1679994867085,1174855439785020,-0.0202125,0.00165,0.0163625
1679994867088,1174855442287097,-0.0232375,0.00165,0.017324999
1679994867090,1174855444789020,-0.022275,0.00165,0.0163625
1679994867092,1174855447291097,-0.022275,0.0037125,0.0193875
1679994867095,1174855449792943,-0.022275,0.0067375,0.0193875
1679994867102,1174855452294866,-0.022275,0.0037125,0.0163625
1679994867103,1174855454797020,-0.021175,0.00275,0.0163625
1679994867104,1174855457299097,-0.0232375,0.0037125,0.0143
1679994867106,1174855459800958,-0.021175,0.00165,0.0154
1679994867108,1174855462302881,-0.021175,6.875E-4,0.0143
1679994867110,1174855464804958,-0.022275,0.00165,0.012375
1679994867112,1174855467306804,-0.0242,0.00275,0.0083875
1679994867115,1174855469808958,-0.0232375,-0.001375,0.0083875
1679994867118,1174855472310871,-0.0182875,6.875E-4,0.007425
1679994867119,1174855474812717,-0.022275,-2.75E-4,0.0033
1679994867123,1174855477314794,-0.0202125,-2.75E-4,0.0023375
1679994867125,1174855479816717,-0.01925,0.00275,4.125E-4
1679994867128,1174855482318530,-0.01925,0.00275,0.001375
1679994867130,1174855484820683,-0.0182875,0.0037125,4.125E-4
1679994867132,1174855487322530,-0.01925,0.004675,-6.875E-4
1679994867136,1174855489824606,-0.0171875,0.00275,-0.00165
1679994867139,1174855492326521,-0.0182875,0.0037125,4.125E-4
1679994867141,1174855494828367,-0.0182875,0.0056375,4.125E-4
1679994867144,1174855497330444,-0.01925,0.0067375,-0.0026125
1679994867147,1174855499832598,-0.021175,0.0037125,-0.00165
1679994867148,1174855502334444,-0.0202125,-2.75E-4,4.125E-4
1679994867150,1174855504836396,-0.0182875,0.0086624995,-0.003575
1679994867152,1174855507338473,-0.01925,0.010725,-0.003575
1679994867154,1174855509840396,-0.0182875,0.0056375,-0.0026125
1679994867158,1174855512342242,-0.01925,0.01265,-0.0026125
1679994867159,1174855514844319,-0.01925,0.0077,-0.0026125
1679994867162,1174855517346482,-0.0171875,0.0037125,-0.00165
1679994867164,1174855519848405,-0.0171875,0.0056375,-0.0026125
1679994867167,1174855522350251,-0.01925,0.0086624995,-0.003575
1679994867169,1174855524852328,-0.01925,0.0077,-0.0026125
1679994867176,1174855527354222,-0.0182875,0.0067375,-0.0026125
1679994867177,1174855529856068,-0.01925,0.0077,-0.004675
1679994867179,1174855532358145,-0.022275,0.010725,-0.0056375
1679994867183,1174855534860299,-0.021175,0.0116875,-0.0056375
1679994867184,1174855537362145,-0.0202125,0.01265,-0.0066
1679994867186,1174855539864073,-0.01925,0.01265,-0.0077
1679994867188,1174855542366150,-0.021175,0.014712499,-0.0077
1679994867190,1174855544867996,-0.01925,0.0116875,-0.0066
1679994867192,1174855547369919,-0.0202125,0.014712499,-0.0077
1679994867195,1174855549871746,-0.022275,0.01265,-0.0105875
1679994867197,1174855552373900,-0.0202125,0.0116875,-0.009625
1679994867200,1174855554875977,-0.021175,0.0086624995,-0.0105875
1679994867204,1174855557377900,-0.0242,0.01265,-0.01265
1679994867205,1174855559879747,-0.0232375,0.0166375,-0.014575
1679994867210,1174855562381828,-0.0232375,0.01375,-0.0116875
1679994867212,1174855564883752,-0.0232375,0.0166375,-0.0116875
1679994867214,1174855567385828,-0.0242,0.01265,-0.0116875
1679994867218,1174855569887785,-0.0242,0.010725,-0.0105875
1679994867219,1174855572389861,-0.0242,0.015675,-0.0105875
1679994867221,1174855574891785,-0.022275,0.015675,-0.0116875
1679994867226,1174855577393861,-0.0202125,0.0086624995,-0.01265
1679994867227,1174855579895708,-0.0232375,0.0116875,-0.015675
1679994867229,1174855582397606,-0.0232375,0.0086624995,-0.014575
1679994867230,1174855584899683,-0.022275,0.0116875,-0.015675
1679994867234,1174855587401606,-0.022275,0.0116875,-0.0166375
1679994867235,1174855589903683,-0.0202125,0.0056375,-0.0116875
1679994867238,1174855592405529,-0.021175,0.0067375,-0.01265
1679994867241,1174855594907442,-0.021175,0.004675,-0.01265
1679994867243,1174855597409519,-0.0202125,0.0037125,-0.009625
1679994867245,1174855599911365,-0.022275,0.00165,-0.01265
1679994867250,1174855602413288,-0.022275,0.00275,-0.0116875
1679994867252,1174855604915457,-0.01925,-0.001375,-0.015675
1679994867253,1174855607417303,-0.021175,-0.0033,-0.009625
1679994867255,1174855609919380,-0.0182875,-0.0023375,-0.0105875
1679994867258,1174855612421303,-0.0171875,-0.0023375,-0.0116875
1679994867261,1174855614923380,-0.021175,-0.0033,-0.009625
1679994867262,1174855617425235,-0.0202125,-0.0053625,-0.0116875
1679994867265,1174855619927389,-0.0202125,-0.0072875,-0.014575
1679994867268,1174855622429312,-0.01925,-0.0042625,-0.01265
1679994867269,1174855624931389,-0.021175,-0.006325,-0.01265
1679994867273,1174855627433235,-0.022275,-0.00935,-0.0077
1679994867275,1174855629935144,-0.022275,-0.00935,-0.009625
1679994867277,1174855632437221,-0.0232375,-0.012375,-0.009625
1679994867279,1174855634939144,-0.022275,-0.011275,-0.009625
1679994867283,1174855637440990,-0.01925,-0.012375,-0.009625
1679994867286,1174855639943067,-0.0202125,-0.015262499,-0.009625
1679994867289,1174855642444990,-0.0182875,-0.015262499,-0.0116875
1679994867291,1174855644947067,-0.0182875,-0.015262499,-0.0116875
1679994867293,1174855647448876,-0.016224999,-0.01925,-0.0116875
1679994867294,1174855649951029,-0.014162499,-0.01925,-0.014575
1679994867297,1174855652452952,-0.014162499,-0.02035,-0.015675
1679994867300,1174855654954799,-0.0122375,-0.017324999,-0.015675
1679994867302,1174855657456876,-0.0092124995,-0.015262499,-0.0187
1679994867304,1174855659958827,-0.0122375,-0.0182875,-0.0187
1679994867308,1174855662460904,-0.010175,-0.012375,-0.0187
1679994867310,1174855664962750,-0.00825,-0.011275,-0.0196625
1679994867313,1174855667464904,-0.0092124995,-0.00825,-0.020624999
1679994867315,1174855669966760,-0.005225,-0.00935,-0.0215875
1679994867318,1174855672468683,-0.005225,-0.0033,-0.0226875
1679994867320,1174855674970760,-0.00825,-0.001375,-0.0226875
1679994867325,1174855677472583,-0.0072875,-2.75E-4,-0.0226875
1679994867328,1174855679974506,-0.00825,0.00165,-0.0226875
1679994867329,1174855682476660,-0.00825,0.00275,-0.0246125
1679994867331,1174855684978506,-0.0072875,0.0067375,-0.0246125
1679994867333,1174855687480583,-0.0072875,0.0077,-0.0215875
1679994867335,1174855689982491,-0.00825,0.010725,-0.02365
1679994867342,1174855692484568,-0.0061875,0.01375,-0.0226875
1679994867343,1174855694986414,-0.0061875,0.015675,-0.020624999
1679994867343,1174855697488337,-0.00825,0.01375,-0.020624999
1679994867345,1174855699990491,-0.00825,0.015675,-0.0187
1679994867348,1174855702492370,-0.0072875,0.01375,-0.01265
1679994867350,1174855704994447,-0.0061875,0.014712499,-0.0176
1679994867353,1174855707496370,-0.0072875,0.01375,-0.014575
1679994867355,1174855709998447,-0.0061875,0.014712499,-0.0105875
1679994867358,1174855712500312,-0.0072875,0.0116875,-0.0077
1679994867362,1174855715002235,-0.0061875,0.00275,-0.0077
1679994867363,1174855717504389,-0.0072875,0.0037125,-0.0086624995
1679994867366,1174855720006274,-0.005225,0.00165,-0.0116875
1679994867369,1174855722508351,-0.0061875,-0.0023375,-0.0066
1679994867370,1174855725010274,-0.0092124995,-0.0042625,-0.0077
1679994867374,1174855727512121,-0.0072875,-0.00825,-0.009625
1679994867375,1174855730014198,-0.0072875,-0.0072875,-0.0086624995
1679994867377,1174855732516121,-0.005225,-0.00825,-0.0086624995
1679994867381,1174855735018198,-0.005225,-0.011275,-0.0086624995
1679994867382,1174855737520121,-0.0061875,-0.00935,-0.0077
1679994867385,1174855740022183,-0.005225,-0.00935,-0.0066
1679994867390,1174855742524029,-0.0092124995,-0.012375,-0.0066
1679994867391,1174855745025952,-0.00825,-0.012375,-0.009625
1679994867393,1174855747528029,-0.0061875,-0.0103124995,-0.0105875
1679994867395,1174855750029875,-0.0072875,-0.0133375,-0.0086624995
1679994867399,1174855752532054,-0.0061875,-0.015262499,-0.0086624995
1679994867401,1174855755033977,-0.005225,-0.0143,-0.0086624995
1679994867403,1174855757536054,-0.0072875,-0.012375,-0.0105875
1679994867405,1174855760037900,-0.005225,-0.0133375,-0.0086624995
1679994867408,1174855762539828,-0.005225,-0.011275,-0.0056375
1679994867410,1174855765041905,-0.005225,-0.00935,-0.0077
1679994867412,1174855767543751,-0.0061875,-0.0053625,-0.0056375
1679994867415,1174855770045905,-0.0092124995,-0.0033,-0.003575
1679994867417,1174855772547838,-0.00825,-0.006325,-0.003575
1679994867420,1174855775049684,-0.0072875,-0.0033,-0.0026125
1679994867423,1174855777551761,-0.0122375,-0.0023375,-0.00165
1679994867425,1174855780053684,-0.0092124995,0.0037125,-0.00165
1679994867428,1174855782555534,-0.00825,0.0037125,-0.0026125
1679994867430,1174855785057688,-0.010175,0.004675,4.125E-4
1679994867432,1174855787559765,-0.0061875,0.0086624995,0.001375
1679994867437,1174855790061626,-0.0061875,0.0086624995,-6.875E-4
1679994867439,1174855792563549,-0.0042625,0.0086624995,0.001375
1679994867441,1174855795065626,-0.0042625,0.0116875,0.0033
1679994867443,1174855797567549,-0.0042625,0.010725,0.0033
1679994867445,1174855800069626,-0.0031625,0.010725,0.0023375
1679994867447,1174855802571558,-2.75E-4,0.010725,0.0033
1679994867450,1174855805073405,-2.75E-4,0.01375,0.0044
1679994867452,1174855807575481,-0.0022,0.01265,0.0044
1679994867455,1174855810077405,-0.0031625,0.01265,0.0053625
1679994867458,1174855812579295,-0.0012375,0.0086624995,0.0033
1679994867461,1174855815081449,-2.75E-4,0.01265,0.0044
1679994867463,1174855817583526,0.0017875,0.010725,0.0053625
1679994867465,1174855820085449,-0.0031625,0.01375,0.0044
1679994867468,1174855822587299,-0.0022,0.01265,0.0053625
1679994867470,1174855825089376,-2.75E-4,0.010725,0.0083875
1679994867474,1174855827591299,-0.0031625,0.01265,0.006325
1679994867477,1174855830093376,-0.005225,0.0116875,0.0044
1679994867479,1174855832595304,-0.0022,0.01375,0.006325
1679994867480,1174855835097381,-0.0031625,0.0116875,0.0044
1679994867483,1174855837599227,-0.005225,0.01265,0.0053625
1679994867485,1174855840101150,-0.005225,0.0177375,0.007425
1679994867488,1174855842603227,-0.0042625,0.014712499,0.006325
1679994867490,1174855845105164,-0.0012375,0.01375,0.0053625
1679994867493,1174855847607241,-0.0022,0.0116875,0.006325
1679994867495,1174855850109164,-0.0031625,0.01375,0.006325
1679994867497,1174855852611010,-0.0022,0.015675,0.006325
1679994867501,1174855855113059,-2.75E-4,0.01375,0.006325
1679994867503,1174855857614982,-0.005225,0.0116875,0.0083875
1679994867505,1174855860116828,-0.0031625,0.015675,0.0083875
1679994867508,1174855862618905,-0.0012375,0.0116875,0.0083875
1679994867512,1174855865121039,-0.0022,0.010725,0.006325
1679994867513,1174855867622962,-2.75E-4,0.0086624995,0.0044
1679994867517,1174855870124808,0.0037125,0.0067375,0.0044
1679994867519,1174855872626885,0.0048125,0.004675,0.007425
1679994867521,1174855875128808,0.0037125,0.004675,0.0033
1679994867523,1174855877630832,0.0048125,6.875E-4,0.0044
1679994867527,1174855880132678,0.005775,-0.0023375,0.0044
1679994867528,1174855882634832,0.0037125,-0.0033,0.0053625
1679994867530,1174855885136755,0.0048125,-0.0072875,0.0023375
1679994867532,1174855887638602,0.0078375,-0.0072875,0.0033
1679994867537,1174855890140674,0.0078375,-0.0072875,0.0033
1679994867538,1174855892642598,0.0067375,-0.0072875,0.001375
1679994867542,1174855895144444,0.0088,-0.00825,0.0023375
1679994867543,1174855897646521,0.0067375,-0.0133375,0.0044
1679994867546,1174855900148448,0.0067375,-0.0143,0.0044
1679994867550,1174855902650525,0.0078375,-0.0133375,0.0044
1679994867551,1174855905152448,0.005775,-0.017324999,0.001375
1679994867553,1174855907654266,0.005775,-0.0143,0.0044
1679994867555,1174855910156343,0.0067375,-0.012375,-6.875E-4
1679994867558,1174855912658266,0.0067375,-0.0133375,-0.0026125
1679994867560,1174855915160343,0.0088,-0.011275,0.001375
1679994867562,1174855917662266,0.0078375,-0.00825,-0.00165
1679994867565,1174855920164313,0.0078375,-0.0103124995,-6.875E-4
1679994867567,1174855922666236,0.005775,-0.00825,4.125E-4
1679994867569,1174855925168313,0.0067375,-0.0072875,-0.003575
1679994867572,1174855927670159,0.0048125,-0.00825,0.001375
1679994867577,1174855930172096,0.0048125,-0.0072875,-0.00165
1679994867583,1174855932674173,0.00275,-0.0023375,-6.875E-4
1679994867583,1174855935176327,0.0048125,-0.001375,0.001375
1679994867583,1174855937678173,0.0048125,-0.0033,4.125E-4
1679994867587,1174855940180106,0.0078375,-0.0042625,0.0023375
1679994867589,1174855942681952,0.0017875,-0.001375,0.001375
1679994867591,1174855945184029,0.00275,-0.001375,-0.00165
1679994867593,1174855947685952,0.00275,-2.75E-4,4.125E-4
1679994867596,1174855950187798,0.0037125,6.875E-4,0.0023375
1679994867598,1174855952689942,-0.0012375,-2.75E-4,0.0033
1679994867600,1174855955192019,-0.0012375,-0.0023375,4.125E-4
1679994867602,1174855957693865,-0.0012375,-0.0023375,4.125E-4
1679994867606,1174855960195788,-2.75E-4,-0.001375,0.0033
1679994867607,1174855962697942,-2.75E-4,-2.75E-4,0.0023375
1679994867609,1174855965199788,-0.0031625,-0.0023375,0.0023375
1679994867612,1174855967701865,-0.0031625,-0.006325,0.0033
1679994867618,1174855970203788,-0.0012375,-0.0053625,0.0023375
1679994867618,1174855972705630,-0.0022,-0.0072875,0.0033
1679994867621,1174855975207707,-0.005225,-0.00935,0.0023375
1679994867627,1174855977709553,-0.0072875,-0.00825,0.001375
1679994867628,1174855980211698,-0.005225,-0.0143,-0.00165
1679994867630,1174855982742236,-0.0031625,-0.0133375,-0.004675
1679994867632,1174855985215467,-0.0031625,-0.012375,-0.003575
1679994867633,1174855987717544,-0.0042625,-0.01925,-0.0056375
1679994867636,1174855990219467,-0.0092124995,-0.01925,-0.0077
1679994867638,1174855992721524,-0.00825,-0.0163625,-0.0056375
1679994867641,1174855995223370,-0.010175,-0.0163625,-0.0066
1679994867643,1174855997725524,-0.010175,-0.0143,-0.0086624995
1679994867646,1174856000227447,-0.0061875,-0.012375,-0.0066
1679994867648,1174856002729524,-0.00825,-0.0133375,-0.0077
1679994867650,1174856005231380,-0.0132,-0.0133375,-0.0056375
1679994867654,1174856007733303,-0.014162499,-0.012375,-0.0056375
1679994867658,1174856010235380,-0.010175,-0.00825,-0.0086624995
1679994867658,1174856012737534,-0.014162499,-0.00825,-0.0086624995
1679994867662,1174856015239390,-0.0132,-0.0042625,-0.0077
1679994867664,1174856017741313,-0.0122375,-0.0042625,-0.0066
1679994867667,1174856020243159,-0.0132,-0.0033,-0.0086624995
1679994867669,1174856022745279,-0.0132,6.875E-4,-0.0086624995
1679994867670,1174856025247202,-0.016224999,-2.75E-4,-0.0086624995
1679994867673,1174856027749048,-0.016224999,-0.0033,-0.0077
1679994867676,1174856030251202,-0.016224999,-0.001375,-0.0077
1679994867678,1174856032753048,-0.016224999,0.00165,-0.0086624995
1679994867680,1174856035255144,-0.016224999,0.00275,-0.004675
1679994867683,1174856037757067,-0.016224999,0.0037125,-0.0077
1679994867686,1174856040259144,-0.0182875,0.0077,-0.0086624995
1679994867688,1174856042760991,-0.0182875,0.0077,-0.0066
1679994867690,1174856045262914,-0.021175,0.0077,-0.0086624995
1679994867693,1174856047765110,-0.022275,0.0067375,-0.009625
1679994867696,1174856050267187,-0.021175,0.0086624995,-0.0077
1679994867700,1174856052769034,-0.0232375,0.010725,-0.0086624995
1679994867702,1174856055270957,-0.0232375,0.010725,-0.009625
1679994867704,1174856057773034,-0.0251625,0.0086624995,-0.009625
1679994867709,1174856060274957,-0.022275,0.0077,-0.0086624995
1679994867710,1174856062776803,-0.0232375,0.0086624995,-0.0077
1679994867711,1174856065278957,-0.0242,0.01375,-0.009625
1679994867713,1174856067781025,-0.0242,0.0086624995,-0.009625
1679994867716,1174856070282871,-0.0232375,0.01375,-0.0105875
1679994867718,1174856072784794,-0.0251625,0.010725,-0.014575
1679994867720,1174856075286871,-0.0232375,0.0116875,-0.0166375
1679994867725,1174856077788731,-0.021175,0.01265,-0.0166375
1679994867728,1174856080290654,-0.0232375,0.0116875,-0.015675
1679994867729,1174856082792731,-0.0251625,0.0166375,-0.0166375
1679994867730,1174856085294654,-0.0232375,0.0166375,-0.0187
1679994867733,1174856087796736,-0.021175,0.015675,-0.0187
1679994867741,1174856090298582,-0.022275,0.014712499,-0.0196625
1679994867742,1174856092800505,-0.0262625,0.015675,-0.0196625
1679994867743,1174856095302582,-0.0292875,0.0177375,-0.0187
1679994867744,1174856097804457,-0.0262625,0.0196625,-0.0187
1679994867747,1174856100306534,-0.0232375,0.0166375,-0.0176
1679994867749,1174856102808457,-0.0242,0.015675,-0.0166375
1679994867751,1174856105310534,-0.0262625,0.0187,-0.015675
1679994867753,1174856107812457,-0.022275,0.0177375,-0.0187
1679994867758,1174856110314255,-0.022275,0.0177375,-0.0166375
1679994867759,1174856112816332,-0.022275,0.0177375,-0.0166375
1679994867760,1174856115318255,-0.0232375,0.014712499,-0.0176
1679994867763,1174856117820332,-0.0251625,0.014712499,-0.0166375
1679994867768,1174856120322226,-0.0262625,0.01375,-0.0116875
1679994867769,1174856122824303,-0.0262625,0.0086624995,-0.0116875
1679994867770,1174856125326149,-0.0232375,0.0086624995,-0.01265
1679994867775,1174856127828303,-0.0232375,0.0116875,-0.01265
1679994867777,1174856130330221,-0.0232375,0.01265,-0.01265
1679994867779,1174856132832068,-0.0251625,0.01265,-0.0116875
1679994867784,1174856135334144,-0.0262625,0.01375,-0.01265
1679994867785,1174856137835991,-0.0281875,0.0086624995,-0.015675
1679994867788,1174856140337914,-0.0292875,0.0086624995,-0.014575
1679994867788,1174856142839981,-0.0281875,0.0116875,-0.0105875
1679994867793,1174856145342135,-0.0251625,0.014712499,-0.01265
1679994867794,1174856147843981,-0.0232375,0.01375,-0.01265
1679994867798,1174856150345904,-0.0242,0.01265,-0.0105875
1679994867800,1174856152847745,-0.027224999,0.014712499,-0.014575
1679994867801,1174856155349822,-0.0242,0.0166375,-0.01265
1679994867803,1174856157851745,-0.027224999,0.014712499,-0.0116875
1679994867809,1174856160353809,-0.0262625,0.014712499,-0.0116875
1679994867812,1174856162855732,-0.0281875,0.015675,-0.01265
1679994867812,1174856165357809,-0.027224999,0.0166375,-0.009625
1679994867814,1174856167859732,-0.0262625,0.0196625,-0.0086624995
1679994867816,1174856170361809,-0.0262625,0.021724999,-0.0086624995
1679994867818,1174856172863655,-0.027224999,0.020624999,-0.0066
1679994867821,1174856175365568,-0.0292875,0.0166375,-0.0086624995
1679994867823,1174856177867645,-0.0232375,0.0196625,-0.0056375
1679994867827,1174856180369568,-0.0262625,0.021724999,-0.0066
1679994867829,1174856182871645,-0.0262625,0.020624999,-0.0056375
1679994867831,1174856185373559,-0.0242,0.0196625,-0.0056375
1679994867833,1174856187875405,-0.021175,0.0187,-0.0056375
1679994867836,1174856190377482,-0.022275,0.021724999,-0.0077
1679994867838,1174856192879405,-0.022275,0.020624999,-0.0077
1679994867841,1174856195381458,-0.0242,0.0177375,-0.0086624995
1679994867843,1174856197883381,-0.021175,0.020624999,-0.0077
1679994867846,1174856200385227,-0.021175,0.0187,-0.0086624995
1679994867850,1174856202887304,-0.015262499,0.0196625,-0.0077
1679994867852,1174856205389227,-0.015262499,0.0196625,-0.0077
1679994867854,1174856207891303,-0.016224999,0.0177375,-0.0105875
1679994867857,1174856210393150,-0.015262499,0.0187,-0.0105875
1679994867859,1174856212895303,-0.0132,0.020624999,-0.0105875
1679994867861,1174856215397208,-0.0143,0.014712499,-0.0105875
1679994867863,1174856217899284,-0.0132,0.0166375,-0.0077
1679994867865,1174856220401131,-0.0122375,0.0187,-0.009625
1679994867868,1174856222903054,-0.011275,0.015675,-0.0116875
1679994867870,1174856225405131,-0.0122375,0.015675,-0.0077
1679994867872,1174856227907040,-0.0092124995,0.013612499,-0.0066
1679994867877,1174856230409117,-0.0122375,0.0116875,-0.004675
1679994867878,1174856232911040,-0.00825,0.01265,-0.004675
1679994867880,1174856235412886,-0.0042625,0.0086624995,-0.004675
1679994867884,1174856237914963,-0.0122375,0.0056375,-0.003575
1679994867889,1174856240416886,-0.011275,-2.75E-4,-0.004675
1679994867891,1174856242918963,-0.011275,0.00165,-0.004675
1679994867892,1174856245499040,-0.0122375,0.0037125,-0.0026125
1679994867894,1174856247922977,-0.0132,0.0026125,-0.003575
1679994867896,1174856250424823,-0.0122375,-0.001375,-0.0066
1679994867899,1174856252926746,-0.0122375,-0.0023375,-0.0026125
1679994867901,1174856255428823,-0.0122375,-0.0033,-0.00165
1679994867902,1174856257930669,-0.011275,-0.0042625,-0.004675
1679994867907,1174856260432597,-0.0143,-0.006325,-0.00165
1679994867908,1174856262934674,-0.0132,-0.0033,4.125E-4
1679994867911,1174856265436828,-0.0122375,-0.006325,4.125E-4
1679994867913,1174856267938674,-0.011275,-0.0053625,4.125E-4
1679994867916,1174856270440621,-0.011275,-0.00935,4.125E-4
1679994867919,1174856272942698,-0.011275,-0.011275,0.0023375
1679994867921,1174856275444621,-0.011275,-0.011275,0.0023375
1679994867925,1174856277946467,-0.0122375,-0.011275,4.125E-4
1679994867929,1174856280448568,-0.0122375,-0.011275,0.001375
1679994867930,1174856283084338,-0.0132,-0.0103124995,0.0033
1679994867932,1174856285452568,-0.011275,-0.011275,0.001375
1679994867933,1174856287954415,-0.0122375,-0.0133375,0.0044
1679994867937,1174856290456376,-0.011275,-0.0143,0.006325
1679994867938,1174856292958529,-0.0122375,-0.00935,0.001375
1679994867941,1174856295460606,-0.0143,-0.00935,0.0033
1679994867942,1174856297962453,-0.0132,-0.0083875,0.0044
1679994867947,1174856300464376,-0.011275,-0.00935,0.0044
1679994867950,1174856302966439,-0.011275,-0.00935,0.0033
1679994867953,1174856305468285,-0.0092124995,-0.0083875,0.0044
1679994867955,1174856307970208,-0.0092124995,-0.0083875,0.0023375
1679994867957,1174856310472362,-0.0092124995,-0.0083875,4.125E-4
1679994867958,1174856312974213,-0.0092124995,-0.0072875,4.125E-4
1679994867962,1174856315476290,-0.0092124995,-0.0053625,0.001375
1679994867964,1174856317978213,-0.00825,-0.0083875,-0.00165
1679994867967,1174856320480059,-0.0072875,-0.0083875,-0.00165
1679994867969,1174856322982160,-0.0092124995,-0.0072875,-0.0026125
1679994867971,1174856325484006,-0.0103124995,-0.006325,-6.875E-4
1679994867974,1174856327986160,-0.0092124995,-0.0042625,-0.00165
1679994867976,1174856330488083,-0.00825,-0.006325,-6.875E-4
1679994867978,1174856332990160,-0.0092124995,-0.00935,0.0023375
1679994867983,1174856335492020,-0.0132,-0.0072875,0.0023375
1679994867984,1174856337993943,-0.00825,-0.0053625,0.0033
1679994867987,1174856340496020,-0.0072875,-0.0053625,0.0033
1679994867989,1174856342997943,-0.011275,-0.0053625,0.0044
1679994867991,1174856345500020,-0.011275,-0.006325,0.0023375
1679994867993,1174856348001934,-0.011275,-0.0053625,0.0033
1679994867997,1174856350504011,-0.0092124995,-0.0042625,0.0033
1679994868001,1174856353005857,-0.0092124995,-0.0033,0.0033
1679994868003,1174856355507780,-0.011275,-0.0033,0.0033
1679994868005,1174856358009842,-0.0103124995,-0.001375,0.0033
1679994868007,1174856360511765,-0.00825,-0.001375,0.0044
1679994868008,1174856363013842,-0.0072875,-0.0042625,0.0033
1679994868010,1174856365515765,-0.00825,-0.0033,0.0023375
1679994868013,1174856368017612,-0.0072875,-0.0023375,0.0023375
1679994868017,1174856370519699,-0.0061875,-0.006325,-0.00165
1679994868018,1174856373021622,-0.0061875,-0.0033,-0.0026125
1679994868021,1174856375523468,-0.00825,-0.0042625,-0.004675
1679994868024,1174856378025622,-0.0072875,-0.0042625,-0.004675
1679994868026,1174856380527684,-0.00825,-0.0072875,-0.004675
1679994868028,1174856383029530,-0.0072875,-0.006325,-0.003575
1679994868030,1174856385531453,-0.0072875,-0.0042625,-0.003575
1679994868034,1174856388033530,-0.0072875,-0.001375,-0.004675
1679994868038,1174856390535463,-0.00825,-0.001375,-0.0066
1679994868041,1174856393037309,-0.00825,-0.0023375,-0.0056375
1679994868043,1174856395539463,-0.00825,-0.0023375,-0.004675
1679994868045,1174856398041540,-0.00825,-0.0023375,-0.0066
1679994868047,1174856400543463,-0.0072875,-0.0033,-0.003575
1679994868049,1174856403045314,-0.0061875,-0.0033,-0.004675
1679994868050,1174856405547391,-0.0072875,-0.0042625,-0.003575
1679994868054,1174856408049314,-0.0072875,-0.0053625,-0.0026125
1679994868057,1174856410551160,-0.005225,-0.0053625,-0.003575
1679994868059,1174856413053299,-0.0061875,-0.0053625,-0.0026125
1679994868061,1174856415555145,-0.0103124995,-0.0053625,-0.004675
1679994868063,1174856418057222,-0.0092124995,-0.0042625,-0.0056375
1679994868066,1174856420559145,-0.0061875,-0.0072875,-0.0066
1679994868068,1174856423060977,-0.00825,-0.0033,-0.0077
1679994868070,1174856425563054,-0.0092124995,-0.0042625,-0.0077
1679994868075,1174856428064977,-0.011275,-0.0033,-0.0056375
1679994868077,1174856430567054,-0.011275,-0.0033,-0.0077
1679994868079,1174856433068982,-0.011275,-0.0042625,-0.0056375
1679994868081,1174856435571059,-0.00825,-0.006325,-0.0056375
1679994868084,1174856438072982,-0.00825,-0.006325,-0.0077
1679994868086,1174856440574829,-0.0092124995,-0.0053625,-0.0086624995
1679994868088,1174856443076905,-0.0103124995,-0.0033,-0.0086624995
1679994868091,1174856445578838,-0.0122375,-0.0042625,-0.009625
1679994868093,1174856448080991,-0.0092124995,-0.0053625,-0.0086624995
1679994868097,1174856450582838,-0.0122375,-0.0053625,-0.0086624995
1679994868099,1174856453084914,-0.016224999,-0.006325,-0.009625
1679994868101,1174856455586771,-0.0132,-0.0083875,-0.009625
1679994868103,1174856458088924,-0.0092124995,-0.00935,-0.0086624995
1679994868108,1174856460590848,-0.0122375,-0.0083875,-0.0086624995
1679994868111,1174856463092925,-0.0122375,-0.0083875,-0.0086624995
1679994868113,1174856465594761,-0.0092124995,-0.0053625,-0.009625
1679994868115,1174856468096684,-0.0122375,-0.00935,-0.0116875
1679994868116,1174856470598761,-0.0122375,-0.011275,-0.01265
1679994868119,1174856473100607,-0.0132,-0.0103124995,-0.015675
1679994868121,1174856475602761,-0.0122375,-0.0103124995,-0.0176
1679994868125,1174856478104679,-0.0132,-0.0083875,-0.014575
1679994868127,1174856480606525,-0.0122375,-0.0072875,-0.01265
1679994868129,1174856483108602,-0.0132,-0.006325,-0.015675
1679994868131,1174856485610448,-0.015262499,-0.0072875,-0.014575
1679994868133,1174856488112371,-0.0143,-0.0053625,-0.01265
1679994868137,1174856490614439,-0.0171875,-0.0053625,-0.015675
1679994868139,1174856493116362,-0.015262499,-0.0072875,-0.015675
1679994868142,1174856495618439,-0.016224999,-0.006325,-0.014575
1679994868144,1174856498120362,-0.016224999,-0.0042625,-0.014575
1679994868146,1174856500622410,-0.0122375,-0.006325,-0.014575
1679994868150,1174856503124256,-0.0143,-0.00935,-0.015675
1679994868152,1174856505626179,-0.0202125,-0.0083875,-0.015675
1679994868154,1174856508128256,-0.016224999,-0.0083875,-0.01265
1679994868157,1174856510630419,-0.0143,-0.0103124995,-0.01265
1679994868159,1174856513132265,-0.015262499,-0.012375,-0.015675
1679994868161,1174856515634188,-0.016224999,-0.0133375,-0.015675
1679994868163,1174856518136265,-0.0143,-0.0143,-0.01265
1679994868166,1174856520638111,-0.015262499,-0.0133375,-0.014575
1679994868168,1174856523140034,-0.015262499,-0.0163625,-0.014575
1679994868170,1174856525642111,-0.0171875,-0.015262499,-0.0166375
1679994868174,1174856528144035,-0.015262499,-0.0143,-0.0166375
1679994868176,1174856530646111,-0.016224999,-0.0143,-0.0176
1679994868179,1174856533148035,-0.0171875,-0.0143,-0.0176
1679994868181,1174856535649881,-0.0171875,-0.0103124995,-0.0166375
1679994868183,1174856538151958,-0.0171875,-0.017324999,-0.0166375
1679994868188,1174856540653857,-0.0182875,-0.0163625,-0.0187
1679994868190,1174856543155934,-0.01925,-0.0182875,-0.0196625
1679994868192,1174856545657857,-0.01925,-0.0182875,-0.0196625
1679994868193,1174856548159934,-0.0171875,-0.0182875,-0.0187
1679994868197,1174856550661780,-0.0182875,-0.017324999,-0.0187
1679994868198,1174856553163698,-0.015262499,-0.017324999,-0.0196625
1679994868209,1174856555665775,-0.0132,-0.015262499,-0.02365
1679994868212,1174856558167698,-0.0143,-0.011275,-0.0246125
1679994868212,1174856560669775,-0.015262499,-0.0143,-0.02365
1679994868212,1174856563171698,-0.015262499,-0.0143,-0.0246125
1679994868212,1174856565673775,-0.016224999,-0.011275,-0.025575
1679994868213,1174856568175621,-0.016224999,-0.015262499,-0.0286
1679994868216,1174856570677544,-0.016224999,-0.012375,-0.0286
1679994868218,1174856573179631,-0.016224999,-0.0072875,-0.0276375
1679994868220,1174856575681554,-0.0171875,-0.0083875,-0.0297
1679994868225,1174856578183631,-0.0122375,-0.0072875,-0.0276375
1679994868227,1174856580685554,-0.0132,-0.006325,-0.0286
1679994868229,1174856583187400,-0.0143,-0.0053625,-0.0276375
1679994868231,1174856585689477,-0.015262499,-0.0033,-0.025575
1679994868233,1174856588191323,-0.0143,0.00165,-0.026675
1679994868236,1174856590693246,-0.0171875,-0.0023375,-0.0276375
1679994868238,1174856593195323,-0.015262499,-2.75E-4,-0.0276375
1679994868241,1174856595697482,-0.0143,6.875E-4,-0.025575
1679994868243,1174856598199328,-0.0143,-2.75E-4,-0.025575
1679994868246,1174856600701251,-0.0132,0.00165,-0.0276375
1679994868250,1174856603203288,-0.0143,6.875E-4,-0.025575
1679994868251,1174856605705211,-0.016224999,0.0037125,-0.025575
1679994868255,1174856608207058,-0.0122375,-0.0033,-0.025575
1679994868256,1174856610709135,-0.0122375,-0.0023375,-0.0226875
1679994868259,1174856613211288,-0.015262499,-0.0033,-0.025575
1679994868262,1174856615713135,-0.015262499,-0.0042625,-0.025575
1679994868266,1174856618214981,-0.015262499,-0.0042625,-0.02365
1679994868268,1174856620716904,-0.0143,-0.006325,-0.0215875
1679994868269,1174856623219058,-0.016224999,-0.0072875,-0.0187
1679994868271,1174856625721135,-0.0143,-0.0083875,-0.0196625
1679994868274,1174856628222967,-0.0132,-0.0083875,-0.0196625
1679994868277,1174856630724890,-0.0122375,-0.012375,-0.0215875
1679994868278,1174856633226967,-0.0122375,-0.0133375,-0.0215875
1679994868281,1174856635728890,-0.0132,-0.0143,-0.0226875
1679994868283,1174856638230731,-0.0143,-0.017324999,-0.0226875
1679994868286,1174856640732885,-0.0132,-0.017324999,-0.0226875
1679994868288,1174856643234962,-0.011275,-0.0193875,-0.020624999
1679994868290,1174856645736808,-0.0132,-0.0213125,-0.0215875
1679994868293,1174856648238731,-0.0122375,-0.02035,-0.0215875
1679994868296,1174856650740818,-0.0092124995,-0.0182875,-0.020624999
1679994868300,1174856653242664,-0.0122375,-0.023375,-0.0196625
1679994868302,1174856655744587,-0.011275,-0.02035,-0.020624999
1679994868304,1174856658246659,-0.0103124995,-0.023375,-0.0196625
1679994868307,1174856660748582,-0.0103124995,-0.0243375,-0.0166375
1679994868309,1174856663250659,-0.011275,-0.02035,-0.0176
1679994868311,1174856665752505,-0.011275,-0.023375,-0.0166375
1679994868313,1174856668254428,-0.0092124995,-0.0193875,-0.015675
1679994868316,1174856670756515,-0.0072875,-0.02035,-0.0166375
1679994868319,1174856673258438,-0.0092124995,-0.02035,-0.0116875
1679994868321,1174856675760515,-0.011275,-0.02035,-0.014575
1679994868325,1174856678262413,-0.00825,-0.0182875,-0.009625
1679994868327,1174856680764490,-0.0072875,-0.0193875,-0.009625
1679994868329,1174856683266413,-0.0072875,-0.015262499,-0.0077
1679994868330,1174856685768260,-0.011275,-0.0163625,-0.0077
1679994868333,1174856688270337,-0.0092124995,-0.0182875,-0.0056375
1679994868338,1174856690772265,-0.0072875,-0.0163625,-0.009625
1679994868340,1174856693274342,-0.0061875,-0.0143,-0.0086624995
1679994868342,1174856695776265,-0.00825,-0.0143,-0.0077
1679994868344,1174856698278342,-0.00825,-0.012375,-0.0086624995
1679994868347,1174856700780203,-0.0061875,-0.0143,-0.0077
1679994868348,1174856703282126,-0.0061875,-0.0143,-0.004675
1679994868351,1174856705784203,-0.0061875,-0.0103124995,-0.0066
1679994868354,1174856708286126,-0.0072875,-0.00935,-0.0105875
1679994868356,1174856710788217,-0.0042625,-0.011275,-0.0116875
1679994868359,1174856713290063,-0.0042625,-0.011275,-0.0105875
1679994868360,1174856715791986,-0.0033,-0.011275,-0.009625
1679994868363,1174856718294063,-0.0022,-0.012375,-0.0105875
1679994868366,1174856720796020,-0.0022,-0.0103124995,-0.0105875
1679994868371,1174856723297866,-0.0061875,-0.012375,-0.0105875
1679994868375,1174856725800020,-0.0033,-0.0133375,-0.0086624995
1679994868375,1174856728302097,-2.75E-4,-0.011275,-0.009625
1679994868378,1174856730804005,-0.0022,-0.011275,-0.009625
1679994868380,1174856733305851,-0.005225,-0.0163625,-0.0066
1679994868382,1174856735807928,-0.0022,-0.0143,-0.0056375
1679994868384,1174856738309851,-0.0012375,-0.012375,-0.0066
1679994868389,1174856740811668,-2.75E-4,-0.0143,-0.0077
1679994868391,1174856743313822,0.0017875,-0.0133375,-0.0086624995
1679994868393,1174856745815899,0.00275,-0.011275,-0.0077
1679994868393,1174856748317745,-2.75E-4,-0.0143,-0.0066
1679994868398,1174856750819668,-0.0022,-0.012375,-0.0066
1679994868399,1174856753321765,-2.75E-4,-0.015262499,-0.0056375
1679994868401,1174856755823611,-0.0033,-0.0133375,-0.0066
1679994868403,1174856758325535,-0.0022,-0.011275,-0.003575
1679994868406,1174856760827688,-0.0033,-0.0072875,-0.0026125
1679994868408,1174856763329539,-0.0042625,-0.00935,-0.0026125
1679994868412,1174856765831615,-0.0042625,-0.011275,-0.003575
1679994868414,1174856768333539,-0.0033,-0.0103124995,-6.875E-4
1679994868417,1174856770835385,-0.005225,-0.00935,-6.875E-4
1679994868420,1174856773337486,-0.005225,-0.0053625,4.125E-4
1679994868421,1174856775839409,-0.0042625,-0.0072875,4.125E-4
1679994868425,1174856778341563,-0.0012375,-0.0072875,0.001375
1679994868428,1174856780843409,-0.0012375,-0.006325,0.0023375
1679994868429,1174856783345486,-0.0033,-0.0042625,0.0033
1679994868431,1174856785847342,-0.0022,-0.0072875,0.0023375
1679994868433,1174856788349496,-0.0012375,-0.0103124995,0.0033
1679994868437,1174856790851419,-2.75E-4,-0.006325,0.0033
1679994868439,1174856793353496,-2.75E-4,-0.0023375,0.0023375
1679994868441,1174856795855347,-2.75E-4,-2.75E-4,0.001375
1679994868443,1174856798357270,-0.0012375,-0.0042625,4.125E-4
1679994868447,1174856800859347,0.0037125,-0.0023375,0.001375
1679994868452,1174856803361154,-0.0012375,-2.75E-4,0.0033
1679994868453,1174856805863308,-2.75E-4,-0.0042625,0.001375
1679994868457,1174856808365231,-2.75E-4,-0.0053625,4.125E-4
1679994868458,1174856810867077,0.0017875,-0.0042625,4.125E-4
1679994868460,1174856813369154,0.0017875,-0.0023375,-0.00165
1679994868462,1174856815871010,-2.75E-4,-0.0053625,-0.003575
1679994868464,1174856818372933,0.0037125,-0.0033,4.125E-4
1679994868467,1174856820875010,0.0037125,-0.0033,-6.875E-4
1679994868469,1174856823376933,0.0017875,-0.006325,-0.0026125
1679994868471,1174856825879010,-2.75E-4,-0.0042625,-0.0026125
1679994868473,1174856828380918,-0.0012375,-0.0042625,-0.003575
1679994868477,1174856830882995,-2.75E-4,-0.006325,-0.00165
1679994868478,1174856833384841,0.00275,-0.0053625,-0.0026125
1679994868481,1174856835886764,0.0017875,-0.0053625,-0.004675
1679994868483,1174856838388846,0.00275,-0.0072875,-0.003575
1679994868488,1174856840891000,0.0017875,-0.0053625,-0.003575
1679994868490,1174856843392846,-0.0012375,-0.0023375,-0.00165
1679994868492,1174856845894769,0.0037125,-0.001375,-6.875E-4
1679994868493,1174856848396880,0.0017875,-0.0033,-0.00165
1679994868497,1174856850898727,0.00275,-0.0023375,-0.00165
1679994868499,1174856853400650,0.00275,-0.0042625,0.001375
1679994868501,1174856855902727,-0.0033,-0.001375,0.0023375
1679994868503,1174856858404650,-2.75E-4,-0.0042625,0.001375
1679994868508,1174856860906746,0.0017875,-2.75E-4,0.0033
1679994868509,1174856863408669,-2.75E-4,-2.75E-4,0.0044
1679994868511,1174856865910515,-0.0042625,-0.0042625,0.0044
1679994868513,1174856868412592,-2.75E-4,-0.0033,0.0033
1679994868517,1174856870914505,0.0017875,-0.0033,4.125E-4
1679994868519,1174856873416582,-0.0033,-0.0023375,0.0033
1679994868521,1174856875918505,-0.0042625,-0.0023375,0.0023375
1679994868525,1174856878420577,-2.75E-4,-0.0023375,0.0023375
1679994868528,1174856880922423,0.0017875,-0.0033,-0.00165
1679994868530,1174856883424346,-0.0012375,-0.0023375,-0.00165
1679994868532,1174856885926423,-0.0012375,-0.0053625,-6.875E-4
1679994868534,1174856888428346,-0.0012375,-0.0053625,-6.875E-4
1679994868536,1174856890930409,-0.0033,-0.0033,4.125E-4
1679994868539,1174856893432332,-0.0012375,-0.0033,0.0023375
1679994868542,1174856895934409,-0.0022,-0.0033,0.0044
1679994868544,1174856898436255,-0.0033,-0.0023375,4.125E-4
1679994868546,1174856900938192,-0.0012375,-2.75E-4,4.125E-4
1679994868548,1174856903440269,-0.0033,-0.0033,0.001375
1679994868551,1174856905942115,-0.0042625,-0.001375,-6.875E-4
1679994868554,1174856908444269,-0.0022,-0.001375,-6.875E-4
1679994868557,1174856910946236,-0.0012375,-2.75E-4,-6.875E-4
1679994868558,1174856913448082,-0.005225,-0.0033,0.0033
1679994868563,1174856915950159,-0.0022,-0.0023375,4.125E-4
1679994868565,1174856918452082,-0.005225,-0.001375,0.0023375
1679994868568,1174856920953904,-0.0061875,6.875E-4,4.125E-4
1679994868570,1174856923455981,-0.0061875,-0.0023375,-6.875E-4
1679994868572,1174856925958134,-0.00825,-2.75E-4,-6.875E-4
1679994868575,1174856928459981,-0.0072875,0.0026125,-6.875E-4
1679994868577,1174856930961904,-0.0042625,-0.001375,-0.004675
1679994868579,1174856933463972,-0.005225,6.875E-4,-0.003575
1679994868581,1174856935965895,-0.0061875,0.0026125,-0.004675
1679994868584,1174856938467741,-0.0042625,-2.75E-4,-0.0026125
1679994868587,1174856940969818,-0.0042625,6.875E-4,-0.00165
1679994868589,1174856943471741,-0.0072875,0.0026125,-6.875E-4
1679994868592,1174856945973833,-0.0092124995,0.004675,-0.003575
1679994868594,1174856948475679,-0.0061875,-2.75E-4,-0.004675
1679994868598,1174856950977602,-0.0072875,0.00165,-0.004675
1679994868600,1174856953479756,-0.0061875,0.0056375,-0.003575
1679994868603,1174856955981814,-0.00825,6.875E-4,-0.0026125
1679994868605,1174856958483660,-0.00825,0.00165,-0.003575
1679994868608,1174856960985583,-0.0092124995,0.0077,-0.0026125
1679994868610,1174856963487660,-0.00825,0.004675,-0.0026125
1679994868611,1174856965989506,-0.00825,0.0037125,-0.003575
1679994868614,1174856968491434,-0.00825,0.0037125,-0.0026125
1679994868616,1174856970993588,-0.0092124995,0.0026125,-0.0056375
1679994868619,1174856973495665,-0.010175,0.0026125,-0.0026125
1679994868621,1174856975997511,-0.00825,0.00165,-0.0026125
1679994868625,1174856978499477,-0.0061875,0.0056375,-0.004675
1679994868628,1174856981001554,-0.0072875,0.0037125,-0.0056375
1679994868629,1174856983503400,-0.0092124995,-2.75E-4,-0.0026125
1679994868631,1174856986005323,-0.00825,-2.75E-4,-0.004675
1679994868633,1174856988507400,-0.0092124995,-2.75E-4,-0.0077
1679994868638,1174856991009328,-0.0092124995,-2.75E-4,-0.0066
1679994868641,1174856993511405,-0.0072875,6.875E-4,-0.0077
1679994868642,1174856996013251,-0.0092124995,6.875E-4,-0.0077
1679994868644,1174856998515175,-0.0092124995,-2.75E-4,-0.0077
1679994868647,1174857001017299,-0.011275,0.0026125,-0.0077
1679994868649,1174857003519223,-0.0122375,0.004675,-0.0077
1679994868651,1174857006021299,-0.011275,0.0056375,-0.0066
1679994868653,1174857008523223,-0.010175,0.0056375,-0.0086624995
1679994868657,1174857011025285,-0.0092124995,0.0067375,-0.0066
1679994868659,1174857013527208,-0.0122375,0.0056375,-0.0066
1679994868661,1174857016029054,-0.015262499,0.0037125,-0.004675
1679994868663,1174857018531131,-0.010175,0.00165,-0.004675
1679994868667,1174857021033054,-0.00825,0.004675,-0.004675
1679994868670,1174857023535131,-0.0122375,0.004675,-0.004675
1679994868672,1174857026037054,-0.011275,0.0056375,-0.004675
1679994868675,1174857028538900,-0.011275,0.0037125,-0.004675
1679994868677,1174857031040953,-0.0143,0.0056375,-0.003575
1679994868679,1174857033542876,-0.0143,0.0056375,-0.004675
1679994868681,1174857036044953,-0.0132,0.0037125,-0.003575
1679994868684,1174857038546799,-0.015262499,6.875E-4,-0.004675
1679994868687,1174857041048953,-0.0182875,6.875E-4,-0.004675
1679994868691,1174857043550789,-0.0182875,0.0056375,-0.004675
1679994868693,1174857046052712,-0.016224999,0.0026125,-0.0077
1679994868694,1174857048554789,-0.016224999,0.0026125,-0.0066
1679994868697,1174857051056712,-0.0182875,0.0026125,-0.0056375
1679994868699,1174857053558568,-0.0202125,0.0026125,-0.0056375
1679994868702,1174857056060722,-0.015262499,0.0037125,-0.004675
1679994868704,1174857058562799,-0.015262499,0.0026125,-0.004675
1679994868706,1174857061064722,-0.0182875,0.0026125,-0.0056375
1679994868709,1174857063566568,-0.0143,0.0067375,-0.004675
1679994868712,1174857066068631,-0.0122375,0.0026125,-0.0077
1679994868716,1174857068570554,-0.0182875,0.004675,-0.0077
1679994868717,1174857071072400,-0.0182875,0.0077,-0.0056375
1679994868719,1174857073574568,-0.0132,0.0067375,-0.004675
1679994868721,1174857076076645,-0.0122375,0.0086624995,-0.0066
1679994868723,1174857078578491,-0.0132,0.0077,-0.0066
1679994868727,1174857081080415,-0.016224999,0.010725,-0.0077
1679994868729,1174857083582261,-0.0143,0.01265,-0.0086624995
1679994868731,1174857086084319,-0.0122375,0.010725,-0.0086624995
1679994868733,1174857088586242,-0.015262499,0.014712499,-0.0086624995
1679994868737,1174857091088319,-0.015262499,0.010725,-0.009625
1679994868741,1174857093590256,-0.0143,0.010725,-0.0086624995
1679994868743,1174857096092333,-0.0122375,0.015675,-0.0086624995
1679994868745,1174857098594256,-0.0143,0.015675,-0.0077
1679994868747,1174857101096102,-0.015262499,0.013612499,-0.0086624995
1679994868750,1174857103598179,-0.0171875,0.013612499,-0.0066
1679994868753,1174857106100126,-0.0182875,0.01265,-0.0066
1679994868755,1174857108602203,-0.0202125,0.0086624995,-0.0066
1679994868758,1174857111104126,-0.015262499,0.0077,-0.0056375
1679994868760,1174857113606203,-0.016224999,0.0116875,-0.004675
1679994868762,1174857116108049,-0.016224999,0.0067375,-0.00165
1679994868763,1174857118610203,-0.016224999,0.0037125,-0.0026125
1679994868767,1174857121112126,-0.016224999,0.0037125,-0.0026125
1679994868768,1174857123613972,-0.0171875,0.004675,-0.0026125
1679994868771,1174857126116049,-0.0202125,6.875E-4,-0.0026125
1679994868774,1174857128617987,-0.01925,6.875E-4,-0.00165
1679994868776,1174857131120064,-0.0182875,-0.0023375,4.125E-4
1679994868779,1174857133621910,-0.01925,-0.001375,4.125E-4
1679994868781,1174857136124064,-0.0182875,-0.0072875,-0.00165
1679994868784,1174857138625991,-0.015262499,-0.0083875,4.125E-4
1679994868788,1174857141127837,-0.016224999,-0.0083875,-0.0026125
1679994868791,1174857143629914,-0.016224999,-0.0053625,-0.0026125
1679994868792,1174857146131760,-0.015262499,-0.0072875,-0.004675
1679994868793,1174857148633693,-0.0143,-0.011275,-0.004675
1679994868797,1174857151135770,-0.015262499,-0.012375,-0.0066
1679994868799,1174857153637693,-0.016224999,-0.0133375,-0.0077
1679994868801,1174857156139770,-0.0143,-0.0143,-0.004675
1679994868803,1174857158641693,-0.0143,-0.011275,-0.0077
1679994868807,1174857161143765,-0.0132,-0.0103124995,-0.0077
1679994868808,1174857163645612,-0.0122375,-0.012375,-0.0077
1679994868811,1174857166147535,-0.0122375,-0.0103124995,-0.0105875
1679994868814,1174857168649579,-0.0122375,-0.011275,-0.0066
1679994868817,1174857171151732,-0.0122375,-0.0103124995,-0.0105875
1679994868819,1174857173653579,-0.0132,-0.0103124995,-0.0116875
1679994868821,1174857176155502,-0.011275,-0.0072875,-0.0066
1679994868826,1174857178657588,-0.0122375,-0.0053625,-0.0105875
1679994868831,1174857181159434,-0.0132,-0.0042625,-0.0105875
1679994868837,1174857183661357,-0.011275,-0.0033,-0.009625
1679994868837,1174857186163203,-0.0132,-2.75E-4,-0.0086624995
1679994868837,1174857188665357,-0.0122375,-0.001375,-0.0086624995
1679994868838,1174857191167420,-0.0092124995,-0.001375,-0.0077
1679994868838,1174857193669266,-0.00825,-0.0033,-0.0066
1679994868841,1174857196171189,-0.00825,-0.0053625,-0.009625
1679994868843,1174857198673266,-0.0072875,-2.75E-4,-0.0077
1679994868847,1174857201175107,-0.0033,-0.0053625,-0.0066
1679994868848,1174857203677030,-0.0012375,-0.0053625,-0.0066
1679994868851,1174857206179184,-0.0031625,-0.0042625,-0.01265
1679994868853,1174857208681261,0.00385,-0.006325,-0.009625
1679994868856,1174857211183121,0.0097624995,-0.0042625,-0.0086624995
1679994868859,1174857213685044,0.016775,-0.0143,-0.01265
1679994868863,1174857216187121,0.011825,-0.015262499,-0.014575
1679994868864,1174857218689044,0.01485,-0.015262499,-0.0166375
1679994868869,1174857221191131,0.0158125,-0.0143,-0.0187
1679994868871,1174857223693054,0.01485,-0.0133375,-0.0176
1679994868872,1174857226195131,0.011825,-0.011275,-0.0187
1679994868876,1174857228696977,0.0088,-0.011275,-0.0187
1679994868877,1174857231198900,0.00275,-0.0143,-0.0196625
1679994868879,1174857233700991,-0.0022,-0.015262499,-0.0196625
1679994868882,1174857236202837,-0.00825,-0.0143,-0.020624999
1679994868883,1174857238704991,-0.010175,-0.015262499,-0.0226875
1679994868886,1174857241206838,-0.014162499,-0.0163625,-0.0215875
1679994868888,1174857243708761,-0.01815,-0.01925,-0.0215875
1679994868891,1174857246210814,-0.0202125,-0.0182875,-0.0226875
1679994868893,1174857248712660,-0.0221375,-0.0213125,-0.02365
1679994868896,1174857251214583,-0.0281875,-0.0243375,-0.0276375
1679994868901,1174857253716655,-0.0281875,-0.023375,-0.0325875
1679994868903,1174857256218809,-0.0262625,-0.0273625,-0.0356125
1679994868907,1174857258720655,-0.0251625,-0.03025,-0.0407
1679994868908,1174857261222578,-0.0251625,-0.028324999,-0.048675
1679994868909,1174857263724655,-0.021175,-0.0273625,-0.0496375
1679994868911,1174857266226588,-0.01815,-0.023375,-0.0556875
1679994868913,1174857268728434,-0.016224999,-0.01925,-0.059675
1679994868918,1174857271230511,-0.0122375,-0.011275,-0.064625
1679994868920,1174857273732434,-0.0122375,-0.0023375,-0.0655875
1679994868922,1174857276234497,-0.0132,0.0077,-0.069575
1679994868925,1174857278736343,-0.0122375,0.0196625,-0.0716375
1679994868927,1174857281238266,-0.016224999,0.0306625,-0.070675
1679994868929,1174857283740420,-0.0221375,0.043725,-0.0686125
1679994868931,1174857286242497,-0.02915,0.0556875,-0.0686125
1679994868933,1174857288744338,-0.0372625,0.0716375,-0.0655875
1679994868938,1174857291246261,-0.043175,0.0826375,-0.0666875
1679994868942,1174857293748338,-0.052249998,0.10065,-0.0655875
1679994868943,1174857296250184,-0.06215,0.114675,-0.0666875
1679994868945,1174857298752102,-0.0691625,0.1247125,-0.0686125
1679994868948,1174857301254256,-0.0792,0.1397,-0.06765
1679994868949,1174857303756102,-0.08525,0.15565,-0.069575
1679994868951,1174857306258179,-0.098175,0.16665,-0.0726
1679994868953,1174857308760102,-0.104225,0.1766875,-0.075625
1679994868957,1174857311261949,-0.1131625,0.185625,-0.0836
1679994868959,1174857313764025,-0.1211375,0.1956625,-0.086625
1679994868961,1174857316265872,-0.1302125,0.207625,-0.0906125
1679994868964,1174857318768025,-0.1381875,0.218625,-0.097625
1679994868967,1174857321269934,-0.1412125,0.2316875,-0.102575
1679994868968,1174857323772010,-0.1452,0.2396625,-0.1056
1679994868971,1174857326273857,-0.1491875,0.2497,-0.11165
1679994868975,1174857328775780,-0.15015,0.257675,-0.117699996
1679994868978,1174857331277862,-0.1522125,0.262625,-0.1216875
1679994868981,1174857333779785,-0.153175,0.26565,-0.125675
1679994868983,1174857336281862,-0.15413749,0.268675,-0.1326875
1679994868984,1174857338783785,-0.15619999,0.2707375,-0.135575
1679994868987,1174857341285867,-0.16225,0.2726625,-0.1425875
1679994868989,1174857343787713,-0.1692625,0.2726625,-0.1496
1679994868991,1174857346289636,-0.1782,0.2726625,-0.1535875
1679994868994,1174857348791482,-0.1901625,0.27665,-0.157575
1679994868999,1174857351293535,-0.1962125,0.27665,-0.16665
1679994869001,1174857353795689,-0.2072125,0.279675,-0.1727
1679994869001,1174857356297535,-0.2182125,0.2817375,-0.1786125
1679994869004,1174857358799458,-0.22825,0.2817375,-0.185625
1679994869008,1174857361301535,-0.241175,0.279675,-0.1896125
1679994869009,1174857363803381,-0.252175,0.2787125,-0.1975875
1679994869014,1174857366305304,-0.2641375,0.279675,-0.2046
1679994869016,1174857368807381,-0.2792625,0.27665,-0.2085875
1679994869018,1174857371309535,-0.2921875,0.27665,-0.2146375
1679994869021,1174857373811390,-0.30621248,0.273625,-0.2176625
1679994869022,1174857376313313,-0.31913748,0.27775,-0.22165
1679994869024,1174857378815390,-0.335225,0.2787125,-0.2256375
1679994869027,1174857381317313,-0.3452625,0.27775,-0.2286625
1679994869029,1174857383819159,-0.357225,0.2787125,-0.2305875
1679994869031,1174857386321313,-0.3661625,0.2787125,-0.2316875
1679994869034,1174857388823390,-0.3741375,0.27775,-0.2316875
1679994869036,1174857391325236,-0.38225,0.2787125,-0.2336125
1679994869038,1174857393827159,-0.3892625,0.2756875,-0.2336125
1679994869042,1174857396329016,-0.395175,0.2726625,-0.234575
1679994869044,1174857398831093,-0.40315,0.273625,-0.23567499
1679994869047,1174857401333016,-0.4101625,0.2646875,-0.2336125
1679994869050,1174857403835093,-0.4211625,0.2597375,-0.2336125
1679994869052,1174857406337011,-0.4321625,0.25575,-0.23265
1679994869054,1174857408839088,-0.439175,0.25465,-0.23265
1679994869058,1174857411340934,-0.44825,0.2497,-0.23265
1679994869060,1174857413842857,-0.45925,0.2457125,-0.2305875
1679994869061,1174857416344934,-0.4651625,0.24475,-0.23265
1679994869064,1174857418846838,-0.4712125,0.2396625,-0.2277
1679994869066,1174857421348915,-0.48221248,0.2286625,-0.224675
1679994869069,1174857423850838,-0.4882625,0.22275,-0.2226125
1679994869071,1174857426352915,-0.494175,0.21573749,-0.223575
1679994869076,1174857428854775,-0.5011875,0.2057,-0.22165
1679994869079,1174857431356698,-0.5082,0.197725,-0.218625
1679994869080,1174857433858852,-0.5091625,0.1827375,-0.2167
1679994869082,1174857436360698,-0.5152125,0.17173749,-0.2146375
1679994869084,1174857438862756,-0.5201625,0.1607375,-0.2167
1679994869089,1174857441364679,-0.52525,0.1516625,-0.2116125
1679994869092,1174857443866525,-0.52525,0.1397,-0.2085875
1679994869093,1174857446368602,-0.527175,0.1266375,-0.2085875
1679994869095,1174857448870515,-0.52415,0.117699996,-0.207625
1679994869097,1174857451372592,-0.522225,0.103675,-0.2036375
1679994869101,1174857453874515,-0.5231875,0.0917125,-0.2046
1679994869103,1174857456376361,-0.5231875,0.0826375,-0.2066625
1679994869104,1174857458878438,-0.51713747,0.0727375,-0.2057
1679994869108,1174857461380361,-0.51315,0.064625,-0.2066625
1679994869109,1174857463882208,-0.51425,0.054725,-0.2085875
1679994869111,1174857466384361,-0.5201625,0.0526625,-0.2066625
1679994869115,1174857468886448,-0.51919997,0.0496375,-0.2066625
1679994869117,1174857471388371,-0.52415,0.0526625,-0.2057
1679994869119,1174857473890218,-0.533225,0.054725,-0.2057
1679994869121,1174857476392295,-0.5391375,0.054725,-0.2046
1679994869127,1174857478894184,-0.5391375,0.056649998,-0.2036375
1679994869129,1174857481396261,-0.5412,0.0627,-0.202675
1679994869131,1174857483898184,-0.5421625,0.073699996,-0.201575
1679994869132,1174857486400261,-0.5412,0.0807125,-0.202675
1679994869134,1174857488902184,-0.5372125,0.0886875,-0.1986875
1679994869137,1174857491404040,-0.5341875,0.095699996,-0.19965
1679994869142,1174857493906117,-0.5322625,0.1027125,-0.1986875
1679994869143,1174857496407963,-0.5302,0.11165,-0.1975875
1679994869146,1174857498909886,-0.52525,0.120725,-0.19167499
1679994869148,1174857501411963,-0.5201625,0.130625,-0.190575
1679994869150,1174857503913886,-0.5152125,0.13475,-0.1896125
1679994869151,1174857506415963,-0.5091625,0.14465,-0.185625
1679994869154,1174857508917886,-0.5042125,0.1516625,-0.18259999
1679994869158,1174857511419732,-0.4972,0.1577125,-0.1755875
1679994869159,1174857513921809,-0.49115,0.1626625,-0.1727
1679994869163,1174857516423732,-0.4901875,0.1687125,-0.168575
1679994869165,1174857518925886,-0.483175,0.17173749,-0.1596375
1679994869167,1174857521427770,-0.4772625,0.174625,-0.1546875
1679994869169,1174857523929847,-0.4772625,0.17875,-0.1507
1679994869171,1174857526431770,-0.472175,0.17875,-0.1436875
1679994869174,1174857528933616,-0.4681875,0.1766875,-0.13859999
1679994869177,1174857531435693,-0.467225,0.17875,-0.1326875
1679994869180,1174857533937621,-0.4632375,0.1736625,-0.124575
1679994869181,1174857536439698,-0.4571875,0.1687125,-0.1166
1679994869184,1174857538941621,-0.45113748,0.16665,-0.1095875
1679994869186,1174857541443698,-0.439175,0.1577125,-0.0996875
1679994869188,1174857543945544,-0.4332625,0.14973749,-0.0886875
1679994869191,1174857546447458,-0.42515,0.1357125,-0.080575
1679994869194,1174857548949534,-0.4202,0.12265,-0.0716375
1679994869196,1174857551451381,-0.417175,0.11165,-0.0627
1679994869200,1174857553953534,-0.41415,0.093637496,-0.0517
1679994869202,1174857556455473,-0.4131875,0.0807125,-0.0416625
1679994869204,1174857558957549,-0.41415,0.064625,-0.0336875
1679994869208,1174857561459396,-0.417175,0.048675,-0.0215875
1679994869209,1174857563961319,-0.4181375,0.03575,-0.014575
1679994869211,1174857566463396,-0.4222625,0.02475,-0.0056375
1679994869214,1174857568965309,-0.42625,0.0116875,0.0044
1679994869216,1174857571467386,-0.4332625,0.00165,0.0083875
1679994869220,1174857573969309,-0.4302375,-0.00825,0.0154
1679994869222,1174857576471155,-0.4312,-0.0143,0.0224125
1679994869224,1174857578973223,-0.4332625,-0.017324999,0.0273625
1679994869228,1174857581475146,-0.4302375,-0.0262625,0.0323125
1679994869230,1174857583976992,-0.4302375,-0.0292875,0.0363
1679994869232,1174857586479146,-0.42625,-0.0323125,0.0413875
1679994869234,1174857588981256,-0.4241875,-0.0363,0.0383625
1679994869239,1174857591483102,-0.4202,-0.0372625,0.040425
1679994869240,1174857593985025,-0.41415,-0.0402875,0.0463375
1679994869242,1174857596486871,-0.40713748,-0.044275,0.0473
1679994869245,1174857598989020,-0.40425,-0.0383625,0.050325
1679994869247,1174857601491097,-0.401225,-0.0372625,0.050325
1679994869249,1174857603992943,-0.39421248,-0.0402875,0.0523875
1679994869252,1174857606494866,-0.39214998,-0.034375,0.056375
1679994869255,1174857608996943,-0.3851375,-0.0323125,0.0583
1679994869257,1174857611498794,-0.3832125,-0.0372625,0.0603625
1679994869260,1174857614000948,-0.3762,-0.03025,0.06435
1679994869261,1174857616502871,-0.3661625,-0.028324999,0.0704
1679994869264,1174857619004717,-0.35915,-0.0292875,0.0743875
1679994869266,1174857621506789,-0.3542,-0.0213125,0.0793375
1679994869269,1174857624008713,-0.351175,-0.0253,0.0814
1679994869272,1174857626510559,-0.3392125,-0.023375,0.089375
1679994869276,1174857629012636,-0.335225,-0.02035,0.094325
1679994869279,1174857631514809,-0.3301375,-0.01925,0.0994125
1679994869280,1174857634016733,-0.3232625,-0.02035,0.1073875
1679994869282,1174857636518579,-0.3172125,-0.0243375,0.111375
1679994869285,1174857639020656,-0.31625,-0.0213125,0.113299996
1679994869288,1174857641522545,-0.31625,-0.01925,0.117425
1679994869289,1174857644024391,-0.3122625,-0.023375,0.1243
1679994869292,1174857646526468,-0.3102,-0.0292875,0.1293875
1679994869294,1174857649028391,-0.30621248,-0.0323125,0.1364
1679994869297,1174857651530468,-0.3031875,-0.033275,0.1403875
1679994869301,1174857654032391,-0.2992,-0.044275,0.14739999
1679994869303,1174857656534468,-0.2902625,-0.05335,0.1544125
1679994869305,1174857659036314,-0.28325,-0.06325,0.1573
1679994869308,1174857661538237,-0.27115,-0.0763125,0.1623875
1679994869309,1174857664040314,-0.26125,-0.0933625,0.166375
1679994869313,1174857666542222,-0.2561625,-0.1062875,0.1694
1679994869315,1174857669044299,-0.24915,-0.116325,0.1643125
1679994869317,1174857671546222,-0.2432375,-0.1203125,0.1703625
1679994869320,1174857674048299,-0.24213749,-0.1313125,0.1694
1679994869322,1174857676550145,-0.24419999,-0.1353,0.166375
1679994869325,1174857679052078,-0.2451625,-0.1362625,0.1694
1679994869327,1174857681553924,-0.252175,-0.1353,0.166375
1679994869329,1174857684056078,-0.258225,-0.1313125,0.1654125
1679994869331,1174857686558155,-0.26015,-0.1243,0.1623875
1679994869334,1174857689060078,-0.2671625,-0.1142625,0.1593625
1679994869338,1174857691561938,-0.2701875,-0.1032625,0.1573
1679994869340,1174857694064015,-0.2701875,-0.0933625,0.1544125
1679994869341,1174857696565862,-0.2701875,-0.077275,0.150425
1679994869344,1174857699067785,-0.2701875,-0.0622875,0.14739999
1679994869347,1174857701569934,-0.2682625,-0.0463375,0.14533749
1679994869350,1174857704071781,-0.2662,-0.03135,0.14135
1679994869352,1174857706573858,-0.26427498,-0.017324999,0.14135
1679994869354,1174857709075781,-0.2591875,-0.001375,0.139425
1679994869357,1174857711577862,-0.2572625,0.014712499,0.1364
1679994869359,1174857714079708,-0.2563,0.0276375,0.1353
1679994869362,1174857716581631,-0.2552,0.0397375,0.138325
1679994869364,1174857719083785,-0.252175,0.0526625,0.14135
1679994869367,1174857721585877,-0.2563,0.0617375,0.1403875
1679994869369,1174857724087723,-0.26125,0.070675,0.1434125
1679994869371,1174857726589646,-0.26221249,0.081675,0.14533749
1679994869376,1174857729091723,-0.2682625,0.086625,0.1483625
1679994869377,1174857731593569,-0.274175,0.0917125,0.1544125
1679994869380,1174857734095713,-0.27719998,0.097625,0.1593625
1679994869381,1174857736597559,-0.2762375,0.095699996,0.1643125
1679994869385,1174857739099482,-0.2783,0.097625,0.1623875
1679994869392,1174857741601559,-0.27719998,0.0886875,0.166375
1679994869393,1174857744103405,-0.27719998,0.0837375,0.172425
1679994869394,1174857746605328,-0.274175,0.0826375,0.171325
1679994869395,1174857749107405,-0.27225,0.0796125,0.172425
1679994869397,1174857751609328,-0.2673,0.0697125,0.1753125
1679994869399,1174857754111405,-0.26427498,0.065725,0.1733875
1679994869402,1174857756613338,-0.26221249,0.0606375,0.1703625
1679994869407,1174857759115184,-0.26125,0.0517,0.171325
1679994869407,1174857761617261,-0.26221249,0.045649998,0.1683
1679994869409,1174857764119415,-0.2662,0.0416625,0.1683
1679994869412,1174857766621227,-0.2682625,0.0367125,0.1643125
1679994869414,1174857769123150,-0.2682625,0.0297,0.1623875
1679994869417,1174857771625227,-0.27225,0.0226875,0.1623875
1679994869420,1174857774127150,-0.2762375,0.015675,0.160325
1679994869422,1174857776628983,-0.2811875,0.0086624995,0.1573
1679994869426,1174857779131059,-0.28325,-2.75E-4,0.1593625
1679994869428,1174857781632983,-0.2822875,-0.0083875,0.16335
1679994869430,1174857784135059,-0.286275,-0.012375,0.161425
1679994869432,1174857786636997,-0.2842125,-0.017324999,0.160325
1679994869434,1174857789138843,-0.2842125,-0.02035,0.16335
1679994869437,1174857791640920,-0.2842125,-0.0262625,0.166375
1679994869439,1174857794142843,-0.28325,-0.0353375,0.1683
1679994869442,1174857796644920,-0.28325,-0.0363,0.1703625
1679994869445,1174857799146852,-0.27719998,-0.0383625,0.1753125
1679994869447,1174857801648929,-0.27719998,-0.044275,0.1753125
1679994869449,1174857804150775,-0.2762375,-0.050325,0.17435
1679994869453,1174857806652698,-0.2811875,-0.050325,0.1793
1679994869461,1174857809154766,-0.2842125,-0.0493625,0.183425
1679994869461,1174857811656689,-0.2893,-0.0493625,0.1813625
1679994869461,1174857814158766,-0.2882,-0.0482625,0.1804
1679994869463,1174857816660689,-0.286275,-0.0473,0.1793
1679994869464,1174857819162790,-0.2872375,-0.045375,0.1804
1679994869467,1174857821664636,-0.285175,-0.0433125,0.177375
1679994869469,1174857824166559,-0.285175,-0.04235,0.1753125
1679994869471,1174857826668636,-0.285175,-0.0372625,0.1733875
1679994869474,1174857829170482,-0.28325,-0.0303875,0.1683
1679994869476,1174857831672650,-0.28325,-0.023375,0.1623875
1679994869479,1174857834174573,-0.2822875,-0.0163625,0.155375
1679994869481,1174857836676419,-0.285175,-0.0053625,0.1483625
1679994869484,1174857839178496,-0.2822875,0.004675,0.14135
1679994869486,1174857841680371,-0.2822875,0.01265,0.1364
1679994869489,1174857844182294,-0.2792625,0.0257125,0.1353
1679994869491,1174857846684371,-0.2783,0.037675,0.128425
1679994869495,1174857849186525,-0.2792625,0.053625,0.122375
1679994869497,1174857851688361,-0.27719998,0.065725,0.116325
1679994869501,1174857854190285,-0.275275,0.07865,0.113299996
1679994869503,1174857856692361,-0.275275,0.0966625,0.1073875
1679994869505,1174857859194285,-0.275275,0.108625,0.1043625
1679994869508,1174857861696112,-0.275275,0.1216875,0.1023
1679994869509,1174857864198189,-0.27719998,0.1346125,0.09735
1679994869512,1174857866700112,-0.2762375,0.147675,0.0963875
1679994869514,1174857869202189,-0.2783,0.15565,0.095425
1679994869517,1174857871704112,-0.2783,0.1676125,0.095425
1679994869519,1174857874205953,-0.2811875,0.1727,0.095425
1679994869523,1174857876708030,-0.2822875,0.1816375,0.095425
1679994869525,1174857879209953,-0.28325,0.1837,0.0963875
1679994869527,1174857881711799,-0.28325,0.1926375,0.09735
1679994869530,1174857884213948,-0.2792625,0.197725,0.0983125
1679994869532,1174857886716025,-0.2762375,0.2017125,0.0963875
1679994869534,1174857889217871,-0.27719998,0.21065,0.0933625
1679994869539,1174857891719794,-0.2712875,0.2127125,0.0933625
1679994869542,1174857894221881,-0.2682625,0.21367499,0.094325
1679994869543,1174857896723804,-0.2701875,0.218625,0.0884125
1679994869544,1174857899225650,-0.2682625,0.2176625,0.0903375
1679994869547,1174857901727804,-0.26427498,0.2237125,0.0903375
1679994869549,1174857904229881,-0.26427498,0.2286625,0.0873125
1679994869551,1174857906731722,-0.269225,0.229625,0.083325
1679994869554,1174857909233645,-0.26427498,0.2316875,0.0823625
1679994869559,1174857911735722,-0.26221249,0.23567499,0.078375
1679994869559,1174857914237568,-0.26427498,0.23567499,0.073425
1679994869561,1174857916739722,-0.2602875,0.2396625,0.0704
1679994869564,1174857919241645,-0.2542375,0.24365,0.0653125
1679994869569,1174857921743491,-0.252175,0.24365,0.062425
1679994869572,1174857924245539,-0.2542375,0.2446125,0.0573375
1679994869575,1174857926747386,-0.2481875,0.2506625,0.05335
1679994869576,1174857929249539,-0.24419999,0.2476375,0.0493625
1679994869579,1174857931751462,-0.2453,0.2497,0.045375
1679994869582,1174857934253333,-0.2432375,0.252725,0.045375
1679994869583,1174857936755410,-0.2402125,0.252725,0.045375
1679994869585,1174857939257256,-0.2402125,0.2497,0.045375
1679994869588,1174857941759179,-0.23925,0.2457125,0.0463375
1679994869589,1174857944261256,-0.236225,0.2426875,0.0484
1679994869591,1174857946763179,-0.236225,0.2366375,0.05335
1679994869594,1174857949265266,-0.236225,0.2316875,0.05335
1679994869597,1174857951767189,-0.2332,0.2226125,0.0554125
1679994869601,1174857954269266,-0.2332,0.21573749,0.0573375
1679994869602,1174857956771112,-0.2343,0.21367499,0.0594
1679994869604,1174857959273049,-0.2343,0.2036375,0.062425
1679994869608,1174857961775203,-0.23127499,0.197725,0.0594
1679994869609,1174857964277280,-0.22825,0.18865,0.0603625
1679994869613,1174857966779126,-0.2233,0.1846625,0.061325
1679994869615,1174857969281059,-0.2222,0.1816375,0.0594
1679994869618,1174857971782905,-0.2182125,0.1827375,0.0583
1679994869621,1174857974284982,-0.2162875,0.1727,0.056375
1679994869623,1174857976786905,-0.2162875,0.1727,0.0554125
1679994869626,1174857979288982,-0.20927499,0.1736625,0.0523875
1679994869628,1174857981790910,-0.208175,0.17173749,0.0493625
1679994869629,1174857984292987,-0.2052875,0.1766875,0.0463375
1679994869634,1174857986794833,-0.2013,0.1786125,0.04235
1679994869634,1174857989296756,-0.198275,0.1797125,0.0383625
1679994869637,1174857991798818,-0.1962125,0.180675,0.0374
1679994869639,1174857994300741,-0.192225,0.17765,0.0334125
1679994869643,1174857996802818,-0.192225,0.1816375,0.03135
1679994869644,1174857999304741,-0.1882375,0.1766875,0.0303875
1679994869647,1174858001806833,-0.186175,0.1816375,0.0273625
1679994869651,1174858004308679,-0.186175,0.1797125,0.023375
1679994869652,1174858006810603,-0.18425,0.1816375,0.0224125
1679994869654,1174858009312679,-0.18425,0.1816375,0.0213125
1679994869658,1174858011814579,-0.181225,0.1797125,0.0224125
1679994869660,1174858014316656,-0.1832875,0.1816375,0.017324999
1679994869662,1174858016818579,-0.1821875,0.1827375,0.012375
1679994869664,1174858019320425,-0.1793,0.185625,0.0133375
1679994869667,1174858021822497,-0.1772375,0.1837,0.0103124995
1679994869669,1174858024324420,-0.1772375,0.186725,0.0114124995
1679994869674,1174858026826266,-0.175175,0.1876875,0.0103124995
1679994869675,1174858029328343,-0.1711875,0.18865,0.0103124995
1679994869677,1174858031830497,-0.1711875,0.196625,0.0103124995
1679994869679,1174858034332372,-0.170225,0.196625,0.00935
1679994869682,1174858036834295,-0.165275,0.2017125,0.0083875
1679994869685,1174858039336372,-0.159225,0.2057,0.00935
1679994869689,1174858041838299,-0.1573,0.21065,0.012375
1679994869691,1174858044340145,-0.1582625,0.2066625,0.0083875
1679994869693,1174858046842222,-0.1582625,0.21065,0.006325
1679994869695,1174858049344376,-0.1601875,0.2167,0.007425
1679994869697,1174858051846222,-0.15619999,0.218625,0.006325
1679994869700,1174858054348141,-0.1552375,0.2176625,0.0023375
1679994869702,1174858056849987,-0.1502875,0.219725,-0.00165
1679994869704,1174858059352064,-0.1491875,0.2267375,-0.00165
1679994869708,1174858061853987,-0.15125,0.2286625,-0.0066
1679994869709,1174858064355833,-0.1442375,0.2267375,-0.01265
1679994869712,1174858066857977,-0.142175,0.229625,-0.014575
1679994869714,1174858069360054,-0.1442375,0.2267375,-0.015675
1679994869717,1174858071861900,-0.1412125,0.2267375,-0.0187
1679994869719,1174858074363823,-0.1412125,0.2286625,-0.020624999
1679994869722,1174858076865900,-0.137225,0.2267375,-0.0226875
1679994869726,1174858079367824,-0.1381875,0.2226125,-0.02365
1679994869728,1174858081869900,-0.1342,0.2226125,-0.02365
1679994869730,1174858084371824,-0.1342,0.2226125,-0.0215875
1679994869732,1174858086873656,-0.1332375,0.22165,-0.025575
1679994869736,1174858089375733,-0.1302125,0.2146375,-0.026675
1679994869738,1174858091877656,-0.1252625,0.21065,-0.02365
1679994869740,1174858094379810,-0.1252625,0.202675,-0.02365
1679994869742,1174858096881656,-0.122237496,0.197725,-0.0246125
1679994869745,1174858099383766,-0.120175,0.1896125,-0.0215875
1679994869747,1174858101885689,-0.11825,0.1816375,-0.0187
1679994869749,1174858104387535,-0.11825,0.1736625,-0.0187
1679994869753,1174858106889603,-0.1172875,0.1626625,-0.015675
1679994869755,1174858109391526,-0.1172875,0.1486375,-0.0086624995
1679994869758,1174858111893603,-0.11825,0.1376375,-0.004675
1679994869759,1174858114395526,-0.1243,0.1186625,-0.00165
1679994869765,1174858116897352,-0.126225,0.1027125,0.0023375
1679994869767,1174858119399429,-0.1302125,0.086625,0.006325
1679994869769,1174858121901352,-0.1342,0.070675,0.007425
1679994869770,1174858124403198,-0.1342,0.053625,0.0114124995
1679994869772,1174858126905275,-0.1381875,0.031625,0.0143
1679994869775,1174858129407396,-0.14025,0.015675,0.0143
1679994869778,1174858131909319,-0.1392875,0.004675,0.0154
1679994869780,1174858134411165,-0.143275,-0.0103124995,0.0193875
1679994869782,1174858136913242,-0.1442375,-0.0262625,0.023375
1679994869784,1174858139415155,-0.1442375,-0.0363,0.0243375
1679994869787,1174858141917001,-0.14025,-0.044275,0.023375
1679994869789,1174858144419155,-0.1381875,-0.050325,0.0243375
1679994869792,1174858146921001,-0.1392875,-0.0523875,0.0264
1679994869794,1174858149423078,-0.1362625,-0.0603625,0.029424999
1679994869797,1174858151924987,-0.137225,-0.0603625,0.0273625
1679994869803,1174858154426834,-0.1353,-0.0583,0.0213125
1679994869804,1174858156928911,-0.1381875,-0.05335,0.0264
1679994869808,1174858159430848,-0.137225,-0.0493625,0.023375
1679994869810,1174858161933001,-0.1362625,-0.044275,0.0213125
1679994869810,1174858164434848,-0.1353,-0.0363,0.0253
1679994869812,1174858166936925,-0.132275,-0.03135,0.0224125
1679994869814,1174858169438848,-0.1342,-0.0213125,0.02035
1679994869817,1174858171940708,-0.1332375,-0.011275,0.0154
1679994869820,1174858174442785,-0.1282875,6.875E-4,0.0154
1679994869822,1174858176944708,-0.12925,0.01265,0.0154
1679994869827,1174858179446862,-0.126225,0.0226875,0.0114124995
1679994869829,1174858181948732,-0.1243,0.037675,0.0114124995
1679994869830,1174858184450809,-0.1252625,0.0517,0.0103124995
1679994869832,1174858186952655,-0.1271875,0.056649998,0.007425
1679994869834,1174858189454578,-0.1271875,0.0727375,0.0044
1679994869839,1174858191956641,-0.126225,0.086625,0.0053625
1679994869842,1174858194458487,-0.126225,0.095699996,0.0053625
1679994869844,1174858196960641,-0.1243,0.104637496,0.006325
1679994869845,1174858199462564,-0.1252625,0.1137125,0.006325
1679994869847,1174858201964410,-0.1252625,0.12265,0.0044
1679994869849,1174858204466463,-0.122237496,0.131725,0.0053625
1679994869851,1174858206968386,-0.122237496,0.13365,0.0044
1679994869854,1174858209470463,-0.11825,0.13365,0.0053625
1679994869858,1174858211972309,-0.111237496,0.13475,0.007425
1679994869860,1174858214474453,-0.1082125,0.136675,0.0023375
1679994869862,1174858216976376,-0.109175,0.13365,-6.875E-4
1679994869864,1174858219478222,-0.10725,0.1296625,-0.00165
1679994869867,1174858221980299,-0.10725,0.1287,-0.0026125
1679994869869,1174858224482222,-0.109175,0.1247125,-0.003575
1679994869872,1174858226984093,-0.1161875,0.120725,-0.0066
1679994869876,1174858229486169,-0.120175,0.1186625,-0.0056375
1679994869879,1174858231988093,-0.1241625,0.117699996,-0.0056375
1679994869881,1174858234490169,-0.1282875,0.1137125,-0.003575
1679994869883,1174858236992088,-0.1362625,0.11275,-0.0066
1679994869885,1174858239493934,-0.1442375,0.11165,-0.0056375
1679994869888,1174858241996011,-0.1442375,0.108625,-0.0086624995
1679994869891,1174858244497934,-0.1461625,0.104637496,-0.009625
1679994869893,1174858247000088,-0.1522125,0.1057375,-0.0105875
1679994869895,1174858249501925,-0.15125,0.103675,-0.0105875
1679994869897,1174858252003771,-0.148225,0.1027125,-0.0116875
1679994869900,1174858254505848,-0.1502875,0.10175,-0.01265
1679994869902,1174858257007771,-0.1491875,0.1027125,-0.015675
1679994869904,1174858259509848,-0.1502875,0.1027125,-0.0166375
1679994869908,1174858262011771,-0.15125,0.1027125,-0.015675
1679994869910,1174858264513848,-0.1491875,0.0996875,-0.0187
1679994869913,1174858267015771,-0.1491875,0.10175,-0.0187
1679994869916,1174858269517607,-0.1522125,0.1027125,-0.0215875
1679994869918,1174858272019684,-0.15619999,0.108625,-0.025575
1679994869921,1174858274521607,-0.153175,0.1106875,-0.02365
1679994869923,1174858277023684,-0.154275,0.1076625,-0.0215875
1679994869925,1174858279525607,-0.15619999,0.108625,-0.026675
1679994869928,1174858282027689,-0.1582625,0.11275,-0.025575
1679994869930,1174858284529535,-0.1552375,0.108625,-0.025575
1679994869932,1174858287031458,-0.153175,0.11275,-0.025575
1679994869934,1174858289533304,-0.1552375,0.1137125,-0.025575
1679994869938,1174858292035405,-0.15125,0.11275,-0.0297
1679994869943,1174858294537559,-0.1491875,0.11165,-0.025575
1679994869944,1174858297039405,-0.1502875,0.103675,-0.0246125
1679994869947,1174858299541328,-0.1502875,0.0996875,-0.02365
1679994869950,1174858302043433,-0.15125,0.098725,-0.02365
1679994869952,1174858304545357,-0.1491875,0.0917125,-0.025575
1679994869954,1174858307047203,-0.1502875,0.086625,-0.026675
1679994869955,1174858309549357,-0.15125,0.0847,-0.0276375
1679994869959,1174858312051457,-0.1502875,0.0837375,-0.0286
1679994869960,1174858314553304,-0.1491875,0.076725,-0.0325875
1679994869962,1174858317055227,-0.1452,0.0697125,-0.034649998
1679994869965,1174858319557304,-0.1461625,0.06875,-0.0356125
1679994869967,1174858322059149,-0.1491875,0.06765,-0.0356125
1679994869969,1174858324561072,-0.1452,0.0636625,-0.036575
1679994869972,1174858327063226,-0.142175,0.05775,-0.037675
1679994869975,1174858329565072,-0.1461625,0.054725,-0.034649998
1679994869978,1174858332067149,-0.15125,0.0507375,-0.0356125
1679994869980,1174858334568995,-0.1522125,0.04675,-0.0356125
1679994869982,1174858337070918,-0.154275,0.0397375,-0.036575
1679994869984,1174858339572995,-0.154275,0.034649998,-0.037675
1679994869989,1174858342074894,-0.159225,0.031625,-0.0356125
1679994869992,1174858344576971,-0.159225,0.02475,-0.037675
1679994869993,1174858347078894,-0.1612875,0.020624999,-0.0386375
1679994869995,1174858349580971,-0.1672,0.0196625,-0.0407
1679994869997,1174858352082894,-0.17325,0.020624999,-0.0416625
1679994870001,1174858354584732,-0.1711875,0.0187,-0.0407
1679994870002,1174858357086809,-0.175175,0.0187,-0.042625
1679994870005,1174858359588655,-0.1772375,0.01375,-0.0416625
1679994870008,1174858362090809,-0.1782,0.01375,-0.0396
1679994870010,1174858364592732,-0.1772375,0.0166375,-0.037675
1679994870012,1174858367094568,-0.181225,0.0196625,-0.0407
1679994870015,1174858369596645,-0.1821875,0.0226875,-0.0396
1679994870017,1174858372098568,-0.1821875,0.0196625,-0.0386375
1679994870021,1174858374600415,-0.1832875,0.02365,-0.0396
1679994870022,1174858377102506,-0.1821875,0.0306625,-0.036575
1679994870026,1174858379604659,-0.1782,0.0297,-0.034649998
1679994870029,1174858382106582,-0.1742125,0.0306625,-0.036575
1679994870031,1174858384608429,-0.17325,0.031625,-0.036575
1679994870033,1174858387110515,-0.1681625,0.0287375,-0.036575
1679994870035,1174858389612438,-0.165275,0.02475,-0.036575
1679994870037,1174858392114284,-0.1612875,0.0276375,-0.036575
1679994870039,1174858394616361,-0.16225,0.0276375,-0.036575
1679994870042,1174858397118515,-0.1612875,0.0297,-0.0356125
1679994870044,1174858399620348,-0.1612875,0.032725,-0.0356125
1679994870047,1174858402122271,-0.1601875,0.034649998,-0.0356125
1679994870049,1174858404624117,-0.16225,0.0397375,-0.034649998
1679994870052,1174858407126194,-0.159225,0.0397375,-0.0286
1679994870054,1174858409628121,-0.1612875,0.0386375,-0.0286
1679994870058,1174858412130198,-0.1632125,0.0416625,-0.0276375
1679994870060,1174858414632121,-0.1612875,0.045649998,-0.0226875
1679994870063,1174858417134198,-0.16225,0.0477125,-0.0226875
1679994870067,1174858419636058,-0.15619999,0.0477125,-0.020624999
1679994870068,1174858422137981,-0.1552375,0.0507375,-0.01265
1679994870070,1174858424640135,-0.15619999,0.0477125,-0.0105875
1679994870072,1174858427141981,-0.1502875,0.0496375,-0.0077
1679994870075,1174858429644058,-0.1491875,0.048675,-0.0066
1679994870080,1174858432145981,-0.148225,0.043725,-0.0026125
1679994870086,1174858434648058,-0.1442375,0.0386375,0.001375
1679994870086,1174858437149904,-0.143275,0.0397375,0.0023375
1679994870086,1174858439651827,-0.1412125,0.0367125,0.007425
1679994870087,1174858442153990,-0.1351625,0.032725,0.0103124995
1679994870089,1174858444655836,-0.132275,0.0257125,0.0163625
1679994870092,1174858447157913,-0.1252625,0.0226875,0.0193875
1679994870094,1174858449659759,-0.1172875,0.0177375,0.0253
1679994870097,1174858452161698,-0.110275,0.01375,0.028324999
1679994870102,1174858454663774,-0.1021625,0.0116875,0.0323125
1679994870104,1174858457165698,-0.0941875,-0.001375,0.0383625
1679994870108,1174858459667774,-0.089237496,-0.0072875,0.040425
1679994870108,1174858462169669,-0.0792,-0.011275,0.045375
1679994870110,1174858464671515,-0.076175,-0.0182875,0.05335
1679994870112,1174858467173592,-0.076175,-0.0273625,0.0554125
1679994870114,1174858469675515,-0.0732875,-0.033275,0.0594
1679994870118,1174858472177592,-0.0702625,-0.044275,0.069299996
1679994870120,1174858474679506,-0.0682,-0.0512875,0.0763125
1679994870122,1174858477181583,-0.06325,-0.0603625,0.0814
1679994870125,1174858479683506,-0.0562375,-0.0713625,0.0884125
1679994870128,1174858482185583,-0.049225,-0.08635,0.09735
1679994870129,1174858484687429,-0.038225,-0.1023,0.1043625
1679994870132,1174858487189338,-0.0342375,-0.1142625,0.111375
1679994870134,1174858489691184,-0.027224999,-0.13035,0.11935
1679994870139,1174858492193338,-0.0251625,-0.1463,0.1214125
1679994870142,1174858494695415,-0.022275,-0.160325,0.122375
1679994870144,1174858497197261,-0.01925,-0.1692625,0.1243
1679994870145,1174858499699184,-0.015262499,-0.1813625,0.13035
1679994870148,1174858502201030,-0.015262499,-0.1903,0.133375
1679994870149,1174858504703107,-0.0182875,-0.19525,0.1313125
1679994870152,1174858507205040,-0.015262499,-0.198275,0.133375
1679994870155,1174858509707194,-0.0132,-0.2052875,0.133375
1679994870157,1174858512209040,-0.014162499,-0.20927499,0.13035
1679994870159,1174858514711117,-0.015262499,-0.21133749,0.128425
1679994870162,1174858517213067,-0.014162499,-0.21133749,0.1263625
1679994870164,1174858519715144,-0.015262499,-0.20927499,0.1233375
1679994870167,1174858522216990,-0.0171875,-0.20927499,0.11935
1679994870169,1174858524718913,-0.021175,-0.2052875,0.1144
1679994870172,1174858527221067,-0.0232375,-0.198275,0.1093125
1679994870176,1174858529722914,-0.0242,-0.1942875,0.1043625
1679994870179,1174858532224990,-0.0251625,-0.1912625,0.1023
1679994870181,1174858534726837,-0.0251625,-0.1813625,0.1023
1679994870183,1174858537228784,-0.0281875,-0.1753125,0.0983125
1679994870185,1174858539730861,-0.032175,-0.1722875,0.0963875
1679994870188,1174858542232707,-0.0292875,-0.1683,0.0994125
1679994870191,1174858544734861,-0.0342375,-0.1582625,0.100375
1679994870192,1174858547236784,-0.033275,-0.1483625,0.0994125
1679994870194,1174858549738852,-0.033275,-0.1392875,0.0994125
1679994870197,1174858552240698,-0.033275,-0.1373625,0.100375
1679994870201,1174858554742621,-0.0281875,-0.133375,0.1034
1679994870202,1174858557244698,-0.0262625,-0.127325,0.0983125
1679994870204,1174858559746539,-0.015262499,-0.11825,0.0983125
1679994870209,1174858562248693,-0.0042625,-0.113299996,0.094325
1679994870210,1174858564750616,0.005775,-0.1142625,0.0903375
1679994870214,1174858567252693,0.0188375,-0.111375,0.0853875
1679994870219,1174858569754524,0.0268125,-0.10725,0.0793375
1679994870221,1174858572256447,0.03575,-0.100375,0.0704
1679994870222,1174858574758524,0.0427625,-0.094325,0.0583
1679994870223,1174858577260447,0.0488125,-0.089375,0.0493625
1679994870226,1174858579762293,0.049775,-0.0812625,0.0463375
1679994870229,1174858582264361,0.0477125,-0.0732875,0.040425
1679994870231,1174858584766284,0.0477125,-0.0603625,0.0323125
1679994870232,1174858587268130,0.0488125,-0.050325,0.029424999
1679994870234,1174858589770284,0.0488125,-0.041249998,0.0264
1679994870237,1174858592272361,0.0457875,-0.0292875,0.017324999
1679994870239,1174858594774193,0.04675,-0.023375,0.0154
1679994870242,1174858597276116,0.0518375,-0.017324999,0.012375
1679994870245,1174858599778193,0.0528,-0.011275,0.0103124995
1679994870248,1174858602280040,0.054725,-0.0042625,0.0103124995
1679994870251,1174858604781977,0.0598125,6.875E-4,0.00935
1679994870253,1174858607284130,0.0617375,-2.75E-4,0.0053625
1679994870255,1174858609785977,0.0638,0.004675,0.0044
1679994870260,1174858612288054,0.0677875,0.0116875,-6.875E-4
1679994870261,1174858614789977,0.0708125,0.0116875,4.125E-4
1679994870263,1174858617291823,0.0748,0.010725,-6.875E-4
1679994870267,1174858619793900,0.077825,0.015675,-0.00165
1679994870269,1174858622295823,0.071775,0.021724999,-0.003575
1679994870271,1174858624797977,0.071775,0.0257125,-0.0077
1679994870272,1174858627299800,0.0757625,0.0306625,-0.009625
1679994870275,1174858629801877,0.07975,0.0367125,-0.0105875
1679994870278,1174858632303800,0.0818125,0.0397375,-0.0116875
1679994870280,1174858634805646,0.082775,0.04675,-0.01265
1679994870282,1174858637307765,0.0858,0.053625,-0.014575
1679994870286,1174858639809688,0.0897875,0.0606375,-0.0166375
1679994870290,1174858642311765,0.093775,0.0627,-0.0176
1679994870291,1174858644813688,0.099825,0.065725,-0.0196625
1679994870293,1174858647315544,0.106837496,0.0666875,-0.02365
1679994870295,1174858649817621,0.1087625,0.06875,-0.025575
1679994870297,1174858652319544,0.106837496,0.06875,-0.0297
1679994870300,1174858654821621,0.109725,0.070675,-0.0325875
1679994870302,1174858657323544,0.110825,0.06875,-0.0386375
1679994870307,1174858659825596,0.106837496,0.0666875,-0.0416625
1679994870309,1174858662327519,0.1087625,0.0636625,-0.0446875
1679994870311,1174858664829365,0.11275,0.053625,-0.0496375
1679994870312,1174858667331442,0.1117875,0.0496375,-0.0526625
1679994870315,1174858669833365,0.1148125,0.0407,-0.053625
1679994870318,1174858672335428,0.1188,0.034649998,-0.0545875
1679994870320,1174858674837351,0.117837496,0.0257125,-0.0576125
1679994870323,1174858677339428,0.1188,0.014712499,-0.0576125
1679994870327,1174858679841226,0.120725,0.00165,-0.0556875
1679994870329,1174858682343150,0.121825,-0.00935,-0.0545875
1679994870331,1174858684845226,0.1227875,-0.02035,-0.0576125
1679994870333,1174858687347073,0.1247125,-0.03025,-0.0606375
1679994870338,1174858689848981,0.126775,-0.04235,-0.0576125
1679994870341,1174858692351135,0.12979999,-0.052249998,-0.0576125
1679994870342,1174858694852981,0.1288375,-0.0653125,-0.0545875
1679994870343,1174858697355058,0.1307625,-0.077275,-0.0526625
1679994870345,1174858699856981,0.1307625,-0.0842875,-0.0545875
1679994870348,1174858702359039,0.132825,-0.094325,-0.056649998
1679994870350,1174858704860885,0.13475,-0.1043625,-0.0556875
1679994870352,1174858707362808,0.13475,-0.1093125,-0.0556875
1679994870355,1174858709864962,0.1368125,-0.111375,-0.059675
1679994870358,1174858712366808,0.137775,-0.11935,-0.0616
1679994870360,1174858714868871,0.142725,-0.12925,-0.0616
1679994870364,1174858717370794,0.1508375,-0.1373625,-0.069575
1679994870367,1174858719872640,0.1557875,-0.1373625,-0.0765875
1679994870368,1174858722374717,0.1637625,-0.143275,-0.0836
1679994870370,1174858724876635,0.1777875,-0.14533749,-0.08965
1679994870372,1174858727378712,0.1887875,-0.1502875,-0.0985875
1679994870375,1174858729880635,0.1958,-0.1502875,-0.1056
1679994870378,1174858732382712,0.2017125,-0.15235,-0.1126125
1679994870380,1174858734884567,0.2058375,-0.1502875,-0.1216875
1679994870383,1174858737386721,0.208725,-0.1463,-0.1266375
1679994870385,1174858739888567,0.2107875,-0.14025,-0.1376375
1679994870388,1174858742390490,0.2068,-0.132275,-0.1436875
1679994870390,1174858744892567,0.2017125,-0.13035,-0.152625
1679994870392,1174858747394409,0.198825,-0.1203125,-0.1606
1679994870395,1174858749896332,0.1918125,-0.10835,-0.1676125
1679994870398,1174858752398409,0.1918125,-0.09735,-0.1706375
1679994870402,1174858754900563,0.1887875,-0.083325,-0.1766875
1679994870403,1174858757402418,0.1857625,-0.0683375,-0.1786125
1679994870408,1174858759904342,0.1808125,-0.056375,-0.1837
1679994870410,1174858762406418,0.176825,-0.044275,-0.18865
1679994870412,1174858764908342,0.175725,-0.03135,-0.18865
1679994870413,1174858767410188,0.175725,-0.01925,-0.18865
1679994870415,1174858769912275,0.1747625,-0.00935,-0.1865875
1679994870417,1174858772414428,0.17379999,6.875E-4,-0.1876875
1679994870421,1174858774916275,0.1728375,0.01265,-0.1846625
1679994870424,1174858777418198,0.16775,0.0166375,-0.17765
1679994870425,1174858779920289,0.1637625,0.02365,-0.1755875
1679994870428,1174858782422135,0.159775,0.0336875,-0.1736625
1679994870430,1174858784924058,0.1607375,0.0367125,-0.1676125
1679994870432,1174858787425904,0.1557875,0.0446875,-0.1606
1679994870435,1174858789928039,0.1478125,0.045649998,-0.1546875
1679994870441,1174858792430116,0.1447875,0.0507375,-0.1456125
1679994870443,1174858794931962,0.137775,0.045649998,-0.1436875
1679994870444,1174858797433885,0.1357125,0.0407,-0.1376375
1679994870446,1174858799935962,0.1307625,0.0336875,-0.1326875
1679994870448,1174858802437909,0.12773749,0.0276375,-0.1276
1679994870449,1174858804939755,0.1247125,0.0196625,-0.125675
1679994870454,1174858807441909,0.1258125,0.0077,-0.12265
1679994870456,1174858809943971,0.12375,-0.001375,-0.1186625
1679994870459,1174858812445894,0.1188,-0.0143,-0.1166
1679994870460,1174858814947740,0.1087625,-0.03025,-0.11165
1679994870462,1174858817449817,0.1087625,-0.045375,-0.1106875
1679994870466,1174858819951740,0.106837496,-0.0573375,-0.1076625
1679994870469,1174858822453808,0.1027125,-0.067375,-0.1067
1679994870471,1174858824955731,0.099825,-0.0873125,-0.0996875
1679994870472,1174858827457577,0.10175,-0.1023,-0.1016125
1679994870477,1174858829959649,0.0977625,-0.113299996,-0.0985875
1679994870479,1174858832461572,0.0977625,-0.1252625,-0.097625
1679994870481,1174858834963419,0.09075,-0.14135,-0.097625
1679994870483,1174858837465496,0.09075,-0.15125,-0.095699996
1679994870485,1174858839967649,0.0917125,-0.160325,-0.092675
1679994870489,1174858842469530,0.0928125,-0.16335,-0.0906125
1679994870493,1174858844971453,0.0917125,-0.1703625,-0.08965
1679994870495,1174858847473530,0.0867625,-0.1793,-0.086625
1679994870496,1174858849975453,0.087725,-0.1793,-0.0875875
1679994870499,1174858852477338,0.0818125,-0.1793,-0.086625
1679994870501,1174858854979415,0.0787875,-0.1753125,-0.0856625
1679994870502,1174858857481569,0.0787875,-0.17325,-0.086625
1679994870506,1174858859983492,0.0757625,-0.16733749,-0.0875875
1679994870509,1174858862485338,0.0727375,-0.1593625,-0.0875875
1679994870510,1174858864987415,0.0677875,-0.15235,-0.0875875
1679994870514,1174858867489338,0.0617375,-0.14533749,-0.0847
1679994870517,1174858869991184,0.05775,-0.1282875,-0.0886875
1679994870518,1174858872493271,0.0528,-0.1123375,-0.0875875
1679994870521,1174858874995194,0.044825,-0.100375,-0.086625
1679994870524,1174858877497271,0.038775,-0.0803,-0.0856625
1679994870525,1174858879999194,0.0317625,-0.0622875,-0.0856625
1679994870528,1174858882501040,0.0257125,-0.0493625,-0.086625
1679994870530,1174858885003145,0.0237875,-0.03135,-0.0836
1679994870532,1174858887505068,0.0198,-0.0182875,-0.086625
1679994870535,1174858890006914,0.01375,-0.001375,-0.0875875
1679994870538,1174858892509068,0.0078375,0.0116875,-0.0886875
1679994870542,1174858895011169,0.0067375,0.02475,-0.0875875
1679994870543,1174858897513092,0.0037125,0.0367125,-0.0856625
1679994870545,1174858900014938,0.0037125,0.04675,-0.0886875
1679994870548,1174858902517015,0.00275,0.054725,-0.08965
1679994870552,1174858905018943,-0.0022,0.0617375,-0.086625
1679994870553,1174858907521020,-0.0031625,0.06765,-0.0836
1679994870556,1174858910022866,-0.0042625,0.0727375,-0.0847
1679994870558,1174858912524790,-0.0042625,0.0826375,-0.081675
1679994870560,1174858915026867,-0.005225,0.081675,-0.0776875
1679994870562,1174858917528819,-0.010175,0.07975,-0.0746625
1679994870565,1174858920030896,-0.0132,0.07975,-0.0746625
1679994870567,1174858922532819,-0.01925,0.0746625,-0.070675
1679994870570,1174858925034896,-0.0202125,0.073699996,-0.0655875
1679994870572,1174858927536819,-0.021175,0.06765,-0.0616
1679994870575,1174858930038665,-0.021175,0.065725,-0.0606375
1679994870578,1174858932540742,-0.0232375,0.056649998,-0.0576125
1679994870581,1174858935042665,-0.0262625,0.048675,-0.0545875
1679994870582,1174858937544752,-0.032175,0.037675,-0.0517
1679994870584,1174858940046675,-0.0342375,0.032725,-0.0496375
1679994870589,1174858942548521,-0.0342375,0.0276375,-0.045649998
1679994870591,1174858945050598,-0.0372625,0.0166375,-0.0446875
1679994870592,1174858947552511,-0.041249998,0.0086624995,-0.0416625
1679994870595,1174858950054357,-0.0452375,0.0067375,-0.037675
1679994870597,1174858952556434,-0.049225,-0.001375,-0.037675
1679994870599,1174858955058588,-0.049225,-0.006325,-0.034649998
1679994870602,1174858957560434,-0.0532125,-0.00825,-0.0336875
1679994870604,1174858960062367,-0.0562375,-0.015262499,-0.0297
1679994870607,1174858962564444,-0.054175,-0.015262499,-0.0276375
1679994870610,1174858965066367,-0.052249998,-0.0163625,-0.025575
1679994870613,1174858967568213,-0.0501875,-0.0182875,-0.0215875
1679994870615,1174858970070275,-0.0532125,-0.0182875,-0.02365
1679994870617,1174858972572429,-0.0572,-0.017324999,-0.0226875
1679994870620,1174858975074352,-0.0562375,-0.015262499,-0.0187
1679994870623,1174858977576198,-0.0562375,-0.0103124995,-0.0196625
