system_ts_ms, sensor_ts_ns, accX, accY, accZ
1680008826607,1188814960195968,5.7510004,4.74795,6.94005
1680008826608,1188814962698122,5.748,4.8460503,6.9210005
1680008826610,1188814965200276,5.58795,4.848,6.9280505
1680008826613,1188814967702416,5.54505,4.7689505,6.9139504
1680008826630,1188814970204646,5.50605,4.848,6.9360003
1680008826630,1188814972706800,5.41305,4.8460503,6.8370004
1680008826631,1188814975208877,5.54505,4.77705,6.84
1680008826631,1188814977711031,5.57805,4.7569504,7.18695
1680008826632,1188814980213185,5.4540005,4.7410502,7.1680503
1680008826633,1188814982715416,5.4630003,4.8679504,7.2130504
1680008826633,1188814985217493,5.47305,4.73295,7.14405
1680008826634,1188814987719723,5.5519505,4.70205,6.9280505
1680008826639,1188814990221886,5.65005,4.79295,6.8299503
1680008826640,1188814992724040,5.715,4.848,7.0309505
1680008826641,1188814995226194,5.6929502,4.8030005,6.94995
1680008826643,1188814997728348,5.88495,4.75005,7.0030503
1680008826645,1188815000230502,5.88705,4.7260504,6.97905
1680008826647,1188815002732905,5.8510504,4.6260004,7.0459504
1680008826650,1188815005235059,6.0040503,4.65,7.11495
1680008826655,1188815007737213,5.9329505,4.6330504,7.03905
1680008826658,1188815010239372,6.012,4.6860003,6.9210005
1680008826659,1188815012741526,6.0019503,4.70205,7.05105
1680008826661,1188815015243679,6.045,4.64505,7.0600505
1680008826664,1188815017745910,5.952,4.6860003,7.0030503
1680008826666,1188815020248064,5.9160004,4.6980004,7.0219502
1680008826671,1188815022750194,5.94,4.6399503,6.9810004
1680008826671,1188815025252348,5.925,4.6590004,7.017
1680008826673,1188815027754502,5.8939505,4.6210504,7.0459504
1680008826675,1188815030256655,5.91795,4.638,7.0600505
1680008826677,1188815032758732,5.8060503,4.662,7.0000505
1680008826679,1188815035260963,5.8560004,4.75005,7.0750504
1680008826683,1188815037763348,5.9110503,4.73295,7.02405
1680008826688,1188815040265502,5.91795,4.77705,7.0270505
1680008826688,1188815042767425,5.9539504,4.6540504,7.0650005
1680008826691,1188815045269589,5.82495,4.72095,7.0480504
1680008826694,1188815047771742,5.9209504,4.61595,7.00995
1680008826697,1188815050274127,5.82495,4.67595,7.1629505
1680008826698,1188815052776247,5.85795,4.7190003,7.0069504
1680008826700,1188815055278401,5.952,4.671,7.08405
1680008826704,1188815057780555,5.89905,4.7569504,7.0480504
1680008826705,1188815060282708,5.88705,4.67595,6.9979506
1680008826707,1188815062784862,5.808,4.7140503,6.9690003
1680008826710,1188815065287002,5.8969502,4.755,6.912
1680008826713,1188815067789233,5.925,4.7380505,7.0459504
1680008826715,1188815070291387,5.9110503,4.743,6.9760504
1680008826717,1188815072793541,5.88495,4.78095,6.873
1680008826722,1188815075295695,5.9209504,4.7380505,6.9640503
1680008826723,1188815077797843,5.8560004,4.7380505,6.91905
1680008826725,1188815080299997,5.87505,4.75995,6.8640003
1680008826729,1188815082802151,5.9040003,4.72095,6.9210005
1680008826731,1188815085304540,5.8699503,4.7569504,6.7849503
1680008826734,1188815087806694,5.95905,4.72905,6.9910502
1680008826738,1188815090308617,5.85405,4.755,6.8929505
1680008826739,1188815092810770,5.8440003,4.8360004,6.9360003
1680008826740,1188815095312924,5.9230504,4.7310004,6.90705
1680008826743,1188815097815290,5.83395,4.7980504,6.94995
1680008826745,1188815100317444,5.81505,4.7839503,7.05105
1680008826747,1188815102819598,5.88495,4.72905,6.9210005
1680008826750,1188815105321751,5.8369503,4.7569504,7.01205
1680008826757,1188815107823910,5.8110003,4.7689505,6.9640503
1680008826758,1188815110326064,5.8510504,4.72095,6.9430504
1680008826758,1188815112828218,5.9040003,4.6639504,6.9910502
1680008826760,1188815115330449,5.80305,4.66905,7.03905
1680008826763,1188815117832608,5.7960005,4.6590004,6.9880505
1680008826767,1188815120334762,5.808,4.7410502,7.0290003
1680008826773,1188815122836915,5.84205,4.61595,6.9810004
1680008826773,1188815125339069,5.85405,4.635,6.94995
1680008826773,1188815127841223,5.91795,4.7410502,7.0650005
1680008826776,1188815130343608,5.83395,4.7140503,6.9600005
1680008826778,1188815132845762,5.89905,4.6420503,6.9810004
1680008826780,1188815135347915,5.84595,4.6810503,7.0720506
1680008826783,1188815137849838,5.8320003,4.695,7.0290003
1680008826788,1188815140352016,5.8969502,4.7260504,7.077
1680008826788,1188815142854401,5.85405,4.6810503,6.9979506
1680008826790,1188815145356555,5.9350505,4.72905,7.1130004
1680008826793,1188815147858709,5.9490004,4.551,7.0980005
1680008826795,1188815150360878,5.85405,4.635,7.0669503
1680008826798,1188815152863031,6.0090003,4.5870004,7.0270505
1680008826799,1188815155365185,5.9659505,4.62795,7.1610003
1680008826806,1188815157867305,5.92995,4.6210504,7.1320505
1680008826807,1188815160369459,5.90595,4.61805,7.1460004
1680008826808,1188815162871690,5.9710503,4.611,7.08195
1680008826810,1188815165373844,5.9490004,4.6860003,7.1920505
1680008826813,1188815167875997,5.8699503,4.671,7.0339503
1680008826816,1188815170378123,5.85405,4.635,7.0600505
1680008826821,1188815172880277,5.81295,4.61595,7.0360503
1680008826822,1188815175382431,5.87505,4.73595,7.0339503
1680008826824,1188815177884585,5.84205,4.7569504,6.9979506
1680008826826,1188815180386969,5.8320003,4.72905,7.0360503
1680008826828,1188815182889137,5.83395,4.6519504,6.97905
1680008826831,1188815185391291,5.7889504,4.68795,7.017
1680008826834,1188815187893445,5.7889504,4.695,7.0309505
1680008826841,1188815190395599,5.7960005,4.7119503,6.9240003
1680008826841,1188815192897791,5.6910005,4.695,7.02405
1680008826842,1188815195399945,5.7310505,4.80795,6.8710504
1680008826844,1188815197902098,5.775,4.7239504,6.8179502
1680008826846,1188815200404329,5.80095,4.67595,7.0189505
1680008826848,1188815202906483,5.76,4.7070003,6.9210005
1680008826850,1188815205408560,5.78205,4.7310004,7.0669503
1680008826854,1188815207910714,5.90595,4.77705,7.0189505
1680008826856,1188815210412945,5.8489504,4.7260504,7.0309505
1680008826858,1188815212915084,5.9350505,4.767,6.8970003
1680008826860,1188815215417238,5.9350505,4.7190003,6.9330006
1680008826863,1188815217919392,5.952,4.7310004,6.9430504
1680008826866,1188815220421546,5.9710503,4.75995,6.9880505
1680008826868,1188815222923714,5.95905,4.671,6.912
1680008826872,1188815225425868,5.87295,4.767,6.9570003
1680008826873,1188815227928252,5.87505,4.7140503,6.9139504
1680008826875,1188815230430406,5.87505,4.74795,7.0339503
1680008826879,1188815232932555,5.88495,4.671,6.9619503
1680008826880,1188815235434709,5.8219504,4.743,7.0870504
1680008826883,1188815237936940,5.892,4.77405,6.9690003
1680008826888,1188815240439017,5.8180504,4.6470003,7.0290003
1680008826888,1188815242941247,5.748,4.755,7.00995
1680008826890,1188815245443387,5.77005,4.6519504,7.00995
1680008826896,1188815247945464,5.8630505,4.69005,6.9979506
1680008826897,1188815250447618,5.9040003,4.7260504,7.0000505
1680008826898,1188815252949849,5.94495,4.7140503,7.00995
1680008826900,1188815255451989,5.82705,4.6860003,6.9760504
1680008826906,1188815257954142,5.95695,4.81005,6.8710504
1680008826907,1188815260456296,5.8680005,4.73295,6.9210005
1680008826908,1188815262958450,5.9020505,4.6590004,7.0290003
1680008826910,1188815265460604,5.973,4.7530503,6.9979506
1680008826913,1188815267962753,5.94495,4.6639504,6.9670506
1680008826917,1188815270465138,5.8969502,4.7070003,6.9690003
1680008826923,1188815272967291,5.9089503,4.6810503,7.1320505
1680008826924,1188815275469449,5.85405,4.5799503,7.1680503
1680008826925,1188815277971603,5.9880004,4.7310004,7.03905
1680008826927,1188815280473757,5.8969502,4.67595,7.14405
1680008826929,1188815282975911,5.9280005,4.7650504,7.1269503
1680008826930,1188815285478142,6.0019503,4.72905,7.08195
1680008826933,1188815287980199,5.9089503,4.6639504,7.1179504
1680008826938,1188815290482430,5.9419503,4.7239504,7.0579505
1680008826939,1188815292984584,5.8969502,4.683,7.0650005
1680008826940,1188815295486661,5.985,4.74795,7.0150504
1680008826943,1188815297988781,5.925,4.6330504,6.94995
1680008826946,1188815300490935,5.94705,4.74795,6.9910502
1680008826947,1188815302993396,5.9209504,4.671,7.0530005
1680008826950,1188815305495319,5.8939505,4.662,6.9760504
1680008826955,1188815307997435,5.88705,4.7070003,6.91905
1680008826957,1188815310499589,5.87295,4.63005,7.1080503
1680008826958,1188815313001743,5.91795,4.72905,6.9949503
1680008826960,1188815315503897,5.8660502,4.71705,6.9739504
1680008826964,1188815318006281,5.94495,4.7410502,7.0939503
1680008826966,1188815320508415,5.88705,4.755,7.0290003
1680008826967,1188815323010569,5.8609505,4.6420503,6.9910502
1680008826972,1188815325512723,5.8510504,4.81995,7.0069504
1680008826973,1188815328014877,5.8969502,4.743,6.8760004
1680008826976,1188815330517079,5.892,4.7310004,6.9240003
1680008826978,1188815333019309,5.985,4.70205,6.9930005
1680008826981,1188815335521463,5.8660502,4.61595,6.9040504
1680008826984,1188815338023617,5.83395,4.6980004,6.9310503
1680008826988,1188815340525771,6.0000005,4.611,6.9480004
1680008826989,1188815343027915,5.95905,4.6860003,7.0150504
1680008826992,1188815345529992,5.8969502,4.69005,7.017
1680008826994,1188815348032146,5.8609505,4.70505,6.9210005
1680008826996,1188815350534607,5.9490004,4.64505,6.9949503
1680008826998,1188815353036525,5.8680005,4.6740003,6.97905
1680008827000,1188815355538679,5.89905,4.6980004,6.972
1680008827004,1188815358040833,5.8699503,4.7070003,6.972
1680008827005,1188815360542987,5.84595,4.65705,6.9550505
1680008827007,1188815363045141,5.91795,4.7839503,7.017
1680008827011,1188815365547516,5.8680005,4.67805,7.0650005
1680008827013,1188815368049670,5.81295,4.671,7.0459504
1680008827015,1188815370551824,5.8180504,4.6660504,7.0650005
1680008827018,1188815373053978,5.9209504,4.7239504,7.0669503
1680008827020,1188815375556117,5.84205,4.7689505,6.9600005
1680008827024,1188815378058271,5.84595,4.66905,7.0459504
1680008827026,1188815380560424,5.8680005,4.5990005,7.1340003
1680008827030,1188815383062655,5.808,4.8289504,7.017
1680008827031,1188815385564809,5.8300505,4.671,7.0870504
1680008827034,1188815388066963,5.9160004,4.6210504,7.0459504
1680008827036,1188815390569117,5.88,4.64505,7.04295
1680008827038,1188815393071194,5.88,4.6540504,7.01205
1680008827040,1188815395573424,5.8390503,4.7239504,7.0290003
1680008827044,1188815398075809,5.8699503,4.55595,7.089
1680008827046,1188815400577963,5.9689503,4.7070003,6.9550505
1680008827048,1188815403079886,5.9370003,4.6140003,6.9859505
1680008827050,1188815405582040,5.9280005,4.683,6.8569503
1680008827053,1188815408084194,5.892,4.7449503,6.94005
1680008827056,1188815410586348,5.9089503,4.79295,7.0150504
1680008827058,1188815413088501,5.8780503,4.70895,6.9859505
1680008827060,1188815415590886,5.8369503,4.80495,6.97905
1680008827064,1188815418093060,5.85405,4.7380505,6.94995
1680008827068,1188815420595214,5.85405,4.7260504,7.0339503
1680008827069,1188815423097368,5.8390503,4.62795,7.0960503
1680008827070,1188815425599540,5.8969502,4.7140503,7.0909505
1680008827073,1188815428101694,5.6910005,4.7190003,6.9949503
1680008827075,1188815430603925,5.8180504,4.69995,7.0290003
1680008827078,1188815433106079,5.808,4.683,7.0150504
1680008827080,1188815435608233,5.7790504,4.6260004,6.9910502
1680008827083,1188815438110406,5.88,4.6980004,7.01205
1680008827085,1188815440612559,5.787,4.755,7.0189505
1680008827088,1188815443114713,5.8300505,4.6810503,7.0480504
1680008827090,1188815445617098,5.8780503,4.66905,7.1130004
1680008827094,1188815448119257,5.92995,4.69995,7.0960503
1680008827096,1188815450621180,5.8819504,4.671,7.0720506
1680008827098,1188815453123334,5.91795,4.7380505,7.017
1680008827100,1188815455625718,5.8660502,4.671,7.0309505
1680008827105,1188815458127646,5.9160004,4.61595,7.02405
1680008827107,1188815460629800,5.9020505,4.6590004,6.94995
1680008827109,1188815463132185,5.87295,4.69995,7.00995
1680008827110,1188815465634339,5.8680005,4.6519504,6.9910502
1680008827113,1188815468136493,5.8939505,4.7260504,7.0669503
1680008827115,1188815470638655,5.87505,4.67595,7.1389503
1680008827118,1188815473140809,5.8440003,4.635,7.0789504
1680008827120,1188815475642963,5.80095,4.671,7.08405
1680008827123,1188815478145194,5.84595,4.671,6.9430504
1680008827126,1188815480647363,5.75295,4.695,7.14195
1680008827127,1188815483149517,5.8440003,4.7410502,7.0270505
1680008827130,1188815485651670,5.9280005,4.7860503,7.0360503
1680008827133,1188815488153824,5.8489504,4.70895,6.94005
1680008827136,1188815490655998,5.9350505,4.6980004,6.9280505
1680008827138,1188815493158152,5.925,4.6069503,7.0650005
1680008827142,1188815495660537,5.925,4.7380505,6.9979506
1680008827144,1188815498162460,5.85795,4.7119503,6.9690003
1680008827146,1188815500664796,5.91795,4.59,7.0360503
1680008827148,1188815503166950,5.9350505,4.70505,6.9430504
1680008827150,1188815505669104,5.8110003,4.6660504,6.9979506
1680008827154,1188815508171027,5.9089503,4.76205,7.0270505
1680008827155,1188815510673412,5.85405,4.671,6.9949503
1680008827157,1188815513175662,5.9230504,4.64505,6.984
1680008827160,1188815515677738,5.7720003,4.75005,7.005
1680008827163,1188815518179892,5.83395,4.7689505,7.1250005
1680008827165,1188815520682123,5.85795,4.69995,6.945
1680008827168,1188815523184267,5.88705,4.6980004,7.0669503
1680008827170,1188815525686344,5.84595,4.6660504,7.0650005
1680008827173,1188815528188498,5.9539504,4.59705,6.9859505
1680008827176,1188815530690729,5.87505,4.70895,6.93795
1680008827180,1188815533192887,5.9209504,4.69995,6.91905
1680008827182,1188815535694964,5.88,4.7140503,6.94005
1680008827184,1188815538197195,5.8680005,4.7959504,7.0069504
1680008827186,1188815540699349,5.88705,4.5799503,6.9240003
1680008827188,1188815543201503,5.90595,4.7239504,6.9810004
1680008827190,1188815545703676,5.7889504,4.7410502,6.97905
1680008827194,1188815548205829,5.913,4.6330504,7.08405
1680008827196,1188815550707983,5.9209504,4.68795,7.0150504
1680008827198,1188815553210368,5.83395,4.7569504,7.11495
1680008827200,1188815555712541,5.8510504,4.7530503,7.0630503
1680008827204,1188815558214695,5.8780503,4.5990005,7.0270505
1680008827206,1188815560716849,5.9110503,4.662,7.0630503
1680008827208,1188815563219002,5.82,4.6540504,6.9810004
1680008827210,1188815565721156,5.84595,4.76205,6.9979506
1680008827214,1188815568223373,5.8560004,4.72905,7.1080503
1680008827218,1188815570725527,5.84205,4.66905,7.0150504
1680008827220,1188815573227681,5.9040003,4.65705,7.05105
1680008827221,1188815575729782,5.8900504,4.602,6.97905
1680008827225,1188815578232012,5.91795,4.6260004,6.9880505
1680008827227,1188815580734166,5.9490004,4.7410502,6.912
1680008827229,1188815583236243,5.9280005,4.671,6.9090004
1680008827248,1188815585738460,5.9110503,4.695,6.9859505
1680008827248,1188815588240614,5.85405,4.7310004,6.9859505
1680008827248,1188815590742998,5.9490004,4.75995,7.0600505
1680008827249,1188815593244922,5.92995,4.6639504,7.01205
1680008827249,1188815595747075,5.7990003,4.73295,7.077
1680008827249,1188815598249195,5.95695,4.67805,7.0290003
1680008827249,1188815600751580,5.9209504,4.65,7.1299505
1680008827249,1188815603253734,5.9209504,4.66905,7.0339503
1680008827250,1188815605755888,5.92995,4.67805,7.00995
1680008827255,1188815608258022,5.9020505,4.77705,6.9670506
1680008827257,1188815610760176,5.9760003,4.64505,7.01205
1680008827260,1188815613262330,5.85795,4.7310004,7.0459504
1680008827261,1188815615764484,5.81505,4.64505,6.9619503
1680008827264,1188815618266715,5.84595,4.7449503,7.0650005
1680008827266,1188815620768859,5.9490004,4.6980004,7.0600505
1680008827267,1188815623271012,5.87295,4.6930504,7.03905
1680008827271,1188815625773166,5.85795,4.70205,7.0309505
1680008827274,1188815628275320,5.81505,4.65,7.02405
1680008827276,1188815630777397,5.84595,4.7239504,6.9949503
1680008827278,1188815633279647,5.9370003,4.66905,6.9360003
1680008827280,1188815635781801,5.9539504,4.68795,6.95205
1680008827284,1188815638284185,5.9419503,4.743,6.9810004
1680008827287,1188815640786127,5.8390503,4.81005,6.9810004
1680008827289,1188815643288281,5.8300505,4.7140503,6.984
1680008827293,1188815645790435,5.87505,4.8460503,7.005
1680008827295,1188815648292820,5.808,4.6590004,7.02405
1680008827297,1188815650794989,5.787,4.73295,6.9240003
1680008827300,1188815653297142,5.8180504,4.7689505,7.0870504
1680008827302,1188815655799296,5.8819504,4.69005,7.0360503
1680008827304,1188815658301450,5.78205,4.7380505,6.9979506
1680008827306,1188815660803604,5.8180504,4.6420503,7.0189505
1680008827308,1188815663305758,5.85405,4.68795,6.7990503
1680008827311,1188815665807989,5.9020505,4.6330504,6.87795
1680008827314,1188815668310142,5.89905,4.671,6.9760504
1680008827316,1188815670812296,5.9209504,4.6810503,7.0480504
1680008827319,1188815673314488,5.94705,4.6590004,6.9739504
1680008827321,1188815675816642,5.88705,4.6210504,7.0189505
1680008827324,1188815678318719,5.94495,4.662,6.9090004
1680008827327,1188815680820950,5.81295,4.6540504,7.0069504
1680008827330,1188815683323329,5.8969502,4.6540504,7.0630503
1680008827332,1188815685825483,5.9280005,4.66905,6.9880505
1680008827335,1188815688327406,5.89905,4.63005,6.9090004
1680008827338,1188815690829560,5.8630505,4.66905,6.94995
1680008827339,1188815693331714,5.7840004,4.6420503,7.0669503
1680008827342,1188815695834099,5.8390503,4.671,6.9210005
1680008827344,1188815698336252,5.8369503,4.59705,7.05495
1680008827347,1188815700838406,5.913,4.69995,6.9979506
1680008827349,1188815703340560,5.9230504,4.7070003,6.9310503
1680008827351,1188815705842710,5.90595,4.6090503,7.05495
1680008827355,1188815708344864,5.8900504,4.671,6.9859505
1680008827356,1188815710847018,5.925,4.68795,7.0000505
1680008827360,1188815713349248,5.8630505,4.6980004,6.9690003
1680008827362,1188815715851387,5.808,4.7260504,7.0669503
1680008827363,1188815718353541,5.7720003,4.7530503,7.077
1680008827367,1188815720855695,5.87505,4.6860003,7.0720506
1680008827369,1188815723357849,5.85795,4.6639504,7.005
1680008827371,1188815725859979,5.8440003,4.65705,7.0000505
1680008827374,1188815728362133,5.85795,4.635,6.9640503
1680008827377,1188815730864517,5.8320003,4.6590004,7.08195
1680008827379,1188815733366671,5.82495,4.6639504,7.017
1680008827380,1188815735868594,5.84595,4.6140003,6.9550505
1680008827384,1188815738370763,5.8320003,4.6260004,6.9430504
1680008827386,1188815740872917,5.8680005,4.70505,7.06995
1680008827388,1188815743375071,5.8390503,4.6810503,7.01205
1680008827390,1188815745877455,5.8510504,4.67595,7.0069504
1680008827393,1188815748379604,5.7769504,4.6540504,6.9949503
1680008827395,1188815750881758,5.8510504,4.65,6.9550505
1680008827398,1188815753383912,5.98995,4.6330504,7.0960503
1680008827400,1188815755886066,5.8699503,4.7569504,7.0579505
1680008827405,1188815758388220,5.9370003,4.6980004,7.0960503
1680008827407,1188815760890450,5.9230504,4.6860003,7.0579505
1680008827409,1188815763392604,5.8510504,4.7070003,6.9690003
1680008827411,1188815765894758,5.8819504,4.6540504,6.972
1680008827413,1188815768396926,5.91795,4.6860003,6.984
1680008827416,1188815770899080,5.9280005,4.61805,6.97905
1680008827418,1188815773401234,5.88705,4.683,7.06995
1680008827420,1188815775903311,5.925,4.72095,7.1179504
1680008827424,1188815778405782,5.8320003,4.69995,7.0290003
1680008827426,1188815780907936,5.87505,4.7959504,7.1250005
1680008827428,1188815783410090,5.9040003,4.72095,6.9949503
1680008827430,1188815785912013,5.87505,4.6590004,7.1130004
1680008827434,1188815788414181,5.81505,4.6590004,7.0270505
1680008827435,1188815790916335,5.89905,4.7910004,6.91905
1680008827438,1188815793418719,5.8390503,4.6860003,7.08405
1680008827442,1188815795920873,5.8819504,4.73595,7.00995
1680008827444,1188815798423032,5.9089503,4.6260004,7.0650005
1680008827447,1188815800925186,5.9209504,4.70895,7.0219502
1680008827449,1188815803427417,5.7790504,4.72905,7.0750504
1680008827450,1188815805929570,5.8560004,4.65,7.005
1680008827454,1188815808431647,5.9089503,4.6810503,7.1340003
1680008827456,1188815810933854,5.9040003,4.7070003,7.0480504
1680008827458,1188815813436008,5.8969502,4.70205,7.0290003
1680008827460,1188815815938162,5.8630505,4.6980004,6.9619503
1680008827463,1188815818440239,5.85405,4.65705,6.9760504
1680008827465,1188815820942470,5.8939505,4.6639504,6.9600005
1680008827468,1188815823444628,5.7790504,4.6980004,6.9240003
1680008827470,1188815825947013,5.94,4.77705,6.9760504
1680008827473,1188815828448936,5.8900504,4.7569504,7.0150504
1680008827476,1188815830951090,5.94495,4.695,7.0189505
1680008827479,1188815833453228,5.87295,4.61805,7.0480504
1680008827481,1188815835955612,5.8609505,4.6639504,6.9480004
1680008827484,1188815838457766,5.8440003,4.7980504,6.9949503
1680008827486,1188815840959920,5.91795,4.68795,7.05105
1680008827488,1188815843462074,5.8369503,4.6590004,7.0630503
1680008827490,1188815845964228,5.82705,4.78905,7.0650005
1680008827493,1188815848466382,5.84595,4.755,7.15605
1680008827496,1188815850968612,5.78205,4.67805,6.9690003
1680008827498,1188815853470766,5.8609505,4.6590004,7.1059504
1680008827500,1188815855972920,5.8819504,4.72905,6.9739504
1680008827503,1188815858475093,5.80095,4.69995,7.1269503
1680008827505,1188815860977247,5.80305,4.6519504,7.01205
1680008827508,1188815863479401,5.80095,4.6519504,7.21605
1680008827511,1188815865981478,5.8180504,4.755,6.8950505
1680008827513,1188815868483718,5.8369503,4.67805,7.0909505
1680008827517,1188815870985872,5.78205,4.671,7.0480504
1680008827519,1188815873488257,5.80095,4.7689505,7.0579505
1680008827522,1188815875990185,5.8560004,4.7790003,7.0360503
1680008827525,1188815878492339,5.8060503,4.6540504,7.0309505
1680008827527,1188815881009262,5.8680005,4.662,7.0600505
1680008827529,1188815883496877,5.8219504,4.6590004,7.0960503
1680008827531,1188815885999031,5.8440003,4.5919504,7.0980005
1680008827534,1188815888501213,5.8440003,4.72095,7.01205
1680008827537,1188815891003367,5.8300505,4.70205,6.984
1680008827539,1188815893505521,5.9370003,4.68795,7.0270505
1680008827540,1188815896007675,5.9350505,4.6980004,6.9240003
1680008827544,1188815898509848,5.973,4.7719502,7.017
1680008827546,1188815901012079,5.9419503,4.683,7.0000505
1680008827548,1188815903514156,5.81505,4.7410502,7.0480504
1680008827551,1188815906016387,5.9110503,4.683,7.1340003
1680008827555,1188815908518550,5.964,4.6860003,6.9949503
1680008827557,1188815911020704,5.9040003,4.7239504,7.0960503
1680008827559,1188815913522781,5.94,4.77405,6.9619503
1680008827561,1188815916025011,5.8699503,4.7530503,7.02405
1680008827564,1188815918527165,5.973,4.72905,6.9690003
1680008827566,1188815921029531,5.8969502,4.72095,6.97905
1680008827568,1188815923531454,5.9209504,4.6660504,6.90705
1680008827570,1188815926033608,5.9350505,4.5750003,6.95205
1680008827573,1188815928535762,5.9350505,4.70205,6.9600005
1680008827576,1188815931037939,5.9370003,4.67595,7.0459504
1680008827578,1188815933540324,5.8180504,4.6540504,7.04295
1680008827580,1188815936042478,5.8900504,4.70205,6.9880505
1680008827583,1188815938544632,5.8560004,4.683,7.06995
1680008827585,1188815941046786,5.85405,4.602,7.0480504
1680008827588,1188815943548944,5.82495,4.7689505,7.0000505
1680008827592,1188815946051098,5.80095,4.69995,6.972
1680008827594,1188815948553329,5.89905,4.72095,7.1370006
1680008827596,1188815951055483,5.9209504,4.70205,6.984
1680008827598,1188815953557642,5.8939505,4.66905,6.9
1680008827600,1188815956059796,5.8900504,4.7070003,6.9979506
1680008827603,1188815958561949,5.8390503,4.70205,6.9930005
1680008827605,1188815961064026,5.94,4.7190003,7.0270505
1680008827608,1188815963566257,5.8300505,4.6930504,6.9259505
1680008827610,1188815966068396,5.9040003,4.6860003,7.0579505
1680008827613,1188815968570781,5.8900504,4.73595,7.1200504
1680008827616,1188815971072704,5.8819504,4.67805,7.00995
1680008827618,1188815973574858,5.9490004,4.69005,6.945
1680008827620,1188815976077016,5.9710503,4.69995,7.01205
1680008827624,1188815978579170,5.8609505,4.70505,7.0650005
1680008827627,1188815981081555,5.9020505,4.7239504,7.0189505
1680008827630,1188815983583709,5.9280005,4.65,6.97905
1680008827632,1188815986085863,5.997,4.7140503,6.9760504
1680008827635,1188815988588016,5.9539504,4.77705,6.8929505
1680008827637,1188815991090170,5.9160004,4.6980004,6.9480004
1680008827639,1188815993592324,5.8699503,4.6930504,6.945
1680008827641,1188815996094560,5.95695,4.6980004,6.9139504
1680008827644,1188815998596714,5.9110503,4.6420503,6.9
1680008827645,1188816001098868,5.9350505,4.7140503,6.8899503
1680008827647,1188816003601021,5.91795,4.7140503,7.0530005
1680008827650,1188816006103175,5.9280005,4.7569504,6.972
1680008827653,1188816008605266,5.8320003,4.6980004,7.0150504
1680008827656,1188816011107420,5.8489504,4.72095,6.97905
1680008827658,1188816013609651,5.8219504,4.6740003,6.9550505
1680008827660,1188816016111805,5.8440003,4.65,6.972
1680008827663,1188816018613954,5.75295,4.73295,7.0150504
1680008827667,1188816021116107,5.787,4.635,7.017
1680008827668,1188816023618261,5.808,4.6860003,6.9550505
1680008827670,1188816026120415,5.81295,4.7449503,7.1059504
1680008827674,1188816028622781,5.8390503,4.7190003,6.9600005
1680008827676,1188816031124935,5.88705,4.6980004,7.0410004
1680008827678,1188816033627088,5.8660502,4.7839503,7.005
1680008827680,1188816036129242,5.87505,4.7380505,6.9360003
1680008827683,1188816038631401,5.8390503,4.68795,7.077
1680008827686,1188816041133555,5.8609505,4.65,7.0530005
1680008827688,1188816043635786,5.82495,4.71705,7.11495
1680008827690,1188816046137940,5.81295,4.7239504,7.03905
1680008827693,1188816048640103,5.8110003,4.8120003,6.9019504
1680008827696,1188816051142256,5.81505,4.65705,7.122
1680008827698,1188816053644410,5.8300505,4.7260504,7.0789504
1680008827701,1188816056146487,5.8660502,4.64505,6.86595
1680008827705,1188816058648632,5.80095,4.6519504,7.0150504
1680008827706,1188816061150863,5.8510504,4.7140503,6.9600005
1680008827709,1188816063653017,5.8660502,4.671,7.0600505
1680008827710,1188816066155170,5.85405,4.6980004,7.122
1680008827713,1188816068657324,5.8300505,4.6260004,7.02405
1680008827715,1188816071159459,5.8900504,4.72095,7.1130004
1680008827718,1188816073661613,5.8219504,4.6519504,7.00995
1680008827720,1188816076163998,5.7910504,4.6210504,6.9670506
1680008827723,1188816078666152,5.88495,4.70895,7.01205
1680008827726,1188816081168286,5.8819504,4.6660504,6.9880505
1680008827728,1188816083670440,5.8510504,4.69005,7.0270505
1680008827731,1188816086172594,5.8390503,4.7410502,6.9910502
1680008827734,1188816088674748,5.9539504,4.68795,7.0219502
1680008827736,1188816091176921,5.87295,4.7260504,6.984
1680008827738,1188816093679075,5.8680005,4.65705,6.9600005
1680008827742,1188816096181228,5.892,4.602,6.9859505
1680008827745,1188816098683382,5.8300505,4.65,7.077
1680008827746,1188816101185507,5.8489504,4.68795,7.0870504
1680008827748,1188816103687738,5.9490004,4.65705,7.00995
1680008827750,1188816106189892,5.9610004,4.67595,7.0360503
1680008827753,1188816108692046,5.9280005,4.70895,7.0669503
1680008827755,1188816111194200,5.8660502,4.72905,7.02405
1680008827758,1188816113696353,5.91795,4.7190003,7.0030503
1680008827760,1188816116198507,5.9209504,4.67805,7.077
1680008827763,1188816118700892,5.85405,4.623,7.122
1680008827765,1188816121203046,5.82,4.683,7.0030503
1680008827768,1188816123704955,5.8320003,4.6860003,7.077
1680008827770,1188816126207109,5.8900504,4.635,6.9949503
1680008827773,1188816128709262,5.8440003,4.63005,7.15395
1680008827776,1188816131211647,5.85405,4.6810503,7.04295
1680008827780,1188816133713575,5.8560004,4.6069503,7.0530005
1680008827781,1188816136215960,5.8510504,4.7119503,7.1509504
1680008827784,1188816138718114,5.81295,4.70505,6.9690003
1680008827786,1188816141220268,5.85405,4.70505,7.0069504
1680008827788,1188816143722421,5.9089503,4.6860003,6.9810004
1680008827790,1188816146224546,5.8819504,4.7239504,7.0150504
1680008827794,1188816148726700,5.8699503,4.72095,7.04295
1680008827796,1188816151228931,5.9230504,4.7449503,6.9910502
1680008827798,1188816153731085,5.8180504,4.755,6.9810004
1680008827800,1188816156233229,5.88,4.7839503,7.0309505
1680008827804,1188816158735382,5.8630505,4.75995,7.03905
1680008827805,1188816161237536,5.91795,4.767,6.9430504
1680008827808,1188816163739690,5.8609505,4.66905,6.9760504
1680008827811,1188816166242061,5.85405,4.65,7.005
1680008827813,1188816168744215,5.85405,4.7260504,7.0410004
1680008827818,1188816171246138,5.79405,4.6980004,7.0579505
1680008827820,1188816173748292,5.8660502,4.755,7.1610003
1680008827821,1188816176250671,5.9020505,4.6420503,7.0579505
1680008827824,1188816178752825,5.83395,4.7239504,7.077
1680008827827,1188816181254748,5.81295,4.67805,6.93795
1680008827829,1188816183757133,5.7889504,4.76205,7.0290003
1680008827831,1188816186259287,5.80095,4.61805,7.1800504
1680008827834,1188816188761440,5.9089503,4.7380505,7.1509504
1680008827836,1188816191263594,5.87505,4.73595,7.0189505
1680008827838,1188816193765748,5.77005,4.70505,6.984
1680008827840,1188816196267902,5.8300505,4.7239504,7.0410004
1680008827843,1188816198770143,5.8609505,4.74795,7.05495
1680008827846,1188816201272297,5.9110503,4.70205,7.0030503
1680008827848,1188816203774450,5.9280005,4.7260504,7.0939503
1680008827851,1188816206276604,5.8630505,4.75995,6.9640503
1680008827855,1188816208778738,5.8660502,4.79295,7.1130004
1680008827866,1188816211280892,5.88705,4.6330504,7.017
1680008827866,1188816213783046,5.8320003,4.73295,6.9910502
1680008827867,1188816216285430,5.808,4.65705,7.04295
1680008827867,1188816218787354,5.83395,4.7070003,7.0290003
1680008827867,1188816221289498,5.8510504,4.6330504,6.9810004
1680008827868,1188816223791652,5.8489504,4.6639504,7.0219502
1680008827870,1188816226293806,5.89905,4.68795,7.0189505
1680008827873,1188816228795960,5.81505,4.6420503,7.0669503
1680008827876,1188816231298345,5.84595,4.70205,7.1130004
1680008827878,1188816233800478,5.84595,4.6740003,6.9619503
1680008827881,1188816236302632,5.748,4.6980004,7.0480504
1680008827884,1188816238804786,5.8900504,4.72095,7.0000505
1680008827886,1188816241306940,5.8939505,4.6639504,7.01205
1680008827888,1188816243809104,5.84205,4.66905,7.0030503
1680008827892,1188816246311258,5.8900504,4.68795,7.0789504
1680008827895,1188816248813488,5.8560004,4.6590004,7.0360503
1680008827897,1188816251315642,5.9040003,4.67805,7.11495
1680008827899,1188816253817810,5.85405,4.70505,7.05105
1680008827901,1188816256319964,5.8609505,4.671,7.122
1680008827904,1188816258822041,5.87505,4.6330504,7.0069504
1680008827906,1188816261324272,5.8300505,4.72905,6.945
1680008827908,1188816263826656,5.91795,4.7140503,6.9
1680008827912,1188816266328820,5.8939505,4.72095,7.1299505
1680008827913,1188816268830743,5.7889504,4.7070003,6.9810004
1680008827915,1188816271332897,5.89905,4.7070003,7.0069504
1680008827918,1188816273835051,5.7910504,4.623,6.9640503
1680008827920,1188816276337205,5.8510504,4.63005,7.0480504
1680008827923,1188816278839589,5.8510504,4.6590004,6.94995
1680008827926,1188816281341743,5.8699503,4.5919504,7.0000505
1680008827930,1188816283843897,5.787,4.683,7.0339503
1680008827931,1188816286346051,5.787,4.638,6.9760504
1680008827934,1188816288848205,5.9020505,4.6399503,6.9880505
1680008827937,1188816291350359,5.87505,4.67805,6.9760504
1680008827939,1188816293852513,5.8660502,4.6860003,7.1250005
1680008827941,1188816296354743,5.85405,4.67805,7.0480504
1680008827944,1188816298856907,5.925,4.7239504,7.02405
1680008827946,1188816301359061,5.88,4.6860003,7.0600505
1680008827948,1188816303861215,5.87505,4.7260504,7.0750504
1680008827951,1188816306363292,5.9089503,4.6590004,6.9979506
1680008827954,1188816308865436,5.90595,4.7410502,7.0189505
1680008827955,1188816311367897,5.89905,4.7910004,7.05495
1680008827958,1188816313870051,5.78205,4.743,7.05495
1680008827960,1188816316371974,5.9110503,4.662,6.912
1680008827963,1188816318874128,5.8699503,4.72905,7.0650005
1680008827967,1188816321376292,5.85795,4.6069503,6.9210005
1680008827969,1188816323878446,5.8320003,4.743,7.0069504
1680008827971,1188816326380600,5.8660502,4.75995,7.0290003
1680008827974,1188816328882984,5.84595,4.6860003,7.1460004
1680008827977,1188816331385175,5.8510504,4.7140503,7.0980005
1680008827978,1188816333887329,5.8560004,4.70505,6.9810004
1680008827980,1188816336389483,5.84595,4.695,7.05495
1680008827983,1188816338891637,5.7630005,4.77405,7.0189505
1680008827985,1188816341393776,5.8440003,4.72905,7.0219502
1680008827988,1188816343895930,5.85405,4.671,7.1080503
1680008827990,1188816346398161,5.85795,4.67805,7.0410004
1680008827994,1188816348900315,5.84595,4.662,6.9949503
1680008827995,1188816351402454,5.8969502,4.6660504,7.0870504
1680008827998,1188816353904531,5.8680005,4.683,7.0960503
1680008828001,1188816356406685,5.9280005,4.6930504,7.0630503
1680008828005,1188816358908915,5.913,4.6860003,6.9880505
1680008828007,1188816361411064,5.91795,4.755,6.9859505
1680008828009,1188816363913218,5.83395,4.65,6.9600005
1680008828011,1188816366415372,5.8609505,4.67805,7.0650005
1680008828014,1188816368917526,5.8660502,4.6810503,6.94005
1680008828016,1188816371419910,5.81295,4.6470003,6.91905
1680008828018,1188816373922064,5.8660502,4.7650504,7.08405
1680008828021,1188816376423987,5.83395,4.72095,7.1080503
1680008828024,1188816378926141,5.79405,4.6420503,7.0069504
1680008828027,1188816381428526,5.8390503,4.6399503,7.0150504
1680008828029,1188816383930714,5.82495,4.72905,6.95205
1680008828031,1188816386432867,5.7510004,4.78095,6.9240003
1680008828034,1188816388935021,5.8609505,4.671,6.9160504
1680008828036,1188816391437175,5.82,4.67805,7.0480504
1680008828038,1188816393939315,5.8219504,4.74795,7.0360503
1680008828042,1188816396441469,5.87505,4.671,7.0270505
1680008828045,1188816398943623,5.7769504,4.74795,7.05495
1680008828047,1188816401445854,5.82495,4.7410502,6.9880505
1680008828049,1188816403948031,5.8939505,4.6860003,6.9670506
1680008828051,1188816406450185,5.8609505,4.7650504,6.9690003
1680008828053,1188816408952339,5.8680005,4.70505,6.972
1680008828056,1188816411454493,5.85795,4.70205,7.00995
1680008828058,1188816413956647,5.87295,4.6260004,6.9880505
1680008828060,1188816416458801,5.9040003,4.70205,7.089
1680008828063,1188816418961185,5.8660502,4.7310004,6.9979506
1680008828066,1188816421463339,5.91795,4.7260504,7.1200504
1680008828068,1188816423965493,5.82,4.6860003,6.94005
1680008828071,1188816426467401,5.8440003,4.602,7.0669503
1680008828074,1188816428969786,5.90595,4.66905,6.9550505
1680008828076,1188816431471940,5.88495,4.6639504,7.0909505
1680008828080,1188816433974170,5.8969502,4.6470003,7.0459504
1680008828081,1188816436476218,5.94495,4.70505,6.94995
1680008828084,1188816438978372,5.8630505,4.7449503,6.9
1680008828086,1188816441480526,5.85405,4.635,7.0339503
1680008828088,1188816443982680,5.84595,4.662,7.0579505
1680008828091,1188816446484834,5.9610004,4.6420503,6.9880505
1680008828094,1188816448987006,5.8680005,4.611,7.0459504
1680008828097,1188816451489237,5.9370003,4.7140503,6.94995
1680008828098,1188816453991391,6.0160503,4.65,7.0339503
1680008828101,1188816456493545,5.9809504,4.5990005,6.984
1680008828104,1188816458995699,5.8969502,4.67595,6.97905
1680008828106,1188816461497853,5.8560004,4.70505,6.9330006
1680008828108,1188816464000007,5.91795,4.61595,7.0069504
1680008828111,1188816466502391,5.8320003,4.70205,7.0530005
1680008828114,1188816469004536,5.7670503,4.7410502,7.0720506
1680008828117,1188816471506690,5.7990003,4.7410502,6.9690003
1680008828119,1188816474008613,5.8780503,4.70505,6.9090004
1680008828121,1188816476510767,5.8510504,4.7380505,7.0189505
1680008828124,1188816479012930,5.83395,4.6540504,7.1680503
1680008828126,1188816481515391,5.85795,4.6980004,7.0750504
1680008828129,1188816484017468,5.7720003,4.6639504,7.1269503
1680008828131,1188816486519622,5.8110003,4.7119503,7.017
1680008828134,1188816489021762,5.8819504,4.70505,7.0459504
1680008828136,1188816491523916,5.7960005,4.66905,7.02405
1680008828138,1188816494026070,5.82,4.72905,7.0650005
1680008828141,1188816496528223,5.7910504,4.755,7.15605
1680008828144,1188816499030440,5.8900504,4.755,6.9739504
1680008828146,1188816501532594,5.8180504,4.67595,7.089
1680008828148,1188816504034748,5.87505,4.6860003,7.14405
1680008828151,1188816506536902,5.8060503,4.75005,7.1610003
1680008828155,1188816509039075,5.8369503,4.7190003,7.017
1680008828157,1188816511541228,5.8510504,4.7569504,7.08195
1680008828159,1188816514043613,5.81505,4.7530503,7.1029506
1680008828161,1188816516545767,5.82,4.6330504,7.0669503
1680008828164,1188816519047921,5.7990003,4.6740003,7.0360503
1680008828166,1188816521549878,5.85405,4.7119503,7.05495
1680008828168,1188816524052032,5.8110003,4.59495,7.0459504
1680008828170,1188816526554186,5.85795,4.6260004,7.1340003
1680008828174,1188816529056339,5.80095,4.72095,7.0980005
1680008828177,1188816531558729,5.84595,4.7070003,7.03905
1680008828178,1188816534060883,5.83395,4.767,7.0669503
1680008828181,1188816536563037,5.892,4.8030005,7.089
1680008828184,1188816539065191,5.85405,4.743,7.0069504
1680008828186,1188816541567344,5.8939505,4.7650504,6.9550505
1680008828188,1188816544069484,5.8630505,4.70505,7.0069504
1680008828192,1188816546571715,5.913,4.73295,7.1130004
1680008828195,1188816549073869,5.83395,4.71705,7.0000505
1680008828197,1188816551576023,5.81295,4.80495,7.077
1680008828199,1188816554078177,5.7769504,4.77405,7.0650005
1680008828201,1188816556580330,5.8489504,4.8030005,7.0459504
1680008828203,1188816559082407,5.748,4.7959504,7.06995
1680008828206,1188816561584638,5.7889504,4.671,6.9690003
1680008828208,1188816564086792,5.7670503,4.7910004,7.0630503
1680008828211,1188816566589177,5.79405,4.7260504,6.97905
1680008828214,1188816569091100,5.74095,4.74795,7.0939503
1680008828216,1188816571593254,5.7840004,4.70895,7.02405
1680008828218,1188816574095407,5.80095,4.67805,6.912
1680008828221,1188816576597532,5.75295,4.7310004,7.0939503
1680008828224,1188816579099917,5.787,4.6330504,7.06995
1680008828227,1188816581602071,5.7289505,4.7410502,7.005
1680008828230,1188816584104225,5.7289505,4.77705,7.0150504
1680008828232,1188816586606382,5.6980505,4.6860003,6.9739504
1680008828235,1188816589108536,5.8300505,4.77705,6.9330006
1680008828237,1188816591610690,5.82705,4.67805,6.9670506
1680008828239,1188816594112921,5.79405,4.6860003,7.1320505
1680008828241,1188816596615075,5.775,4.635,6.9550505
1680008828244,1188816599117162,5.88495,4.66905,6.9480004
1680008828246,1188816601619392,5.775,4.7410502,6.9619503
1680008828249,1188816604121546,5.8110003,4.6980004,7.0789504
1680008828251,1188816606623623,5.8440003,4.6590004,7.05495
1680008828254,1188816609125796,5.8939505,4.602,7.0360503
1680008828256,1188816611628027,5.8489504,4.6470003,7.1059504
1680008828258,1188816614130181,5.83395,4.6740003,7.1320505
1680008828261,1188816616632335,5.8969502,4.6420503,7.08405
1680008828264,1188816619134488,5.8300505,4.6470003,7.0600505
1680008828267,1188816621636637,5.90595,4.72095,7.1320505
1680008828269,1188816624138791,5.87295,4.67805,7.0669503
1680008828271,1188816626641176,5.8939505,4.662,7.03905
1680008828274,1188816629143330,5.9280005,4.6260004,7.1080503
1680008828276,1188816631645483,5.8390503,4.695,7.0960503
1680008828278,1188816634147637,5.913,4.5990005,7.0270505
1680008828281,1188816636649791,5.8300505,4.6090503,7.1059504
1680008828284,1188816639151945,5.8369503,4.69005,7.0339503
1680008828286,1188816641654099,5.87505,4.72095,6.9949503
1680008828288,1188816644156253,5.8489504,4.75005,7.1029506
1680008828291,1188816646658422,5.81295,4.7190003,7.0960503
1680008828294,1188816649160575,5.787,4.6330504,7.1269503
1680008828296,1188816651662729,5.8510504,4.70205,7.0290003
1680008828298,1188816654164955,5.7910504,4.7410502,6.95205
1680008828301,1188816656667109,5.808,4.6399503,6.91905
1680008828305,1188816659169263,5.8489504,4.7239504,7.149
1680008828307,1188816661671417,5.87295,4.73595,7.0069504
1680008828309,1188816664173528,5.87505,4.73295,6.9910502
1680008828311,1188816666675681,5.87295,4.7140503,7.0669503
1680008828314,1188816669178143,5.8300505,4.71705,7.0290003
1680008828316,1188816671680297,5.8440003,4.743,7.1059504
1680008828319,1188816674182220,5.8320003,4.7910004,6.9330006
1680008828321,1188816676684374,5.8510504,4.73595,7.0530005
1680008828324,1188816679186528,5.8819504,4.72905,6.9760504
1680008828326,1188816681688681,5.8390503,4.671,7.0480504
1680008828329,1188816684191066,5.748,4.65,7.017
1680008828331,1188816686693220,5.82705,4.7119503,7.06995
1680008828335,1188816689195364,5.892,4.683,6.9330006
1680008828337,1188816691697518,5.87295,4.7190003,7.0360503
1680008828339,1188816694199671,5.7889504,4.7310004,7.02405
1680008828343,1188816696701811,5.8900504,4.7119503,7.0360503
1680008828345,1188816699203965,5.80305,4.75995,7.0069504
1680008828347,1188816701706196,5.84595,4.6420503,6.9979506
1680008828349,1188816704208350,5.892,4.6860003,6.9930005
1680008828351,1188816706710504,5.8320003,4.7070003,7.03905
1680008828354,1188816709212661,5.8180504,4.69995,7.0980005
1680008828356,1188816711714738,5.8630505,4.671,6.9880505
1680008828359,1188816714216892,5.8900504,4.6519504,6.9240003
1680008828361,1188816716719123,5.8660502,4.67805,7.08405
1680008828364,1188816719221532,5.83395,4.75005,6.9810004
1680008828366,1188816721723455,5.8900504,4.70895,7.0410004
1680008828368,1188816724225609,5.87505,4.6660504,7.0870504
1680008828371,1188816726727762,5.85405,4.743,7.0219502
1680008828375,1188816729229897,5.9350505,4.64505,7.14405
1680008828377,1188816731732051,5.79405,4.6930504,7.005
1680008828380,1188816734234436,5.85405,4.69995,7.0650005
1680008828382,1188816736736590,5.81295,4.7119503,6.972
1680008828384,1188816739238743,5.84205,4.7070003,7.0069504
1680008828386,1188816741740911,5.77005,4.755,7.11
1680008828389,1188816744243065,5.8180504,4.6519504,6.94995
1680008828391,1188816746745219,5.81505,4.7449503,7.0480504
1680008828394,1188816749247450,5.75505,4.7839503,6.9880505
1680008828396,1188816751749542,5.80095,4.62795,7.1029506
1680008828399,1188816754251696,5.8320003,4.7310004,7.00995
1680008828401,1188816756753849,5.8440003,4.66905,7.0410004
1680008828404,1188816759256003,5.8560004,4.7239504,7.0720506
1680008828406,1188816761758152,5.84595,4.7569504,6.9259505
1680008828409,1188816764260306,5.7630005,4.72905,7.0720506
1680008828411,1188816766762537,5.77005,4.6420503,6.90705
1680008828415,1188816769264691,5.8969502,4.6860003,7.01205
1680008828418,1188816771766849,5.85795,4.77405,6.9859505
1680008828420,1188816774269003,5.7910504,4.77705,6.9640503
1680008828422,1188816776771157,5.8219504,4.72095,7.0150504
1680008828425,1188816779273311,5.8780503,4.75005,7.00995
1680008828427,1188816781775696,5.82495,4.6660504,6.95205
1680008828430,1188816784277850,5.7990003,4.683,7.0410004
1680008828432,1188816786780003,5.9040003,4.71705,7.0410004
1680008828435,1188816789281926,5.89905,4.78095,7.0270505
1680008828437,1188816791784080,5.8969502,4.78095,7.00995
1680008828438,1188816794286465,5.8390503,4.8240004,6.97905
1680008828441,1188816796788696,5.7990003,4.7140503,7.0980005
1680008828444,1188816799290773,5.82,4.74795,6.9360003
1680008828446,1188816801792926,5.8969502,4.69995,6.8569503
1680008828448,1188816804295080,5.8300505,4.6980004,6.9240003
1680008828451,1188816806797234,5.8320003,4.70895,6.90705
1680008828457,1188816809299388,5.80095,4.7310004,7.11495
1680008828458,1188816811801542,5.8939505,4.74795,6.9330006
1680008828460,1188816814303772,5.91795,4.7239504,7.0960503
1680008828462,1188816816805926,5.84595,4.7719502,7.04295
1680008828464,1188816819308079,5.8939505,4.61805,7.11
1680008828466,1188816821810233,5.82,4.72905,6.9600005
1680008828468,1188816824312387,5.892,4.5679502,6.9550505
1680008828471,1188816826814450,5.8819504,4.7449503,7.01205
1680008828474,1188816829316912,5.8110003,4.69005,7.1700006
1680008828476,1188816831819065,5.808,4.6540504,6.9979506
1680008828478,1188816834321219,5.8699503,4.64505,7.05495
1680008828487,1188816836823142,5.9089503,4.68795,7.0069504
1680008828487,1188816839325296,5.808,4.65,7.1320505
1680008828488,1188816841827450,5.8180504,4.7410502,7.0290003
1680008828489,1188816844329835,5.82705,4.6980004,6.8970003
1680008828492,1188816846831978,5.8110003,4.7119503,6.9810004
1680008828496,1188816849334132,5.85795,4.63005,6.87795
1680008828498,1188816851836286,5.87295,4.7070003,6.9930005
1680008828500,1188816854338440,5.8630505,4.662,7.0069504
1680008828502,1188816856840594,5.87505,4.66905,7.0030503
1680008828504,1188816859342768,5.8780503,4.57095,7.0030503
1680008828506,1188816861844999,5.8390503,4.7530503,7.0579505
1680008828508,1188816864347152,5.8060503,4.7380505,7.0000505
1680008828511,1188816866849306,5.925,4.7239504,6.9880505
1680008828514,1188816869351444,5.8680005,4.8240004,7.0669503
1680008828516,1188816871853598,5.84595,4.68795,7.0150504
1680008828519,1188816874355675,5.85795,4.74795,7.0530005
1680008828521,1188816876857906,5.85795,4.7530503,6.9480004
1680008828524,1188816879360054,5.84595,4.6420503,7.0219502
1680008828526,1188816881862439,5.8300505,4.7260504,7.0410004
1680008828530,1188816884364362,5.81505,4.7239504,6.9739504
1680008828532,1188816886866516,5.9089503,4.74795,6.9979506
1680008828536,1188816889368651,5.8609505,4.70205,6.9910502
1680008828537,1188816891870805,5.7960005,4.7530503,6.912
1680008828539,1188816894373189,5.87505,4.7140503,7.08405
1680008828541,1188816896875343,5.7580504,4.77705,7.0000505
1680008828544,1188816899377497,5.8489504,4.7119503,6.9880505
1680008828546,1188816901879656,5.8489504,4.6980004,6.9210005
1680008828548,1188816904381810,5.8819504,4.77405,7.0980005
1680008828551,1188816906883964,5.8900504,4.7569504,6.9090004
1680008828554,1188816909386194,5.87295,4.7070003,6.97905
1680008828556,1188816911888348,5.8219504,4.8,6.9739504
1680008828558,1188816914390425,5.7769504,4.76205,7.0459504
1680008828561,1188816916892656,5.8680005,4.68795,6.9670506
1680008828564,1188816919394810,5.82,4.695,6.9979506
1680008828567,1188816921896969,5.87295,4.7140503,7.1340003
1680008828569,1188816924399123,5.8320003,4.75995,7.0720506
1680008828571,1188816926901276,5.74095,4.7449503,7.017
1680008828575,1188816929403430,5.7889504,4.77405,6.9210005
1680008828579,1188816931905584,5.81505,4.7959504,6.9880505
1680008828579,1188816934407762,5.82705,4.76205,7.03905
1680008828582,1188816936910147,5.85405,4.76205,7.0720506
1680008828584,1188816939412300,5.8180504,4.7140503,7.0219502
1680008828586,1188816941914454,5.84205,4.7260504,7.0870504
1680008828589,1188816944416608,5.8900504,4.6810503,7.0870504
1680008828591,1188816946918521,5.7580504,4.7860503,7.00995
1680008828594,1188816949420675,5.8510504,4.6260004,7.077
1680008828596,1188816951923060,5.90595,4.695,7.08195
1680008828599,1188816954425290,5.77005,4.662,7.2180004
1680008828602,1188816956927367,5.7510004,4.64505,7.1700006
1680008828606,1188816959429521,5.81295,4.6980004,7.0219502
1680008828607,1188816961931675,5.8390503,4.7380505,7.0480504
1680008828610,1188816964433824,5.80095,4.69005,7.0219502
1680008828611,1188816966935978,5.8300505,4.662,7.02405
1680008828615,1188816969438209,5.87295,4.671,7.0189505
1680008828617,1188816971940362,5.75295,4.70505,6.9430504
1680008828619,1188816974442516,5.76,4.71705,7.0360503
1680008828621,1188816976944661,5.79405,4.6980004,7.0669503
1680008828624,1188816979446815,5.8300505,4.7650504,7.0459504
1680008828626,1188816981948969,5.91795,4.77405,7.0960503
1680008828628,1188816984451123,5.8819504,4.671,7.03905
1680008828631,1188816986953262,5.8219504,4.75005,7.1299505
1680008828634,1188816989455646,5.80095,4.635,6.9210005
1680008828636,1188816991957800,5.80095,4.7449503,7.03905
1680008828639,1188816994459723,5.81295,4.6519504,6.972
1680008828642,1188816996961906,5.7649503,4.6260004,6.9880505
1680008828645,1188816999464291,5.88495,4.7070003,7.0030503
1680008828647,1188817001966444,5.8440003,4.8289504,7.089
1680008828649,1188817004468598,5.87505,4.8,7.0290003
1680008828651,1188817006970752,5.8300505,4.7449503,6.9979506
1680008828655,1188817009472906,5.8819504,4.6540504,7.0069504
1680008828657,1188817011975060,5.8510504,4.6860003,7.11495
1680008828659,1188817014477214,5.8180504,4.6540504,7.03905
1680008828661,1188817016979444,5.8219504,4.69995,7.0339503
1680008828664,1188817019481598,5.8440003,4.7380505,7.0459504
1680008828666,1188817021983742,5.7840004,4.755,6.9979506
1680008828669,1188817024485819,5.8219504,4.7070003,6.95205
1680008828671,1188817026988050,5.82495,4.70895,7.1029506
1680008828674,1188817029490204,5.8300505,4.7689505,6.9910502
1680008828676,1188817031992344,5.88,4.72095,7.1010003
1680008828680,1188817034494497,5.85405,4.75005,7.0669503
1680008828682,1188817036996651,5.8609505,4.70505,7.0189505
1680008828685,1188817039498805,5.9020505,4.7070003,7.0219502
1680008828686,1188817042000964,5.9280005,4.65,6.9550505
1680008828689,1188817044503118,5.8440003,4.671,6.9310503
1680008828691,1188817047005272,5.8630505,4.7239504,6.9930005
1680008828695,1188817049507656,5.82495,4.7070003,6.9160504
1680008828696,1188817052009810,5.80305,4.75995,7.08405
1680008828699,1188817054511978,5.8660502,4.75995,7.0339503
1680008828701,1188817057014132,5.81295,4.6980004,7.00995
1680008828704,1188817059516286,5.84205,4.7650504,6.972
1680008828706,1188817062018440,5.8320003,4.63005,7.14195
1680008828709,1188817064520680,5.88705,4.6470003,7.0960503
1680008828711,1188817067022834,5.9110503,4.6740003,6.9640503
1680008828714,1188817069524988,5.9089503,4.6210504,7.11495
1680008828717,1188817072027074,5.7340503,4.66905,7.0669503
1680008828719,1188817074529228,5.7649503,4.7070003,7.14405
1680008828721,1188817077031382,5.8609505,4.671,7.1340003
1680008828725,1188817079533536,5.88705,4.7310004,7.017
1680008828727,1188817082035766,5.8300505,4.65705,6.984
1680008828729,1188817084537906,5.8390503,4.66905,6.9570003
1680008828731,1188817087040060,5.8560004,4.755,7.08405
1680008828734,1188817089542214,5.787,4.80795,6.984
1680008828736,1188817092044368,5.8630505,4.6980004,6.9880505
1680008828739,1188817094546522,5.8060503,4.7140503,6.9739504
1680008828741,1188817097048906,5.82705,4.70505,7.0290003
1680008828744,1188817099550829,5.82,4.70895,7.0630503
1680008828747,1188817102053214,5.8900504,4.7719502,7.0069504
1680008828749,1188817104555368,5.87505,4.6860003,7.0669503
1680008828751,1188817107057522,5.81295,4.7310004,6.9930005
1680008828755,1188817109559445,5.83395,4.6930504,6.945
1680008828758,1188817112061829,5.8660502,4.6860003,6.91905
1680008828759,1188817114563997,5.8060503,4.76205,6.9240003
1680008828761,1188817117066228,5.8390503,4.76205,7.0290003
1680008828764,1188817119568305,5.85795,4.7860503,6.95205
1680008828766,1188817122070459,5.85405,4.77705,7.0650005
1680008828768,1188817124572613,5.8819504,4.635,7.0219502
1680008828771,1188817127074771,5.8560004,4.6930504,6.9810004
1680008828775,1188817129577002,5.81505,4.662,6.94995
1680008828776,1188817132079156,5.8699503,4.743,7.1179504
1680008828778,1188817134581310,5.8939505,4.65,7.0720506
1680008828781,1188817137083469,5.8390503,4.767,7.1130004
1680008828784,1188817139585623,5.8969502,4.73295,7.0410004
1680008828786,1188817142087776,5.8819504,4.6639504,7.05105
1680008828789,1188817144590161,5.8219504,4.83405,7.15605
1680008828793,1188817147092103,5.8680005,4.7140503,7.0410004
1680008828795,1188817149594257,5.8320003,4.61595,7.0750504
1680008828797,1188817152096411,5.87505,4.59705,7.00995
1680008828799,1188817154598565,5.787,4.5990005,7.0270505
1680008828801,1188817157100719,5.7670503,4.70205,7.0630503
1680008828804,1188817159602886,5.7889504,4.7410502,7.0669503
1680008828806,1188817162105271,5.8219504,4.7449503,7.0789504
1680008828809,1188817164607425,5.88495,4.6980004,7.0219502
1680008828811,1188817167109579,5.8939505,4.767,7.0270505
1680008828815,1188817169611733,5.9209504,4.6980004,7.0600505
1680008828816,1188817172113886,5.8300505,4.67805,7.0459504
1680008828819,1188817174616040,5.9350505,4.6740003,7.0339503
1680008828821,1188817177118271,5.9539504,4.6590004,6.9640503
1680008828825,1188817179620406,5.8630505,4.7790003,7.01205
1680008828827,1188817182122560,5.8699503,4.7310004,6.9979506
1680008828831,1188817184624714,5.9230504,4.7260504,7.1080503
1680008828834,1188817187126791,5.87505,4.7410502,7.00995
1680008828836,1188817190029656,5.87295,4.743,7.0630503
1680008828838,1188817192131194,5.8489504,4.77705,7.017
1680008828840,1188817194633348,5.7910504,4.6470003,7.0150504
1680008828842,1188817197135502,5.7769504,4.73295,7.005
1680008828844,1188817199637656,5.82495,4.7310004,7.0600505
1680008828846,1188817202139825,5.84595,4.71705,6.9810004
1680008828849,1188817204641978,5.8219504,4.7140503,6.97905
1680008828851,1188817207144132,5.7990003,4.7239504,7.017
1680008828855,1188817209646286,5.83395,4.6519504,6.9760504
1680008828857,1188817212148666,5.7960005,4.767,6.8950505
1680008828859,1188817214650589,5.7960005,4.7569504,7.1010003
1680008828861,1188817217152743,5.9020505,4.77705,6.9880505
1680008828864,1188817219655127,5.79405,4.69005,6.9210005
1680008828868,1188817222157252,5.8489504,4.7410502,7.0870504
1680008828869,1188817224659406,5.7340503,4.69995,7.03905
1680008828871,1188817227161560,5.7889504,4.7140503,6.9979506
1680008828874,1188817229663714,5.7910504,4.70505,7.0290003
1680008828876,1188817232165868,5.8369503,4.78095,6.9640503
1680008828879,1188817234668107,5.8300505,4.755,7.0630503
1680008828881,1188817237170261,5.787,4.65705,7.0290003
1680008828884,1188817239672415,5.8630505,4.7190003,7.0530005
1680008828886,1188817242174569,5.8630505,4.70205,7.0669503
1680008828889,1188817244676622,5.85795,4.662,7.0189505
1680008828891,1188817247178853,5.8660502,4.7119503,7.0309505
1680008828895,1188817249681006,5.83395,4.6860003,7.1179504
1680008828897,1188817252183391,5.9610004,4.72095,6.95205
1680008828899,1188817254685329,5.8180504,4.75995,6.972
1680008828902,1188817257187483,5.87505,4.7260504,6.9600005
1680008828906,1188817259689637,5.81505,4.6519504,7.0150504
1680008828907,1188817262191791,5.8630505,4.6399503,7.05105
1680008828909,1188817264693945,5.8900504,4.6660504,7.0000505
1680008828911,1188817267196329,5.8699503,4.70205,7.0069504
1680008828914,1188817269698483,5.89905,4.7689505,7.0069504
1680008828916,1188817272200637,5.8560004,4.6980004,7.1299505
1680008828919,1188817274702791,5.8900504,4.8580503,7.0669503
1680008828921,1188817277204921,5.87505,4.72095,7.0339503
1680008828924,1188817279707074,5.90595,4.7410502,7.0789504
1680008828926,1188817282208998,5.7889504,4.70205,7.0530005
1680008828929,1188817284711459,5.79405,4.70505,7.01205
1680008828932,1188817287213603,5.8680005,4.77405,7.0720506
1680008828935,1188817289715757,5.7649503,4.70505,7.0189505
1680008828937,1188817292217834,5.7720003,4.8030005,7.03905
1680008828939,1188817294719988,5.775,4.75995,7.0360503
1680008828943,1188817297222136,5.7049503,4.7119503,7.0720506
1680008828945,1188817299724367,5.7510004,4.66905,6.9570003
1680008828947,1188817302226521,5.74305,4.7839503,7.0030503
1680008828949,1188817304728675,5.775,4.7569504,7.0150504
1680008828952,1188817307230848,5.8560004,4.6810503,6.9330006
1680008828955,1188817309733002,5.84595,4.73295,6.9670506
1680008828957,1188817312235155,5.8110003,4.7839503,7.0290003
1680008828959,1188817314737540,5.7790504,4.74795,7.122
1680008828963,1188817317239670,5.89905,4.72905,6.9979506
1680008828967,1188817319741593,5.8390503,4.63005,6.9910502
1680008828969,1188817322243978,5.80095,4.695,7.06995
1680008828971,1188817324746131,5.8819504,4.77705,7.15395
1680008828973,1188817327248266,5.8390503,4.69005,7.2130504
1680008828975,1188817329750189,5.84595,4.635,7.05105
1680008828977,1188817332252574,5.88705,4.6930504,7.0339503
1680008828980,1188817334754728,5.8900504,4.767,7.1340003
1680008828984,1188817337256863,5.8440003,4.71705,7.0069504
1680008828986,1188817339759017,5.84595,4.7119503,7.11495
1680008828988,1188817342261170,5.8300505,4.78095,7.0459504
1680008828989,1188817344763324,5.87505,4.7260504,7.1080503
1680008828991,1188817347265555,5.8969502,4.6980004,7.122
1680008828994,1188817349767694,5.81295,4.6930504,7.0459504
1680008828996,1188817352269848,5.8440003,4.683,7.02405
1680008828999,1188817354772002,5.8369503,4.6069503,7.077
1680008829003,1188817357274155,5.9020505,4.695,7.089
1680008829005,1188817359776232,5.8369503,4.755,7.1059504
1680008829007,1188817362278386,5.8440003,4.72095,6.972
1680008829009,1188817364780848,5.84205,4.7119503,7.0459504
1680008829012,1188817367282771,5.74095,4.74795,7.122
1680008829015,1188817369784906,5.8390503,4.767,7.0630503
1680008829018,1188817372287060,5.8390503,4.6980004,7.0189505
1680008829020,1188817374789213,5.8440003,4.695,7.11495
1680008829023,1188817377291367,5.7889504,4.767,6.9210005
1680008829025,1188817379793763,5.82705,4.7410502,6.9670506
1680008829028,1188817382295917,5.8390503,4.7140503,7.05495
1680008829030,1188817384798071,5.7960005,4.73295,6.9979506
1680008829032,1188817387300224,5.75295,4.7380505,7.0650005
1680008829035,1188817389802378,5.8440003,4.7380505,6.9480004
1680008829037,1188817392304536,5.77005,4.7140503,7.03905
1680008829039,1188817394806767,5.8320003,4.7530503,7.0939503
1680008829042,1188817397308844,5.82495,4.71705,7.0870504
1680008829044,1188817399811075,5.8390503,4.75005,7.03905
1680008829047,1188817402313229,5.8110003,4.7140503,7.0069504
1680008829049,1188817404815387,5.8320003,4.7380505,7.017
1680008829052,1188817407317464,5.7340503,4.7260504,6.9690003
1680008829057,1188817409819618,5.72205,4.7260504,6.9690003
1680008829060,1188817412321867,5.75505,4.7070003,6.9570003
1680008829062,1188817414824021,5.8369503,4.7449503,6.912
1680008829064,1188817417326175,5.91795,4.71705,7.2060003
1680008829066,1188817419828328,5.85405,4.72905,7.04295
1680008829068,1188817422330473,5.82495,4.7070003,7.0410004
1680008829070,1188817424832627,5.95905,4.79295,7.0309505
1680008829072,1188817427335012,5.9110503,4.7910004,7.0189505
1680008829075,1188817429837166,5.8219504,4.7239504,6.9690003
1680008829077,1188817432339320,5.8680005,4.8120003,7.0750504
1680008829080,1188817434841229,5.9329505,4.755,7.01205
1680008829083,1188817437343382,5.8699503,4.7790003,7.2180004
1680008829085,1188817439845767,5.8680005,4.6639504,7.1179504
1680008829087,1188817442347921,5.80095,4.70505,7.0980005
1680008829091,1188817444850099,5.84595,4.7190003,7.03905
1680008829096,1188817447352253,5.8939505,4.7140503,7.0360503
1680008829098,1188817449854406,5.8390503,4.767,7.08405
1680008829100,1188817452355482,5.808,4.7190003,6.9670506
1680008829101,1188817454856561,5.7790504,4.72095,7.04295
1680008829102,1188817457360872,5.8969502,4.74795,7.03905
1680008829105,1188817459863103,5.82495,4.76205,7.0309505
1680008829114,1188817462365257,5.727,4.695,7.005
1680008829115,1188817464867411,5.8390503,4.70205,7.0030503
1680008829115,1188817467369579,5.8320003,4.75005,7.0219502
1680008829115,1188817469871733,5.84595,4.767,6.9690003
1680008829117,1188817472373810,5.7960005,4.671,7.0630503
1680008829120,1188817474875964,5.8300505,4.78095,6.984
1680008829122,1188817477378397,5.85405,4.755,6.9430504
1680008829125,1188817479880320,5.83395,4.80495,7.0290003
1680008829127,1188817482382473,5.80095,4.7569504,7.0069504
1680008829131,1188817484884627,5.8660502,4.7530503,7.017
1680008829134,1188817487387017,5.8819504,4.755,7.1179504
1680008829137,1188817489889171,5.8390503,4.74795,7.0939503
1680008829139,1188817492391325,5.7289505,4.7239504,7.0339503
1680008829140,1188817494893479,5.75505,4.65705,6.9690003
1680008829145,1188817497395651,5.8680005,4.7839503,7.0000505
1680008829146,1188817499897805,5.87505,4.69995,7.0650005
1680008829147,1188817502400036,5.83395,4.74795,7.05495
1680008829151,1188817504902190,5.808,4.7239504,7.005
1680008829153,1188817507404267,5.808,4.7119503,7.0069504
1680008829157,1188817509906430,5.787,4.7410502,7.0750504
1680008829158,1188817512408583,5.83395,4.7449503,7.0630503
1680008829161,1188817514910737,5.8780503,4.70895,7.0600505
1680008829162,1188817517412968,5.8320003,4.70895,7.0720506
1680008829165,1188817519915122,5.81295,4.7650504,7.005
1680008829169,1188817522417276,5.8609505,4.69005,7.00995
1680008829170,1188817524919430,5.8440003,4.743,6.97905
1680008829172,1188817527421584,5.8510504,4.6810503,7.03905
1680008829176,1188817529923709,5.81505,4.7980504,7.0459504
1680008829178,1188817532425863,5.8300505,4.7140503,6.9430504
1680008829180,1188817534928248,5.808,4.6980004,6.984
1680008829182,1188817537430402,5.925,4.77405,7.0290003
1680008829185,1188817539932556,5.8969502,4.77405,7.0290003
1680008829187,1188817542434704,5.83395,4.74795,7.03905
1680008829189,1188817544936627,5.8630505,4.7650504,7.0650005
1680008829192,1188817547438781,5.82705,4.7190003,7.0789504
1680008829195,1188817549941166,5.71005,4.6980004,7.0219502
1680008829197,1188817552443320,5.81295,4.71705,7.11495
1680008829199,1188817554945474,5.7670503,4.75005,7.0069504
1680008829204,1188817557447627,5.76,4.67595,6.94995
1680008829208,1188817559949758,5.7769504,4.71705,7.017
1680008829209,1188817562451912,5.808,4.80795,7.03905
1680008829211,1188817564954066,5.8609505,4.7239504,6.9880505
1680008829213,1188817567456297,5.84595,4.72095,7.0480504
1680008829217,1188817569958451,5.8699503,4.7839503,7.0630503
1680008829218,1188817572460590,5.76,4.80495,7.0459504
1680008829220,1188817574962743,5.7889504,4.6860003,7.0150504
1680008829222,1188817577464897,5.7889504,4.66905,7.00995
1680008829226,1188817579967051,5.80095,4.74795,7.017
1680008829228,1188817582469205,5.8300505,4.7530503,7.08195
1680008829230,1188817584971340,5.8369503,4.76205,6.9760504
1680008829233,1188817587473494,5.81295,4.70895,7.08405
1680008829236,1188817589975647,5.7769504,4.67805,6.9760504
1680008829238,1188817592477801,5.787,4.7410502,7.0909505
1680008829240,1188817594979945,5.7460504,4.82205,6.8830504
1680008829245,1188817597482099,5.8680005,4.74795,7.0189505
1680008829247,1188817599984484,5.8489504,4.6810503,6.9210005
1680008829249,1188817602486633,5.7649503,4.7959504,7.0459504
1680008829251,1188817604988786,5.7649503,4.7569504,7.0870504
1680008829253,1188817607490940,5.95695,4.7310004,6.9810004
1680008829257,1188817609993094,5.82705,4.7410502,6.9280505
1680008829258,1188817612495017,5.8369503,4.6519504,7.04295
1680008829261,1188817614997465,5.84595,4.7719502,6.9910502
1680008829263,1188817617499619,5.8609505,4.70205,7.005
1680008829265,1188817620001772,5.7790504,4.7070003,7.00995
1680008829269,1188817622503849,5.8660502,4.695,7.1130004
1680008829270,1188817625006003,5.9110503,4.7260504,7.089
1680008829273,1188817627508157,5.8900504,4.68795,7.0789504
1680008829275,1188817630010388,5.87295,4.662,7.0600505
1680008829278,1188817632512542,5.78205,4.72095,7.149
1680008829282,1188817635014662,5.8680005,4.6260004,6.9979506
1680008829284,1188817637516815,5.9350505,4.73295,7.077
1680008829286,1188817640018969,5.8510504,4.6860003,7.00995
1680008829288,1188817642521123,5.8609505,4.7070003,7.05105
1680008829290,1188817645023277,5.76,4.70505,7.0150504
1680008829292,1188817647525672,5.8180504,4.695,7.01205
1680008829296,1188817650027595,5.8440003,4.7839503,6.9019504
1680008829298,1188817652529979,5.7769504,4.72095,7.1370006
1680008829299,1188817655032133,5.7790504,4.75005,6.9880505
1680008829302,1188817657534306,5.88,4.743,7.1029506
1680008829305,1188817660036229,5.80095,4.6860003,7.0000505
1680008829307,1188817662538614,5.85405,4.6980004,7.0290003
1680008829311,1188817665040768,5.808,4.77405,7.0459504
1680008829313,1188817667542892,5.82,4.7790003,7.1059504
1680008829315,1188817670045046,5.8060503,4.683,7.0939503
1680008829319,1188817672547200,5.8560004,4.6980004,7.0030503
1680008829321,1188817675049354,5.82,4.6660504,7.0219502
1680008829324,1188817677551503,5.84595,4.68795,7.1850004
1680008829327,1188817680053734,5.8060503,4.6860003,7.1059504
1680008829328,1188817682555887,5.7889504,4.68795,7.0669503
1680008829330,1188817685058041,5.7990003,4.6519504,6.9739504
1680008829332,1188817687560118,5.808,4.67805,7.08405
1680008829336,1188817690062335,5.8180504,4.6639504,7.0789504
1680008829338,1188817692564489,5.8390503,4.79295,7.0579505
1680008829340,1188817695066873,5.8440003,4.61595,7.11495
1680008829342,1188817697568797,5.7960005,4.7239504,7.04295
1680008829345,1188817700070950,5.80095,4.69995,7.03905
1680008829347,1188817702573118,5.8660502,4.70505,7.017
1680008829350,1188817705075272,5.84595,4.73295,7.03905
1680008829353,1188817707577426,5.7889504,4.7190003,7.08405
1680008829357,1188817710079811,5.736,4.7140503,7.0870504
1680008829358,1188817712581964,5.84595,4.70505,7.1580005
1680008829361,1188817715084118,5.7460504,4.7140503,7.1629505
1680008829362,1188817717586272,5.7889504,4.7119503,7.0189505
1680008829365,1188817720088426,5.7720003,4.78095,7.08405
1680008829367,1188817722590580,5.775,4.7119503,6.972
1680008829369,1188817725092729,5.8110003,4.66905,6.86595
1680008829373,1188817727594883,5.7889504,4.65705,6.9880505
1680008829377,1188817730097036,5.775,4.74795,7.005
1680008829379,1188817732599190,5.7460504,4.65,6.9310503
1680008829380,1188817735101363,5.79405,4.72905,6.9910502
1680008829382,1188817737603517,5.80305,4.71705,7.0480504
1680008829385,1188817740105671,5.8060503,4.8030005,7.0480504
1680008829389,1188817742607902,5.8180504,4.7839503,6.9979506
1680008829391,1188817745110051,5.8180504,4.72095,6.9259505
1680008829395,1188817747612205,5.85405,4.7380505,6.9619503
1680008829397,1188817750114359,5.7889504,4.7790003,6.9880505
1680008829399,1188817752616513,5.8609505,4.6540504,7.0000505
1680008829401,1188817755118647,5.9209504,4.72095,7.0270505
1680008829403,1188817757620801,5.8900504,4.78095,6.97905
1680008829405,1188817760122955,5.8660502,4.80795,6.9330006
1680008829407,1188817762625108,5.84595,4.78905,6.91905
1680008829411,1188817765127262,5.90595,4.695,7.077
1680008829412,1188817767629407,5.84595,4.7380505,7.01205
1680008829417,1188817770131792,5.9329505,4.66905,7.0290003
1680008829419,1188817772633946,5.892,4.815,6.9139504
1680008829421,1188817775136099,5.8390503,4.7410502,7.0030503
1680008829423,1188817777638253,5.8320003,4.75005,7.1779504
1680008829426,1188817780140407,5.90595,4.71705,7.05495
1680008829428,1188817782642561,5.8699503,4.70505,7.0219502
1680008829431,1188817785144715,5.8369503,4.7260504,7.0789504
1680008829434,1188817787646869,5.85795,4.72905,7.0360503
1680008829436,1188817790149023,5.8609505,4.7119503,6.9859505
1680008829438,1188817792651176,5.89905,4.755,7.05495
1680008829440,1188817795153330,5.9089503,4.75005,6.9640503
1680008829442,1188817797655484,5.8939505,4.74795,7.05495
1680008829445,1188817800157628,5.84205,4.71705,6.972
1680008829447,1188817802659859,5.84595,4.6330504,6.9550505
1680008829449,1188817805162013,5.8440003,4.7449503,7.0459504
1680008829452,1188817807664166,5.7670503,4.671,7.18905
1680008829455,1188817810166339,5.82,4.683,6.9330006
1680008829457,1188817812668416,5.78205,4.7650504,7.02405
1680008829459,1188817815170647,5.82495,4.662,7.0870504
1680008829462,1188817817672801,5.7580504,4.6860003,7.0909505
1680008829465,1188817820175205,5.775,4.70895,7.1340003
1680008829469,1188817822677129,5.7910504,4.72095,7.1370006
1680008829470,1188817825179282,5.8180504,4.602,7.0360503
1680008829473,1188817827681436,5.9350505,4.73595,7.1340003
1680008829475,1188817830183575,5.8219504,4.6980004,7.1130004
1680008829477,1188817832685960,5.8680005,4.635,7.017
1680008829480,1188817835188114,5.808,4.7190003,7.0069504
1680008829482,1188817837690267,5.8630505,4.7449503,7.05495
1680008829485,1188817840192431,5.81505,4.9080005,7.017
1680008829487,1188817842694585,5.82495,4.7410502,7.0270505
1680008829490,1188817845196739,5.7670503,4.695,7.017
1680008829494,1188817847698893,5.85405,4.695,6.9670506
1680008829496,1188817850201032,5.8110003,4.827,7.0360503
1680008829498,1188817852703186,5.8609505,4.7959504,7.005
1680008829500,1188817855205416,5.9160004,4.7980504,6.9310503
1680008829503,1188817857707570,5.8300505,4.7689505,7.0480504
1680008829507,1188817860209667,5.8369503,4.755,7.0870504
1680008829508,1188817862711821,5.8320003,4.85295,7.0980005
1680008829510,1188817865214052,5.7769504,4.7119503,6.972
1680008829513,1188817867716206,5.78205,4.77705,6.9760504
1680008829515,1188817870218359,5.81295,4.7410502,7.03905
1680008829517,1188817872720537,5.7649503,4.7239504,6.9550505
1680008829519,1188817875222691,5.808,4.767,6.9619503
1680008829523,1188817877724845,5.76,4.77405,7.1029506
1680008829525,1188817880226999,5.7049503,4.72905,6.9619503
1680008829527,1188817882729406,5.78205,4.7650504,6.9160504
1680008829530,1188817885231560,5.8680005,4.6980004,6.9930005
1680008829533,1188817887733714,5.8510504,4.71705,7.00995
1680008829536,1188817890235637,5.85405,4.7070003,6.9949503
1680008829537,1188817892737767,5.82705,4.755,7.00995
1680008829540,1188817895240152,5.8369503,4.57095,6.972
1680008829545,1188817897742306,5.775,4.73595,7.08195
1680008829546,1188817900244459,5.75505,4.82205,7.18905
1680008829548,1188817902746613,5.787,4.7839503,7.0750504
1680008829550,1188817905248767,5.87505,4.69005,7.005
1680008829553,1188817907750921,5.76,4.77705,6.9880505
1680008829555,1188817910253075,5.80095,4.78905,7.0579505
1680008829558,1188817912755229,5.8390503,4.71705,6.9859505
1680008829561,1188817915257463,5.82705,4.7310004,7.03905
1680008829564,1188817917759540,5.8110003,4.7260504,7.0579505
1680008829565,1188817920261771,5.8780503,4.755,7.1179504
1680008829568,1188817922763925,5.88495,4.69995,7.0870504
1680008829570,1188817925266127,5.8510504,4.69995,6.9570003
1680008829573,1188817927768204,5.85795,4.6930504,7.03905
1680008829576,1188817930270435,5.84205,4.70505,7.08195
1680008829578,1188817932772588,5.913,4.73595,7.01205
1680008829581,1188817935274752,5.82,4.7140503,7.0219502
1680008829584,1188817937776906,5.8110003,4.7070003,7.0410004
1680008829586,1188817940279060,5.8320003,4.7070003,6.9810004
1680008829588,1188817942781214,5.8300505,4.80795,7.0000505
1680008829590,1188817945283598,5.9160004,4.7070003,6.9910502
1680008829594,1188817947785757,5.81295,4.743,7.0030503
1680008829597,1188817950287911,5.87505,4.6860003,7.00995
1680008829598,1188817952790065,5.88705,4.69995,6.9910502
1680008829600,1188817955292219,5.84595,4.77705,7.0630503
1680008829603,1188817957794122,5.892,4.6980004,7.1080503
1680008829606,1188817960296507,5.808,4.743,7.0960503
1680008829607,1188817962798737,5.81295,4.7530503,7.05105
1680008829610,1188817965300814,5.84595,4.695,6.9880505
1680008829616,1188817967802954,5.8180504,4.78095,6.9979506
1680008829617,1188817970305108,5.82495,4.71705,7.01205
1680008829620,1188817972807262,5.84205,4.78095,7.02405
1680008829622,1188817975309416,5.79405,4.6590004,7.1059504
1680008829624,1188817977811646,5.90595,4.7790003,7.0480504
1680008829627,1188817980313781,5.88,4.7569504,7.0270505
1680008829629,1188817982815935,5.7649503,4.7070003,6.9330006
1680008829631,1188817985318089,5.7510004,4.743,7.0480504
1680008829635,1188817987820243,5.77005,4.7140503,7.0219502
1680008829637,1188817990322368,5.7510004,4.70505,7.0750504
1680008829639,1188817992824522,5.8819504,4.671,7.08405
1680008829641,1188817995326675,5.82495,4.6519504,7.0960503
1680008829644,1188817997828829,5.7910504,4.755,7.11
1680008829646,1188818000331228,5.8369503,4.69995,7.0270505
1680008829647,1188818002833382,5.8060503,4.7070003,7.0600505
1680008829650,1188818005335305,5.80305,4.6470003,7.1059504
1680008829653,1188818007837459,5.8180504,4.7119503,7.017
1680008829658,1188818010339862,5.80305,4.6810503,7.0069504
1680008829660,1188818012842016,5.7510004,4.75995,7.00995
1680008829662,1188818015344170,5.87295,4.662,7.01205
1680008829664,1188818017846324,5.89905,4.78905,7.0459504
1680008829666,1188818020348478,5.88705,4.6420503,7.0309505
1680008829668,1188818022850632,5.85795,4.72095,7.0750504
1680008829671,1188818025352862,5.79405,4.7310004,6.9810004
1680008829674,1188818027855016,5.8660502,4.70505,7.01205
1680008829675,1188818030357170,5.84595,4.70505,6.9910502
1680008829677,1188818032859247,5.88705,4.683,7.1389503
1680008829680,1188818035361406,5.8320003,4.7070003,7.05495
1680008829683,1188818037863637,5.8180504,4.7910004,7.0650005
1680008829686,1188818040365790,5.8110003,4.6980004,6.984
1680008829687,1188818042867944,5.8219504,4.7239504,7.05495
1680008829690,1188818045370069,5.83395,4.6519504,6.90705
1680008829696,1188818047872223,5.84595,4.755,7.0270505
1680008829699,1188818050374368,5.7649503,4.7190003,6.9259505
1680008829700,1188818052876752,5.81505,4.7650504,7.0459504
1680008829702,1188818055378906,5.85795,4.7910004,6.93795
1680008829704,1188818057880829,5.81505,4.7650504,7.0270505
1680008829706,1188818060382983,5.81505,4.7790003,6.95205
1680008829708,1188818062885387,5.85405,4.7530503,6.9690003
1680008829710,1188818065387541,5.88705,4.71705,7.0309505
1680008829713,1188818067889695,5.81295,4.6590004,6.9949503
1680008829715,1188818070391848,5.8440003,4.68795,6.8929505
1680008829718,1188818072894002,5.8300505,4.7689505,7.03905
1680008829721,1188818075396151,5.8440003,4.6740003,7.0459504
1680008829723,1188818077898305,5.7910504,4.6860003,6.9600005
1680008829726,1188818080400459,5.8219504,4.70505,6.95205
1680008829728,1188818082902613,5.748,4.7410502,7.0290003
1680008829732,1188818085404767,5.78205,4.75005,7.1340003
1680008829746,1188818087906997,5.87295,4.7449503,6.9739504
1680008829746,1188818090409151,5.87295,4.7839503,7.0410004
1680008829746,1188818092911305,5.8320003,4.7260504,7.0339503
1680008829746,1188818095413382,5.8300505,4.73295,7.1610003
1680008829746,1188818097915522,5.736,4.70205,7.0960503
1680008829746,1188818100417753,5.84595,4.65705,7.11495
1680008829747,1188818102919906,5.8180504,4.6590004,7.0630503
1680008829749,1188818105422060,5.82495,4.7119503,7.1269503
1680008829753,1188818107924214,5.8390503,4.74795,6.9949503
1680008829755,1188818110426358,5.9490004,4.6590004,7.0290003
1680008829757,1188818112928512,5.8180504,4.72095,7.00995
1680008829760,1188818115430666,5.8819504,4.695,7.0789504
1680008829763,1188818117933050,5.8699503,4.6399503,7.0909505
1680008829765,1188818120435219,5.8609505,4.6590004,7.0870504
1680008829768,1188818122937142,5.89905,4.743,7.03905
1680008829770,1188818125439296,5.89905,4.7260504,7.0750504
1680008829774,1188818127941681,5.8699503,4.662,7.08405
1680008829776,1188818130443859,5.76,4.59705,6.9859505
1680008829778,1188818132946012,5.87505,4.69005,7.0650005
1680008829780,1188818135448166,5.8060503,4.6540504,7.08195
1680008829784,1188818137950320,5.8300505,4.6399503,7.1299505
1680008829785,1188818140452493,5.87505,4.7310004,7.0309505
1680008829787,1188818142954647,5.83395,4.67805,7.11
1680008829790,1188818145456801,5.87505,4.70205,7.017
1680008829794,1188818147959031,5.8320003,4.7449503,7.0750504
1680008829796,1188818150461189,5.77005,4.69005,7.14405
1680008829797,1188818152963343,5.8489504,4.5469503,7.0189505
1680008829800,1188818155465497,5.8440003,4.74795,7.122
1680008829803,1188818157967651,5.8560004,4.7140503,7.0150504
1680008829807,1188818160469815,5.952,4.76205,7.0530005
1680008829809,1188818162971892,5.84595,4.68795,7.1340003
1680008829811,1188818165474122,5.8510504,4.70205,7.01205
1680008829814,1188818167976507,5.8660502,4.7449503,6.9930005
1680008829816,1188818170478430,5.8300505,4.74795,6.9690003
1680008829818,1188818172980579,5.8219504,4.7310004,6.9880505
1680008829820,1188818175482733,5.79405,4.7119503,6.9880505
1680008829824,1188818177984887,5.82495,4.70505,6.9910502
1680008829827,1188818180487271,5.87295,4.69995,6.972
1680008829828,1188818182989406,5.84205,4.6860003,7.11495
1680008829831,1188818185491560,5.7049503,4.72905,7.0579505
1680008829834,1188818187993714,5.8440003,4.67805,6.95205
1680008829836,1188818190495637,5.7649503,4.7119503,7.0290003
1680008829838,1188818192998022,5.90595,4.7310004,6.945
1680008829840,1188818195500189,5.8510504,4.72095,7.08195
1680008829845,1188818198002420,5.7889504,4.7140503,6.9979506
1680008829847,1188818200504497,5.84595,4.7260504,7.0360503
1680008829849,1188818203006651,5.82705,4.70505,6.9690003
1680008829850,1188818205508810,5.84595,4.72095,6.9859505
1680008829854,1188818208010964,5.80095,4.76205,7.0309505
1680008829856,1188818210513118,5.81505,4.67805,6.9430504
1680008829858,1188818213015348,5.84595,4.6420503,6.97905
1680008829861,1188818215517502,5.78205,4.73295,7.0630503
1680008829864,1188818218019665,5.8390503,4.662,6.9810004
1680008829865,1188818220521819,5.8819504,4.6639504,7.0750504
1680008829867,1188818223023973,5.81295,4.6810503,6.972
1680008829870,1188818225526127,5.88,4.7530503,7.08195
1680008829873,1188818228028280,5.8630505,4.6330504,7.0480504
1680008829875,1188818230530430,5.82705,4.7410502,7.0870504
1680008829878,1188818233032584,5.8510504,4.7190003,7.03905
1680008829882,1188818235534969,5.81505,4.671,7.1659503
1680008829884,1188818238036907,5.8609505,4.827,7.00995
1680008829887,1188818240539061,5.80305,4.755,7.03905
1680008829888,1188818243041215,5.79405,4.7410502,7.077
1680008829890,1188818245543599,5.8320003,4.65,7.0750504
1680008829895,1188818248045753,5.7960005,4.695,7.1320505
1680008829897,1188818250547921,5.8489504,4.7310004,6.9880505
1680008829898,1188818253050075,5.7990003,4.6420503,7.182
1680008829900,1188818255552229,5.775,4.6980004,6.9880505
1680008829903,1188818258054382,5.8300505,4.671,7.0870504
1680008829905,1188818260556613,5.8819504,4.72095,7.1250005
1680008829908,1188818263058753,5.8110003,4.7790003,7.05495
1680008829912,1188818265560907,5.7790504,4.8030005,7.0270505
1680008829914,1188818268062984,5.8369503,4.69995,7.1130004
1680008829916,1188818270565138,5.8609505,4.75005,7.04295
1680008829919,1188818273067277,5.9419503,4.683,7.0150504
1680008829923,1188818275569430,5.8609505,4.683,7.0480504
1680008829925,1188818278071661,5.79405,4.6980004,7.0789504
1680008829927,1188818280573815,5.7720003,4.7190003,6.9690003
1680008829929,1188818283075969,5.808,4.7569504,6.97905
1680008829930,1188818285578133,5.9329505,4.662,6.9600005
1680008829937,1188818288080287,5.8510504,4.79295,7.0030503
1680008829938,1188818290582440,5.84205,4.70505,6.9640503
1680008829939,1188818293084825,5.81295,4.662,6.9859505
1680008829940,1188818295586748,5.8560004,4.73295,7.0150504
1680008829944,1188818298088902,5.8630505,4.743,6.9600005
1680008829945,1188818300591287,5.7889504,4.6740003,7.1299505
1680008829947,1188818303093440,5.87505,4.66905,7.0270505
1680008829950,1188818305595364,5.8510504,4.68795,7.03905
1680008829954,1188818308097507,5.9089503,4.7569504,6.97905
1680008829957,1188818310599892,5.808,4.7449503,6.9930005
1680008829959,1188818313102046,5.8969502,4.671,6.93795
1680008829961,1188818315603969,5.87505,4.683,7.0219502
1680008829964,1188818318106099,5.8320003,4.6519504,7.00995
1680008829966,1188818320608560,5.78205,4.755,7.077
1680008829968,1188818323110714,5.8440003,4.67805,7.01205
1680008829970,1188818325612791,5.81505,4.623,6.9600005
1680008829973,1188818328114945,5.8320003,4.7410502,7.0870504
1680008829977,1188818330617099,5.83395,4.67805,7.0650005
1680008829978,1188818333119253,5.7580504,4.6860003,7.0069504
1680008829980,1188818335621483,5.7580504,4.7530503,7.08195
1680008829983,1188818338123637,5.9040003,4.695,7.0459504
1680008829986,1188818340625791,5.85795,4.7239504,7.1250005
1680008829988,1188818343127868,5.81295,4.7140503,7.0630503
1680008829990,1188818345630099,5.8369503,4.6519504,7.05495
1680008829995,1188818348132253,5.83395,4.82205,7.0410004
1680008829997,1188818350634637,5.8630505,4.78905,7.0459504
1680008829998,1188818353136560,5.7889504,4.7449503,7.0270505
1680008830000,1188818355638714,5.8510504,4.73295,7.0939503
1680008830004,1188818358140868,5.8390503,4.75005,7.06995
1680008830005,1188818360643032,5.72205,4.6590004,7.00995
1680008830007,1188818363145186,5.7889504,4.7310004,7.0219502
1680008830010,1188818365647340,5.8320003,4.74795,7.0720506
1680008830014,1188818368149724,5.82705,4.70505,7.017
1680008830018,1188818370651873,5.81295,4.71705,7.0410004
1680008830019,1188818373154027,5.7580504,4.69005,6.93795
1680008830021,1188818375656181,5.84595,4.671,7.1250005
1680008830023,1188818378158335,5.7960005,4.6930504,7.005
1680008830026,1188818380660489,5.7340503,4.7569504,7.0410004
1680008830028,1188818383162632,5.8320003,4.69995,7.1940002
1680008830032,1188818385664786,5.8560004,4.695,7.0870504
1680008830035,1188818388167017,5.8390503,4.77405,7.0530005
1680008830037,1188818390669085,5.85405,4.8460503,6.9430504
1680008830039,1188818393171239,5.8660502,4.79295,6.9910502
1680008830041,1188818395673393,5.79405,4.767,6.9430504
1680008830044,1188818398175547,5.7910504,4.7719502,7.1200504
1680008830046,1188818400677777,5.8180504,4.7119503,6.97905
1680008830048,1188818403179931,5.79405,4.767,7.0290003
1680008830050,1188818405682085,5.8110003,4.7569504,6.9
1680008830053,1188818408184239,5.82,4.7140503,7.0360503
1680008830056,1188818410686393,5.82495,4.70205,7.14405
1680008830058,1188818413188527,5.8780503,4.7569504,6.9259505
1680008830060,1188818415690911,5.7720003,4.743,7.02405
1680008830064,1188818418193065,5.8609505,4.8120003,7.00995
1680008830065,1188818420694988,5.76,4.75995,7.1029506
1680008830069,1188818423197127,5.808,4.827,6.9810004
1680008830071,1188818425699281,5.7670503,4.81005,6.984
1680008830074,1188818428201435,5.7790504,4.6639504,7.0459504
1680008830076,1188818430703589,5.8680005,4.77705,6.9619503
1680008830078,1188818433205973,5.7790504,4.6260004,7.04295
1680008830080,1188818435708141,5.808,4.7790003,7.05495
1680008830083,1188818438210295,5.7769504,4.7140503,7.0459504
1680008830086,1188818440712449,5.7769504,4.6740003,6.95205
1680008830088,1188818443214603,5.7510004,4.70205,6.9360003
1680008830090,1188818445716781,5.727,4.7449503,7.0360503
1680008830094,1188818448219012,5.81505,4.6420503,7.05105
1680008830096,1188818450721089,5.8609505,4.7239504,7.04295
1680008830098,1188818453223243,5.87505,4.67805,7.017
1680008830100,1188818455725397,5.85405,4.64505,7.15395
1680008830103,1188818458227570,5.8219504,4.7860503,7.05105
1680008830107,1188818460729723,5.8180504,4.767,7.0459504
1680008830109,1188818463231954,5.79405,4.6519504,7.1250005
1680008830111,1188818465734098,5.83395,4.662,6.9160504
1680008830114,1188818468236252,5.82705,4.73295,7.00995
1680008830115,1188818470738406,5.8510504,4.6860003,7.0939503
1680008830118,1188818473240560,5.8680005,4.72905,7.03905
1680008830120,1188818475742714,5.7670503,4.70505,7.0600505
1680008830123,1188818478244877,5.82,4.6860003,7.1700006
1680008830126,1188818480747262,5.8510504,4.7119503,7.1029506
1680008830128,1188818483249416,5.8609505,4.7260504,7.08405
1680008830130,1188818485751570,5.78205,4.64505,7.1080503
1680008830133,1188818488253512,5.8560004,4.6980004,7.05105
1680008830136,1188818490755666,5.87505,4.61805,7.00995
1680008830139,1188818493257819,5.8680005,4.6519504,7.08405
1680008830141,1188818495760204,5.8510504,4.6860003,7.02405
1680008830145,1188818498262372,5.84595,4.7239504,6.9670506
1680008830147,1188818500764526,5.8819504,4.64505,7.0290003
1680008830149,1188818503266680,5.87505,4.7310004,7.0939503
1680008830152,1188818505768834,5.925,4.6470003,7.0000505
1680008830154,1188818508271007,5.9110503,4.6810503,7.02405
1680008830156,1188818510773161,5.84205,4.62795,6.9979506
1680008830158,1188818513275392,5.8369503,4.6590004,7.0909505
1680008830160,1188818515777469,5.8110003,4.63005,7.0339503
1680008830163,1188818518279613,5.85405,4.6930504,7.08405
1680008830165,1188818520781767,5.81505,4.7070003,7.1269503
1680008830168,1188818523283997,5.81505,4.7239504,7.08195
1680008830170,1188818525786074,5.80305,4.63005,7.1130004
1680008830173,1188818528288305,5.8699503,4.69995,7.0630503
1680008830176,1188818530790483,5.82705,4.72905,7.1509504
1680008830178,1188818533292637,5.84595,4.662,7.1029506
1680008830182,1188818535794791,5.8110003,4.7070003,7.1059504
1680008830184,1188818538296959,5.80095,4.72095,7.0750504
1680008830186,1188818540799112,5.8900504,4.75995,7.077
1680008830188,1188818543301497,5.8560004,4.75995,7.0410004
1680008830191,1188818545803651,5.8219504,4.6590004,7.15395
1680008830194,1188818548305805,5.7910504,4.7689505,7.017
1680008830196,1188818550807969,5.82,4.77705,7.0530005
1680008830198,1188818553309892,5.7889504,4.695,7.0579505
1680008830201,1188818555812045,5.84595,4.66905,7.0909505
1680008830204,1188818558314199,5.7790504,4.6930504,7.0270505
1680008830206,1188818560816584,5.715,4.695,7.1299505
1680008830208,1188818563318762,5.808,4.638,7.0750504
1680008830210,1188818565820916,5.7580504,4.75995,7.005
1680008830214,1188818568323070,5.7510004,4.73295,6.93795
1680008830217,1188818570825228,5.79405,4.73295,7.06995
1680008830220,1188818573327382,5.8489504,4.66905,7.0480504
1680008830222,1188818575829613,5.8939505,4.6590004,6.9930005
1680008830225,1188818578331767,5.775,4.6639504,7.1389503
1680008830227,1188818580833940,5.748,4.6810503,7.05495
1680008830229,1188818583336017,5.88,4.6470003,7.0530005
1680008830232,1188818585838170,5.9350505,4.662,7.1370006
1680008830236,1188818588340324,5.8320003,4.7119503,7.1850004
1680008830237,1188818590842574,5.87505,4.76205,7.04295
1680008830239,1188818593344728,5.8369503,4.75995,7.0290003
1680008830240,1188818595846882,5.88,4.755,7.0870504
1680008830244,1188818598349036,5.7960005,4.7140503,7.00995
1680008830246,1188818600851190,5.87505,4.74795,6.9690003
1680008830248,1188818603353541,5.83395,4.6660504,6.9670506
1680008830250,1188818605855695,5.7840004,4.69005,7.0219502
1680008830254,1188818608357849,5.74305,4.7959504,7.1029506
1680008830258,1188818610859772,5.787,4.72095,7.0189505
1680008830261,1188818613362143,5.748,4.7650504,7.0720506
1680008830262,1188818615864066,5.748,4.695,7.02405
1680008830264,1188818618366450,5.8440003,4.7839503,7.0630503
1680008830266,1188818620868604,5.71005,4.6660504,6.9910502
1680008830268,1188818623370758,5.81505,4.7070003,7.0579505
1680008830270,1188818625872893,5.85405,4.7410502,7.05495
1680008830273,1188818628375047,5.7790504,4.6330504,7.03905
1680008830275,1188818630877201,5.7960005,4.77705,6.984
1680008830278,1188818633379354,5.8219504,4.75005,7.0720506
1680008830280,1188818635881609,5.8110003,4.79295,6.9880505
1680008830284,1188818638383763,5.8390503,4.73295,7.0909505
1680008830286,1188818640885917,5.81295,4.71705,6.9330006
1680008830288,1188818643388071,5.8440003,4.72095,6.9430504
1680008830290,1188818645890143,5.8780503,4.73295,7.00995
1680008830296,1188818648392296,5.88705,4.76205,6.9949503
1680008830298,1188818650894527,5.87295,4.77705,6.9330006
1680008830300,1188818653396681,5.8969502,4.767,7.0909505
1680008830302,1188818655898830,5.80305,4.671,6.9949503
1680008830304,1188818658400984,5.808,4.7530503,7.005
1680008830306,1188818660903138,5.88,4.7689505,7.0000505
1680008830308,1188818663405292,5.8900504,4.76205,7.0960503
1680008830311,1188818665907676,5.925,4.75005,7.0669503
1680008830314,1188818668409844,5.8180504,4.7119503,6.9550505
1680008830315,1188818670911998,5.88,4.671,7.0309505
1680008830318,1188818673413921,5.727,4.7980504,7.017
1680008830320,1188818675916075,5.7720003,4.7380505,7.03905
1680008830324,1188818678418229,5.8320003,4.7860503,6.945
1680008830326,1188818680920382,5.787,4.7650504,7.04295
1680008830328,1188818683422767,5.775,4.7569504,7.02405
1680008830332,1188818685924921,5.74305,4.7689505,7.02405
1680008830335,1188818688427080,5.79405,4.7530503,7.0720506
1680008830338,1188818690929234,5.8819504,4.74795,7.05105
1680008830339,1188818693431388,5.82495,4.74795,7.22805
1680008830341,1188818695933541,5.82705,4.6420503,7.0069504
1680008830345,1188818698435743,5.80095,4.7140503,7.1320505
1680008830346,1188818700937897,5.8609505,4.65,7.1320505
1680008830348,1188818703439974,5.8300505,4.6930504,7.05105
1680008830350,1188818705942205,5.8510504,4.66905,7.0290003
1680008830354,1188818708444345,5.8630505,4.7140503,7.005
1680008830356,1188818710946421,5.8369503,4.7719502,6.9910502
1680008830365,1188818713448575,5.8699503,4.81995,6.94005
1680008830365,1188818715950806,5.87295,4.827,6.97905
1680008830365,1188818718452960,5.7960005,4.69005,7.0579505
1680008830366,1188818720955109,5.8699503,4.72905,7.0600505
1680008830369,1188818723457263,5.80305,4.7239504,7.0960503
1680008830372,1188818725959417,5.85405,4.65,6.9
1680008830379,1188818728461556,5.89905,4.6519504,7.0870504
1680008830379,1188818730963941,5.8060503,4.7190003,7.0650005
1680008830382,1188818733466095,5.8440003,4.75005,7.00995
1680008830382,1188818735968249,5.8969502,4.64505,7.0150504
1680008830385,1188818738470403,5.84595,4.6740003,7.0410004
1680008830389,1188818740972321,5.7910504,4.6540504,7.0000505
1680008830389,1188818743474474,5.84205,4.7070003,7.0309505
1680008830390,1188818745976628,5.94495,4.66905,7.0030503
1680008830393,1188818748479013,5.7910504,4.6860003,7.0360503
1680008830395,1188818750981162,5.8369503,4.7569504,7.0650005
1680008830398,1188818753483316,5.7790504,4.72095,6.9550505
1680008830400,1188818755985470,5.8219504,4.7410502,7.05105
1680008830403,1188818758487623,5.8489504,4.6980004,7.1080503
1680008830407,1188818760989790,5.83395,4.7190003,7.06995
1680008830408,1188818763492021,5.82,4.7689505,7.005
1680008830410,1188818765994175,5.9350505,4.7410502,7.149
1680008830413,1188818768496329,5.7340503,4.75995,6.9240003
1680008830416,1188818770998406,5.8060503,4.7980504,7.03905
1680008830418,1188818773500603,5.8900504,4.7119503,6.9019504
1680008830420,1188818776002757,5.787,4.6860003,6.9690003
1680008830424,1188818778504988,5.8680005,4.7569504,7.0339503
1680008830426,1188818781007142,5.8440003,4.7530503,7.1130004
1680008830428,1188818783509291,5.8609505,4.827,6.9480004
1680008830431,1188818786011445,5.7720003,4.7410502,7.02405
1680008830434,1188818788513599,5.8939505,4.695,7.077
1680008830436,1188818791015752,5.7910504,4.6980004,6.95205
1680008830438,1188818793517906,5.82495,4.77405,7.0360503
1680008830440,1188818796020320,5.82705,4.7410502,7.1299505
1680008830445,1188818798522474,5.79405,4.81995,7.14405
1680008830446,1188818801024628,5.79405,4.72905,7.0339503
1680008830448,1188818803526781,5.85405,4.75005,6.9880505
1680008830450,1188818806028915,5.787,4.72095,7.0360503
1680008830454,1188818808530838,5.82495,4.7310004,6.9690003
1680008830456,1188818811033223,5.892,4.75995,6.9880505
1680008830458,1188818813535377,5.7580504,4.72095,6.984
1680008830460,1188818816037531,5.7289505,4.7239504,7.017
1680008830463,1188818818539671,5.748,4.72905,7.005
1680008830466,1188818821041824,5.787,4.71705,6.9600005
1680008830468,1188818823543978,5.77005,4.6420503,7.0290003
1680008830470,1188818826045901,5.85405,4.683,7.0410004
1680008830474,1188818828548377,5.87505,4.743,7.00995
1680008830475,1188818831050531,5.7580504,4.7719502,7.03905
1680008830478,1188818833552685,5.8369503,4.6590004,7.0000505
1680008830482,1188818836054742,5.82705,4.65705,6.9619503
1680008830485,1188818838556896,5.87295,4.67595,7.0459504
1680008830487,1188818841059050,5.8180504,4.7190003,7.0650005
1680008830489,1188818843561281,5.7889504,4.67805,6.9360003
1680008830490,1188818846063435,5.77005,4.72905,7.0960503
1680008830494,1188818848565570,5.9230504,4.7380505,7.0720506
1680008830497,1188818851067724,5.8630505,4.7839503,7.1059504
1680008830499,1188818853569877,5.9539504,4.7569504,7.0870504
1680008830501,1188818856072031,5.8819504,4.6420503,7.0960503
1680008830505,1188818858574383,5.88705,4.68795,7.0339503
1680008830506,1188818861076537,5.8320003,4.6519504,7.0069504
1680008830508,1188818863578691,5.90595,4.6930504,7.1080503
1680008830511,1188818866080614,5.8390503,4.6420503,7.0360503
1680008830514,1188818868582998,5.84205,4.7140503,7.0909505
1680008830515,1188818871085152,5.8560004,4.74795,7.05495
1680008830519,1188818873587306,5.8180504,4.70505,6.9930005
1680008830522,1188818876089460,5.8660502,4.6740003,7.0480504
1680008830524,1188818878591614,5.8630505,4.7140503,7.0000505
1680008830527,1188818881093739,5.7769504,4.695,7.017
1680008830529,1188818883595662,5.775,4.69005,6.9310503
1680008830531,1188818886098046,5.8369503,4.70205,6.9979506
1680008830534,1188818888600200,5.8110003,4.7070003,7.017
1680008830536,1188818891102354,5.7340503,4.6399503,6.972
1680008830539,1188818893604522,5.75505,4.81995,7.02405
1680008830540,1188818896106676,5.7649503,4.74795,6.9280505
1680008830544,1188818898608829,5.74095,4.755,7.0030503
1680008830546,1188818901111060,5.6839504,4.7959504,7.1200504
1680008830549,1188818903613210,5.7580504,4.66905,6.9979506
1680008830551,1188818906115364,5.7910504,4.7070003,7.04295
1680008830554,1188818908617518,5.79405,4.73295,7.0960503
1680008830557,1188818911119667,5.83395,4.7070003,7.08195
1680008830559,1188818913621744,5.75295,4.77405,7.00995
1680008830562,1188818916123897,5.83395,4.66905,7.0069504
1680008830564,1188818918626359,5.9040003,4.638,7.0189505
1680008830566,1188818921128513,5.81505,4.6420503,6.9979506
1680008830568,1188818923630425,5.8060503,4.7070003,7.0219502
1680008830571,1188818926132579,5.8390503,4.7070003,6.9670506
1680008830573,1188818928634733,5.8510504,4.69995,7.11
1680008830576,1188818931136886,5.7990003,4.6930504,7.005
1680008830578,1188818933639242,5.7720003,4.75005,6.95205
1680008830581,1188818936141396,5.84595,4.6980004,7.0750504
1680008830584,1188818938643550,5.8819504,4.61595,6.9690003
1680008830586,1188818941145704,5.8390503,4.74795,6.97905
1680008830588,1188818943647857,5.80305,4.67805,7.08405
1680008830591,1188818946150002,5.77005,4.71705,7.1509504
1680008830595,1188818948652156,5.8219504,4.662,6.9930005
1680008830597,1188818951154310,5.8510504,4.7239504,7.02405
1680008830599,1188818953656478,5.85795,4.65705,7.0669503
1680008830601,1188818956158632,5.8390503,4.7310004,7.0789504
1680008830604,1188818958660786,5.87295,4.7070003,6.9910502
1680008830606,1188818961162939,5.8320003,4.6860003,6.9949503
1680008830608,1188818963665093,5.81295,4.75005,7.0980005
1680008830611,1188818966167290,5.9110503,4.6069503,6.9880505
1680008830614,1188818968669444,5.8300505,4.68795,7.15395
1680008830617,1188818971171598,5.8300505,4.69005,7.0720506
1680008830619,1188818973673752,5.85795,4.69995,6.9760504
1680008830621,1188818976175910,5.83395,4.6660504,7.0960503
1680008830624,1188818978678064,5.88705,4.67805,7.14195
1680008830626,1188818981180218,5.77005,4.69005,6.9949503
1680008830628,1188818983682372,5.8180504,4.7310004,7.11495
1680008830633,1188818986184526,5.808,4.7239504,7.11495
1680008830635,1188818988686680,5.80305,4.695,7.0030503
1680008830637,1188818991188834,5.8560004,4.72095,7.06995
1680008830639,1188818993690987,5.787,4.7140503,6.9859505
1680008830641,1188818996193141,5.7790504,4.75995,6.9690003
1680008830644,1188818998695541,5.7670503,4.69995,7.0000505
1680008830648,1188819001197695,5.8609505,4.6420503,7.0339503
1680008830650,1188819003699849,5.85405,4.695,7.1779504
1680008830653,1188819006202002,5.85405,4.71705,7.182
1680008830654,1188819008703921,5.84595,4.5870004,7.0600505
1680008830656,1188819011206074,5.82705,4.7260504,6.9810004
1680008830658,1188819013708536,5.7960005,4.65,7.0630503
1680008830661,1188819016210690,5.85405,4.62795,7.08405
1680008830664,1188819018712743,5.8510504,4.8169503,7.0339503
1680008830666,1188819021214897,5.787,4.7839503,7.1010003
1680008830670,1188819023717050,5.8660502,4.6399503,7.02405
1680008830672,1188819026219204,5.8180504,4.6519504,6.97905
1680008830674,1188819028721386,5.8180504,4.743,7.0069504
1680008830677,1188819031223617,5.87295,4.7190003,7.0480504
1680008830679,1188819033725771,5.8630505,4.69005,7.0870504
1680008830681,1188819036227925,5.88705,4.64505,6.9690003
1680008830686,1188819038730078,5.85405,4.6740003,7.0459504
1680008830687,1188819041232242,5.91795,4.60395,7.0000505
1680008830689,1188819043734396,5.81505,4.6660504,6.9670506
1680008830691,1188819046236550,5.80305,4.695,7.08405
1680008830694,1188819048738704,5.7390003,4.73595,6.972
1680008830697,1188819051240877,5.7649503,4.848,7.077
1680008830699,1188819053743031,5.808,4.6660504,7.0360503
1680008830701,1188819056245184,5.8440003,4.755,7.0480504
1680008830704,1188819058747338,5.748,4.671,7.005
1680008830707,1188819061249699,5.70795,4.7449503,7.00995
1680008830709,1188819063751853,5.7510004,4.695,7.0290003
1680008830711,1188819066254007,5.81295,4.70895,7.0000505
1680008830714,1188819068756160,5.8560004,4.839,7.0480504
1680008830716,1188819071258314,5.8300505,4.7449503,7.0650005
1680008830718,1188819073760487,5.8660502,4.7119503,6.9139504
1680008830721,1188819076262410,5.6980505,4.767,7.0750504
1680008830724,1188819078764795,5.808,4.69995,7.1130004
1680008830727,1188819081266949,5.8440003,4.75005,6.984
1680008830729,1188819083769094,5.8630505,4.6860003,6.9949503
1680008830731,1188819086271247,5.8390503,4.69995,7.0750504
1680008830734,1188819088773401,5.87505,4.8169503,7.0290003
1680008830736,1188819091275555,5.89905,4.70895,7.0459504
1680008830738,1188819093777796,5.7960005,4.695,7.0480504
1680008830741,1188819096279950,5.83395,4.73295,7.0360503
1680008830745,1188819098782104,5.84205,4.66905,6.9810004
1680008830748,1188819101284257,5.88,4.70895,7.05105
1680008830750,1188819103786329,5.81295,4.66905,6.9979506
1680008830751,1188819106288483,5.76,4.7650504,6.945
1680008830754,1188819108790637,5.8180504,4.74795,6.94995
1680008830756,1188819111293099,5.87295,4.7790003,7.00995
1680008830760,1188819113794989,5.8900504,4.75995,7.05105
1680008830762,1188819116297143,5.84205,4.7070003,7.0360503
1680008830765,1188819118799296,5.79405,4.6540504,7.0870504
1680008830767,1188819121301450,5.8609505,4.6590004,6.95205
1680008830768,1188819123803604,5.8560004,4.66905,6.9859505
1680008830771,1188819126305994,5.9020505,4.7260504,7.0939503
1680008830774,1188819128808148,5.8510504,4.74795,7.05495
1680008830778,1188819131310301,5.8939505,4.7410502,7.01205
1680008830780,1188819133812225,5.82495,4.7310004,7.0939503
1680008830782,1188819136314613,5.8780503,4.73595,7.077
1680008830785,1188819138816767,5.8060503,4.7140503,7.0410004
1680008830787,1188819141318921,5.84595,4.6420503,7.005
1680008830789,1188819143821075,5.8699503,4.8679504,7.0750504
1680008830791,1188819146323229,5.8510504,4.7119503,7.0870504
1680008830794,1188819148825392,5.8219504,4.73595,7.0939503
1680008830796,1188819151327546,5.7580504,4.73595,7.1269503
1680008830798,1188819153829777,5.8609505,4.7070003,7.0789504
1680008830801,1188819156331854,5.88495,4.6470003,7.0150504
1680008830804,1188819158834008,5.8630505,4.7310004,7.08195
1680008830806,1188819161336162,5.7889504,4.7070003,7.149
1680008830808,1188819163838392,5.7670503,4.69995,7.00995
1680008830811,1188819166340469,5.8219504,4.72905,7.0150504
1680008830814,1188819168842700,5.81505,4.64505,7.1029506
1680008830817,1188819171344854,5.7720003,4.635,7.1460004
1680008830820,1188819173847008,5.808,4.6590004,7.0410004
1680008830822,1188819176349162,5.85795,4.7239504,7.1080503
1680008830825,1188819178851335,5.8219504,4.68795,7.00995
1680008830828,1188819181353488,5.76,4.65,7.0360503
1680008830830,1188819183855873,5.79405,4.7839503,7.02405
1680008830832,1188819186357796,5.79405,4.72095,7.005
1680008830835,1188819188860181,5.8680005,4.6639504,7.08195
1680008830837,1188819191362373,5.7310505,4.68795,6.9619503
1680008830838,1188819193864526,5.7720003,4.7410502,7.1130004
1680008830841,1188819196366450,5.77005,4.7070003,7.03905
1680008830846,1188819198868603,5.8320003,4.72095,7.1250005
1680008830848,1188819201370988,5.83395,4.6519504,7.149
1680008830849,1188819203873142,5.81295,4.71705,7.0630503
1680008830851,1188819206375296,5.82495,4.7239504,7.08405
1680008830854,1188819208877450,5.8300505,4.65,7.0219502
1680008830858,1188819211379608,5.7340503,4.7380505,7.182
1680008830861,1188819213881532,5.7990003,4.7410502,7.0870504
1680008830863,1188819216383993,5.7790504,4.77405,6.9760504
1680008830865,1188819218886147,5.8699503,4.75005,7.005
1680008830866,1188819221388301,5.787,4.7140503,6.9760504
1680008830868,1188819223890393,5.7649503,4.7410502,7.0579505
1680008830870,1188819226392547,5.81295,4.7410502,7.0530005
1680008830873,1188819228894700,5.8660502,4.7239504,7.15395
1680008830876,1188819231396854,5.7910504,4.6930504,7.1800504
1680008830878,1188819233899085,5.7390003,4.68795,7.1989503
1680008830881,1188819236401252,5.8390503,4.7190003,7.00995
1680008830884,1188819238903406,5.7390003,4.6930504,6.95205
1680008830886,1188819241405560,5.8780503,4.75995,6.9910502
1680008830888,1188819243907713,5.85795,4.6590004,6.9979506
1680008830890,1188819246409849,5.8180504,4.6660504,7.0290003
1680008830895,1188819248912234,5.7510004,4.69995,7.0290003
1680008830898,1188819251414157,5.808,4.67805,7.11
1680008830899,1188819253916324,5.85405,4.7119503,6.9570003
1680008830901,1188819256418478,5.8300505,4.71705,7.00995
1680008830904,1188819258920632,5.8900504,4.7260504,6.9690003
1680008830906,1188819261422785,5.7910504,4.6980004,7.01205
1680008830908,1188819263924939,5.8560004,4.7719502,6.9810004
1680008830911,1188819266427324,5.80305,4.695,7.1779504
1680008830914,1188819268929478,5.8320003,4.80795,6.9690003
1680008830916,1188819271431632,5.75295,4.70505,7.0290003
1680008830919,1188819273933785,5.8510504,4.6639504,7.077
1680008830921,1188819276435939,5.8510504,4.65705,7.0480504
1680008830924,1188819278938112,5.76,4.7070003,7.0410004
1680008830926,1188819281440266,5.787,4.6930504,7.1850004
1680008830929,1188819283942420,5.8680005,4.6860003,6.984
1680008830933,1188819286444666,5.82495,4.7119503,7.0530005
1680008830935,1188819288946743,5.9350505,4.64505,7.1179504
1680008830938,1188819291448896,5.7990003,4.7569504,7.017
1680008830940,1188819293951050,5.77005,4.73595,6.945
1680008830942,1188819296453281,5.736,4.7239504,7.0650005
1680008830944,1188819298955440,5.8060503,4.827,6.9910502
1680008830946,1188819301457594,5.8369503,4.5750003,7.14405
1680008830949,1188819303959748,5.75295,4.68795,7.0309505
1680008830951,1188819306461901,5.88705,4.74795,7.0579505
1680008830954,1188819308964060,5.77005,4.73595,7.0669503
1680008830956,1188819311466214,5.7049503,4.7239504,7.0459504
1680008830958,1188819313968599,5.7910504,4.743,7.11
1680008830961,1188819316470753,5.6980505,4.60395,7.077
1680008830964,1188819318972676,5.7790504,4.7119503,7.0579505
1680008830966,1188819321474830,5.8320003,4.81995,7.0600505
1680008830970,1188819323976983,5.8660502,4.7449503,7.077
1680008830972,1188819326479137,5.7910504,4.6540504,7.0650005
1680008830974,1188819328981531,5.7840004,4.6590004,7.0789504
1680008830978,1188819331483685,5.80095,4.64505,7.0290003
1680008830981,1188819333985839,5.85405,4.671,7.05105
1680008830982,1188819336487992,5.808,4.6860003,7.1130004
1680008830996,1188819338990146,5.90595,4.72095,7.0939503
1680008830996,1188819341492286,5.8630505,4.7140503,7.0270505
1680008830996,1188819343994440,5.88495,4.6930504,6.9979506
1680008830996,1188819346496671,5.80095,4.683,7.15395
1680008830996,1188819348998748,5.7790504,4.7140503,6.9910502
1680008830996,1188819351500892,5.78205,4.671,7.0750504
1680008830998,1188819354003045,5.85405,4.61805,7.0339503
1680008831001,1188819356505199,5.7720003,4.73295,7.1080503
1680008831004,1188819359007353,5.72205,4.6980004,7.0650005
1680008831007,1188819361509584,5.8060503,4.6590004,7.05495
1680008831009,1188819364011738,5.8440003,4.695,7.0150504
1680008831011,1188819366513892,5.8110003,4.73295,7.0270505
1680008831014,1188819369016045,5.81295,4.683,7.0600505
1680008831017,1188819371518199,5.7630005,4.5990005,7.1250005
1680008831019,1188819374020358,5.7990003,4.6860003,6.9480004
1680008831021,1188819376522512,5.8320003,4.63005,7.0339503
1680008831024,1188819379024666,5.808,4.73295,7.02405
1680008831027,1188819381526820,5.8320003,4.78095,7.0459504
1680008831029,1188819384028974,5.8390503,4.767,7.0339503
1680008831031,1188819386531127,5.9329505,4.671,7.0339503
1680008831034,1188819389033281,5.80305,4.69005,7.005
1680008831036,1188819391535435,5.80095,4.7190003,6.9810004
1680008831039,1188819394037820,5.8939505,4.743,7.0939503
1680008831041,1188819396539964,5.8180504,4.7310004,7.0069504
1680008831045,1188819399042117,5.8819504,4.7140503,7.089
1680008831047,1188819401544271,5.8819504,4.7239504,7.0870504
1680008831049,1188819404046425,5.85405,4.66905,6.9310503
1680008831051,1188819406548353,5.8390503,4.6740003,7.122
1680008831055,1188819409050738,5.9040003,4.6330504,6.9619503
1680008831057,1188819411552892,5.8660502,4.72095,7.08405
1680008831059,1188819414055046,5.85405,4.6590004,7.0789504
1680008831061,1188819416557209,5.9209504,4.6470003,7.02405
1680008831064,1188819419059363,5.7960005,4.61805,7.1130004
1680008831066,1188819421561517,5.8390503,4.65,7.11
1680008831068,1188819424063748,5.9089503,4.7530503,6.9880505
1680008831071,1188819426565844,5.94705,4.68795,7.14195
1680008831074,1188819429067998,5.8680005,4.7530503,7.077
1680008831076,1188819431570152,5.7960005,4.602,7.0219502
1680008831079,1188819434072305,5.7840004,4.7260504,7.0650005
1680008831083,1188819436574536,5.83395,4.6519504,7.0270505
1680008831085,1188819439076690,5.80305,4.7239504,6.9979506
1680008831087,1188819441578844,5.81505,4.75005,7.0960503
1680008831089,1188819444080998,5.82,4.7650504,7.122
1680008831091,1188819446583152,5.9110503,4.7410502,7.0600505
1680008831095,1188819449085290,5.83395,4.6590004,7.0030503
1680008831097,1188819451587675,5.80305,4.635,7.005
1680008831098,1188819454089598,5.8609505,4.75005,6.9600005
1680008831102,1188819456591752,5.82495,4.69995,7.0650005
1680008831104,1188819459093906,5.8110003,4.7860503,6.9640503
1680008831107,1188819461596060,5.7460504,4.80495,7.0909505
1680008831109,1188819464098214,5.8369503,4.70205,7.0030503
1680008831111,1188819466600367,5.7670503,4.69995,7.122
1680008831114,1188819469102752,5.8219504,4.75005,7.04295
1680008831116,1188819471604906,5.79405,4.7239504,6.9880505
1680008831120,1188819474107055,5.81295,4.71705,7.089
1680008831122,1188819476609209,5.78205,4.7910004,7.0290003
1680008831128,1188819479111338,5.78205,4.69005,6.984
1680008831129,1188819481613261,5.81505,4.68795,7.0480504
1680008831130,1188819484115646,5.80305,4.743,6.9880505
1680008831131,1188819486617800,5.8510504,4.6980004,7.0960503
1680008831135,1188819489119954,5.787,4.6980004,7.1269503
1680008831139,1188819491622061,5.8300505,4.6639504,6.9480004
1680008831140,1188819494124215,5.9020505,4.671,7.0410004
1680008831141,1188819496626368,5.8440003,4.5750003,7.0939503
1680008831144,1188819499128599,5.83395,4.65,7.017
1680008831146,1188819501630753,5.75295,4.7070003,7.00995
1680008831149,1188819504132898,5.79405,4.7070003,7.0290003
1680008831153,1188819506635052,5.7990003,4.64505,7.1250005
1680008831154,1188819509137206,5.787,4.827,6.9670506
1680008831158,1188819511639282,5.85405,4.75005,7.0669503
1680008831161,1188819514141426,5.83395,4.6210504,7.0189505
1680008831162,1188819516643657,5.8369503,4.7070003,7.0750504
1680008831164,1188819519145811,5.85405,4.7860503,6.9810004
1680008831166,1188819521647965,5.9160004,4.68795,7.0870504
1680008831168,1188819524150119,5.808,4.79295,7.02405
1680008831171,1188819526652254,5.8660502,4.69005,7.05105
1680008831174,1188819529154407,5.808,4.6980004,7.089
1680008831178,1188819531656792,5.8489504,4.70205,7.0000505
1680008831179,1188819534158946,5.7649503,4.77705,6.9760504
1680008831183,1188819536661071,5.7840004,4.69995,7.1179504
1680008831184,1188819539162994,5.88705,4.7140503,7.1629505
1680008831186,1188819541665148,5.8180504,4.70205,7.1370006
1680008831189,1188819544167301,5.9370003,4.7410502,7.005
1680008831191,1188819546669686,5.88705,4.7260504,7.1320505
1680008831196,1188819549171825,5.8440003,4.68795,7.0069504
1680008831198,1188819551673979,5.8680005,4.6210504,7.0530005
1680008831199,1188819554176133,5.736,4.6740003,7.0600505
1680008831201,1188819556678286,5.82,4.6930504,7.0630503
1680008831204,1188819559180445,5.8699503,4.7140503,7.0459504
1680008831206,1188819561682599,5.8969502,4.6740003,6.95205
1680008831209,1188819564184830,5.8489504,4.70505,7.1320505
1680008831211,1188819566686984,5.8560004,4.73595,7.1509504
1680008831215,1188819569189075,5.8510504,4.7959504,7.0270505
1680008831217,1188819571691229,5.787,4.7070003,7.0750504
1680008831219,1188819574193382,5.7960005,4.72095,6.97905
1680008831221,1188819576695613,5.8219504,4.635,7.1700006
1680008831225,1188819579197767,5.81505,4.8630004,6.9670506
1680008831227,1188819581699907,5.83395,4.7190003,7.08195
1680008831230,1188819584202061,5.81295,4.7140503,7.03905
1680008831235,1188819586704215,5.7960005,4.70205,7.0410004
1680008831236,1188819589206363,5.88,4.6540504,7.0980005
1680008831238,1188819591942594,5.7720003,4.7119503,6.9979506
1680008831240,1188819594210671,5.8390503,4.6980004,7.0870504
1680008831242,1188819596712825,5.82,4.662,7.04295
1680008831245,1188819599215210,5.85405,4.65705,7.03905
1680008831247,1188819601717345,5.80305,4.67805,7.15395
1680008831249,1188819604219498,5.82,4.6740003,7.0480504
1680008831251,1188819606721421,5.8180504,4.65705,7.0720506
1680008831255,1188819609223575,5.8780503,4.695,7.0750504
1680008831257,1188819611725960,5.74305,4.7260504,7.00995
1680008831259,1188819614228119,5.8300505,4.75995,6.9859505
1680008831261,1188819616730273,5.81295,4.73295,7.077
1680008831264,1188819619232426,5.82495,4.7239504,7.0069504
1680008831267,1188819621734580,5.84595,4.755,6.9690003
1680008831270,1188819624236743,5.8939505,4.7140503,7.017
1680008831272,1188819626738666,5.82495,4.695,7.14405
1680008831274,1188819629241128,5.75505,4.80495,7.0000505
1680008831278,1188819631743282,5.7840004,4.73295,7.0339503
1680008831279,1188819634245359,5.7460504,4.683,7.0410004
1680008831281,1188819636747536,5.8390503,4.6740003,7.0630503
1680008831284,1188819639249690,5.8489504,4.7449503,7.00995
1680008831287,1188819641751844,5.79405,4.695,7.11
1680008831289,1188819644254075,5.85405,4.6930504,7.017
1680008831291,1188819646756229,5.7990003,4.70895,7.0750504
1680008831295,1188819649258388,5.7889504,4.78905,7.017
1680008831297,1188819651760541,5.79405,4.7239504,7.1320505
1680008831299,1188819654262618,5.8300505,4.71705,6.9810004
1680008831302,1188819656764887,5.81505,4.7569504,7.04295
1680008831304,1188819659267041,5.74305,4.7569504,7.0939503
1680008831307,1188819661769426,5.80305,4.6980004,7.0579505
1680008831310,1188819664271349,5.8320003,4.78095,7.0789504
1680008831311,1188819666773503,5.82,4.7239504,6.97905
1680008831314,1188819669275695,5.8390503,4.79295,7.1250005
1680008831316,1188819671777849,5.808,4.671,6.9810004
1680008831319,1188819674280003,5.88,4.73595,7.11495
1680008831321,1188819676782388,5.7840004,4.67805,7.05105
1680008831324,1188819679284537,5.7340503,4.72095,6.9570003
1680008831326,1188819681786690,5.787,4.635,7.122
1680008831329,1188819684288844,5.7289505,4.6519504,7.05105
1680008831331,1188819686790998,5.7960005,4.6930504,7.0960503
1680008831335,1188819689293157,5.8219504,4.81005,6.984
1680008831337,1188819691795388,5.7990003,4.65,7.1700006
1680008831339,1188819694297465,5.87295,4.69995,7.1080503
1680008831341,1188819696799619,5.80305,4.6210504,7.0189505
1680008831345,1188819699301786,5.8180504,4.69995,7.0189505
1680008831347,1188819701804017,5.715,4.6090503,7.0789504
1680008831349,1188819704306171,5.87505,4.70895,7.06995
1680008831351,1188819706808325,5.8489504,4.6930504,7.0630503
1680008831354,1188819709310417,5.8180504,4.77705,7.0069504
1680008831356,1188819711812648,5.80095,4.70895,6.9880505
1680008831359,1188819714314801,5.8819504,4.695,7.0309505
1680008831361,1188819716816878,5.7390003,4.7119503,7.0360503
1680008831364,1188819719319104,5.8680005,4.8169503,7.05495
1680008831366,1188819721821258,5.8969502,4.743,7.1200504
1680008831369,1188819724323412,5.84205,4.6860003,7.0459504
1680008831371,1188819726825566,5.8969502,4.69995,7.2060003
1680008831375,1188819729327701,5.81295,4.6069503,7.1029506
1680008831378,1188819731829854,5.925,4.74795,6.984
1680008831380,1188819734332239,5.78205,4.68795,7.0360503
1680008831383,1188819736834162,5.88,4.7070003,7.0750504
1680008831385,1188819739336556,5.83395,4.7239504,7.00995
1680008831387,1188819741838710,5.9209504,4.60395,7.1389503
1680008831390,1188819744340863,5.985,4.683,7.14195
1680008831392,1188819746842787,5.88,4.683,7.0270505
1680008831394,1188819749344940,5.91795,4.662,7.01205
1680008831397,1188819751847349,5.8440003,4.695,7.017
1680008831399,1188819754349503,5.8369503,4.72095,7.0410004
1680008831402,1188819756851657,5.8219504,4.695,6.9330006
1680008831404,1188819759353811,5.82495,4.7239504,7.1029506
1680008831406,1188819761855988,5.82705,4.671,7.0030503
1680008831409,1188819764358142,5.8219504,4.73295,6.9690003
1680008831412,1188819766860373,5.85795,4.7070003,7.0630503
1680008831415,1188819769362527,5.8680005,4.683,7.0069504
1680008831417,1188819771864672,5.8680005,4.6260004,7.1389503
1680008831420,1188819774366749,5.7889504,4.7070003,7.0309505
1680008831423,1188819776868903,5.85405,4.7260504,7.1389503
1680008831425,1188819779371056,5.81505,4.75005,7.04295
1680008831428,1188819781873214,5.76,4.8630004,7.04295
1680008831430,1188819784375445,5.7120004,4.68795,7.122
1680008831432,1188819786877599,5.7670503,4.70205,7.03905
1680008831435,1188819789379753,5.77005,4.638,6.9880505
1680008831436,1188819791881907,5.8219504,4.74795,7.15395
1680008831439,1188819794384075,5.85795,4.67805,7.1200504
1680008831441,1188819796886229,5.8219504,4.72905,7.0309505
1680008831444,1188819799388614,5.88495,4.7190003,7.2060003
1680008831446,1188819801890537,5.8390503,4.58295,7.1029506
1680008831449,1188819804392691,5.9110503,4.70895,7.0410004
1680008831451,1188819806894850,5.81295,4.70205,7.077
1680008831457,1188819809397004,5.8110003,4.6810503,7.05495
1680008831460,1188819811899157,5.8369503,4.695,7.0290003
1680008831462,1188819814401522,5.8320003,4.6660504,7.1130004
1680008831464,1188819816903676,5.81295,4.68795,7.0480504
1680008831466,1188819819405830,5.79405,4.77705,7.0909505
1680008831468,1188819821907984,5.7990003,4.69995,7.08405
1680008831470,1188819824410152,5.8060503,4.6930504,7.2010503
1680008831471,1188819826912306,5.6959505,4.7239504,7.077
1680008831474,1188819829414460,5.7670503,4.6540504,6.9880505
1680008831477,1188819831916614,5.8510504,4.743,7.0630503
1680008831479,1188819834418768,5.7720003,4.7260504,7.0579505
1680008831481,1188819836920931,5.80305,4.78095,7.0530005
1680008831484,1188819839423085,5.8110003,4.75005,7.0939503
1680008831486,1188819841925238,5.82,4.6930504,6.9310503
1680008831489,1188819844427392,5.84205,4.6980004,7.1320505
1680008831492,1188819846929647,5.82495,4.7449503,7.0939503
1680008831497,1188819849431801,5.8180504,4.7070003,7.1179504
1680008831499,1188819851933955,5.9110503,4.69995,7.0030503
1680008831501,1188819854436109,5.80305,4.6260004,7.0309505
1680008831503,1188819856938267,5.808,4.67805,7.1629505
1680008831505,1188819859440344,5.7769504,4.7239504,7.03905
1680008831507,1188819861942498,5.8219504,4.7569504,7.06995
1680008831509,1188819864444729,5.7990003,4.7380505,7.0669503
1680008831511,1188819866946883,5.7889504,4.70505,7.0750504
1680008831514,1188819869449027,5.8180504,4.66905,7.0290003
1680008831516,1188819871951181,5.84595,4.66905,6.9619503
1680008831519,1188819874453334,5.83395,4.7070003,6.9930005
1680008831522,1188819876955488,5.7460504,4.69995,7.0669503
1680008831525,1188819879457869,5.85795,4.7689505,6.9930005
1680008831528,1188819881960023,5.8969502,4.6810503,6.912
1680008831529,1188819884462177,5.748,4.69005,7.1080503
1680008831533,1188819886964330,5.7840004,4.7569504,7.1010003
1680008831536,1188819889466258,5.79405,4.72095,7.0530005
1680008831538,1188819891968411,5.82,4.68795,7.06995
1680008831540,1188819894470796,5.8900504,4.7140503,7.077
1680008831542,1188819896972950,5.7190504,4.695,7.077
1680008831545,1188819899475104,5.8180504,4.623,7.0669503
1680008831547,1188819901977263,5.8440003,4.73295,7.077
1680008831549,1188819904479416,5.8560004,4.7239504,7.0669503
1680008831551,1188819906981570,5.88,4.65,7.0480504
1680008831554,1188819909483724,5.8110003,4.6860003,7.254
1680008831557,1188819911985955,5.82,4.69005,7.0720506
1680008831559,1188819914488090,5.81295,4.671,7.08195
1680008831562,1188819916990167,5.8440003,4.71705,7.0150504
1680008831564,1188819919492321,5.8440003,4.6090503,7.122
1680008831567,1188819921994455,5.85795,4.6660504,7.0480504
1680008831571,1188819924496609,5.8369503,4.7569504,7.1700006
1680008831573,1188819926998840,5.82,4.68795,6.9640503
1680008831576,1188819929500994,5.85795,4.6980004,7.0909505
1680008831578,1188819932003128,5.8180504,4.671,7.1730003
1680008831580,1188819934505282,5.8060503,4.73295,7.1509504
1680008831582,1188819937007435,5.8180504,4.7310004,7.1320505
1680008831585,1188819939509589,5.88495,4.671,7.0669503
1680008831587,1188819942011743,5.80095,4.6980004,7.0459504
1680008831589,1188819944514148,5.7889504,4.68795,7.0459504
1680008831592,1188819947016071,5.8489504,4.6639504,7.0480504
1680008831595,1188819949518225,5.88,4.767,7.0579505
1680008831597,1188819952020379,5.7840004,4.7140503,7.11495
1680008831600,1188819954522532,5.81505,4.638,7.05495
1680008831602,1188819957024665,5.82495,4.68795,7.1080503
1680008831604,1188819959527050,5.7630005,4.8169503,7.0939503
1680008831609,1188819962029204,5.87505,4.6860003,7.0030503
1680008831618,1188819964531354,5.7649503,4.67805,7.1370006
1680008831618,1188819967033507,5.77005,4.623,6.9430504
1680008831618,1188819969535661,5.84595,4.6980004,7.1629505
1680008831618,1188819972037815,5.8300505,4.7119503,7.01205
1680008831619,1188819974539969,5.7910504,4.6590004,7.005
1680008831621,1188819977042099,5.6980505,4.65,7.0789504
1680008831624,1188819979544253,5.808,4.7140503,7.1200504
1680008831627,1188819982046407,5.84205,4.743,7.0579505
1680008831629,1188819984548330,5.80305,4.7260504,7.005
1680008831632,1188819987050781,5.8180504,4.70505,7.0870504
1680008831635,1188819989552935,5.75505,4.69005,6.97905
1680008831637,1188819992055089,5.8390503,4.7239504,7.0459504
1680008831639,1188819994557166,5.81505,4.767,7.005
1680008831642,1188819997059320,5.7840004,4.75005,7.0720506
1680008831646,1188819999561444,5.8369503,4.7140503,7.0339503
1680008831648,1188820002063675,5.787,4.59705,7.0459504
1680008831650,1188820004565829,5.82,4.7689505,6.9880505
1680008831652,1188820007067983,5.82,4.7410502,6.912
1680008831655,1188820009570108,5.80095,4.6540504,6.984
1680008831657,1188820012072262,5.81295,4.6639504,6.984
1680008831659,1188820014574416,5.8609505,4.7719502,7.08405
1680008831661,1188820017076800,5.808,4.7839503,7.0189505
1680008831664,1188820019578964,5.7720003,4.7910004,7.00995
1680008831667,1188820022080887,5.8660502,4.6590004,6.94995
1680008831669,1188820024583041,5.82495,4.69005,7.0750504
1680008831671,1188820027085195,5.8369503,4.755,6.9979506
1680008831675,1188820029587334,5.775,4.695,6.9550505
1680008831678,1188820032089487,5.85405,4.743,6.9880505
1680008831679,1188820034591872,5.80095,4.68795,7.0189505
1680008831683,1188820037094026,5.7720003,4.695,6.972
1680008831686,1188820039596180,5.7769504,4.75005,7.0030503
1680008831688,1188820042098334,5.7790504,4.67805,7.017
1680008831690,1188820044600488,5.8369503,4.76205,7.0309505
1680008831692,1188820047102641,5.7340503,4.7310004,7.11495
1680008831696,1188820049604867,5.78205,4.70505,6.9979506
1680008831697,1188820052106944,5.80305,4.75995,6.9949503
1680008831701,1188820054609098,5.727,4.73595,7.0360503
1680008831702,1188820057111252,5.74305,4.6810503,7.017
1680008831705,1188820059613421,5.85405,4.6470003,7.0410004
1680008831707,1188820062115574,5.8390503,4.66905,6.9979506
1680008831712,1188820064617728,5.8369503,4.71705,7.0360503
1680008831713,1188820067119959,5.80095,4.695,6.97905
1680008831715,1188820069622108,5.88705,4.7839503,7.0069504
1680008831717,1188820072124185,5.78205,4.7070003,7.02405
1680008831723,1188820074626416,5.7990003,4.7569504,7.11
1680008831725,1188820077128570,5.775,4.70205,7.0150504
1680008831729,1188820079784166,5.8300505,4.6590004,7.1389503
1680008831730,1188820082439571,5.81505,4.70505,6.984
1680008831731,1188820084635031,5.8369503,4.69995,7.0939503
1680008831733,1188820087137185,5.84205,4.8510003,7.0579505
1680008831737,1188820089639330,5.808,4.73295,7.077
1680008831739,1188820092141484,5.787,4.671,7.0150504
1680008831740,1188820094643637,5.79405,4.7910004,7.0909505
1680008831742,1188820097145791,5.81295,4.75005,7.11
1680008831745,1188820099648176,5.7840004,4.69005,6.9979506
1680008831747,1188820102150315,5.79405,4.6810503,7.08405
1680008831751,1188820104652469,5.775,4.64505,6.90705
1680008831752,1188820107154623,5.80095,4.72905,7.0720506
1680008831755,1188820109656546,5.77005,4.6740003,6.9570003
1680008831761,1188820112158685,5.85405,4.7449503,7.08195
1680008831762,1188820114661070,5.76,4.7239504,7.1509504
1680008831764,1188820117163224,5.7790504,4.6810503,7.0579505
1680008831765,1188820119665378,5.8390503,4.7119503,7.1370006
1680008831767,1188820122167532,5.7580504,4.7140503,6.97905
1680008831772,1188820124669675,5.8320003,4.671,7.08405
1680008831774,1188820127171829,5.7720003,4.77405,7.0480504
1680008831776,1188820129673983,5.7790504,4.68795,7.0000505
1680008831778,1188820132176214,5.7720003,4.662,7.1010003
1680008831780,1188820134678368,5.84595,4.6260004,7.08405
1680008831782,1188820137180426,5.84595,4.695,7.0669503
1680008831785,1188820139682580,5.8510504,4.70505,6.9690003
1680008831787,1188820142184733,5.8609505,4.7410502,7.0750504
1680008831791,1188820144686887,5.9020505,4.76205,7.077
1680008831792,1188820147189118,5.8440003,4.6810503,6.9979506
1680008831797,1188820149691272,5.83395,4.7410502,7.0870504
1680008831798,1188820152193426,5.8440003,4.7380505,7.14405
1680008831800,1188820154695580,5.8630505,4.6980004,7.122
1680008831802,1188820157197681,5.80095,4.67805,7.0579505
1680008831805,1188820159699834,5.7990003,4.77705,7.0360503
1680008831807,1188820162202296,5.808,4.74795,7.0000505
