system_ts_ms, sensor_ts_ns, accX, accY, accZ
1680015643959,1195632313071458,3.9229503,7.79895,4.96005
1680015643962,1195632315573612,3.9499502,7.8349504,4.833
1680015643965,1195632318075996,3.7800002,7.87095,4.7200503
1680015643967,1195632320578458,3.8560503,7.93305,4.7509503
1680015643969,1195632323080616,3.7750502,7.79895,4.68405
1680015643984,1195632325582846,3.7120502,7.8900003,4.66305
1680015643984,1195632328085231,3.66195,7.8829503,4.806
1680015643984,1195632330587385,3.6190503,7.8490505,4.72695
1680015643985,1195632333089587,3.696,7.938,4.8829503
1680015643985,1195632335592048,3.68895,7.7779503,4.7970004
1680015643985,1195632338094202,3.7800002,7.8829503,4.881
1680015643986,1195632340596587,3.75795,7.998,4.82805
1680015643989,1195632343098798,3.79605,7.9480505,4.7850003
1680015643990,1195632345600952,3.8490002,7.9810505,4.842
1680015643993,1195632348103337,3.86295,7.9480505,4.88805
1680015643995,1195632350605568,3.9379501,7.9759502,4.938
1680015643999,1195632353107962,4.005,7.9570503,4.8180003
1680015644001,1195632355610193,3.9970503,7.9069505,4.9570503
1680015644006,1195632358112347,3.9739501,7.8850503,4.9450502
1680015644007,1195632360614731,4.04505,7.9189506,4.9840503
1680015644008,1195632363116962,4.053,8.017051,4.965
1680015644010,1195632365619424,3.9640503,7.8919506,4.9840503
1680015644013,1195632368121578,3.9589503,7.9140005,4.93095
1680015644015,1195632370623962,3.9469502,8.007,5.04405
1680015644017,1195632373126193,3.9450002,8.115001,5.0680504
1680015644024,1195632375628347,3.9540002,8.10795,5.0170503
1680015644024,1195632378130770,3.8899503,8.095051,5.0989504
1680015644025,1195632380632923,3.7600503,8.026951,5.0479503
1680015644027,1195632383135385,3.7510502,7.9570503,4.9669504
1680015644030,1195632385637616,3.6979501,8.050051,4.9759502
1680015644033,1195632388139770,3.6720002,7.9620004,5.0890503
1680015644040,1195632390642154,3.5520003,7.9279504,5.0220003
1680015644041,1195632393144385,3.5470502,7.9120502,5.07495
1680015644041,1195632395646539,3.5659502,7.9069505,5.1150002
1680015644044,1195632398149000,3.4420502,7.9120502,5.07705
1680015644046,1195632400651385,3.4710002,7.806,5.0340004
1680015644048,1195632403153539,3.4630501,7.8229504,5.0269504
1680015644050,1195632405655770,3.4420502,7.8540006,4.97205
1680015644052,1195632408158159,3.4420502,7.8420005,5.02395
1680015644057,1195632410660313,3.41805,7.9480505,5.08395
1680015644058,1195632413162775,3.4110003,7.9429502,4.998
1680015644060,1195632415664928,3.456,7.9930506,4.93095
1680015644063,1195632418167149,3.41805,7.9909506,4.9360504
1680015644066,1195632420669534,3.42,7.9600506,5.0220003
1680015644068,1195632423171765,3.5160003,8.11305,4.938
1680015644073,1195632425673918,3.5659502,8.097,5.058
1680015644074,1195632428176385,3.6670501,8.08605,5.00505
1680015644076,1195632430678770,3.5140502,8.10795,5.0149503
1680015644079,1195632433180924,3.693,8.071051,5.05305
1680015644080,1195632435683154,3.58995,8.097,5.02395
1680015644083,1195632438185539,3.6810002,8.109,5.1660004
1680015644090,1195632440687707,3.7339501,8.142,5.0680504
1680015644090,1195632443190168,3.7560003,8.154,5.03595
1680015644091,1195632445692322,3.76305,8.151,5.04405
1680015644093,1195632448194553,3.7909503,8.139,5.1730504
1680015644095,1195632450696938,3.8080502,8.23995,5.03205
1680015644098,1195632453199091,3.7909503,8.20395,5.2260003
1680015644101,1195632455701322,3.7870502,8.163,5.09595
1680015644105,1195632458203707,3.9160502,8.101951,5.1610503
1680015644106,1195632460706168,3.86295,8.13195,5.06295
1680015644108,1195632463208289,3.9259503,8.211,5.0869503
1680015644112,1195632465710520,3.8490002,8.149051,5.05305
1680015644114,1195632468212674,3.8779502,8.059951,5.0890503
1680015644116,1195632470715053,3.8730001,8.007,5.0340004
1680015644124,1195632473217284,3.8179502,7.9740005,5.0560503
1680015644125,1195632475719669,3.8830502,7.9140005,5.1540003
1680015644126,1195632478221900,3.8370001,7.9020004,5.06295
1680015644127,1195632480724293,3.7699502,7.9090505,5.0220003
1680015644129,1195632483226447,3.7459502,7.938,4.87605
1680015644131,1195632485728678,3.62595,7.8570004,4.9360504
1680015644133,1195632488231062,3.5830503,7.8469505,4.9240503
1680015644135,1195632490733524,3.62595,7.85895,4.965
1680015644141,1195632493235664,3.423,7.8490505,4.9090505
1680015644142,1195632495737895,3.459,7.9020004,4.9669504
1680015644142,1195632498240049,3.2770503,7.96395,4.81395
1680015644145,1195632500742433,3.37995,7.8570004,4.8499503
1680015644149,1195632503244601,3.315,7.9549503,4.806
1680015644151,1195632505747063,3.3630002,7.9549503,4.8690004
1680015644156,1195632508249293,3.348,8.014951,4.7800503
1680015644157,1195632510751447,3.3649502,8.031,4.76595
1680015644158,1195632513253832,3.3960001,8.0119505,4.7730002
1680015644160,1195632515756073,3.3720002,7.9950004,4.7899504
1680015644163,1195632518258457,3.456,7.8850503,4.7970004
1680015644166,1195632520760611,3.48495,7.9500003,4.72305
1680015644168,1195632523263073,3.4729502,7.9429502,4.7710505
1680015644174,1195632525765221,3.4710002,7.9930506,4.7629504
1680015644175,1195632528267452,3.45405,7.93095,4.6990504
1680015644176,1195632530769837,3.4990501,7.866,4.67205
1680015644177,1195632533271991,3.6090002,7.9810505,4.77495
1680015644180,1195632535774221,3.624,7.9210505,4.7800503
1680015644183,1195632538276669,3.6450002,7.8919506,4.74405
1680015644189,1195632540778823,3.6330001,7.9210505,4.69395
1680015644190,1195632543281207,3.72705,7.93305,4.77495
1680015644191,1195632545783414,3.7240503,7.998,4.66305
1680015644194,1195632548285568,3.6529503,7.9669504,4.7130003
1680015644196,1195632550787953,3.6910503,7.85895,4.6320004
1680015644198,1195632553290414,3.7480502,7.866,4.82805
1680015644200,1195632555792645,3.624,7.9570503,4.73505
1680015644208,1195632558294779,3.7440002,7.9480505,4.761
1680015644209,1195632560797164,3.5860503,7.96395,4.81605
1680015644210,1195632563299317,3.6019502,8.083051,4.8829503
1680015644211,1195632565801548,3.62895,8.050051,4.9290004
1680015644213,1195632568303933,3.6169503,8.062051,4.81605
1680015644216,1195632570806169,3.55395,8.139,4.9170003
1680015644218,1195632573308553,3.6139503,8.167951,4.8520503
1680015644222,1195632575810784,3.6550503,8.167951,4.9669504
1680015644225,1195632578312929,3.5779502,8.161051,4.8949504
1680015644227,1195632580815313,3.6000001,8.259001,4.9410005
1680015644229,1195632583317775,3.5830503,8.16495,4.81395
1680015644231,1195632585819929,3.5779502,8.167951,4.8619504
1680015644233,1195632588322160,3.59505,8.368951,4.9020004
1680015644236,1195632590824548,3.5710502,8.323951,4.81605
1680015644241,1195632593326702,3.55695,8.24895,4.9549503
1680015644242,1195632595828933,3.5830503,8.307,4.8619504
1680015644244,1195632598331087,3.5059502,8.22105,4.9090505
1680015644246,1195632600833543,3.4440002,8.2570505,4.9570503
1680015644248,1195632603335928,3.5059502,8.068951,4.88805
1680015644250,1195632605838159,3.4440002,8.10105,4.866
1680015644256,1195632608340312,3.4390502,8.08605,4.93305
1680015644257,1195632610842697,3.4300501,8.137051,4.938
1680015644259,1195632613344928,3.4990501,8.08605,4.7970004
1680015644262,1195632615847312,3.5449502,7.9810505,4.9960504
1680015644264,1195632618349543,3.5059502,7.9860005,5.0149503
1680015644266,1195632620851697,3.4630501,8.0119505,4.8520503
1680015644268,1195632623354082,3.55695,7.9909506,4.9740005
1680015644271,1195632625856236,3.5449502,7.96395,4.9960504
1680015644274,1195632628358466,3.5710502,7.9570503,5.0149503
1680015644276,1195632630860928,3.59295,7.9210505,4.9999504
1680015644278,1195632633363313,3.7560003,7.9789505,5.07495
1680015644280,1195632635865471,3.6910503,7.96395,5.0389504
1680015644284,1195632638367702,3.6910503,7.9140005,5.1060004
1680015644289,1195632640870087,3.7459502,7.93305,5.091
1680015644291,1195632643372246,3.7840502,7.96395,5.103
1680015644292,1195632645874707,3.8059502,7.9879503,5.0410504
1680015644294,1195632648376938,3.8590503,7.9360504,5.02395
1680015644296,1195632650879092,3.7770002,7.9450502,4.93305
1680015644300,1195632653381452,3.8710501,7.9480505,4.9759502
1680015644301,1195632655883606,3.89895,7.8450003,5.0560503
1680015644305,1195632658385837,3.897,7.8469505,4.87395
1680015644307,1195632660888222,3.9229503,7.9140005,4.9020004
1680015644308,1195632663390452,3.8560503,7.8900003,4.9570503
1680015644310,1195632665892847,3.9160502,7.9830003,4.99095
1680015644313,1195632668395078,3.9469502,7.8490505,4.84005
1680015644316,1195632670897462,3.8869503,7.9090505,4.8829503
1680015644318,1195632673399616,3.9450002,7.96395,4.9840503
1680015644323,1195632675901837,3.8800502,7.938,4.7970004
1680015644324,1195632678404299,3.9640503,7.8570004,4.893
1680015644326,1195632680906452,3.933,7.93305,4.8619504
1680015644329,1195632683408837,3.9589503,7.9500003,4.833
1680015644330,1195632685910991,4.05405,7.8880506,4.84005
1680015644334,1195632688413217,3.9949503,8.026951,4.881
1680015644341,1195632690915601,4.04505,7.8949504,4.82595
1680015644342,1195632693417832,4.08405,7.9620004,4.68195
1680015644343,1195632695920241,4.086,7.8780003,4.761
1680015644343,1195632698422472,4.0410004,7.8829503,4.7730002
1680015644346,1195632700924856,3.933,7.9360504,4.6750503
1680015644348,1195632703427010,3.9589503,7.833,4.71105
1680015644350,1195632705929241,3.9880502,7.9480505,4.73505
1680015644354,1195632708431644,4.0080004,7.8900003,4.7200503
1680015644356,1195632710933875,3.9420002,7.8850503,4.81395
1680015644358,1195632713436029,3.9810002,7.8640504,4.87395
1680015644361,1195632715938414,3.9450002,7.9360504,4.87095
1680015644365,1195632718440659,4.0470004,7.9549503,4.75605
1680015644367,1195632720942813,3.9970503,7.9020004,4.76805
1680015644368,1195632723445275,3.9640503,7.9830003,4.87095
1680015644370,1195632725947659,4.0009503,8.005051,4.8019505
1680015644375,1195632728449904,4.0080004,7.9740005,4.82595
1680015644377,1195632730952058,4.038,7.8970504,4.8229504
1680015644379,1195632733454443,3.933,7.8760505,4.806
1680015644381,1195632735956673,3.9589503,7.9120502,4.794
1680015644384,1195632738458827,3.9060001,7.8949504,4.8900003
1680015644386,1195632740961260,3.9540002,7.8760505,4.79895
1680015644388,1195632743463414,3.9850502,7.9090505,4.8619504
1680015644391,1195632745965798,3.9970503,7.9189506,4.7850003
1680015644394,1195632748468029,3.9469502,7.9740005,4.90005
1680015644396,1195632750970183,3.9090002,7.9399505,4.8109503
1680015644398,1195632753472588,4.0279503,7.9279504,4.7590504
1680015644401,1195632755975049,4.06005,8.079,4.81395
1680015644405,1195632758477280,3.9379501,8.056951,4.737
1680015644406,1195632760979439,3.8730001,7.9669504,4.7779503
1680015644408,1195632763481823,3.9210002,7.9810505,4.76805
1680015644412,1195632765983977,3.9810002,8.068951,4.809
1680015644414,1195632768486208,3.8389502,7.998,4.82595
1680015644416,1195632770988675,3.9469502,7.8799505,4.77495
1680015644418,1195632773490828,3.8730001,7.9600506,4.8109503
1680015644420,1195632775993213,3.89895,7.9279504,4.8900003
1680015644424,1195632778495367,3.8130002,7.8690004,4.81605
1680015644426,1195632780997828,3.76305,7.9830003,4.82805
1680015644428,1195632783499939,3.82995,8.04105,4.8900003
1680015644430,1195632786002170,3.801,8.0119505,4.8520503
1680015644434,1195632788504555,3.75795,7.9260006,4.866
1680015644437,1195632791006709,3.79605,8.068951,4.81395
1680015644439,1195632793508943,3.8029501,8.04105,4.8040504
1680015644441,1195632796011405,3.79605,7.9879503,4.66995
1680015644445,1195632798513559,3.7510502,7.998,4.7629504
1680015644446,1195632801015943,3.8110502,8.109,4.8180003
1680015644450,1195632803518174,3.7600503,8.023951,4.72305
1680015644452,1195632806020559,3.7560003,7.9620004,4.84695
1680015644455,1195632808522713,3.657,8.035951,4.701
1680015644457,1195632811024943,3.7750502,8.071051,4.8300004
1680015644459,1195632813527328,3.7390501,8.062051,4.90005
1680015644461,1195632816029574,3.7600503,8.175,4.8300004
1680015644464,1195632818531728,3.68895,8.20395,4.90005
1680015644466,1195632821034112,3.6529503,8.125051,4.75605
1680015644468,1195632823536343,3.72705,8.19705,4.73505
1680015644470,1195632826038728,3.7410002,8.200951,4.7320504
1680015644474,1195632828540963,3.7050002,8.211,4.7080503
1680015644476,1195632831043348,3.68895,8.292001,4.7200503
1680015644478,1195632833545579,3.6409502,8.26395,4.7080503
1680015644481,1195632836047718,3.6739502,8.29695,4.60305
1680015644484,1195632838550102,3.7390501,8.359051,4.72695
1680015644488,1195632841052256,3.7750502,8.434051,4.629
1680015644490,1195632843554718,3.801,8.379001,4.8040504
1680015644492,1195632846056972,3.7800002,8.376,4.7779503
1680015644495,1195632848559126,3.6810002,8.379001,4.7920504
1680015644496,1195632851061511,3.7819502,8.367001,4.644
1680015644498,1195632853563742,3.7200003,8.280001,4.5930004
1680015644500,1195632856065896,3.7050002,8.391001,4.57905
1680015644504,1195632858568362,3.6210003,8.343,4.596
1680015644506,1195632861070747,3.6379502,8.299951,4.4500504
1680015644508,1195632863572977,3.6070502,8.314051,4.749
1680015644510,1195632866075131,3.6090002,8.30895,4.58895
1680015644514,1195632868577506,3.6360002,8.29695,4.5409503
1680015644516,1195632871079660,3.62595,8.26395,4.689
1680015644518,1195632873582121,3.5400002,8.26395,4.61205
1680015644522,1195632876084275,3.4990501,8.23005,4.395
1680015644526,1195632878586487,3.6049502,8.200951,4.5930004
1680015644528,1195632881088872,3.56205,8.24505,4.4620504
1680015644529,1195632883644949,3.5059502,8.22105,4.56705
1680015644531,1195632886093256,3.5860503,8.24895,4.56495
1680015644534,1195632888595718,3.52605,8.302051,4.4419503
1680015644536,1195632891098112,3.5640001,8.20905,4.5480003
1680015644538,1195632893600266,3.59295,8.158051,4.5810003
1680015644540,1195632896102497,3.6090002,8.21805,4.66305
1680015644544,1195632898604651,3.5520003,8.23005,4.5859504
1680015644546,1195632901107035,3.5779502,8.21805,4.67205
1680015644548,1195632903609189,3.6070502,8.167951,4.6410003
1680015644550,1195632906111651,3.6379502,8.18505,4.57695
1680015644554,1195632908613882,3.6690001,8.118,4.761
1680015644555,1195632911116266,3.66,8.14395,4.72305
1680015644558,1195632913618444,3.66,8.14605,4.7200503
1680015644562,1195632916120675,3.7080002,8.155951,4.749
1680015644565,1195632918623060,3.765,8.076,4.668
1680015644569,1195632921277603,3.7909503,8.109,4.668
1680015644569,1195632923627680,3.7720501,8.154,4.7059503
1680015644571,1195632926129911,3.8059502,8.068951,4.7629504
1680015644574,1195632928632065,3.8200502,8.08605,4.6530004
1680015644576,1195632931134449,3.8179502,8.071051,4.63395
1680015644578,1195632933636598,3.8710501,8.05305,4.794
1680015644580,1195632936139060,3.801,8.038051,4.677
1680015644587,1195632938641290,3.8800502,8.026951,4.7130003
1680015644588,1195632941143444,3.83505,7.9860005,4.75605
1680015644588,1195632943645824,3.8560503,7.9810505,4.809
1680015644590,1195632946148055,3.8370001,7.9830003,4.7080503
1680015644594,1195632948650439,3.8710501,7.8829503,4.7779503
1680015644596,1195632951152670,3.9109502,8.01,4.761
1680015644600,1195632953655079,3.8560503,8.055,4.8109503
1680015644602,1195632956157232,3.9450002,8.038051,4.81395
1680015644605,1195632958659463,4.02105,8.083051,4.9960504
1680015644606,1195632961161617,4.02405,8.05305,4.9960504
1680015644608,1195632963664002,4.05,8.056951,4.94805
1680015644611,1195632966166237,4.13205,8.017051,4.9429502
1680015644614,1195632968668699,4.1340003,8.139,4.9410005
1680015644616,1195632971170853,4.03305,8.13,4.90005
1680015644618,1195632973673237,4.1599503,8.059951,5.0340004
1680015644620,1195632976175468,4.182,8.07405,4.9170003
1680015644624,1195632978677636,4.203,8.106,5.03595
1680015644626,1195632981180021,4.0999503,8.097,4.9740005
1680015644628,1195632983682482,4.158,8.088,4.9690504
1680015644630,1195632986184636,4.182,8.14605,4.9450502
1680015644634,1195632988686862,4.13595,8.097,4.998
1680015644637,1195632991189016,4.09305,8.076,4.9240503
1680015644639,1195632993691400,4.05405,8.142,4.9879503
1680015644641,1195632996193626,4.04505,8.067,4.87095
1680015644644,1195632998696011,4.03305,8.076,4.9500003
1680015644646,1195633001198242,4.05,8.034,4.7970004
1680015644648,1195633003700626,3.969,8.068951,4.8040504
1680015644650,1195633006202857,3.9780002,7.9740005,4.8970504
1680015644654,1195633008705031,3.9760501,8.034,4.7779503
1680015644655,1195633011207415,3.9379501,8.029051,4.82595
1680015644658,1195633013709646,3.9259503,8.050051,4.81395
1680015644661,1195633016212031,3.8920503,8.01,4.79895
1680015644663,1195633018714262,3.8869503,8.0449505,4.76595
1680015644665,1195633021216405,3.9019501,8.04105,4.7179503
1680015644668,1195633023718790,3.8029501,8.017051,4.6870503
1680015644670,1195633026221021,3.8149502,8.023951,4.737
1680015644675,1195633028723400,3.7339501,8.064,4.6530004
1680015644677,1195633031225631,3.7410002,8.002951,4.60305
1680015644679,1195633033728016,3.6360002,7.9360504,4.63395
1680015644681,1195633036230247,3.66195,8.04105,4.605
1680015644684,1195633038732400,3.58995,8.067,4.62195
1680015644686,1195633041234766,3.62595,8.062051,4.4710503
1680015644688,1195633043736920,3.6499503,8.04105,4.52895
1680015644690,1195633046239382,3.6379502,8.11305,4.50705
1680015644693,1195633048741535,3.6000001,8.139,4.368
1680015644695,1195633051243766,3.6139503,8.088,4.48605
1680015644698,1195633053746170,3.5779502,8.191951,4.58895
1680015644700,1195633056248324,3.5640001,8.22105,4.5210004
1680015644703,1195633058750554,3.6210003,8.13195,4.50705
1680015644705,1195633061253016,3.6529503,8.259001,4.4710503
1680015644708,1195633063755401,3.6739502,8.247001,4.44495
1680015644712,1195633066257544,3.6739502,8.22795,4.6150503
1680015644715,1195633068759775,3.6910503,8.314051,4.6600504
1680015644717,1195633071261929,3.7600503,8.27295,4.66305
1680015644719,1195633073764309,3.6810002,8.39505,4.66995
1680015644722,1195633076266539,3.7410002,8.379001,4.78695
1680015644729,1195633078768924,3.801,8.343,4.69395
1680015644729,1195633081271155,3.7050002,8.323951,4.74195
1680015644730,1195633083773539,3.68895,8.316,4.74405
1680015644731,1195633086275689,3.7150502,8.323951,4.76595
1680015644733,1195633088777920,3.75795,8.343,4.68195
1680015644736,1195633091280382,3.8110502,8.316,4.67205
1680015644738,1195633093782535,3.7219503,8.187,4.8180003
1680015644740,1195633096284920,3.79605,8.307,4.75605
1680015644744,1195633098787146,3.7360501,8.23005,4.91895
1680015644746,1195633101289300,3.7050002,8.24505,4.75605
1680015644750,1195633103791684,3.6450002,8.27295,4.821
1680015644752,1195633106293900,3.6550503,8.2900505,4.85895
1680015644754,1195633108796285,3.6139503,8.224951,4.8450003
1680015644756,1195633111298516,3.6529503,8.27295,4.854
1680015644758,1195633113800669,3.696,8.187,4.90005
1680015644762,1195633116303054,3.6000001,8.326051,4.7970004
1680015644764,1195633118805276,3.6379502,8.175,4.9290004
1680015644766,1195633121307660,3.5809503,8.18505,4.8520503
1680015644768,1195633123809891,3.6670501,8.21805,4.8349504
1680015644771,1195633126312276,3.6360002,8.182051,4.761
1680015644774,1195633128814434,3.66195,8.268001,4.7970004
1680015644776,1195633131316664,3.6450002,8.211,4.9170003
1680015644778,1195633133819049,3.6690001,8.11995,4.82595
1680015644781,1195633136321203,3.6810002,8.167951,4.806
1680015644784,1195633138823664,3.693,8.023951,4.881
1680015644788,1195633141325895,3.7080002,8.161051,4.87095
1680015644790,1195633143828049,3.68895,8.14605,4.854
1680015644792,1195633146330434,3.66,8.149051,4.8040504
1680015644796,1195633148832655,3.7750502,8.106,4.881
1680015644797,1195633151334809,3.6810002,8.076,4.84005
1680015644798,1195633153837271,3.7480502,8.019,4.833
1680015644802,1195633156339655,3.7770002,8.155951,4.7299504
1680015644805,1195633158841809,3.79905,8.07405,4.7850003
1680015644806,1195633161344040,3.897,8.08605,4.7779503
1680015644808,1195633163846194,3.8560503,8.05305,4.68405
1680015644811,1195633166348579,3.8110502,7.97205,4.7899504
1680015644814,1195633168851040,3.79395,8.031,4.68405
1680015644816,1195633171353218,3.9300003,7.9930506,4.629
1680015644818,1195633173855449,3.9060001,8.0449505,4.629
1680015644821,1195633176357833,3.86805,8.043,4.60305
1680015644826,1195633178860044,3.9210002,7.9759502,4.66305
1680015644828,1195633181362198,3.8250003,7.9810505,4.6909504
1680015644829,1195633183864583,3.8029501,7.97205,4.63395
1680015644831,1195633186366813,3.86595,7.9759502,4.62405
1680015644835,1195633188869198,3.9259503,8.067,4.58895
1680015644837,1195633191371430,3.9280503,7.9570503,4.596
1680015644838,1195633193873584,3.8370001,8.019,4.60305
1680015644841,1195633196375968,3.8800502,8.08605,4.605
1680015644844,1195633198878199,3.8590503,7.9930506,4.47405
1680015644846,1195633201380584,3.8850002,8.05305,4.4950504
1680015644848,1195633203882823,3.8560503,8.0119505,4.57695
1680015644851,1195633206385208,3.8389502,8.13195,4.5210004
1680015644854,1195633208887362,3.9400501,8.14395,4.50495
1680015644856,1195633211389608,3.9400501,8.109,4.44
1680015644858,1195633213891992,3.7870502,8.055,4.6150503
1680015644863,1195633216394223,3.8800502,8.031,4.392
1680015644865,1195633218896608,3.8940003,7.9930506,4.5480003
1680015644867,1195633221398761,3.9090002,8.014951,4.4809504
1680015644868,1195633223900991,3.8130002,8.04105,4.56495
1680015644871,1195633226403376,3.7840502,8.067,4.428
1680015644874,1195633228905530,3.8490002,8.059951,4.452
1680015644876,1195633231407991,3.8590503,8.088,4.4830503
1680015644878,1195633233910208,3.7600503,8.056951,4.3969502
1680015644882,1195633236412593,3.83505,8.139,4.4539504
1680015644884,1195633238914747,3.7770002,8.035951,4.4689503
1680015644887,1195633241416977,3.7510502,8.002951,4.38705
1680015644889,1195633243919141,3.8149502,8.007,4.3660502
1680015644891,1195633246421603,3.8149502,8.121,4.5360003
1680015644894,1195633248923757,3.7219503,8.08605,4.4500504
1680015644896,1195633251426141,3.6790502,8.043,4.47795
1680015644900,1195633253928376,3.7840502,8.07405,4.45695
1680015644902,1195633256430761,3.7050002,8.08605,4.4419503
1680015644905,1195633258932991,3.7530003,8.04105,4.40595
1680015644907,1195633261435145,3.68895,8.094001,4.395
1680015644908,1195633263937530,3.7339501,8.043,4.4419503
1680015644911,1195633266439741,3.6670501,8.155951,4.56195
1680015644914,1195633268942125,3.7440002,8.13195,4.6000504
1680015644916,1195633271444279,3.6090002,8.035951,4.5600004
1680015644920,1195633273946741,3.7200003,7.9999504,4.6000504
1680015644923,1195633276448967,3.72705,8.055,4.66305
1680015644926,1195633278951121,3.7240503,8.11995,4.5859504
1680015644928,1195633281479429,3.8490002,8.163,4.6870503
1680015644929,1195633283955660,3.7750502,8.161051,4.7250004
1680015644931,1195633286457891,3.8869503,8.19705,4.7130003
1680015644934,1195633288960352,3.8490002,8.106,4.7059503
1680015644938,1195633291462506,3.8389502,8.076,4.7299504
1680015644939,1195633293964891,3.9379501,8.055,4.72695
1680015644941,1195633296467121,3.8800502,8.125051,4.74405
1680015644945,1195633298969505,3.8940003,8.088,4.78305
1680015644946,1195633301471659,3.8590503,8.026951,4.75395
1680015644948,1195633303974120,3.9259503,8.101951,4.866
1680015644951,1195633306476274,3.8800502,8.002951,4.66995
1680015644954,1195633308978501,3.8869503,8.068951,4.821
1680015644956,1195633311480886,3.90405,8.056951,4.82595
1680015644958,1195633313983039,3.8080502,8.094001,4.737
1680015644962,1195633316485270,3.8059502,8.026951,4.644
1680015644964,1195633318987655,3.8779502,8.082001,4.78695
1680015644966,1195633321489886,3.8490002,7.9480505,4.749
1680015644968,1195633323992270,3.8419502,8.062051,4.69395
1680015644971,1195633326494501,3.9019501,8.142,4.8040504
1680015644976,1195633328996669,3.8370001,8.10795,4.7590504
1680015644978,1195633331499053,3.82995,8.026951,4.61205
1680015644979,1195633334001284,3.8539503,8.127001,4.6909504
1680015644981,1195633336503669,3.82695,8.11305,4.7320504
1680015644985,1195633339005900,3.7770002,8.139,4.72695
1680015644987,1195633341508035,3.7840502,8.268001,4.66995
1680015644988,1195633344010419,3.79395,8.139,4.79895
1680015644992,1195633346512650,3.7480502,8.22105,4.656
1680015644997,1195633349014804,3.732,8.200951,4.70295
1680015644997,1195633351517265,3.68895,8.299951,4.5690002
1680015644999,1195633354019650,3.6379502,8.24505,4.6150503
1680015645002,1195633356521881,3.7560003,8.302051,4.62195
1680015645004,1195633359024035,3.6910503,8.24505,4.6000504
1680015645006,1195633361526419,3.6499503,8.316,4.5360003
1680015645009,1195633364028568,3.6840003,8.292001,4.47405
1680015645013,1195633366531030,3.5830503,8.2900505,4.43295
1680015645016,1195633369033183,3.657,8.328,4.38705
1680015645017,1195633371535385,3.6090002,8.43105,4.43295
1680015645020,1195633374037770,3.6120002,8.41695,4.4710503
1680015645021,1195633376539924,3.5779502,8.40705,4.41795
1680015645024,1195633379042154,3.5449502,8.280001,4.4809504
1680015645026,1195633381544616,3.55695,8.424001,4.4110503
1680015645030,1195633384047001,3.4390502,8.39295,4.38495
1680015645031,1195633386549154,3.3700502,8.36205,4.47795
1680015645034,1195633389051385,3.3990002,8.403001,4.4419503
1680015645036,1195633391553539,3.2410502,8.464951,4.5480003
1680015645038,1195633394055924,3.3270001,8.44305,4.5430503
1680015645042,1195633396558390,3.2290502,8.368951,4.51695
1680015645045,1195633399060544,3.1660502,8.34795,4.4950504
1680015645047,1195633401562775,3.13995,8.34795,4.5409503
1680015645050,1195633404065141,3.1039503,8.39505,4.62405
1680015645052,1195633406567294,3.0730503,8.311951,4.6650004
1680015645055,1195633409069525,2.9580002,8.352,4.5480003
1680015645056,1195633411571910,2.9290502,8.52,4.557
1680015645058,1195633414074141,2.877,8.479051,4.392
1680015645062,1195633416576510,2.9220002,8.44095,4.45695
1680015645064,1195633419078741,2.8860002,8.391001,4.4089503
1680015645066,1195633421580895,2.8909502,8.39805,4.428
1680015645068,1195633424083279,2.86695,8.38095,4.35405
1680015645070,1195633426585423,2.84295,8.39295,4.27995
1680015645074,1195633429087885,2.8240502,8.467051,4.335
1680015645076,1195633431590116,2.8530002,8.53905,4.32495
1680015645079,1195633434092269,2.8909502,8.44305,4.29195
1680015645082,1195633436594659,2.93595,8.592,4.3230004
1680015645085,1195633439096890,2.9869502,8.51295,4.25295
1680015645088,1195633441599274,2.9220002,8.580001,4.27995
1680015645091,1195633444101505,2.97195,8.54595,4.215
1680015645092,1195633446603919,3.111,8.458051,4.308
1680015645095,1195633449106150,3.183,8.53695,4.36095
1680015645097,1195633451608303,3.1620002,8.592,4.287
1680015645099,1195633454110688,3.1639502,8.616,4.3510504
1680015645101,1195633456612842,3.25005,8.589001,4.2510004
1680015645104,1195633459115303,3.24495,8.58195,4.32495
1680015645106,1195633461617534,3.28095,8.61795,4.3710003
1680015645108,1195633464119688,3.28095,8.601001,4.296
1680015645112,1195633466622073,3.4009502,8.601001,4.296
1680015645114,1195633469124309,3.3919501,8.653951,4.1530504
1680015645117,1195633471626462,3.423,8.665951,4.2319503
1680015645119,1195633474128924,3.4950001,8.75205,4.29405
1680015645122,1195633476631309,3.492,8.656051,4.2649503
1680015645127,1195633479133452,3.456,8.641951,4.2340503
1680015645130,1195633481635683,3.55395,8.50605,4.27995
1680015645131,1195633484137837,3.492,8.49405,4.37505
1680015645132,1195633486640222,3.5500503,8.48595,4.27995
1680015645134,1195633489142442,3.48495,8.439,4.3710003
1680015645136,1195633491644827,3.4969501,8.42205,4.4209504
1680015645139,1195633494147058,3.5020502,8.22105,4.5210004
1680015645141,1195633496649442,3.4780502,8.34795,4.53795
1680015645144,1195633499151673,3.4470003,8.292001,4.497
1680015645146,1195633501653799,3.5419502,8.224951,4.40595
1680015645148,1195633504156184,3.4990501,8.182051,4.452
1680015645151,1195633506658414,3.5640001,8.335951,4.38705
1680015645155,1195633509160799,3.4630501,8.283,4.4419503
1680015645157,1195633511662977,3.44895,8.41005,4.50705
1680015645159,1195633514165208,3.3919501,8.326051,4.4230504
1680015645164,1195633516667592,3.4470003,8.44305,4.4880004
1680015645167,1195633519168707,3.4680002,8.41905,4.5360003
1680015645167,1195633521669824,3.3600001,8.451,4.3230004
1680015645169,1195633524174438,3.4660501,8.53905,4.26795
1680015645172,1195633526676823,3.3750002,8.46,4.21005
1680015645174,1195633529178977,3.4420502,8.509951,4.25295
1680015645176,1195633531681208,3.3960001,8.521951,4.308
1680015645179,1195633534183606,3.3340502,8.52,4.26
1680015645181,1195633536685837,3.51795,8.623051,4.011
1680015645184,1195633539188222,3.3630002,8.592,4.086
1680015645187,1195633541690376,3.42,8.613001,4.12095
1680015645189,1195633544192620,3.4950001,8.649,4.1329503
1680015645191,1195633546695005,3.5059502,8.58195,4.25595
1680015645195,1195633549197159,3.4830003,8.647051,4.06605
1680015645196,1195633551699620,3.5860503,8.56305,4.1329503
1680015645200,1195633554201842,3.51795,8.656051,4.20795
1680015645203,1195633556703996,3.4830003,8.613001,4.191
1680015645206,1195633559206381,3.588,8.637,4.083
1680015645207,1195633561708611,3.5110502,8.58195,4.155
1680015645211,1195633564210765,3.5020502,8.613001,4.17705
1680015645212,1195633566713145,3.6720002,8.608951,4.1839504
1680015645214,1195633569215376,3.6139503,8.641951,4.1620502
1680015645216,1195633571717760,3.5860503,8.556001,4.1020503
1680015645218,1195633574219991,3.66,8.56095,4.15005
1680015645221,1195633576722183,3.6739502,8.58705,4.2510004
1680015645224,1195633579224568,3.7339501,8.58705,4.19595
1680015645226,1195633581726798,3.6070502,8.656051,4.2120004
1680015645229,1195633584229260,3.624,8.53005,4.1620502
1680015645231,1195633586731414,3.5809503,8.500951,4.22205
1680015645234,1195633589233813,3.68895,8.56995,4.1670003
1680015645238,1195633591735967,3.7170002,8.56305,4.11705
1680015645240,1195633594238198,3.66,8.521951,4.2840004
1680015645244,1195633596740337,3.7390501,8.53005,4.25295
1680015645246,1195633599242798,3.7240503,8.55105,4.30305
1680015645247,1195633601745183,3.7050002,8.568001,4.3510504
1680015645249,1195633604247414,3.7080002,8.596951,4.4089503
1680015645251,1195633606749568,3.6529503,8.55105,4.4419503
1680015645254,1195633609251952,3.6450002,8.4529505,4.4880004
1680015645256,1195633611754183,3.6840003,8.51805,4.4209504
1680015645259,1195633614256568,3.6769502,8.42895,4.47795
1680015645262,1195633616758798,3.55905,8.49405,4.52895
1680015645264,1195633619261159,3.7120502,8.448,4.50705
1680015645266,1195633621763313,3.68895,8.352,4.5360003
1680015645268,1195633624265544,3.6790502,8.27595,4.7730002
1680015645271,1195633626767698,3.6019502,8.280001,4.71495
1680015645276,1195633629270077,3.6979501,8.25195,4.7080503
1680015645279,1195633631772539,3.6979501,8.13405,4.7080503
1680015645279,1195633634274693,3.7440002,8.38605,4.81395
1680015645282,1195633636776923,3.7480502,8.14395,4.7509503
1680015645285,1195633639279308,3.7890003,8.20905,4.7590504
1680015645287,1195633641781520,3.8029501,8.167951,4.8450003
1680015645290,1195633644283674,3.82995,8.23005,4.7590504
1680015645292,1195633646786135,3.8490002,8.211,4.8450003
1680015645297,1195633649288289,3.8200502,8.155951,4.76595
1680015645297,1195633651790674,3.8470502,8.16495,4.8019505
1680015645299,1195633654292832,3.9280503,8.200951,4.66995
1680015645301,1195633656795063,3.9229503,8.16495,4.7080503
1680015645304,1195633659297448,3.9540002,8.083051,4.72695
1680015645306,1195633661799909,3.8920503,8.182051,4.689
1680015645309,1195633664302063,3.9760501,8.194051,4.8019505
1680015645313,1195633666804294,3.897,8.17695,4.87395
1680015645316,1195633669306679,3.9619503,8.167951,4.809
1680015645318,1195633671808832,4.01895,8.235001,4.74195
1680015645320,1195633674311063,4.01205,8.24505,4.7850003
1680015645324,1195633676813448,3.9880502,8.27295,4.68405
1680015645327,1195633679314563,4.0069504,8.21805,4.66995
1680015645327,1195633681815680,3.9300003,8.2879505,4.7179503
1680015645329,1195633684320217,3.9640503,8.247001,4.63605
1680015645331,1195633686822424,3.969,8.326051,4.6320004
1680015645334,1195633689324809,3.9619503,8.359051,4.644
1680015645336,1195633691827039,3.9540002,8.331,4.584
1680015645339,1195633694329424,3.9619503,8.40495,4.66995
1680015645341,1195633696831655,3.9229503,8.39295,4.5550504
1680015645345,1195633699333809,3.9229503,8.2900505,4.572
1680015645346,1195633701836193,3.89895,8.36205,4.4929504
1680015645350,1195633704338424,3.8370001,8.436001,4.4419503
1680015645352,1195633706840573,3.83205,8.48205,4.47405
1680015645355,1195633709343034,3.7410002,8.3880005,4.51905
1680015645357,1195633711845188,3.657,8.364,4.38495
1680015645359,1195633714347573,3.6649501,8.467051,4.3660502
1680015645362,1195633716849804,3.5779502,8.40705,4.215
1680015645365,1195633719352188,3.51795,8.41905,4.2840004
1680015645367,1195633721854419,3.4609501,8.44095,4.308
1680015645368,1195633724356573,3.4150503,8.472,4.3180504
1680015645371,1195633726858957,3.3720002,8.458051,4.2169504
1680015645374,1195633729361217,3.3010502,8.50605,4.308
1680015645376,1195633731863371,3.3079503,8.57505,4.25805
1680015645379,1195633734365833,3.2430003,8.637,4.359
1680015645381,1195633736868217,3.1620002,8.773951,4.29405
1680015645384,1195633739370452,3.07095,8.788051,4.287
1680015645388,1195633741872606,3.08505,8.84805,4.21995
1680015645390,1195633744374760,2.8980002,8.81505,4.224
1680015645392,1195633746877144,2.8620002,8.853001,4.263
1680015645395,1195633749379351,2.769,8.908051,4.10505
1680015645397,1195633751881736,2.7640502,8.941051,4.12395
1680015645398,1195633754383967,2.6440501,8.917951,4.0939503
1680015645402,1195633756886351,2.6850002,8.86995,4.203
1680015645404,1195633759388505,2.66595,8.89395,4.0740004
1680015645407,1195633761890736,2.5819502,8.73795,4.0080004
1680015645409,1195633764393197,2.5890002,8.7310505,3.9610503
1680015645412,1195633766895351,2.52705,8.613001,4.026
1680015645415,1195633769397736,2.5870502,8.60595,4.1119504
1680015645416,1195633771899900,2.5890002,8.69505,4.11
1680015645419,1195633774402130,2.5459502,8.649,4.1119504
1680015645421,1195633776904515,2.66595,8.685,4.15695
1680015645426,1195633779406761,2.62995,8.635051,4.08705
1680015645430,1195633781909145,2.5890002,8.7310505,4.1790004
1680015645431,1195633784411376,2.63205,8.676001,4.143
1680015645432,1195633786913761,2.6440501,8.75205,4.0609503
1680015645435,1195633789415915,2.7520502,8.68995,4.1140504
1680015645436,1195633791918160,2.7280502,8.77095,3.9970503
1680015645439,1195633794420545,2.8330503,8.75205,4.04505
1680015645444,1195633796922776,2.90505,8.72805,4.13595
1680015645446,1195633799425160,2.9149501,8.74005,4.08705
1680015645447,1195633801927314,2.93595,8.673,4.191
1680015645449,1195633804429545,3.0010502,8.67105,4.203
1680015645453,1195633806931699,2.9869502,8.733001,4.29405
1680015645454,1195633809434084,3.0370502,8.712001,4.29195
1680015645456,1195633811936545,3.078,8.70405,4.359
1680015645459,1195633814438795,3.15,8.676001,4.395
1680015645463,1195633816940949,3.2329502,8.700001,4.45905
1680015645465,1195633819443333,3.2670002,8.793,4.51695
1680015645467,1195633821945545,3.2740502,8.680051,4.5529504
1680015645469,1195633824447699,3.2569501,8.67105,4.545
1680015645472,1195633826950161,3.35595,8.709001,4.6750503
1680015645476,1195633829452314,3.32205,8.688001,4.56195
1680015645477,1195633831954699,3.4249501,8.75205,4.6410003
1680015645479,1195633834456930,3.37995,8.56095,4.63395
1680015645482,1195633836959084,3.459,8.73795,4.62405
1680015645485,1195633839461468,3.492,8.71395,4.5859504
1680015645487,1195633841963930,3.4969501,8.632951,4.6320004
1680015645489,1195633844466180,3.5140502,8.635051,4.63395
1680015645491,1195633846968333,3.5710502,8.637,4.69395
1680015645495,1195633849470718,3.4350002,8.64,4.689
1680015645496,1195633851972872,3.5040002,8.57295,4.53795
1680015645500,1195633854475098,3.5299501,8.733001,4.71105
1680015645503,1195633856977252,3.5059502,8.57295,4.689
1680015645505,1195633859479713,3.5020502,8.596951,4.66995
1680015645507,1195633861982098,3.4320002,8.620951,4.6600504
1680015645509,1195633864484252,3.5860503,8.632951,4.7779503
1680015645513,1195633866986482,3.5779502,8.6640005,4.6530004
1680015645515,1195633869488867,3.45405,8.641951,4.5739503
1680015645517,1195633871991098,3.52095,8.72595,4.7970004
1680015645519,1195633874493482,3.48495,8.661,4.67205
1680015645522,1195633876995689,3.49005,8.637,4.6650004
1680015645525,1195633879497843,3.5040002,8.637,4.56495
1680015645527,1195633882000228,3.528,8.67105,4.6480503
1680015645529,1195633884502458,3.4249501,8.568001,4.57905
1680015645531,1195633887004612,3.4039502,8.665951,4.72305
1680015645534,1195633889507088,3.48705,8.57505,4.75395
1680015645538,1195633892009472,3.4110003,8.620951,4.7509503
1680015645540,1195633894511626,3.4129503,8.59395,4.68195
1680015645542,1195633897013857,3.4039502,8.51295,4.6870503
1680015645545,1195633899516228,3.3720002,8.59395,4.668
1680015645547,1195633902018458,3.3049502,8.58705,4.75605
1680015645549,1195633904520843,3.4320002,8.52495,4.8040504
1680015645551,1195633907023074,3.3360002,8.565001,4.7389503
1680015645554,1195633909525190,3.4039502,8.446051,4.73505
1680015645556,1195633912027574,3.35295,8.52,4.6530004
1680015645559,1195633914529728,3.3030002,8.53005,4.66305
1680015645562,1195633917031959,3.3750002,8.48595,4.629
1680015645565,1195633919534444,3.3820503,8.45505,4.7850003
1680015645567,1195633922036598,3.3649502,8.42205,4.5859504
1680015645569,1195633924538983,3.3390002,8.44095,4.5139503
1680015645572,1195633927041214,3.3750002,8.371051,4.62405
1680015645576,1195633929543607,3.3769503,8.371051,4.66995
1680015645578,1195633932045761,3.3289502,8.39805,4.5019503
1680015645580,1195633934547992,3.3990002,8.335951,4.4380503
1680015645581,1195633937050377,3.3289502,8.23305,4.4089503
1680015645584,1195633939552607,3.4249501,8.20395,4.4760003
1680015645587,1195633942055011,3.3820503,8.24895,4.51905
1680015645589,1195633944557165,3.38895,8.21805,4.5550504
1680015645592,1195633947059396,3.3700502,8.161051,4.53795
1680015645595,1195633949561780,3.4729502,8.191951,4.5
1680015645597,1195633952064011,3.35295,8.21805,4.4539504
1680015645599,1195633954566392,3.4369502,8.167951,4.5360003
1680015645603,1195633957068622,3.3990002,8.121,4.62405
1680015645606,1195633959570776,3.3240001,8.167951,4.524
1680015645607,1195633962073156,3.456,8.19705,4.497
1680015645609,1195633964575387,3.4009502,8.2570505,4.6579504
1680015645614,1195633967077771,3.4110003,8.071051,4.524
1680015645616,1195633969580002,3.4729502,8.212951,4.56195
1680015645618,1195633972082170,3.4320002,8.151,4.6080003
1680015645620,1195633974584554,3.45405,8.280001,4.56495
1680015645622,1195633977086785,3.38895,8.14605,4.6480503
1680015645626,1195633979588939,3.4830003,8.115001,4.66995
1680015645629,1195633982091401,3.4300501,8.13405,4.596
1680015645629,1195633984593766,3.4390502,8.187,4.701
1680015645632,1195633987095997,3.3820503,8.161051,4.63605
1680015645636,1195633989598151,3.4039502,8.13195,4.6870503
1680015645637,1195633992100536,3.3960001,8.23995,4.71495
1680015645639,1195633994602689,3.44895,8.2570505,4.69605
1680015645643,1195633997105170,3.3600001,8.25195,4.60995
1680015645645,1195633999607324,3.3460503,8.323951,4.75395
1680015645647,1195634002109555,3.4390502,8.271001,4.75395
1680015645651,1195634004611973,3.351,8.292001,4.7179503
1680015645652,1195634007114204,3.279,8.30895,4.629
1680015645655,1195634009616358,3.2689502,8.26605,4.6579504
1680015645657,1195634012118742,3.25005,8.344951,4.5810003
1680015645659,1195634014621204,3.2959502,8.27805,4.5550504
1680015645662,1195634017123353,3.2380502,8.44305,4.74405
1680015645664,1195634019625584,3.15,8.376,4.69395
1680015645666,1195634022127968,3.114,8.34795,4.66305
1680015645669,1195634024630122,3.1660502,8.338051,4.6990504
1680015645672,1195634027132366,3.1690502,8.379001,4.7899504
1680015645675,1195634029634750,3.147,8.364,4.6909504
1680015645677,1195634032136981,3.17595,8.412001,4.8949504
1680015645679,1195634034639366,3.1660502,8.42895,4.8040504
1680015645683,1195634037141535,3.2260501,8.39295,4.8900003
1680015645685,1195634039643765,3.14505,8.359051,4.90695
1680015645690,1195634042146150,3.2410502,8.39505,4.73505
1680015645691,1195634044648612,3.3079503,8.412001,4.91895
1680015645693,1195634047150785,3.3319502,8.3880005,4.8690004
1680015645696,1195634049653015,3.3919501,8.356951,4.9669504
1680015645698,1195634052155169,3.45405,8.268001,4.96005
1680015645700,1195634054657554,3.6190503,8.316,4.9090505
1680015645702,1195634057159708,3.6859503,8.25405,4.9500003
1680015645704,1195634059662150,3.7339501,8.142,4.953
1680015645706,1195634062164381,3.729,8.11305,4.9170003
1680015645709,1195634064666766,3.9589503,8.047951,4.8690004
1680015645712,1195634067168919,3.9970503,7.9669504,5.01
1680015645714,1195634069671145,4.1460004,7.9909506,4.9290004
1680015645717,1195634072173530,4.1460004,7.9570503,4.9690504
1680015645719,1195634074675684,4.254,7.7539506,4.87095
1680015645722,1195634077178145,4.3969502,7.7200503,4.926
1680015645727,1195634079680390,4.4380503,7.7179503,4.9500003
1680015645729,1195634082182544,4.45695,7.6170006,4.9410005
1680015645730,1195634084684698,4.5030003,7.5930004,4.97895
1680015645732,1195634087187082,4.5270004,7.5139503,4.90695
1680015645735,1195634089689323,4.51695,7.4659505,5.02395
1680015645737,1195634092191785,4.55805,7.4110503,4.866
1680015645739,1195634094693938,4.635,7.4160004,5.02395
1680015645741,1195634097196323,4.5940504,7.3420506,5.07
1680015645746,1195634099698539,4.6270504,7.3969502,4.99305
1680015645747,1195634102200923,4.6870503,7.3729506,5.0890503
1680015645749,1195634104703077,4.5480003,7.3420506,5.0080504
1680015645752,1195634107205539,4.623,7.3060503,5.103
1680015645755,1195634109707693,4.49805,7.34595,5.04405
1680015645758,1195634112209919,4.479,7.3440003,5.07495
1680015645760,1195634114712303,4.53195,7.4089503,5.0170503
1680015645764,1195634117214457,4.467,7.3819504,5.02395
1680015645767,1195634119716688,4.39995,7.3630505,5.01195
1680015645768,1195634122391135,4.48395,7.557,5.0290504
1680015645770,1195634124721289,4.362,7.497,5.01195
1680015645772,1195634127223674,4.3660502,7.4419503,4.9410005
1680015645775,1195634129725905,4.3159504,7.5139503,4.998
1680015645776,1195634132228058,4.28205,7.4130006,5.0290504
1680015645779,1195634134730433,4.23495,7.5739503,5.0149503
1680015645782,1195634137232664,4.29405,7.5520506,4.9410005
1680015645784,1195634139735048,4.20795,7.5450006,5.04405
1680015645787,1195634142237279,4.2439504,7.59495,4.9429502
1680015645789,1195634144739429,4.09305,7.6750503,4.842
1680015645791,1195634147241814,4.14795,7.7509503,4.99305
1680015645794,1195634149744044,3.969,7.794,4.986
1680015645797,1195634152246198,4.07205,7.80105,5.06295
1680015645801,1195634154748679,3.9379501,7.8130503,4.8970504
1680015645803,1195634157251063,3.9180002,7.93095,4.82805
1680015645806,1195634159753217,3.9589503,7.93095,4.9429502
1680015645807,1195634162255448,3.8560503,7.833,4.938
1680015645810,1195634164757833,3.933,7.84005,5.02395
1680015645812,1195634167259972,3.8130002,7.8799505,5.0149503
1680015645814,1195634169762433,3.76305,7.794,4.893
1680015645816,1195634172264587,3.7339501,7.8949504,4.938
1680015645819,1195634174766818,3.7360501,7.833,4.914
1680015645822,1195634177269197,3.62595,7.80105,4.926
1680015645826,1195634179771351,3.5809503,7.8040504,4.96005
1680015645827,1195634182273582,3.56205,7.7629504,4.9429502
1680015645829,1195634184776044,3.4710002,7.8130503,4.905
1680015645832,1195634187278428,3.3919501,7.6530004,4.938
1680015645837,1195634189780568,3.3820503,7.66305,4.87605
1680015645838,1195634192282799,3.3820503,7.6429505,4.8619504
1680015645840,1195634194785183,3.3100502,7.6309505,4.8690004
1680015645843,1195634197287428,3.2650502,7.6480503,4.9500003
1680015645845,1195634199789813,3.2209501,7.7059503,4.8619504
1680015645847,1195634202291967,3.219,7.7440505,4.83795
1680015645849,1195634204794197,3.2359502,7.8450003,4.893
1680015645852,1195634207296351,3.2070003,7.8370504,4.809
1680015645854,1195634209798804,3.3409503,7.8570004,4.85895
1680015645856,1195634212301188,3.3390002,7.8760505,4.91895
1680015645859,1195634214803342,3.3600001,7.93305,4.8520503
1680015645862,1195634217305573,3.4969501,8.014951,4.85895
1680015645864,1195634219807958,3.4249501,7.998,4.96005
1680015645867,1195634222310188,3.44895,8.071051,4.7730002
1680015645869,1195634224812573,3.4420502,7.8880506,4.7920504
1680015645872,1195634227314804,3.4990501,8.101951,4.7730002
1680015645876,1195634229816958,3.5059502,8.05305,4.8900003
1680015645878,1195634232319342,3.59505,8.127001,4.87605
1680015645880,1195634234821573,3.63105,8.0119505,4.806
1680015645883,1195634237323727,3.657,8.14605,4.881
1680015645885,1195634239826112,3.7200003,8.038051,4.9120502
1680015645888,1195634242328332,3.82695,7.9549503,4.9500003
1680015645890,1195634244830717,3.83505,7.9620004,4.866
1680015645892,1195634247332948,3.8830502,7.938,4.92105
1680015645895,1195634249835332,3.8230503,7.866,4.998
1680015645897,1195634252337476,3.9469502,7.9740005,5.03595
1680015645899,1195634254839707,4.098,7.8250504,5.0560503
1680015645902,1195634257342169,4.0789504,7.90005,5.1589503
1680015645905,1195634259844322,4.0609503,7.8880506,5.2540503
1680015645908,1195634262346707,4.07205,7.8490505,5.142
1680015645909,1195634264848861,4.0999503,7.8300004,5.19
1680015645916,1195634267351092,4.2010503,7.9020004,5.2450504
1680015645917,1195634269853476,4.13595,7.9120502,5.2380004
1680015645919,1195634272355727,4.24695,7.8300004,5.2590003
1680015645924,1195634277358112,4.22505,7.7730002,5.1870003
1680015645926,1195634278688036,4.23,7.87095,5.2849503
1680015645926,1195634280024035,4.2439504,7.7700005,5.379
1680015645928,1195634282364881,4.32105,7.7890506,5.34105
1680015645930,1195634284867102,4.2780004,7.7890506,5.3310003
1680015645932,1195634287369563,4.3180504,7.65495,5.451
1680015645935,1195634289871717,4.20795,7.6909504,5.4100504
1680015645937,1195634292374102,4.27995,7.7440505,5.427
1680015645939,1195634294876271,4.302,7.7419505,5.59005
1680015645942,1195634297378501,4.287,7.69605,5.532
1680015645944,1195634299880655,4.3660502,7.689,5.5230002
1680015645947,1195634302383040,4.335,7.5520506,5.59005
1680015645952,1195634304885497,4.3159504,7.5520506,5.616
1680015645954,1195634307387728,4.3639503,7.5810003,5.68095
1680015645956,1195634309889882,4.3900504,7.5520506,5.8240504
1680015645958,1195634312392267,4.3570504,7.4760003,5.74095
1680015645960,1195634314894497,4.41195,7.4350505,5.6970005
1680015645962,1195634317396669,4.30905,7.5450006,5.6929502
1680015645965,1195634319899131,4.2730503,7.5139503,5.56995
1680015645967,1195634322401285,4.38495,7.56405,5.7289505
1680015645969,1195634324903669,4.4359503,7.54995,5.7499504
1680015645972,1195634327405900,4.3879504,7.4730005,5.8120503
1680015645975,1195634329908040,4.48605,7.4419503,5.7310505
1680015645977,1195634332410424,4.5409503,7.5160503,5.7120004
1680015645979,1195634334912886,4.48395,7.5400505,5.688
1680015645982,1195634337415040,4.5700502,7.4089503,5.7259502
1680015645985,1195634339917257,4.47405,7.39905,5.6970005
1680015645989,1195634342419641,4.49805,7.4350505,5.77395
1680015645991,1195634344921795,4.54605,7.35795,5.50605
1680015645993,1195634347424026,4.5220504,7.4160004,5.6400003
1680015645996,1195634349926453,4.5990005,7.3969502,5.59005
1680015645997,1195634352428607,4.623,7.38,5.6020503
1680015645999,1195634354930992,4.64895,7.3969502,5.52495
1680015646003,1195634357433146,4.72305,7.3440003,5.5200005
1680015646005,1195634359935377,4.6969504,7.29405,5.5129504
1680015646007,1195634362437771,4.6800003,7.287,5.4480004
1680015646012,1195634364940233,4.65105,7.2910504,5.6329503
1680015646014,1195634367442387,4.7059503,7.2649503,5.46495
1680015646015,1195634369944617,4.6870503,7.2960005,5.49405
1680015646017,1195634372446978,4.776,7.24095,5.5200005
1680015646020,1195634374949132,4.6660504,7.3180504,5.484
1680015646022,1195634377451363,4.63695,7.3080006,5.53905
1680015646026,1195634379953516,4.7689505,7.2190504,5.4960003
1680015646028,1195634382455978,4.7520003,7.2310505,5.36205
1680015646030,1195634384958363,4.7299504,7.3099504,5.2930503
1680015646032,1195634387460516,4.7400002,7.15005,5.43195
1680015646035,1195634389962747,4.6320004,7.2769504,5.3910003
1680015646037,1195634392465132,4.6920004,7.2049503,5.412
1680015646039,1195634394967271,4.8190503,7.215,5.30205
1680015646045,1195634397469732,4.78305,7.22205,5.31195
1680015646046,1195634399971963,4.809,7.2700505,5.4750004
1680015646047,1195634402474117,4.76595,7.2769504,5.4750004
1680015646049,1195634404976536,4.73295,7.2750006,5.35305
1680015646052,1195634407478766,4.7140503,7.2000003,5.247
1680015646055,1195634409980920,4.7470503,7.2750006,5.2210503
1680015646057,1195634412483382,4.7640004,7.25505,5.3500504
1680015646062,1195634414985545,4.6870503,7.2700505,5.355
1680015646064,1195634417487929,4.7970004,7.3180504,5.4289503
1680015646068,1195634419990160,4.69005,7.3390503,5.4
1680015646069,1195634422492545,4.7850003,7.3489504,5.2849503
1680015646070,1195634424994727,4.6470003,7.3099504,5.29995
1680015646072,1195634427497189,4.5750003,7.2360005,5.2450504
1680015646075,1195634429999420,4.5529504,7.3060503,5.2780504
1680015646077,1195634432501574,4.6920004,7.2169504,5.2540503
1680015646080,1195634435003958,4.563,7.2750006,5.24205
1680015646084,1195634437506064,4.5750003,7.2649503,5.262
1680015646086,1195634440008295,4.49805,7.1959505,5.3500504
1680015646088,1195634442510756,4.42605,7.1140504,5.355
1680015646090,1195634445012910,4.584,7.01595,5.1940503
1680015646092,1195634447515295,4.596,7.0660505,5.2180505
1680015646095,1195634450017507,4.63905,7.0729504,5.5800004
1680015646097,1195634452519660,4.54605,7.04505,5.4559503
1680015646101,1195634455022045,4.69395,6.9900002,5.3959503
1680015646103,1195634457524276,4.70205,6.9660006,5.4100504
1680015646106,1195634460026732,4.644,6.88395,5.4870005
1680015646107,1195634462528886,4.7260504,6.8910003,5.59005
1680015646110,1195634465031271,4.7449503,6.8820004,5.4289503
1680015646112,1195634467533425,4.8190503,6.7519503,5.4360003
1680015646115,1195634470035651,4.8190503,6.8239503,5.6179504
1680015646117,1195634472537804,4.8190503,6.7639503,5.5729504
1680015646120,1195634475040266,4.776,6.85305,5.5630503
1680015646124,1195634477542651,4.8840003,6.7450504,5.66895
1680015646126,1195634480044895,4.88595,6.63495,5.5030503
1680015646129,1195634482547049,4.872,6.57,5.6179504
1680015646131,1195634485049434,4.9219503,6.6540003,5.7640505
1680015646132,1195634487551665,5.00295,6.6469502,5.7499504
1680015646135,1195634490054049,5.12295,6.5989504,5.8170004
1680015646140,1195634492556252,5.109,6.6060004,5.7450004
1680015646142,1195634495058406,5.20695,6.5080504,5.7979503
1680015646143,1195634497560790,5.26695,6.432,5.82
1680015646145,1195634500062944,5.3050504,6.5340004,5.84805
1680015646147,1195634502565175,5.40105,6.5340004,5.7379503
1680015646150,1195634505067661,5.44395,6.4890003,5.7910504
1680015646152,1195634507570045,5.5690503,6.5560503,5.7379503
1680015646156,1195634510072199,5.72205,6.5059505,5.6899505
1680015646158,1195634512574430,5.6239505,6.5509505,5.8050003
1680015646159,1195634515076814,5.808,6.4630504,5.769
1680015646163,1195634517578986,5.81505,6.5680504,5.6970005
1680015646166,1195634520081217,5.8969502,6.5230503,5.7450004
1680015646167,1195634522583679,5.8660502,6.49905,5.62095
1680015646169,1195634525085832,5.9710503,6.43905,5.7070503
1680015646172,1195634527588231,5.9659505,6.4510503,5.688
1680015646176,1195634530090385,6.12405,6.47205,5.71395
1680015646179,1195634532592616,6.15105,6.4360504,5.7670503
1680015646180,1195634535094991,6.1000504,6.4170003,5.6449504
1680015646182,1195634537597453,6.0690002,6.29505,5.6400003
1680015646185,1195634540099607,6.1050005,6.3120003,5.7720003
1680015646187,1195634542601838,6.13605,6.453,5.6850004
1680015646190,1195634545104222,6.06195,6.3120003,5.688
1680015646192,1195634547606376,5.9880004,6.3240004,5.7240005
1680015646195,1195634550108607,5.98995,6.321,5.68305
1680015646197,1195634552610991,5.8510504,6.28095,5.6950502
1680015646200,1195634555113222,5.8900504,6.4339504,5.5750504
1680015646203,1195634557615400,5.8390503,6.3840003,5.6179504
1680015646206,1195634560117785,5.6929502,6.4819503,5.511
1680015646207,1195634562620015,5.62095,6.5730004,5.59695
1680015646210,1195634565122400,5.5020003,6.525,5.54895
1680015646214,1195634567624636,5.4799504,6.59205,5.53905
1680015646216,1195634570127020,5.3700004,6.63495,5.58195
1680015646218,1195634572629251,5.27895,6.7429504,5.511
1680015646220,1195634575131636,5.18505,6.6730504,5.511
1680015646222,1195634577633790,5.14905,6.70905,5.5030503
1680015646225,1195634580135991,4.9890003,6.7429504,5.6590505
1680015646227,1195634582638376,5.013,6.834,5.5920005
1680015646229,1195634585140607,4.8499503,6.85305,5.55105
1680015646232,1195634587642761,4.8840003,6.83895,5.5630503
1680015646235,1195634590145164,4.7520003,6.867,5.52495
1680015646237,1195634592647395,4.73505,6.84105,5.60895
1680015646240,1195634595149549,4.6990504,6.80805,5.6179504
1680015646245,1195634597651934,4.72305,6.7600503,5.604
1680015646247,1195634600154404,4.6870503,6.7120504,5.7190504
1680015646249,1195634602656635,4.72305,6.702,5.6850004
1680015646252,1195634605158789,4.66995,6.7210503,5.92005
1680015646254,1195634607661173,4.644,6.6060004,5.7910504
1680015646256,1195634610163351,4.80495,6.49905,5.7720003
1680015646258,1195634612665582,4.7850003,6.4960504,5.8000503
1680015646260,1195634615167967,4.8289504,6.4960504,5.8549504
1680015646262,1195634617670197,4.92,6.4360504,5.8770003
1680015646265,1195634620172582,4.9549503,6.54195,5.85795
1680015646267,1195634622674813,5.046,6.4240503,5.9370003
1680015646270,1195634625176967,5.0659504,6.432,5.80305
1680015646272,1195634627679351,5.1330004,6.34005,5.7379503
1680015646275,1195634630181813,5.18295,6.333,5.7670503
1680015646279,1195634632684054,5.3200502,6.3,5.90805
1680015646280,1195634635186207,5.53695,6.2569504,5.8219504
1680015646284,1195634637688592,5.51805,6.2730002,5.87895
1680015646286,1195634640190746,5.703,6.2179503,5.82705
1680015646290,1195634642692982,5.7460504,6.2040005,5.7450004
1680015646292,1195634645195366,5.8440003,6.1369505,5.7960005
1680015646295,1195634647697597,5.95695,6.0700502,5.9010005
1680015646296,1195634650199982,6.0480003,6.1579504,5.7979503
1680015646298,1195634652702212,6.1480503,6.07695,5.8770003
1680015646300,1195634655204385,6.1909504,5.9740505,5.7979503
1680015646302,1195634657706770,6.2730002,6.0049505,5.89095
1680015646305,1195634660209001,6.3810005,5.9929504,5.8960505
1680015646307,1195634662711155,6.4399505,5.9050503,5.85795
1680015646310,1195634665213539,6.52395,5.814,5.92995
1680015646312,1195634667715789,6.59805,5.802,5.84595
1680015646315,1195634670218251,6.60795,5.7990003,5.67105
1680015646318,1195634672720404,6.68205,5.754,5.853
1680015646320,1195634675222789,6.68205,5.6790004,5.9269505
1680015646323,1195634677725020,6.8190002,5.7250504,5.89905
1680015646327,1195634680227174,6.9270005,5.75895,5.985
1680015646329,1195634682729558,6.8640003,5.73495,5.9440503
1680015646333,1195634685231712,6.8950505,5.742,5.9610004
1680015646337,1195634687734174,6.91905,5.7510004,6.0660005
1680015646339,1195634690236428,7.01805,5.67495,6.1090503
1680015646341,1195634692738582,6.9940505,5.6290503,6.2050505
1680015646345,1195634695240967,7.0219502,5.5740004,6.282
1680015646347,1195634697743198,7.0150504,5.5410004,6.2029505
1680015646349,1195634700245577,7.0080004,5.61,6.22695
1680015646350,1195634702747808,7.0920005,5.5530005,6.3130503
1680015646352,1195634705250193,7.0650005,5.5260005,6.4020004
1680015646354,1195634707752423,7.1179504,5.54505,6.4140005
1680015646355,1195634710254601,7.1610003,5.5069504,6.45195
1680015646357,1195634712756986,7.2040505,5.517,6.4279504
1680015646360,1195634715259140,7.21395,5.445,6.4300504
1680015646365,1195634717761606,7.2790504,5.4760504,6.4690504
1680015646367,1195634720263760,7.3549504,5.48295,6.4999504
1680015646369,1195634723011145,7.31505,5.4210005,6.59595
1680015646371,1195634725268376,7.42005,5.3320503,6.5400004
1680015646373,1195634727770606,7.5109506,5.2720504,6.56895
1680015646375,1195634730272731,7.52505,5.23605,6.4540505
1680015646377,1195634732775193,7.46295,5.22195,6.3970504
1680015646380,1195634735277577,7.63605,5.21505,6.5119505
1680015646382,1195634737779731,7.6710005,5.1379504,6.50505
1680015646385,1195634740281962,7.7460003,5.1480002,6.543
1680015646388,1195634742784106,7.6069503,5.0209503,6.5190005
1680015646390,1195634745286490,7.66695,5.1139503,6.3420005
1680015646392,1195634747788952,7.7239504,5.1120005,6.3300004
1680015646395,1195634750291106,7.65495,5.0620503,6.2359505
1680015646397,1195634752793352,7.52295,4.9830003,6.18405
1680015646401,1195634755295736,7.5679502,4.91505,6.1789503
1680015646404,1195634757797967,7.56405,5.0929503,6.21705
1680015646407,1195634760300121,7.4389505,5.0809503,6.06405
1680015646408,1195634762802496,7.4800506,5.1210003,6.03
1680015646410,1195634765304957,7.2910504,5.1330004,6.01095
1680015646412,1195634767807111,7.21605,5.2000504,6.05205
1680015646415,1195634770309342,7.2240005,5.14995,5.8429503
1680015646417,1195634772811496,7.14195,5.11905,5.92005
1680015646420,1195634775313880,7.1179504,5.21505,5.77605
1680015646422,1195634777816034,6.9600005,5.2819505,5.736
1680015646425,1195634780318496,6.8980503,5.2170005,5.5870504
1680015646429,1195634782820726,6.8689504,5.22195,5.68095
1680015646430,1195634785323121,6.8209505,5.23605,5.60895
1680015646433,1195634787825275,6.7879505,5.2990503,5.47695
1680015646435,1195634790327506,6.8160005,5.21505,5.46
1680015646439,1195634792829890,6.7950006,5.2200003,5.44605
1680015646441,1195634795332126,6.807,5.2770004,5.4199505
1680015646443,1195634797834511,6.8929505,5.23395,5.4480004
1680015646446,1195634800336741,6.7450504,5.256,5.5350003
1680015646448,1195634802838895,6.8689504,5.2440004,5.484
1680015646450,1195634805341280,6.8280005,5.2510505,5.3569503
1680015646453,1195634807843424,6.9220505,5.2120504,5.4580503
1680015646455,1195634810345885,6.879,5.10195,5.4079504
1680015646457,1195634812848116,6.9480004,5.1070504,5.5729504
1680015646464,1195634815350501,6.951,5.08605,5.5129504
1680015646464,1195634817852660,6.984,5.0620503,5.65395
1680015646465,1195634820354891,6.97695,5.0539503,5.6179504
1680015646467,1195634822857276,7.0849504,5.0059505,5.65395
1680015646470,1195634825359430,7.0990505,4.9440002,5.7619505
1680015646472,1195634827861876,7.1449504,4.932,5.7840004
1680015646477,1195634830364030,7.188,4.8630004,5.853
1680015646478,1195634832866261,7.3720503,4.78905,5.808
1680015646480,1195634835368415,7.3120503,4.7310004,5.8630505
1680015646483,1195634837870780,7.37895,4.6930504,5.8819504
1680015646486,1195634840373011,7.4770503,4.671,6.0280504
1680015646488,1195634842875473,7.5370502,4.6260004,6.0349503
1680015646492,1195634845377627,7.5540004,4.6260004,6.15705
1680015646493,1195634847880011,7.69995,4.602,6.09
1680015646496,1195634850382232,7.77405,4.61595,6.0490503
1680015646498,1195634852884617,7.8130503,4.6090503,6.1980004
1680015646500,1195634855386770,7.7700005,4.43205,6.2050505
1680015646504,1195634857889232,7.7719502,4.4560504,6.2050505
1680015646506,1195634860391358,7.806,4.386,6.3370504
1680015646508,1195634862893589,7.8679504,4.3570504,6.3820505
1680015646510,1195634865395742,7.8180003,4.362,6.37305
1680015646514,1195634867898141,7.8559504,4.33605,6.4900503
1680015646517,1195634870400372,7.90395,4.281,6.4879503
1680015646520,1195634872902833,7.7580004,4.2259502,6.576
1680015646522,1195634875404987,7.8970504,4.18305,6.4540505
1680015646525,1195634877907358,7.8940506,4.3099504,6.4759502
1680015646529,1195634880409589,7.9729505,4.20405,6.4729505
1680015646530,1195634882948358,7.90395,4.1610003,6.5329504
1680015646531,1195634885414127,7.8799505,4.2709503,6.4279504
1680015646533,1195634887916589,7.9009504,4.26195,6.4450502
1680015646537,1195634890418738,7.7910004,4.24695,6.29895
1680015646538,1195634892920968,7.7530503,4.26195,6.42105
1680015646540,1195634895423122,7.8100505,4.329,6.4810505
1680015646542,1195634897925507,7.7460003,4.2709503,6.6220503
1680015646545,1195634900427738,7.7839503,4.3330503,6.4950004
1680015646547,1195634902929910,7.8199506,4.281,6.5520005
1680015646551,1195634905432372,7.8100505,4.2259502,6.5209503
1680015646554,1195634907934757,7.767,4.30695,6.5070004
1680015646556,1195634910436987,7.75995,4.33605,6.4690504
1680015646558,1195634912939170,7.8700504,4.2979503,6.3850503
1680015646560,1195634915441555,7.83405,4.3330503,6.3300004
1680015646563,1195634917943709,7.8490505,4.221,6.327
1680015646566,1195634920446170,7.9249506,4.3120503,6.2460003
1680015646568,1195634922948324,7.8750005,4.23495,6.282
1680015646571,1195634925450540,7.90395,4.269,6.18405
1680015646573,1195634927952924,7.8250504,4.22805,6.2770505
1680015646575,1195634930455078,7.9519506,4.2109504,6.2509503
1680015646578,1195634932957309,7.8820505,4.12995,6.2029505
1680015646580,1195634935459776,7.8150005,4.18305,6.2119503
1680015646584,1195634937962160,7.8130503,4.125,6.19605
1680015646586,1195634940464314,7.767,4.0810504,6.1189504
1680015646591,1195634942966531,7.6429505,4.11105,6.15705
1680015646592,1195634945468915,7.62405,4.06005,6.0930004
1680015646596,1195634947971069,7.6120505,4.06005,6.14295
1680015646597,1195634950473531,7.5780005,4.056,6.0210004
1680015646598,1195634952975685,7.5439506,3.9930003,6.0690002
1680015646600,1195634955477916,7.4340005,4.017,6.2200503
1680015646604,1195634957980295,7.4560504,4.08405,6.09705
1680015646607,1195634960482449,7.45305,3.96495,6.117
1680015646608,1195634962984680,7.4100003,3.9220502,6.1600504
1680015646610,1195634965487064,7.4100003,3.9379501,6.0040503
1680015646613,1195634967989535,7.45305,3.9240003,5.9680505
1680015646615,1195634970491689,7.4220004,3.9049501,5.9680505
1680015646618,1195634972993920,7.458,3.8380501,5.97795
1680015646620,1195634975496073,7.386,3.8830502,5.9029503
1680015646623,1195634977998468,7.5400505,3.8190002,6.0349503
1680015646627,1195634980500699,7.5280504,3.72495,6.1260004
1680015646629,1195634983003083,7.5730505,3.7180502,6.0139503
1680015646631,1195634985505314,7.6000504,3.62895,5.9659505
1680015646632,1195634988007468,7.5520506,3.6460502,6.11205
1680015646635,1195634990509842,7.7460003,3.65805,6.0490503
1680015646637,1195634993012072,7.6519504,3.6220503,6.1519504
1680015646640,1195634995514457,7.7380505,3.5839503,6.117
1680015646643,1195634998016674,7.6860003,3.5689502,6.1860003
1680015646647,1195635000519058,7.6909504,3.5380502,6.15495
1680015646648,1195635003021289,7.7119503,3.4759502,6.21705
1680015646650,1195635005523443,7.7530503,3.4620001,6.327
1680015646652,1195635008025828,7.6710005,3.3919501,6.4609504
1680015646656,1195635010527996,7.76205,3.4330502,6.42495
1680015646658,1195635013030457,7.7149506,3.38505,6.30105
1680015646670,1195635015532688,7.7380505,3.282,6.2629504
1680015646671,1195635018034842,7.7239504,3.2370002,6.2530503
1680015646671,1195635020537226,7.7310004,3.3370502,6.36105
1680015646671,1195635023039457,7.7550006,3.3300002,6.2580004
1680015646673,1195635025541842,7.6789503,3.2650502,6.366
1680015646675,1195635028044073,7.7359505,3.2220001,6.2770505
1680015646677,1195635030546453,7.7100005,3.3349502,6.28695
1680015646679,1195635033048684,7.7239504,3.282,6.14295
1680015646680,1195635035550838,7.66695,3.2320502,6.2239504
1680015646683,1195635038053222,7.6429505,3.2599502,6.2770505
1680015646686,1195635040555385,7.6590004,3.1620002,6.2239504
1680015646688,1195635043057616,7.66905,3.03795,6.3490505
1680015646690,1195635045560001,7.6380005,3.10995,6.33195
1680015646692,1195635048062231,7.68795,3.0550501,6.3559504
1680015646695,1195635050564616,7.5780005,3.081,6.3580503
1680015646697,1195635053066852,7.6500006,3.0499501,6.2959504
1680015646701,1195635055569006,7.55595,3.0499501,6.1720505
1680015646704,1195635058071390,7.59495,2.9539502,6.15495
1680015646706,1195635060573852,7.4869504,2.9299502,6.0370502
1680015646708,1195635063076001,7.4749503,2.973,6.16695
1680015646710,1195635065578231,7.5109506,2.9640002,6.129
1680015646713,1195635068080616,7.4269505,3.009,6.1000504
1680015646715,1195635070582770,7.4440503,2.9560502,5.8939505
1680015646718,1195635073085001,7.4820004,2.8890002,5.9700003
1680015646720,1195635075587371,7.34805,2.808,5.9989505
1680015646724,1195635078089602,7.34595,2.7529502,6.0420003
1680015646726,1195635080591987,7.2709503,2.69295,5.9940004
1680015646728,1195635083094218,7.3410006,2.7139502,6.0160503
1680015646731,1195635085596376,7.2330003,2.7259502,6.0160503
1680015646733,1195635088098761,7.209,2.607,6.0280504
1680015646735,1195635090601223,7.1449504,2.6190002,6.1399503
1680015646739,1195635093103375,7.2040505,2.60205,6.1450505
1680015646741,1195635095605606,7.2450004,2.56395,6.0469503
1680015646743,1195635098107760,7.1659503,2.463,5.9370003
1680015646745,1195635100610145,7.1899505,2.36505,6.06405
1680015646747,1195635103112375,7.1730003,2.42895,5.9230504
1680015646750,1195635105614732,7.1800504,2.319,5.9749503
1680015646752,1195635108116963,7.1449504,2.3140502,6.1090503
1680015646755,1195635110619347,7.2040505,2.2710001,6.1140003
1680015646758,1195635113121501,7.2570004,2.2350001,6.1140003
1680015646760,1195635115623732,7.3069506,2.14395,6.13605
1680015646764,1195635118126131,7.3720503,2.0730002,6.2749505
1680015646766,1195635120628361,7.4010005,2.0389502,6.3150005
1680015646768,1195635123130746,7.4730005,1.9290001,6.3490505
1680015646770,1195635125632977,7.518,1.8880501,6.3799505
1680015646772,1195635128135136,7.5919504,1.7880001,6.40395
1680015646777,1195635130637520,7.6500006,1.83105,6.29895
1680015646779,1195635133139751,7.7860503,1.7899501,6.39405
1680015646782,1195635135642107,7.806,1.71105,6.4810505
1680015646783,1195635138144261,7.8889503,1.67505,6.37305
1680015646786,1195635140646491,7.9210505,1.66305,6.5160003
1680015646788,1195635143148876,8.064,1.6819501,6.50895
1680015646790,1195635145651030,8.02305,1.6390501,6.50505
1680015646795,1195635148153486,8.224951,1.5769501,6.5329504
1680015646797,1195635150655717,8.26095,1.6030501,6.62895
1680015646799,1195635153158102,8.31105,1.536,6.603
1680015646800,1195635155660256,8.361,1.5619501,6.543
1680015646805,1195635158162462,8.44305,1.55295,6.55695
1680015646807,1195635160664847,8.60295,1.4449501,6.50505
1680015646808,1195635163167078,8.610001,1.4280001,6.5550003
1680015646810,1195635165669462,8.578951,1.4089501,6.5020504
1680015646814,1195635168171630,8.682,1.3660501,6.45195
1680015646818,1195635170673861,8.72805,1.3399501,6.5550003
1680015646820,1195635173176246,8.731951,1.3609501,6.5280004
1680015646822,1195635175727323,8.826,1.39005,6.4110003
1680015646824,1195635178180866,8.941051,1.3279501,6.471
1680015646826,1195635180683097,8.883,1.2730501,6.39405
1680015646829,1195635183185481,8.919001,1.26495,6.4230003
1680015646830,1195635185687635,8.89305,1.3110001,6.4110003
1680015646832,1195635188189866,8.81595,1.26495,6.4540505
1680015646835,1195635190692020,8.7949505,1.2580501,6.4420505
1680015646837,1195635193194481,8.79195,1.2079501,6.3130503
1680015646840,1195635195696866,8.77305,1.11195,6.399
1680015646843,1195635198199020,8.74005,1.2220501,6.3439503
1680015646846,1195635200701285,8.74695,1.1530501,6.2580004
1680015646848,1195635203203439,8.67,1.16505,6.4729505
1680015646852,1195635205705823,8.61495,1.131,6.2839503
1680015646854,1195635208208054,8.54595,1.07595,6.3970504
1680015646856,1195635210710506,8.401951,1.1410501,6.42495
1680015646858,1195635213212659,8.352,1.18605,6.387
1680015646860,1195635215715044,8.277,1.0879501,6.4450502
1680015646863,1195635218217275,8.245951,1.0380001,6.43695
1680015646865,1195635220719429,8.13405,1.1029501,6.5209503
1680015646868,1195635223221808,8.07405,1.1050501,6.399
1680015646870,1195635225724039,8.02305,1.0639501,6.4810505
1680015646873,1195635228226424,7.9090505,1.059,6.3630004
1680015646876,1195635230728654,7.8870006,1.0000501,6.4609504
1680015646878,1195635233230808,7.8820505,1.0879501,6.366
1680015646880,1195635235733208,7.8250504,1.05495,6.28905
1680015646884,1195635238235439,7.8799505,1.1149501,6.366
1680015646886,1195635240737900,7.86495,1.04505,6.1600504
1680015646890,1195635243240044,7.8300004,1.09095,6.2650504
1680015646892,1195635245742429,7.8769503,1.23405,6.2700005
1680015646895,1195635248244659,7.90605,1.2580501,6.3700504
1680015646897,1195635250746813,7.8870006,1.2100501,6.40605
1680015646898,1195635253249198,7.8180003,1.19595,6.46395
1680015646900,1195635255751395,7.7910004,1.16505,6.5329504
1680015646903,1195635258253779,7.8100505,1.1719501,6.6240005
1680015646905,1195635260756010,7.8199506,1.2390001,6.4399505
1680015646908,1195635263258164,7.7460003,1.27005,6.2580004
1680015646910,1195635265760564,7.7310004,1.215,6.3109503
1680015646913,1195635268262794,7.8030005,1.26795,6.4180503
1680015646916,1195635270764948,7.7910004,1.2870001,6.4230003
1680015646918,1195635273267410,7.75995,1.23,6.5160003
1680015646921,1195635275769813,7.6930504,1.218,6.5599504
1680015646924,1195635278272044,7.6930504,1.2870001,6.4609504
1680015646929,1195635280774198,7.7460003,1.3369501,6.4300504
1680015646930,1195635283276583,7.66695,1.2220501,6.4759502
1680015646931,1195635285778726,7.662,1.23705,6.5500503
1680015646934,1195635288281188,7.662,1.23,6.53805
1680015646936,1195635290783342,7.695,1.3230001,6.6649504
1680015646938,1195635293285573,7.6590004,1.2919501,6.68205
1680015646940,1195635295787957,7.6500006,1.28205,6.7510505
1680015646943,1195635298290111,7.6830006,1.27995,6.80595
1680015646945,1195635300792342,7.72905,1.2610501,6.7780504
1680015646948,1195635303294803,7.6740003,1.26495,7.0530005
1680015646950,1195635305797188,7.75995,1.3300501,7.0750504
1680015646952,1195635308299347,7.7410502,1.3230001,7.0939503
1680015646955,1195635310801578,7.6789503,1.23,7.122
1680015646957,1195635313303962,7.6210504,1.3249501,7.3000503
1680015646960,1195635315806116,7.5780005,1.2870001,7.1509504
1680015646965,1195635318308602,7.5400505,1.3780501,6.9930005
1680015646968,1195635320809678,7.5330005,1.4280001,7.1370006
1680015646968,1195635323310757,7.5660005,1.455,7.221
1680015646970,1195635325815371,7.5660005,1.3609501,7.28805
1680015646973,1195635328317525,7.5520506,1.4089501,7.2690005
1680015646975,1195635330819800,7.52505,1.4670001,7.14405
1680015646977,1195635333322261,7.4610004,1.3590001,7.2130504
1680015646980,1195635335824646,7.5490503,1.55505,7.3120503
1680015646983,1195635338326800,7.4440503,1.5120001,7.3330503
1680015646986,1195635340829016,7.4749503,1.4760001,7.2949505
1680015646988,1195635343331170,7.4560504,1.5649501,7.419
1680015646990,1195635345833555,7.4989505,1.5169501,7.4119506
1680015646993,1195635348335786,7.485,1.52205,7.3549504
1680015646995,1195635350838170,7.4730005,1.5120001,7.2400503
1680015646998,1195635353340401,7.4940004,1.536,7.1340003
1680015647002,1195635355842786,7.4869504,1.59405,7.1200504
1680015647005,1195635358344939,7.4419503,1.7040001,7.2400503
1680015647007,1195635360847170,7.42995,1.6560001,7.2109504
1680015647009,1195635363349555,7.4440503,1.71105,7.3039503
1680015647011,1195635365851786,7.4149504,1.6320001,7.3069506
1680015647013,1195635368354170,7.4010005,1.6339501,7.3000503
1680015647016,1195635370856401,7.3410006,1.6680001,7.2570004
1680015647018,1195635373358540,7.2829504,1.6609501,7.1389503
1680015647020,1195635375860925,7.2760506,1.6849501,7.1010003
1680015647024,1195635378363155,7.2619505,1.6339501,7.1029506
1680015647026,1195635380865540,7.2120004,1.6650001,6.9739504
1680015647029,1195635383367786,7.1520004,1.6609501,7.18905
1680015647030,1195635385869940,7.0750504,1.6609501,7.314
1680015647034,1195635388372324,7.1449504,1.6150501,7.3669505
1680015647036,1195635390874555,7.0339503,1.55505,7.3549504
1680015647039,1195635393376940,7.0650005,1.5820501,7.55595
1680015647041,1195635395879170,6.9030004,1.47105,7.3999505
1680015647046,1195635398381555,6.9859505,1.455,7.2180004
1680015647047,1195635400883786,6.8280005,1.5150001,7.2109504
1680015647049,1195635403385940,6.84495,1.3560001,7.2850504
1680015647050,1195635405888319,6.7920003,1.4790001,7.2040505
1680015647054,1195635408390473,6.7830005,1.4449501,7.25895
1680015647056,1195635410892704,6.83295,1.3590001,7.3999505
1680015647058,1195635413395088,6.7570505,1.3090501,7.4029503
1680015647061,1195635415897343,6.8160005,1.27995,7.4410505
1680015647064,1195635418399728,6.807,1.34895,7.5079503
1680015647066,1195635420901959,6.852,1.2940501,7.4940004
1680015647068,1195635423404112,6.76095,1.31805,7.5079503
1680015647071,1195635425906497,6.78,1.3780501,7.59705
1680015647074,1195635428408978,6.747,1.38495,7.48605
1680015647079,1195635430911131,6.66795,1.4310001,7.48605
1680015647080,1195635433413362,6.67005,1.4640001,7.35195
1680015647081,1195635435915742,6.7060504,1.59105,7.52505
1680015647085,1195635438417896,6.7330503,1.4830501,7.5660005
1680015647092,1195635440920127,6.6940503,1.4119501,7.6090503
1680015647092,1195635443422511,6.7920003,1.50705,7.7860503
1680015647092,1195635445924742,6.7759504,1.4260501,7.7569504
1680015647094,1195635448427127,6.8640003,1.4809501,7.7359505
1680015647096,1195635450929357,6.7969503,1.3920001,7.6639504
1680015647098,1195635453431511,6.76905,1.42095,7.58895
1680015647100,1195635455933896,6.9600005,1.452,7.66095
1680015647104,1195635458436347,6.8980503,1.3300501,7.5610504
1680015647106,1195635460938501,6.9529505,1.3590001,7.5730505
1680015647108,1195635463440732,7.01805,1.4470501,7.5919504
1680015647110,1195635465943117,7.0129504,1.3300501,7.4719505
1680015647116,1195635468445275,6.9910502,1.3420501,7.4029503
1680015647118,1195635473447506,7.0650005,1.3780501,7.3360505
1680015647121,1195635474808949,7.0990505,1.2079501,7.419
1680015647121,1195635476176430,7.1950502,1.1359501,7.39305
1680015647125,1195635478454506,7.1899505,1.179,7.14195
1680015647127,1195635480956670,7.1569505,1.1340001,7.2349505
1680015647129,1195635483458901,7.1730003,1.08105,7.2010503
1680015647130,1195635485961285,7.2240005,1.1220001,7.1389503
1680015647134,1195635488463516,7.2379503,0.97800004,7.2780004
1680015647136,1195635490965901,7.34805,1.09095,7.2349505
1680015647138,1195635493468117,7.3720503,1.0030501,7.1130004
1680015647140,1195635495970271,7.425,1.059,7.1629505
1680015647143,1195635498472655,7.3939505,1.059,7.0939503
1680015647146,1195635500974809,7.3549504,1.0309501,7.149
1680015647148,1195635503477015,7.5090003,0.99705005,7.0270505
1680015647152,1195635505979476,7.4100003,0.906,6.9139504
1680015647155,1195635508481861,7.4800506,1.04295,6.9210005
1680015647157,1195635510984015,7.3819504,0.97605,6.9210005
1680015647159,1195635513486242,7.4490004,0.95400006,6.9570003
1680015647161,1195635515988626,7.3120503,0.93495005,6.9480004
1680015647164,1195635518490857,7.2790504,0.93000007,6.9690003
1680015647166,1195635520993242,7.1449504,0.76005006,6.8640003
1680015647168,1195635523495457,7.0870504,0.73095006,6.84705
1680015647171,1195635525997611,7.0420504,0.73395,6.80595
1680015647174,1195635528499996,6.9220505,0.65205,6.9
1680015647176,1195635531002150,6.8640003,0.48900002,6.9880505
1680015647179,1195635533504380,6.7920003,0.47295,6.9570003
1680015647180,1195635536006842,6.6889505,0.36795002,6.8950505
1680015647184,1195635538508996,6.59595,0.39105,6.9979506
1680015647187,1195635541011380,6.5269504,0.30600002,6.9040504
1680015647190,1195635543513597,6.40395,0.15300001,7.0600505
1680015647192,1195635546015982,6.35895,0.21000001,7.0630503
1680015647196,1195635548518136,6.3130503,0.14295001,7.0579505
1680015647197,1195635551020597,6.2730002,0.12195001,7.3000503
1680015647198,1195635553522751,6.1980004,-0.01995,7.149
1680015647202,1195635556024962,6.16695,-0.15105,7.1629505
1680015647205,1195635558527346,6.0720005,-0.08895,7.3279505
1680015647207,1195635561029500,6.096,-0.16800001,7.29195
1680015647209,1195635563531731,6.045,-0.27405003,7.3380003
1680015647210,1195635566034116,6.0160503,-0.19905001,7.3000503
1680015647214,1195635568536352,6.0090003,-0.132,7.21605
1680015647216,1195635571038736,5.9539504,-0.10095,7.3879504
1680015647220,1195635573540967,5.92995,-0.060000002,7.4050503
1680015647221,1195635576043121,5.9539504,-0.01995,7.4269505
1680015647225,1195635578545491,5.9160004,-0.012,7.4700003
1680015647229,1195635581047722,5.925,-0.096,7.5660005
1680015647231,1195635583550107,5.9760003,-0.09195001,7.4070005
1680015647232,1195635586052338,5.9209504,-0.010050001,7.458
1680015647234,1195635588554722,5.8660502,0.16695,7.35195
1680015647236,1195635591056871,5.87505,0.097950004,7.37895
1680015647239,1195635593559102,5.9539504,0.273,7.28805
1680015647241,1195635596061256,5.9880004,0.37695003,7.3429503
1680015647244,1195635598563717,6.057,0.537,7.2690005
1680015647246,1195635601065871,5.9809504,0.60405004,7.2570004
1680015647248,1195635603568242,5.9929504,0.69495004,7.2850504
1680015647250,1195635606070472,6.0160503,0.82500005,7.14195
1680015647254,1195635608572857,6.12195,0.966,7.221
1680015647256,1195635611075088,6.012,1.11195,7.37895
1680015647258,1195635613577462,6.04995,1.0500001,7.2760506
1680015647260,1195635616079616,6.14295,1.04505,7.4410505
1680015647266,1195635618581847,6.1390505,1.059,7.4460006
1680015647267,1195635621084217,6.3640504,1.0830001,7.4719505
1680015647269,1195635623586447,6.2920504,1.23405,7.3429503
1680015647271,1195635626088832,6.3229504,1.1359501,7.49805
1680015647274,1195635628591063,6.46395,1.20105,7.5370502
1680015647277,1195635631093217,6.4240503,1.1890501,7.3830004
1680015647279,1195635633595592,6.5719504,1.19805,7.5010505
1680015647281,1195635636097746,6.6769505,1.215,7.7359505
1680015647284,1195635638600208,6.71295,1.074,7.6639504
1680015647286,1195635641102439,6.7950006,0.906,7.6830006
1680015647288,1195635643604587,6.8380504,0.92100006,7.63005
1680015647291,1195635646106972,7.0129504,0.9799501,7.6900506
1680015647295,1195635648609203,7.0750504,0.88905007,7.6710005
1680015647297,1195635651111587,7.0540504,0.84900004,7.6470003
1680015647299,1195635653613741,7.1299505,0.753,7.6660504
1680015647302,1195635656116203,7.149,0.74295,7.7209506
1680015647305,1195635658618434,7.2709503,0.70995003,7.66095
1680015647307,1195635661120587,7.2040505,0.74100006,7.7689505
1680015647308,1195635663622987,7.2379503,0.76500005,7.872
1680015647310,1195635666125141,7.2400503,0.86805004,7.8030005
1680015647314,1195635668627372,7.2450004,0.74595004,7.7380505
1680015647316,1195635671129833,7.2670503,0.65205,7.872
1680015647320,1195635673631997,7.2450004,0.75495005,7.8739505
1680015647322,1195635676134382,7.2619505,0.74805003,7.872
1680015647325,1195635678636612,7.1680503,0.73095006,7.8510003
1680015647326,1195635681138766,7.18305,0.66405004,7.83405
1680015647329,1195635683641151,7.25505,0.63105005,7.9129505
1680015647331,1195635686143626,7.2570004,0.65205,7.9750504
1680015647334,1195635688645857,7.1040006,0.6,7.9939504
1680015647336,1195635691148011,7.1590505,0.55395,7.9150505
1680015647340,1195635693650396,7.1040006,0.528,7.9680004
1680015647342,1195635696152550,7.1280003,0.55905,8.03295
1680015647344,1195635698654780,7.1800504,0.58005005,7.9609504
1680015647347,1195635701157165,7.1470504,0.47505003,7.9890003
1680015647348,1195635703659396,7.149,0.573,8.052
1680015647351,1195635706161780,7.116,0.50100005,7.9890003
1680015647354,1195635708664016,7.21395,0.44895002,8.04195
1680015647356,1195635711166170,7.149,0.52095,8.112
1680015647358,1195635713668555,7.1950502,0.52500004,8.17905
1680015647361,1195635716170785,7.10895,0.43005002,8.19795
1680015647365,1195635718673184,7.1659503,0.48195,8.221951
1680015647366,1195635721175415,7.2430506,0.40305,8.187
1680015647368,1195635723677569,7.21605,0.40605003,8.239051
1680015647371,1195635726179953,7.2190504,0.39105,8.158951
1680015647374,1195635728682184,7.1899505,0.44895002,8.049001
1680015647378,1195635731184324,7.2450004,0.39795002,7.9939504
1680015647380,1195635733686785,7.1659503,0.40305,8.0449505
1680015647381,1195635736189170,7.18305,0.282,8.035951
1680015647384,1195635738691401,7.1710505,0.35205,8.0119505
1680015647386,1195635741193550,7.209,0.25605002,7.8910503
1680015647388,1195635743695934,7.0249505,0.13605,7.8220506
1680015647391,1195635746198165,7.05105,0.14295001,7.7119503
1680015647394,1195635748700550,6.8809505,0.15300001,7.7449503
1680015647396,1195635751202804,6.9150004,0.057000004,7.7070003
1680015647398,1195635753704958,7.0729504,0.025950002,7.5940504
1680015647401,1195635756207343,6.867,-0.07005,7.7040005
1680015647404,1195635758709497,6.8380504,-0.11505,7.55805
1680015647406,1195635761211728,6.807,-0.16305001,7.59705
1680015647409,1195635763714189,6.8479505,-0.25695002,7.458
1680015647412,1195635766216574,6.7969503,-0.264,7.4820004
1680015647416,1195635768718709,6.852,-0.3,7.5150003
1680015647417,1195635771220939,6.852,-0.393,7.5540004
1680015647419,1195635773723324,6.7780504,-0.31695002,7.4599504
1680015647421,1195635776225478,6.8710504,-0.35505003,7.4170504
1680015647424,1195635778727939,6.76905,-0.40305,7.4890504
1680015647426,1195635781230184,6.73005,-0.36495003,7.4820004
1680015647428,1195635783732338,6.747,-0.453,7.5730505
1680015647431,1195635786234723,6.7249503,-0.46005002,7.5270004
1680015647434,1195635788736877,6.63705,-0.45105,7.5079503
1680015647436,1195635791239107,6.5790005,-0.43395,7.52505
1680015647438,1195635793741492,6.60795,-0.50505,7.5460505
1680015647441,1195635796243723,6.49095,-0.46800002,7.6759505
1680015647444,1195635798746107,6.46005,-0.45105,7.6519504
1680015647446,1195635801248357,6.49305,-0.41505003,7.5750003
1680015647448,1195635803750742,6.4789505,-0.32595003,7.6420503
1680015647454,1195635806252896,6.43305,-0.26595002,7.6590004
1680015647456,1195635808755126,6.4399505,-0.17805001,7.563
1680015647458,1195635811257502,6.53595,-0.13905,7.5919504
1680015647459,1195635813759733,6.426,-0.15900001,7.7689505
1680015647461,1195635816262117,6.40395,-0.058050003,7.6110005
1680015647464,1195635818764271,6.4240503,-0.00795,7.5919504
1680015647467,1195635821266502,6.35895,-0.0010500001,7.6729503
1680015647468,1195635823768887,6.38805,0.00405,7.6110005
1680015647471,1195635826271117,6.30105,0.021000002,7.70205
1680015647474,1195635828773502,6.2580004,0.13095,7.5460505
1680015647476,1195635831275733,6.3040504,0.08295,7.5130506
1680015647479,1195635833778093,6.3109503,0.124050006,7.5420003
1680015647482,1195635836280247,6.3090005,0.15300001,7.5460505
1680015647484,1195635838782478,6.3370504,0.30795002,7.5199504
1680015647487,1195635841284863,6.42105,0.31995,7.5679502
1680015647490,1195635843787097,6.3640504,0.24900001,7.65705
1680015647492,1195635846289251,6.3949504,0.17895001,7.5679502
1680015647495,1195635848791636,6.4020004,0.22200002,7.5919504
1680015647497,1195635851293867,6.3300004,0.126,7.7710505
1680015647499,1195635853796021,6.3349504,0.17895001,7.79295
1680015647502,1195635856298497,6.306,0.093,7.8430505
1680015647505,1195635858800882,6.35895,0.069000006,7.80495
1680015647507,1195635861303112,6.4549503,0.15795001,7.7190003
1680015647509,1195635863805266,6.4140005,0.04695,7.8220506
1680015647512,1195635866307646,6.4620004,0.12900001,7.7569504
1680015647514,1195635868809877,6.4740005,0.16695,7.7239504
1680015647516,1195635871312031,6.4840503,0.15,7.9080005
1680015647519,1195635873814492,6.4789505,0.21495001,7.80705
1680015647521,1195635876316858,6.5340004,0.26295,7.9339504
1680015647524,1195635878819012,6.5269504,0.29895002,7.8220506
1680015647530,1195635881321242,6.5790005,0.26295,7.9339504
1680015647532,1195635883823396,6.67995,0.36405003,7.767
1680015647535,1195635886325781,6.7110004,0.342,7.7860503
1680015647536,1195635888828242,6.7180505,0.29595003,7.7830505
1680015647538,1195635891330473,6.81405,0.46995002,7.7380505
1680015647540,1195635893832627,6.8209505,0.41505003,7.79505
1680015647541,1195635896335012,6.8430004,0.45795003,7.8889503
1680015647544,1195635898837242,6.8190002,0.41295,7.7500505
1680015647547,1195635901339396,6.81405,0.49695003,7.8310504
1680015647548,1195635903841858,6.8380504,0.51000005,7.79295
1680015647552,1195635906344012,6.8359504,0.50895,7.8220506
1680015647555,1195635908846410,6.7039504,0.56100005,7.827
1680015647556,1195635911348641,6.7759504,0.60705,7.7980504
1680015647558,1195635913850795,6.76095,0.492,7.7190003
1680015647562,1195635916353180,6.66795,0.45105,7.8030005
1680015647566,1195635918855612,6.8310003,0.47295,7.8310504
1680015647568,1195635921357766,6.76095,0.47295,7.8
1680015647570,1195635923859997,6.807,0.58305,7.7209506
1680015647572,1195635926362381,6.76095,0.504,7.8289504
1680015647574,1195635928864598,6.73005,0.48705003,7.7520003
1680015647576,1195635931366752,6.7180505,0.65505004,7.7550006
1680015647578,1195635933869137,6.735,0.55905,7.73295
1680015647581,1195635936371367,6.7159505,0.624,7.7860503
1680015647584,1195635938873771,6.7710004,0.64500004,7.7430005
1680015647587,1195635941375925,6.70095,0.56100005,7.7209506
1680015647589,1195635943878156,6.63705,0.49905002,7.80705
1680015647591,1195635946380540,6.5890503,0.58995,7.7449503
1680015647595,1195635948882752,6.5290504,0.59205,7.7359505
1680015647597,1195635951385137,6.5269504,0.50895,7.6900506
1680015647599,1195635953887367,6.4999504,0.53295004,7.6830006
1680015647603,1195635956389752,6.3970504,0.60705,7.7640004
1680015647606,1195635958891935,6.3570004,0.45405003,7.76205
1680015647608,1195635961498396,6.3229504,0.564,7.7089505
1680015647609,1195635963896550,6.3090005,0.45600003,7.7089505
1680015647612,1195635966398781,6.2179503,0.50505,7.7689505
1680015647614,1195635968901166,6.34005,0.51795,7.6180506
1680015647616,1195635971403304,6.294,0.46605003,7.7380505
1680015647618,1195635973905535,6.30105,0.51600003,7.7479506
1680015647621,1195635976407920,6.21495,0.43005002,7.6470003
1680015647624,1195635978910074,6.2800503,0.50895,7.59705
1680015647627,1195635981412545,6.3090005,0.54495,7.7760005
1680015647629,1195635983914776,6.3090005,0.51795,7.7520003
1680015647631,1195635986417161,6.366,0.55395,7.8460503
1680015647635,1195635988919315,6.3469505,0.45600003,7.8700504
1680015647637,1195635991421540,6.42105,0.46095002,7.8859506
1680015647641,1195635993923925,6.4399505,0.47700003,7.9200006
1680015647643,1195635996426156,6.5389504,0.51000005,7.8619504
1680015647645,1195635998928310,6.5220003,0.633,7.8460503
1680015647647,1195636001430699,6.6850505,0.51000005,7.8409505
1680015647649,1195636003932930,6.6769505,0.52305,7.9099503
1680015647651,1195636006435084,6.6850505,0.54195005,7.7980504
1680015647654,1195636008937468,6.807,0.588,7.9339504
1680015647656,1195636011439699,6.8380504,0.44895002,7.932
1680015647658,1195636013942161,6.867,0.51795,7.99695
1680015647661,1195636016444315,6.8040004,0.50895,7.9030504
1680015647664,1195636018946699,6.87405,0.588,8.016001
1680015647666,1195636021448930,6.852,0.588,8.005051
1680015647668,1195636023951060,6.852,0.60195005,8.128051
1680015647671,1195636026453444,6.8710504,0.64005005,8.15205
1680015647674,1195636028955675,6.807,0.58305,8.23095
1680015647678,1195636031458060,6.81405,0.66,8.229
1680015647680,1195636033960296,6.7950006,0.62595004,8.17395
1680015647682,1195636036462449,6.852,0.49395,8.203051
1680015647685,1195636038964834,6.8359504,0.513,8.17395
1680015647687,1195636041467065,6.939,0.52995,8.161051
1680015647689,1195636043969526,6.8569503,0.50100005,8.19795
1680015647691,1195636046471689,6.9700503,0.43695003,8.203051
1680015647694,1195636048974074,7.03695,0.42000002,8.21205
1680015647696,1195636051476305,7.0009503,0.36105,8.18595
1680015647698,1195636053978459,7.0219502,0.42000002,8.18595
1680015647700,1195636056480843,7.1250005,0.35205,8.16705
1680015647704,1195636058983074,7.01805,0.30105,8.19495
1680015647706,1195636061485459,6.9889503,0.31995,8.148001
1680015647708,1195636063987689,7.0009503,0.21495001,8.2240505
1680015647715,1195636066489843,6.9600005,0.16005,8.0449505
1680015647716,1195636068992243,6.94605,0.15,8.167951
1680015647718,1195636071494474,6.9979506,0.26295,8.116051
1680015647720,1195636073996858,6.97695,0.16995001,8.064
1680015647723,1195636076499084,6.97695,0.16695,8.095051
1680015647727,1195636079000161,6.91695,0.064050004,8.1
1680015647727,1195636081501238,6.9100504,0.165,8.028001
1680015647729,1195636084006084,6.867,0.31305,7.99695
1680015647731,1195636086508315,6.84,0.30795002,8.109
1680015647734,1195636089010478,6.7780504,0.22500001,8.158951
1680015647736,1195636091512862,6.8359504,0.37305,8.05605
1680015647738,1195636094015093,6.7230005,0.46800002,8.182051
1680015647741,1195636096517247,6.7159505,0.46305,8.14005
1680015647745,1195636099019641,6.7639503,0.49905002,8.34405
1680015647746,1195636101521872,6.6250505,0.69495004,8.31
1680015647748,1195636104024257,6.6180005,0.58305,8.313001
1680015647754,1195636106526488,6.6250505,0.6,8.380051
1680015647756,1195636109028623,6.558,0.65205,8.346001
1680015647757,1195636111531007,6.4840503,0.72900003,8.404051
1680015647759,1195636114033238,6.5479503,0.753,8.278951
1680015647762,1195636116535623,6.438,0.78900003,8.262
1680015647765,1195636119037853,6.4120502,0.77205,8.245951
1680015647766,1195636121540266,6.4159503,0.76695,8.269951
1680015647769,1195636124042420,6.3900003,0.82695,8.245951
1680015647771,1195636126544651,6.4240503,0.777,8.10705
1680015647774,1195636129046804,6.2419505,0.882,8.076
1680015647776,1195636131549266,6.2779503,0.84900004,8.05395
1680015647780,1195636134051632,6.2440505,0.87000006,7.89795
1680015647781,1195636136553785,6.117,0.85605,8.061001
1680015647785,1195636139056016,6.024,0.76005006,7.8769503
1680015647787,1195636141558401,5.9689503,0.82005006,7.8360004
1680015647791,1195636144060632,5.925,0.813,7.7760005
1680015647792,1195636146563016,5.90595,0.73905003,7.6330504
1680015647795,1195636149065247,5.8680005,0.72900003,7.6450505
1680015647797,1195636151567632,5.8440003,0.657,7.5850506
1680015647799,1195636154069785,5.82495,0.73605,7.5660005
1680015647802,1195636156572016,5.8510504,0.75495005,7.6729503
1680015647804,1195636159074170,5.80095,0.71895003,7.4389505
1680015647806,1195636161576555,5.775,0.72195005,7.4719505
1680015647808,1195636164078804,5.8630505,0.70005006,7.45095
1680015647812,1195636166581189,5.8320003,0.72705,7.3549504
1680015647815,1195636169083420,5.87505,0.669,7.3069506
1680015647816,1195636171585804,5.82495,0.75105006,7.4029503
1680015647818,1195636174087958,5.87505,0.67605,7.3720503
1680015647821,1195636176590189,5.8819504,0.60405004,7.4410505
1680015647824,1195636179092651,5.9809504,0.657,7.4550004
1680015647829,1195636181595035,5.997,0.58995,7.3570504
1680015647830,1195636184097199,6.1069503,0.63795,7.45095
1680015647831,1195636186599430,6.3160505,0.66,7.4410505
1680015647834,1195636189101584,6.3109503,0.62595004,7.4790006
1680015647836,1195636191603968,6.3469505,0.564,7.635
1680015647838,1195636194106199,6.4500003,0.573,7.45305
1680015647842,1195636196608593,6.3970504,0.564,7.5370502
1680015647845,1195636199110824,6.4690504,0.51600003,7.6129503
1680015647847,1195636201613208,6.5119505,0.52305,7.6780505
1680015647849,1195636204115362,6.5509505,0.43695003,7.7359505
1680015647851,1195636206617593,6.6060004,0.42195,7.8
1680015647854,1195636209120078,6.63705,0.51600003,7.7359505
1680015647856,1195636211622232,6.7159505,0.40995002,7.73295
1680015647858,1195636214124617,6.7849503,0.41295,7.8600006
1680015647862,1195636216626771,6.7369504,0.39405003,7.8600006
1680015647866,1195636219128987,6.8209505,0.38895002,7.8910503
1680015647868,1195636221631372,6.7570505,0.28905,7.9150505
1680015647870,1195636224133603,6.7489505,0.19800001,7.9219503
1680015647871,1195636226635987,6.7920003,0.31095,7.8840003
1680015647876,1195636229138218,6.7110004,0.30600002,7.8790503
1680015647877,1195636231640367,6.69705,0.294,7.8510003
1680015647879,1195636234142752,6.6919503,0.19800001,7.9150505
1680015647882,1195636236644982,6.7519503,0.25005,7.9300504
1680015647885,1195636239147367,6.6460505,0.34395,8.05605
1680015647887,1195636241649607,6.64905,0.25800002,7.96995
1680015647889,1195636244151992,6.63,0.27495003,8.016001
1680015647891,1195636246654145,6.5890503,0.29205,7.9609504
1680015647896,1195636249156376,6.60795,0.31995,7.9729505
1680015647897,1195636251658530,6.543,0.30795002,7.93905
1680015647899,1195636254160906,6.5190005,0.34395,8.128051
1680015647904,1195636256663367,6.5269504,0.36600003,8.16705
1680015647906,1195636259165598,6.5550003,0.42495003,8.101951
1680015647908,1195636261667752,6.59805,0.354,8.191051
1680015647909,1195636264170160,6.6130505,0.44400004,8.241
1680015647912,1195636266672391,6.6390004,0.53505003,8.167951
1680015647915,1195636269174545,6.60795,0.48000002,8.085
1680015647916,1195636271677007,6.6220503,0.42195,8.16705
1680015647919,1195636274179391,6.558,0.49395,8.217
1680015647922,1195636276681564,6.56505,0.57105005,8.32005
1680015647924,1195636279183795,6.57,0.55905,8.23095
1680015647927,1195636281685949,6.5479503,0.58005005,8.217
1680015647928,1195636284188333,6.5509505,0.57105005,8.257951
1680015647931,1195636286690809,6.591,0.52305,8.286
1680015647934,1195636289192963,6.591,0.6,8.229
1680015647936,1195636291695193,6.4999504,0.633,8.277
1680015647940,1195636294197578,6.5290504,0.564,8.217
1680015647942,1195636296699795,6.4810505,0.549,8.29395
1680015647945,1195636299201949,6.4450502,0.573,8.262
1680015647947,1195636301704410,6.4399505,0.56595004,8.32695
1680015647948,1195636304206795,6.36105,0.52995,8.370001
1680015647951,1195636306708949,6.35895,0.49905002,8.392051
1680015647954,1195636309211194,6.3570004,0.42000002,8.41605
1680015647956,1195636311713347,6.3780003,0.41805002,8.3890505
1680015647958,1195636314215732,6.321,0.50100005,8.47305
1680015647963,1195636316717963,6.321,0.45795003,8.50695
1680015647965,1195636319220372,6.333,0.573,8.442
1680015647967,1195636321722603,6.36105,0.48000002,8.434951
1680015647969,1195636324224988,6.4399505,0.537,8.437051
1680015647972,1195636326727142,6.5119505,0.35895002,8.265
1680015647975,1195636329229357,6.6439505,0.47700003,8.286
1680015647978,1195636331731742,6.642,0.51600003,8.245951
1680015647980,1195636334234204,6.74205,0.52095,8.21895
1680015647982,1195636336736357,6.9,0.51795,8.274
1680015647985,1195636339238588,6.8760004,0.609,8.181001
1680015647987,1195636341740742,7.0200005,0.58005005,8.149051
1680015647989,1195636344243127,7.056,0.57795,8.02305
1680015647991,1195636346745281,7.221,0.65205,7.9800005
1680015647994,1195636349247742,7.221,0.648,7.9729505
1680015647997,1195636351749973,7.2829504,0.58500004,7.9440002
1680015647999,1195636354252357,7.3290005,0.60195005,7.8960004
1680015648002,1195636356754511,7.2910504,0.62595004,7.8030005
1680015648005,1195636359256742,7.188,0.55395,7.6090503
1680015648007,1195636361759102,7.1659503,0.513,7.6369505
1680015648009,1195636364261332,7.1299505,0.48495004,7.6330504
1680015648011,1195636366763717,7.05105,0.55200005,7.53
1680015648016,1195636369265963,6.94605,0.43395,7.5439506
1680015648018,1195636371768117,6.97905,0.48900002,7.4700003
1680015648020,1195636374270501,6.91905,0.48900002,7.3980002
1680015648021,1195636376772655,6.879,0.35205,7.221
1680015648024,1195636379274886,6.7849503,0.34905002,7.37895
1680015648026,1195636381777343,6.7849503,0.342,7.2690005
1680015648029,1195636384279496,6.9310503,0.36795002,7.3830004
1680015648031,1195636386781881,6.7489505,0.37500003,7.4050503
1680015648034,1195636389284112,6.8620505,0.34905002,7.5340505
1680015648036,1195636391786496,6.7660503,0.51795,7.4790006
1680015648039,1195636394288669,6.7920003,0.56100005,7.4670005
1680015648042,1195636396791131,6.6510005,0.47505003,7.5490503
1680015648045,1195636399293362,6.68205,0.53505003,7.7119503
1680015648048,1195636401795515,6.63,0.63600004,7.6129503
1680015648051,1195636404297669,6.6610503,0.68595004,7.6759505
1680015648053,1195636406800054,6.6130505,0.68595004,7.7310004
1680015648055,1195636409302285,6.4860005,0.72195005,7.7190003
1680015648057,1195636411804736,6.5119505,0.79395,7.7380505
1680015648059,1195636414306890,6.5820003,0.71205,7.7910004
1680015648062,1195636416809275,6.5389504,0.79095006,7.8310504
1680015648064,1195636419311505,6.5149503,0.85605,7.99695
1680015648066,1195636421813890,6.531,0.79800004,7.9030504
1680015648069,1195636424316063,6.57,0.87705004,7.8360004
1680015648073,1195636426818524,6.5860505,0.82695,7.77405
1680015648075,1195636429320678,6.52395,0.79395,7.8739505
1680015648077,1195636431822909,6.5860505,0.81000006,7.7520003
1680015648079,1195636434325054,6.6180005,0.97605,7.79295
1680015648082,1195636436827439,6.6010504,0.92805004,7.623
1680015648085,1195636439329669,6.6199503,0.90405005,7.7860503
1680015648087,1195636441832054,6.6270003,0.94005007,7.6900506
1680015648090,1195636444334266,6.5790005,0.92100006,7.8030005
1680015648092,1195636446836650,6.61005,0.99495006,7.6800003
1680015648096,1195636449338881,6.4950004,0.98805004,7.68795
1680015648097,1195636451841035,6.43095,0.97095007,7.5940504
1680015648099,1195636454343420,6.3850503,0.89400005,7.623
1680015648101,1195636456845659,6.35895,1.0189501,7.6399503
1680015648105,1195636459348044,6.30105,0.98505,7.79505
1680015648106,1195636461850275,6.28695,0.94200003,7.76205
1680015648109,1195636464352429,6.282,0.92505,7.8619504
1680015648112,1195636466854832,6.07905,0.95595,7.77405
1680015648114,1195636469357063,6.21495,0.897,8.061001
1680015648116,1195636471859217,6.1309505,0.90105003,7.8790503
1680015648120,1195636474361678,6.1270504,0.92295,7.9729505
1680015648123,1195636476864039,6.1770005,0.87495005,7.9939504
1680015648126,1195636479366270,6.2299504,0.86295,8.03505
1680015648129,1195636481868424,6.32805,0.78405005,8.04195
1680015648131,1195636484370808,6.4480505,0.72405005,8.029051
1680015648133,1195636486872962,6.53595,0.72195005,8.05395
1680015648135,1195636489375410,6.6060004,0.66,8.181001
1680015648137,1195636491877640,6.747,0.61395,8.205
1680015648139,1195636494379794,6.8280005,0.56805,8.15205
1680015648141,1195636496882179,6.8160005,0.47505003,8.061001
1680015648145,1195636499384347,6.9739504,0.50100005,8.083051
1680015648147,1195636501886578,7.1520004,0.48000002,8.221951
1680015648149,1195636504389039,7.1590505,0.45795003,8.334001
1680015648151,1195636506891424,7.2330003,0.38895002,8.392051
1680015648154,1195636509393573,7.25895,0.36105,8.28405
1680015648156,1195636511895803,7.2829504,0.41505003,8.18595
1680015648159,1195636514398188,7.32705,0.342,8.221951
1680015648162,1195636516900342,7.4010005,0.45600003,8.083051
1680015648166,1195636519402808,7.4130006,0.43695003,8.161051
1680015648171,1195636521905039,7.46295,0.38895002,8.109
1680015648173,1195636524407193,7.39095,0.537,8.145
1680015648175,1195636526909578,7.3620005,0.52995,8.154
1680015648178,1195636529411732,7.248,0.54705,8.148001
1680015648181,1195636531913982,7.2310505,0.58005005,8.11905
1680015648183,1195636534416367,7.2520504,0.69795,8.101951
1680015648184,1195636536918828,7.0849504,0.62805,7.9800005
1680015648186,1195636539420982,6.9600005,0.67905,8.002951
1680015648188,1195636541923203,6.8260503,0.65505004,7.9870505
1680015648189,1195636544425357,6.7450504,0.62805,7.977
1680015648192,1195636546927742,6.7879505,0.62595004,7.9219503
1680015648195,1195636549429972,6.663,0.60405004,7.9489503
1680015648197,1195636551932357,6.5790005,0.65505004,7.8310504
1680015648199,1195636554434579,6.6390004,0.67905,7.767
1680015648204,1195636556936733,6.5670004,0.61395,7.70205
1680015648206,1195636559439117,6.5389504,0.63600004,7.7479506
1680015648208,1195636562058579,6.5269504,0.56805,7.6780505
1680015648210,1195636564443733,6.4620004,0.58305,7.6399503
1680015648212,1195636566945963,6.4879503,0.61905,7.5340505
1680015648215,1195636569448117,6.5550003,0.50100005,7.5079503
1680015648217,1195636571950502,6.543,0.56595004,7.4100003
1680015648219,1195636574452733,6.56505,0.45795003,7.4119506
1680015648221,1195636576955107,6.56505,0.48000002,7.3000503
1680015648225,1195636579457338,6.5389504,0.52500004,7.4050503
1680015648229,1195636581959723,6.531,0.51600003,7.3980002
1680015648229,1195636584461953,6.5839505,0.43005002,7.4029503
1680015648231,1195636586964107,6.543,0.54495,7.3570504
1680015648235,1195636589466482,6.6130505,0.45105,7.4050503
1680015648237,1195636591968713,6.5119505,0.504,7.5030003
1680015648241,1195636594471097,6.67995,0.51600003,7.4479504
1680015648243,1195636596973314,6.7110004,0.49395,7.4410505
1680015648245,1195636599475468,6.76905,0.53505003,7.4389505
1680015648247,1195636601977853,6.675,0.39600003,7.5490503
1680015648249,1195636604480083,6.81405,0.549,7.5319505
1680015648251,1195636606982237,6.78,0.37095,7.5370502
1680015648255,1195636609484699,6.84495,0.432,7.5270004
1680015648256,1195636611987083,6.8640003,0.36600003,7.6420503
1680015648259,1195636614489237,6.9430504,0.30795002,7.8310504
1680015648262,1195636616991468,7.0219502,0.34005,7.9270506
1680015648264,1195636619493863,7.0270505,0.28905,7.9459505
1680015648266,1195636621996016,7.1010003,0.28905,8.001
1680015648269,1195636624498478,7.0630503,0.37095,8.0119505
1680015648271,1195636627000709,7.1730003,0.26505002,7.99695
1680015648275,1195636629502872,7.25505,0.261,8.073
1680015648278,1195636632005256,7.3500004,0.19605,8.023951
1680015648280,1195636634507410,7.2760506,0.22905001,8.104051
1680015648282,1195636637009641,7.34805,0.18405001,7.9129505
1680015648285,1195636639512073,7.3000503,0.34395,7.9200006
1680015648287,1195636642014458,7.3699503,0.29895002,8.016001
1680015648289,1195636644516612,7.3050003,0.21000001,8.02095
1680015648292,1195636647018843,7.3669505,0.29895002,8.005051
1680015648296,1195636649521227,7.2910504,0.32805002,8.05395
1680015648297,1195636652023376,7.28805,0.26805001,8.0119505
1680015648299,1195636654525838,7.3410006,0.36795002,8.04195
1680015648302,1195636657027991,7.3890004,0.38595003,7.9939504
1680015648305,1195636659530222,7.2949505,0.432,8.016001
1680015648307,1195636662032627,7.1970005,0.44895002,8.134951
1680015648309,1195636664534781,7.1920505,0.44205,8.16705
1680015648312,1195636667037012,7.04895,0.44595003,8.149051
1680015648316,1195636669539473,7.044,0.44595003,8.076
1680015648319,1195636672041622,7.0540504,0.50100005,8.059051
1680015648320,1195636674544007,6.9670506,0.44895002,8.073
1680015648323,1195636677046237,6.9600005,0.648,8.265
1680015648326,1195636679548622,6.879,0.51795,8.092051
1680015648328,1195636682050757,6.8310003,0.50100005,8.122951
1680015648330,1195636684552911,6.8640003,0.588,8.187
1680015648332,1195636687055372,6.8880005,0.56100005,8.155951
1680015648335,1195636689557603,6.9150004,0.63600004,8.092051
1680015648340,1195636692059757,6.8500504,0.61905,8.116051
1680015648340,1195636694562107,6.867,0.63600004,8.005051
1680015648341,1195636697064338,6.8160005,0.58995,8.035951
1680015648344,1195636699566723,6.7590003,0.58305,8.10705
1680015648346,1195636702068954,6.76095,0.573,8.19795
1680015648349,1195636704571338,6.7249503,0.62805,8.125951
1680015648353,1195636707073559,6.79995,0.6,8.116051
1680015648355,1195636709575713,6.7060504,0.66,8.128051
1680015648358,1195636712078097,6.6390004,0.59505004,8.071051
1680015648359,1195636714580237,6.6439505,0.67095006,8.06595
1680015648362,1195636717082699,6.5290504,0.693,8.109
1680015648365,1195636719584930,6.4549503,0.837,8.005051
1680015648367,1195636722087084,6.438,0.64305,8.04195
1680015648369,1195636724589468,6.3690004,0.71505004,8.085
1680015648371,1195636727091689,6.4399505,0.80805004,8.04
1680015648375,1195636729593843,6.438,0.69105005,8.052
1680015648377,1195636732096304,6.3970504,0.70695,8.175
1680015648380,1195636734598689,6.39195,0.73605,8.10705
1680015648382,1195636737100906,6.46005,0.564,8.028001
1680015648386,1195636739603060,6.49305,0.64500004,7.9270506
1680015648388,1195636742105444,6.5220003,0.59505004,7.86705
1680015648393,1195636744607622,6.5530505,0.528,8.02305
1680015648394,1195636747110084,6.5509505,0.504,7.8550506
1680015648397,1195636749612237,6.6319504,0.48000002,7.9579506
1680015648398,1195636752114468,6.63,0.41505003,7.99695
1680015648399,1195636754616853,6.6319504,0.47505003,7.8240004
1680015648404,1195636757119093,6.6990004,0.42000002,7.8580503
1680015648405,1195636759621246,6.7330503,0.39600003,7.7880006
1680015648407,1195636762123631,6.76095,0.40995002,7.6590004
1680015648409,1195636764626093,6.735,0.31800002,7.8030005
1680015648412,1195636767128246,6.74205,0.35205,7.7119503
1680015648415,1195636769630477,6.7540503,0.48495004,7.7380505
1680015648416,1195636772132631,6.7780504,0.39600003,7.7160006
1680015648419,1195636774635016,6.6889505,0.33,7.5730505
1680015648421,1195636777137246,6.6870003,0.45405003,7.5820503
1680015648424,1195636779639631,6.70905,0.50100005,7.6369505
1680015648428,1195636782141862,6.66795,0.54495,7.5850506
1680015648429,1195636784644246,6.6850505,0.51600003,7.518
1680015648431,1195636787146400,6.642,0.44205,7.5460505
1680015648434,1195636789648617,6.59595,0.537,7.59705
1680015648436,1195636792151002,6.5890503,0.44595003,7.5820503
1680015648439,1195636794653233,6.6250505,0.537,7.5390005
1680015648442,1195636797155617,6.56505,0.59505004,7.6110005
1680015648445,1195636799657833,6.5599504,0.56805,7.6660504
1680015648447,1195636802159987,6.5940003,0.58995,7.6180506
1680015648449,1195636804662371,6.57,0.50100005,7.7359505
1680015648451,1195636807164525,6.5890503,0.52500004,7.69995
1680015648455,1195636809666987,6.6390004,0.44895002,7.7040005
1680015648456,1195636812169233,6.642,0.564,7.7190003
1680015648459,1195636814671617,6.6220503,0.6,7.7190003
1680015648462,1195636817173771,6.603,0.68595004,7.8769503
1680015648468,1195636819675987,6.5790005,0.58005005,7.9009504
1680015648469,1195636822178371,6.5509505,0.66405004,7.89795
1680015648470,1195636824680525,6.5719504,0.69495004,7.9819503
1680015648472,1195636827182987,6.5599504,0.72900003,8.109
1680015648476,1195636829685218,6.498,0.693,8.04705
1680015648477,1195636832187371,6.49095,0.69495004,7.9939504
1680015648479,1195636834689737,6.4570503,0.846,8.071051
1680015648482,1195636837191891,6.4690504,0.70995003,7.9680004
1680015648486,1195636839694122,6.4090505,0.66,8.028001
1680015648488,1195636842196583,6.4480505,0.77895004,8.134951
1680015648490,1195636844698737,6.4500003,0.69495004,8.029051
1680015648492,1195636847201122,6.38805,0.69105005,8.05395
1680015648495,1195636849703352,6.37305,0.73095006,8.064
1680015648496,1195636852205737,6.3640504,0.68100005,8.154
1680015648499,1195636854707905,6.4480505,0.63600004,8.161051
1680015648503,1195636857210367,6.4279504,0.61395,8.155951
1680015648506,1195636859712597,6.4480505,0.70695,8.073
1680015648508,1195636862214751,6.39195,0.60705,8.059051
1680015648509,1195636864717184,6.4500003,0.588,8.028001
1680015648512,1195636867219338,6.51,0.70305,8.187
1680015648515,1195636869721568,6.4480505,0.669,8.029051
1680015648517,1195636872223953,6.3850503,0.64995,8.134951
1680015648520,1195636874726204,6.4399505,0.66405004,7.9990506
1680015648522,1195636877228588,6.5599504,0.63105005,7.977
1680015648526,1195636879730819,6.52395,0.67905,8.04195
1680015648529,1195636882232973,6.4950004,0.63105005,7.9870505
1680015648530,1195636884735358,6.5340004,0.61200005,8.089951
1680015648532,1195636887237828,6.4620004,0.63600004,7.9800005
1680015648535,1195636889739982,6.5170503,0.648,8.085
1680015648537,1195636892242213,6.4840503,0.61605,8.061001
1680015648541,1195636894744367,6.4999504,0.597,8.187
1680015648543,1195636897246766,6.5070004,0.64995,8.0779505
1680015648546,1195636899748997,6.66795,0.60705,8.149051
1680015648547,1195636902251151,6.6180005,0.71205,8.029051
1680015648549,1195636904753612,6.6660004,0.62595004,8.113951
1680015648552,1195636907255997,6.7249503,0.56100005,8.193001
1680015648554,1195636909758228,6.7249503,0.65205,8.112
1680015648556,1195636912260382,6.77295,0.63600004,8.298
1680015648559,1195636914762766,6.8550005,0.58500004,8.35095
1680015648563,1195636917264997,6.9,0.59205,8.248051
1680015648565,1195636919767353,6.8910003,0.57105005,8.239051
1680015648567,1195636922269584,6.9220505,0.64005005,8.2240505
1680015648569,1195636924771737,7.0339503,0.63600004,8.145
1680015648572,1195636927274122,7.06995,0.68805003,8.005051
1680015648575,1195636929776266,7.149,0.55395,7.9200006
1680015648580,1195636932278497,7.056,0.61395,7.9300504
1680015648582,1195636934780958,7.1329503,0.61905,7.8240004
1680015648583,1195636937283343,7.06995,0.67905,7.9870505
1680015648585,1195636939785507,7.0219502,0.70500004,7.9729505
1680015648589,1195636942287737,6.9889503,0.58305,7.7809505
1680015648590,1195636944790122,6.8929505,0.63600004,7.8030005
1680015648592,1195636947292276,6.8760004,0.64305,7.8310504
1680015648596,1195636949794737,6.81405,0.60405004,7.7359505
1680015648597,1195636952296886,6.77295,0.62595004,7.75995
1680015648600,1195636954799117,6.6730504,0.68100005,7.8190503
1680015648603,1195636957301502,6.56505,0.67605,7.6969504
1680015648605,1195636959803656,6.50505,0.64005005,7.6710005
1680015648607,1195636962305900,6.38805,0.61395,7.6519504
1680015648609,1195636964808362,6.3160505,0.64995,7.695
1680015648612,1195636967310746,6.37305,0.669,7.635
1680015648616,1195636969812900,6.2509503,0.657,7.7190003
1680015648618,1195636972315136,6.2749505,0.64500004,7.6129503
1680015648620,1195636974817521,6.15495,0.67095006,7.6800003
1680015648622,1195636977319675,6.2080503,0.61395,7.66095
1680015648625,1195636979821905,6.282,0.66,7.6129503
1680015648627,1195636982324290,6.22695,0.59505004,7.7359505
1680015648629,1195636984826521,6.2059503,0.609,7.6710005
1680015648632,1195636987328905,6.1870503,0.63105005,7.6110005
1680015648635,1195636989831059,6.2029505,0.54495,7.7479506
1680015648637,1195636992333290,6.2749505,0.50100005,7.7710505
1680015648639,1195636994835709,6.21495,0.56805,7.7359505
1680015648642,1195636997337939,6.2850003,0.57105005,7.7040005
1680015648646,1195636999840324,6.1909504,0.46605003,7.7790003
1680015648648,1195637002342555,6.28695,0.54,7.76205
1680015648650,1195637004844939,6.2419505,0.52095,7.7500505
1680015648653,1195637007347098,6.2970004,0.46800002,7.767
1680015648656,1195637009849329,6.2779503,0.52305,7.7710505
1680015648658,1195637012351714,6.3349504,0.492,7.79295
1680015648660,1195637014853929,6.30105,0.46305,7.8480005
1680015648662,1195637017356314,6.3160505,0.39600003,7.90605
1680015648664,1195637019858468,6.3970504,0.41805002,7.9800005
1680015648667,1195637022360699,6.3850503,0.46095002,8.02305
1680015648669,1195637024863083,6.4620004,0.45105,7.9510503
1680015648672,1195637027365295,6.4620004,0.44595003,8.04195
1680015648675,1195637029867449,6.50505,0.45600003,8.089951
1680015648677,1195637032369834,6.5790005,0.45405003,8.097
1680015648679,1195637034872064,6.4999504,0.384,8.02095
1680015648683,1195637037374487,6.6150002,0.39405003,8.023951
1680015648686,1195637039876641,6.591,0.41505003,8.064
1680015648688,1195637042379025,6.6460505,0.39105,8.028001
1680015648691,1195637044881256,6.6580505,0.37305,7.965
1680015648695,1195637047383376,6.6610503,0.28905,7.965
1680015648697,1195637049885761,6.675,0.36105,8.04195
1680015648699,1195637052387914,6.70905,0.30600002,8.116051
1680015648700,1195637054890376,6.76905,0.29205,8.0449505
1680015648702,1195637057392607,6.6580505,0.33195,8.0779505
1680015648705,1195637059894775,6.6919503,0.19305001,8.15205
1680015648707,1195637062397159,6.6889505,0.23700002,8.071051
1680015648709,1195637064899390,6.73005,0.28905,8.08005
1680015648712,1195637067401775,6.6540003,0.28395,8.175
1680015648715,1195637069904000,6.7450504,0.33195,8.20695
1680015648718,1195637072406385,6.6870003,0.24105,8.023951
1680015648719,1195637074908616,6.6889505,0.33195,8.071051
1680015648723,1195637077410770,6.76095,0.354,8.0779505
1680015648725,1195637079913174,6.8359504,0.246,7.9680004
1680015648729,1195637082415328,6.73995,0.26295,7.86705
1680015648731,1195637084917790,6.7489505,0.33495003,7.9920006
1680015648734,1195637087419944,6.7570505,0.37305,8.052
1680015648736,1195637089922174,6.7540503,0.39600003,7.93695
1680015648737,1195637092424573,6.7540503,0.354,8.02305
1680015648739,1195637094926804,6.69705,0.38205,8.002951
1680015648742,1195637097428958,6.642,0.33195,7.93695
1680015648747,1195637099931419,6.675,0.36795002,7.8510003
1680015648749,1195637102433818,6.67995,0.28695002,8.029051
1680015648750,1195637104935972,6.56295,0.34905002,7.8600006
1680015648752,1195637107438202,6.5860505,0.33495003,7.99695
1680015648755,1195637109940356,6.57705,0.46800002,7.8289504
1680015648757,1195637112442732,6.57705,0.41805002,7.8940506
1680015648760,1195637114945193,6.56295,0.51000005,7.86705
1680015648763,1195637117447347,6.4879503,0.38895002,7.8220506
1680015648767,1195637119949563,6.5170503,0.43905002,7.9339504
1680015648769,1195637122451948,6.438,0.37695003,7.8840003
1680015648771,1195637124954178,6.40395,0.48195,7.93905
1680015648772,1195637127456332,6.4549503,0.45795003,7.8240004
1680015648775,1195637129958717,6.4399505,0.44205,7.8960004
1680015648777,1195637132461188,6.3229504,0.51000005,7.9420505
1680015648780,1195637134963342,6.4480505,0.45795003,7.8529506
1680015648782,1195637137465573,6.4159503,0.64995,7.9270506
1680015648785,1195637139967727,6.3829503,0.56100005,7.9009504
1680015648787,1195637142470112,6.38805,0.564,7.977
1680015648789,1195637144972265,6.4429502,0.48495004,7.9180503
1680015648792,1195637147474727,6.4840503,0.60705,7.9420505
1680015648796,1195637149976958,6.46005,0.66,7.8820505
1680015648798,1195637152479342,6.5599504,0.66705,7.79295
1680015648800,1195637154981476,6.591,0.60405004,7.83405
1680015648804,1195637157483707,6.5550003,0.624,7.83405
1680015648807,1195637159986092,6.5410504,0.63105005,7.8289504
1680015648809,1195637162717231,6.51,0.573,7.8790503
1680015648810,1195637164990693,6.57,0.62595004,7.9200006
1680015648813,1195637167492924,6.6319504,0.609,7.8600006
1680015648816,1195637169995078,6.5790005,0.64005005,7.9800005
1680015648818,1195637172497462,6.61005,0.6,7.9510503
1680015648819,1195637174999626,6.66795,0.57600003,7.9009504
1680015648822,1195637177502088,6.63,0.56595004,7.9200006
1680015648825,1195637180004318,6.6919503,0.54495,7.7640004
1680015648827,1195637182506703,6.7660503,0.45405003,7.99695
1680015648830,1195637185008876,6.7330503,0.55395,8.002951
1680015648832,1195637187511107,6.7849503,0.54495,8.137051
1680015648835,1195637190013491,6.7830005,0.40995002,8.163
1680015648837,1195637192515722,6.8479505,0.45795003,8.31
1680015648841,1195637195018126,6.7969503,0.44895002,8.32995
1680015648843,1195637197520356,6.8550005,0.40605003,8.257951
1680015648846,1195637200022510,6.8500504,0.40305,8.266951
1680015648847,1195637202524895,6.8569503,0.35595003,8.21205
1680015648850,1195637205027049,6.8950505,0.37500003,8.175
1680015648852,1195637207529304,6.9649506,0.37905002,8.385
1680015648854,1195637210031765,7.0270505,0.47505003,8.301001
1680015648856,1195637212533919,7.0300503,0.40605003,8.301001
1680015648859,1195637215036304,7.08195,0.50895,8.2890005
1680015648862,1195637217538539,7.1040006,0.40800002,8.337001
1680015648864,1195637220040924,7.0609503,0.48495004,8.34405
1680015648867,1195637222543078,7.0680003,0.50895,8.368051
1680015648869,1195637225045539,7.0540504,0.537,8.33205
1680015648872,1195637227547760,6.939,0.50100005,8.161051
1680015648875,1195637230049914,6.9739504,0.62805,8.17395
1680015648880,1195637232552068,6.9910502,0.48495004,8.155951
1680015648881,1195637235054452,6.8640003,0.64995,8.08005
1680015648884,1195637237556688,6.76095,0.60705,8.095051
1680015648886,1195637240059150,6.78,0.6,8.149051
1680015648888,1195637242561304,6.6150002,0.69495004,8.21205
1680015648890,1195637245063688,6.6180005,0.64995,8.00895
1680015648892,1195637247565919,6.498,0.63600004,8.052
1680015648896,1195637250068054,6.4480505,0.76005006,7.89795
1680015648897,1195637252570438,6.3829503,0.73905003,7.9800005
1680015648900,1195637255072900,6.333,0.57795,7.8859506
1680015648902,1195637257575054,6.2440505,0.66405004,7.8940506
1680015648905,1195637260077270,6.1410003,0.68805003,7.8430505
1680015648907,1195637262579423,6.1459503,0.67905,7.80705
1680015648910,1195637265081808,6.1270504,0.76995003,7.7449503
1680015648913,1195637267584039,6.1309505,0.822,7.7430005
1680015648917,1195637270086193,6.05205,0.79395,7.6830006
1680015648919,1195637272588654,6.0000005,0.65505004,7.695
1680015648922,1195637275091039,5.97795,0.76500005,7.68795
1680015648925,1195637277593270,5.9350505,0.81495005,7.6639504
1680015648928,1195637280094362,5.8939505,0.69495004,7.7160006
1680015648928,1195637282595439,5.94495,0.67905,7.7310004
1680015648930,1195637285099977,5.8630505,0.717,7.63005
1680015648932,1195637287602439,5.84595,0.76995003,7.5940504
1680015648935,1195637290104669,5.82495,0.762,7.6110005
1680015648937,1195637292606823,5.925,0.70005006,7.69995
1680015648940,1195637295109227,5.9490004,0.66705,7.7089505
1680015648942,1195637297611381,6.0430503,0.73095006,7.6489506
1680015648945,1195637300113611,5.9929504,0.61905,7.7689505
1680015648947,1195637302616073,6.1530004,0.71505004,7.7980504
1680015648950,1195637305118448,6.1909504,0.68805003,7.7119503
1680015648954,1195637307620601,6.2130003,0.693,7.8889503
1680015648956,1195637310122832,6.3349504,0.63105005,7.89795
1680015648958,1195637312625217,6.3180003,0.68100005,7.8220506
1680015648960,1195637315127390,6.3780003,0.64995,7.8910503
1680015648967,1195637317629851,6.4429502,0.60405004,7.93905
1680015648967,1195637320132005,6.4840503,0.59505004,8.00895
1680015648967,1195637322634236,6.5410504,0.58995,7.93695
1680015648969,1195637325136620,6.5860505,0.55200005,8.059051
1680015648972,1195637327638794,6.67995,0.58305,8.073
1680015648975,1195637330141025,6.7519503,0.52995,8.06805
1680015648977,1195637332643487,6.807,0.597,8.076
1680015648979,1195637335145871,6.76905,0.48900002,8.20695
1680015648982,1195637337648025,6.76095,0.54,8.274
1680015648985,1195637340150256,6.735,0.53505003,8.269951
1680015648987,1195637342652641,6.8430004,0.58500004,8.35305
1680015648991,1195637345154779,6.747,0.624,8.610001
1680015648993,1195637347657010,6.7210503,0.67395,8.77995
1680015648996,1195637350159395,6.68205,0.75105006,8.776951
1680015648998,1195637352661626,6.4620004,0.873,8.799001
1680015649000,1195637355164010,6.4399505,0.92505,8.52795
1680015649003,1195637357666150,6.3130503,1.0309501,8.21205
1680015649006,1195637360168381,6.3690004,0.98295003,8.049001
1680015649008,1195637362670765,6.333,1.0380001,7.9579506
1680015649010,1195637365172996,6.40395,0.96795005,7.9080005
1680015649013,1195637367675381,6.5340004,0.85095006,8.001
1680015649015,1195637370177607,6.531,0.78900003,8.203051
1680015649017,1195637372679991,6.6850505,0.73095006,8.3869505
1680015649020,1195637375182145,6.73995,0.53505003,8.368051
1680015649022,1195637377684376,6.7039504,0.57795,8.254951
1680015649025,1195637380186760,6.7849503,0.52095,8.313001
1680015649030,1195637382688991,6.7159505,0.56100005,8.20695
1680015649030,1195637385191145,6.7540503,0.46605003,8.233951
1680015649032,1195637387693530,6.6150002,0.51600003,8.133
1680015649035,1195637390195780,6.6250505,0.36405003,8.11905
1680015649037,1195637392698165,6.4140005,0.42195,8.04195
1680015649040,1195637395200396,6.37305,0.354,8.205
1680015649044,1195637397702780,6.2580004,0.432,8.17395
1680015649046,1195637400205011,6.1789503,0.35895002,8.20005
1680015649048,1195637402707165,6.1530004,0.30600002,8.161051
1680015649049,1195637405209550,6.1530004,0.36600003,8.1
1680015649052,1195637407711704,6.2460003,0.44595003,8.097
1680015649055,1195637410214146,6.19605,0.45105,8.121
1680015649057,1195637412716300,6.366,0.51795,8.071051
1680015649059,1195637415218531,6.34005,0.66,8.04
1680015649062,1195637417720915,6.531,0.74295,7.9560003
1680015649068,1195637420223146,6.4570503,0.61605,7.932
1680015649069,1195637422725300,6.498,0.79395,7.9219503
1680015649070,1195637425227685,6.50295,0.67095006,8.052
1680015649072,1195637427730146,6.4690504,0.72405005,7.93695
1680015649077,1195637430232377,6.4020004,0.72405005,7.8289504
1680015649079,1195637432734541,6.4159503,0.79605,7.7860503
1680015649080,1195637435236925,6.2850003,0.76500005,7.7760005
1680015649083,1195637437739079,6.234,0.71505004,7.767
1680015649086,1195637440241310,6.096,0.79095006,7.7430005
1680015649088,1195637442743680,6.04995,0.70995003,7.7830505
1680015649092,1195637445245910,6.0739503,0.67395,7.7479506
1680015649093,1195637447748295,5.9950504,0.73395,7.7910004
1680015649096,1195637450250526,5.88495,0.762,7.6369505
1680015649097,1195637452752680,5.87295,0.72705,7.7070003
1680015649100,1195637455255030,5.9329505,0.68805003,7.7040005
1680015649104,1195637457757492,5.8110003,0.72405005,7.7380505
1680015649106,1195637460259646,5.892,0.6,7.8409505
1680015649108,1195637462761876,5.8819504,0.71895003,7.7760005
1680015649110,1195637465264261,5.9089503,0.64995,7.8550506
1680015649112,1195637467766415,6.0070505,0.70500004,7.9249506
1680015649115,1195637470268646,6.096,0.62100005,7.9990506
1680015649117,1195637472771030,6.2320504,0.61905,8.254951
1680015649120,1195637475273247,6.3040504,0.69795,8.175
1680015649123,1195637477775632,6.46005,0.66,8.20695
1680015649128,1195637480277786,6.4840503,0.63795,8.301001
1680015649130,1195637482780016,6.7249503,0.68295,8.29605
1680015649131,1195637485282401,6.8260503,0.64995,8.278951
1680015649132,1195637487784622,6.8760004,0.61605,8.380051
1680015649135,1195637490286776,6.97695,0.64305,8.443951
1680015649137,1195637492789160,7.03905,0.70305,8.587951
1680015649141,1195637495291391,7.1010003,0.53505003,8.53995
1680015649145,1195637497793844,7.0729504,0.52995,8.610001
1680015649146,1195637500295997,7.14195,0.57105005,8.502001
1680015649148,1195637502798382,7.176,0.58995,8.598001
