system_ts_ms, sensor_ts_ns, gyrX, gyrY, gyrZ
1680015643959,1195632313071458,0.0746625,-0.070675,-4.125E-4
1680015643962,1195632315573612,0.07755,-0.065725,-0.0034375
1680015643965,1195632318075996,0.080575,-0.0587125,-0.0064625
1680015643967,1195632320578458,0.080575,-0.05775,-0.008525
1680015643969,1195632323080616,0.0765875,-0.0526625,-0.0094875
1680015643984,1195632325582846,0.0746625,-0.048675,-0.0125124995
1680015643984,1195632328085231,0.075625,-0.045649998,-0.0125124995
1680015643984,1195632330587385,0.0735625,-0.0416625,-0.0064625
1680015643985,1195632333089587,0.0655875,-0.04675,5.5E-4
1680015643985,1195632335592048,0.0655875,-0.0477125,0.0064625
1680015643985,1195632338094202,0.0636625,-0.0427625,0.0125124995
1680015643986,1195632340596587,0.059675,-0.043725,0.0165
1680015643989,1195632343098798,0.056649998,-0.037675,0.0204875
1680015643990,1195632345600952,0.0545875,-0.034649998,0.024475
1680015643993,1195632348103337,0.0496375,-0.0336875,0.0265375
1680015643996,1195632350605568,0.045649998,-0.0287375,0.030524999
1680015643999,1195632353107962,0.04455,-0.021724999,0.0314875
1680015644001,1195632355610193,0.04455,-0.0196625,0.0314875
1680015644006,1195632358112347,0.0435875,-0.014712499,0.0325875
1680015644007,1195632360614731,0.04455,-0.0116875,0.0295625
1680015644009,1195632363116962,0.0435875,-0.0067375,0.0275
1680015644010,1195632365619424,0.0416625,2.75E-4,0.02255
1680015644013,1195632368121578,0.0435875,0.00825,0.0235125
1680015644016,1195632370623962,0.04455,0.0103124995,0.0204875
1680015644017,1195632373126193,0.0466125,0.011275,0.013475
1680015644024,1195632375628385,0.0416625,0.0163625,0.0105875
1680015644024,1195632378130770,0.0386375,0.0232375,0.0094875
1680015644025,1195632380632923,0.0356125,0.0273625,0.0055
1680015644028,1195632383135385,0.0286,0.028324999,5.5E-4
1680015644031,1195632385637616,0.0295625,0.0253,0.0015125
1680015644033,1195632388139770,0.025575,0.028324999,-0.0034375
1680015644040,1195632390642154,0.02365,0.0243375,-0.0015125
1680015644041,1195632393144385,0.02365,0.0182875,-4.125E-4
1680015644041,1195632395646539,0.0246125,0.017324999,-0.0015125
1680015644045,1195632398149000,0.020624999,0.0182875,-0.002475
1680015644047,1195632400651385,0.0196625,0.02035,0.0015125
1680015644048,1195632403153539,0.0185625,0.0122375,0.0045375
1680015644050,1195632405655770,0.020624999,0.0133375,0.0045375
1680015644057,1195632408158159,0.020624999,0.0143,0.0055
1680015644058,1195632410660313,0.0185625,0.0133375,0.008525
1680015644058,1195632413162775,0.0185625,0.011275,0.0125124995
1680015644063,1195632415664928,0.013612499,0.0072875,0.0155375
1680015644063,1195632418167149,0.014575,0.006325,0.0185625
1680015644066,1195632420669534,0.01265,0.00825,0.019524999
1680015644068,1195632423171765,0.01155,0.0053625,0.019524999
1680015644073,1195632425673918,0.009625,0.006325,0.02255
1680015644074,1195632428176385,0.01155,0.0042625,0.024475
1680015644077,1195632430678770,0.0105875,0.0033,0.024475
1680015644079,1195632433180924,0.01155,0.0042625,0.025575
1680015644080,1195632435683154,0.014575,0.006325,0.02255
1680015644084,1195632438185539,0.0166375,0.0033,0.02255
1680015644090,1195632440687707,0.0196625,0.011275,0.019524999
1680015644090,1195632443190168,0.02255,0.015262499,0.0165
1680015644091,1195632445692322,0.025575,0.0122375,0.0125124995
1680015644093,1195632448194553,0.025575,0.015262499,0.0075625
1680015644096,1195632450696938,0.0276375,0.015262499,0.0045375
1680015644098,1195632453199091,0.031625,0.0143,-0.0034375
1680015644101,1195632455701322,0.0325875,0.015262499,-0.0094875
1680015644105,1195632458203707,0.034649998,0.017324999,-0.013475
1680015644106,1195632460706135,0.0325875,0.015262499,-0.02145
1680015644108,1195632463208289,0.0306625,0.0133375,-0.0275
1680015644113,1195632465710520,0.0325875,0.017324999,-0.0364375
1680015644114,1195632468212674,0.0295625,0.022275,-0.0424875
1680015644117,1195632470715053,0.0276375,0.0243375,-0.0504625
1680015644124,1195632473217284,0.0276375,0.0273625,-0.0534875
1680015644125,1195632475719669,0.0286,0.0342375,-0.057475
1680015644126,1195632478221900,0.0276375,0.0463375,-0.062425
1680015644127,1195632480724293,0.031625,0.0512875,-0.0614625
1680015644129,1195632483226447,0.0306625,0.0543125,-0.062425
1680015644131,1195632485728678,0.0295625,0.061325,-0.063525
1680015644133,1195632488231062,0.031625,0.0653125,-0.0614625
1680015644135,1195632490733524,0.034649998,0.069299996,-0.0584375
1680015644141,1195632493235664,0.031625,0.0713625,-0.0554125
1680015644142,1195632495737895,0.0286,0.0702625,-0.054449998
1680015644143,1195632498240049,0.0286,0.066275,-0.051425
1680015644145,1195632500742433,0.0276375,0.061325,-0.0444125
1680015644149,1195632503244601,0.0276375,0.061325,-0.041525
1680015644151,1195632505747063,0.026675,0.05335,-0.0394625
1680015644156,1195632508249293,0.0215875,0.041249998,-0.0345125
1680015644157,1195632510751447,0.02255,0.03025,-0.029424999
1680015644158,1195632513253832,0.0166375,0.0213125,-0.0265375
1680015644160,1195632515756073,0.0185625,0.0133375,-0.0235125
1680015644163,1195632518258457,0.0105875,-0.00165,-0.0235125
1680015644166,1195632520760611,0.0105875,-0.010725,-0.0204875
1680015644168,1195632523263073,0.0075625,-0.0196625,-0.018424999
1680015644174,1195632525765221,0.0056375,-0.0306625,-0.0165
1680015644175,1195632528267452,0.004675,-0.0367125,-0.0165
1680015644176,1195632530769837,0.003575,-0.048675,-0.0155375
1680015644178,1195632533271991,0.0026125,-0.056649998,-0.0125124995
1680015644180,1195632535774207,0.004675,-0.0606375,-0.0114124995
1680015644183,1195632538276669,0.004675,-0.0647625,-0.0125124995
1680015644190,1195632540778823,0.0075625,-0.0697125,-0.0125124995
1680015644190,1195632543281207,0.0066,-0.073699996,-0.0174625
1680015644191,1195632545783414,0.009625,-0.0807125,-0.0224125
1680015644194,1195632548285568,0.01265,-0.08965,-0.0235125
1680015644196,1195632550787953,0.014575,-0.0947375,-0.0275
1680015644198,1195632553290414,0.013612499,-0.0966625,-0.030524999
1680015644200,1195632555792645,0.0166375,-0.098725,-0.0334125
1680015644208,1195632558294779,0.0196625,-0.10175,-0.0345125
1680015644209,1195632560797164,0.0196625,-0.1106875,-0.0345125
1680015644211,1195632563299317,0.02365,-0.117699996,-0.0345125
1680015644212,1195632565801548,0.02255,-0.12375,-0.0364375
1680015644214,1195632568303933,0.026675,-0.1296625,-0.0424875
1680015644216,1195632570806169,0.0286,-0.136675,-0.0485375
1680015644218,1195632573308553,0.0306625,-0.1467125,-0.0504625
1680015644223,1195632575810784,0.037675,-0.15675,-0.0504625
1680015644225,1195632578312929,0.0405625,-0.1687125,-0.054449998
1680015644227,1195632580815313,0.036575,-0.180675,-0.0595375
1680015644229,1195632583317775,0.0386375,-0.1956625,-0.063525
1680015644231,1195632585819929,0.0396,-0.2017125,-0.06545
1680015644233,1195632588322160,0.036575,-0.219725,-0.0715
1680015644236,1195632590824548,0.036575,-0.2347125,-0.074525
1680015644241,1195632593326702,0.037675,-0.24475,-0.079475
1680015644242,1195632595828933,0.036575,-0.2597375,-0.0815375
1680015644244,1195632598331087,0.037675,-0.2707375,-0.08745
1680015644246,1195632600833543,0.034649998,-0.279675,-0.0884125
1680015644248,1195632603335928,0.0325875,-0.28875,-0.0864875
1680015644250,1195632605838159,0.031625,-0.301675,-0.085525
1680015644256,1195632608340312,0.0286,-0.31075,-0.0864875
1680015644257,1195632610842697,0.025575,-0.3177625,-0.082499996
1680015644259,1195632613344928,0.02255,-0.3246375,-0.079475
1680015644263,1195632615847312,0.0185625,-0.3287625,-0.074525
1680015644264,1195632618349543,0.013612499,-0.3267,-0.0694375
1680015644266,1195632620851697,0.01155,-0.3227125,-0.0605
1680015644268,1195632623354082,0.0086624995,-0.3166625,-0.0534875
1680015644272,1195632625856236,0.0075625,-0.312675,-0.0485375
1680015644274,1195632628358466,0.0026125,-0.29865,-0.040425
1680015644276,1195632630860928,0.0026125,-0.29067498,-0.032449998
1680015644278,1195632633363313,-0.0023375,-0.2787125,-0.029424999
1680015644281,1195632635865471,-0.0034375,-0.2616625,-0.0275
1680015644284,1195632638367702,0.00165,-0.24365,-0.0235125
1680015644290,1195632640870087,0.00165,-0.2256375,-0.0204875
1680015644291,1195632643372246,0.0026125,-0.2066625,-0.0174625
1680015644292,1195632645874707,0.00165,-0.19167499,-0.0165
1680015644294,1195632648376938,-0.0023375,-0.1727,-0.0165
1680015644296,1195632650879092,-0.001375,-0.1546875,-0.0114124995
1680015644300,1195632653381452,0.003575,-0.142725,-0.007425
1680015644302,1195632655883606,0.0086624995,-0.12375,-0.0055
1680015644306,1195632658385837,0.0086624995,-0.1106875,-0.002475
1680015644307,1195632660888222,0.009625,-0.0966625,5.5E-4
1680015644308,1195632663390452,0.01265,-0.07865,0.0015125
1680015644312,1195632665892847,0.014575,-0.0636625,0.003575
1680015644314,1195632668395078,0.0185625,-0.04675,0.0045375
1680015644316,1195632670897462,0.020624999,-0.026675,0.0075625
1680015644319,1195632673399616,0.025575,-0.01375,0.008525
1680015644323,1195632675901837,0.0295625,-0.0056375,0.0094875
1680015644325,1195632678404299,0.0325875,0.0103124995,0.014575
1680015644326,1195632680906452,0.0396,0.0232375,0.0185625
1680015644329,1195632683408837,0.0416625,0.033275,0.019524999
1680015644331,1195632685910991,0.047575,0.044275,0.02255
1680015644334,1195632688413217,0.0496375,0.0512875,0.02255
1680015644341,1195632690915601,0.053625,0.055275,0.0284625
1680015644342,1195632693417832,0.059675,0.0622875,0.030524999
1680015644343,1195632695920241,0.0625625,0.066275,0.03355
1680015644344,1195632698422472,0.064625,0.0672375,0.035475
1680015644346,1195632700924856,0.0625625,0.0653125,0.0405625
1680015644348,1195632703427010,0.06765,0.0683375,0.046475
1680015644351,1195632705929241,0.0686125,0.0702625,0.052525
1680015644354,1195632708431644,0.070675,0.0622875,0.05555
1680015644356,1195632710933875,0.0716375,0.06325,0.0614625
1680015644358,1195632713436029,0.069575,0.061325,0.0705375
1680015644361,1195632715938414,0.070675,0.0583,0.0765875
1680015644365,1195632718440659,0.0726,0.0603625,0.080575
1680015644368,1195632720942813,0.075625,0.0653125,0.0845625
1680015644369,1195632723445275,0.07755,0.06325,0.090475
1680015644371,1195632725947659,0.075625,0.06435,0.0925375
1680015644375,1195632728449904,0.0765875,0.066275,0.0955625
1680015644378,1195632730952058,0.07865,0.066275,0.0985875
1680015644380,1195632733454443,0.081675,0.0702625,0.1054625
1680015644381,1195632735956673,0.081675,0.07425,0.1065625
1680015644384,1195632738458827,0.0845625,0.0823625,0.107525
1680015644386,1195632740961260,0.0856625,0.0812625,0.11055
1680015644388,1195632743463414,0.0906125,0.0823625,0.1095875
1680015644392,1195632745965798,0.091575,0.0842875,0.1164625
1680015644395,1195632748468029,0.0875875,0.088275,0.123475
1680015644396,1195632750970183,0.0906125,0.091299996,0.1225125
1680015644398,1195632753472588,0.0946,0.091299996,0.1225125
1680015644402,1195632755975049,0.0946,0.09625,0.124575
1680015644405,1195632758477280,0.091575,0.1023,0.1265
1680015644406,1195632760979439,0.091575,0.1013375,0.1274625
1680015644408,1195632763481823,0.0875875,0.1043625,0.1274625
1680015644413,1195632765983977,0.08855,0.1062875,0.129525
1680015644415,1195632768486208,0.08855,0.111237496,0.129525
1680015644416,1195632770988675,0.086625,0.1153625,0.1315875
1680015644418,1195632773490828,0.08855,0.11825,0.1315875
1680015644420,1195632775993213,0.0906125,0.116325,0.129525
1680015644424,1195632778495367,0.08855,0.116325,0.1304875
1680015644426,1195632780997828,0.08855,0.121275,0.13255
1680015644428,1195632783499939,0.08855,0.1203125,0.1315875
1680015644431,1195632786002170,0.08855,0.1203125,0.134475
1680015644434,1195632788504555,0.0875875,0.1203125,0.134475
1680015644437,1195632791006709,0.0845625,0.122237496,0.134475
1680015644439,1195632793508943,0.081675,0.11825,0.13255
1680015644441,1195632796011405,0.0796125,0.116325,0.13255
1680015644445,1195632798513559,0.080575,0.1153625,0.13255
1680015644446,1195632801015943,0.07865,0.113299996,0.1304875
1680015644450,1195632803518174,0.07755,0.113299996,0.1274625
1680015644452,1195632806020559,0.07755,0.111237496,0.123475
1680015644456,1195632808522713,0.075625,0.113299996,0.1255375
1680015644458,1195632811024943,0.0726,0.1123375,0.1255375
1680015644459,1195632813527328,0.0716375,0.10835,0.1255375
1680015644461,1195632816029574,0.0686125,0.1123375,0.1265
1680015644464,1195632818531728,0.0716375,0.105325,0.1225125
1680015644466,1195632821034112,0.0726,0.1013375,0.1164625
1680015644468,1195632823536343,0.0746625,0.1023,0.1155
1680015644471,1195632826038733,0.0726,0.100237496,0.1164625
1680015644475,1195632828540963,0.075625,0.09625,0.1115125
1680015644476,1195632831043348,0.0746625,0.0903375,0.1095875
1680015644479,1195632833545579,0.0746625,0.0873125,0.102575
1680015644482,1195632836047718,0.075625,0.0842875,0.09955
1680015644484,1195632838550102,0.075625,0.0823625,0.1035375
1680015644488,1195632841052256,0.0735625,0.0803,0.1035375
1680015644490,1195632843554718,0.0686125,0.0803,0.0974875
1680015644492,1195632846056972,0.0765875,0.072325,0.0895125
1680015644495,1195632848559126,0.0796125,0.066275,0.0815375
1680015644497,1195632851061511,0.0826375,0.0653125,0.07755
1680015644499,1195632853563742,0.0796125,0.06325,0.0715
1680015644500,1195632856065896,0.07865,0.055275,0.06655
1680015644505,1195632858568362,0.0746625,0.052249998,0.063525
1680015644506,1195632861070747,0.075625,0.0512875,0.0595375
1680015644508,1195632863572977,0.0726,0.044275,0.05555
1680015644512,1195632866075131,0.07755,0.0363,0.0485375
1680015644515,1195632868577506,0.0845625,0.0292875,0.0455125
1680015644516,1195632871079660,0.081675,0.0182875,0.0405625
1680015644519,1195632873582121,0.080575,0.0042625,0.0375375
1680015644522,1195632876084275,0.080575,-6.875E-4,0.03355
1680015644526,1195632878586487,0.07755,-0.0067375,0.0284625
1680015644528,1195632881088872,0.075625,-0.0187,0.0275
1680015644530,1195632883644949,0.0716375,-0.0257125,0.0284625
1680015644532,1195632886093256,0.069575,-0.0386375,0.0265375
1680015644535,1195632888595718,0.0686125,-0.04675,0.0265375
1680015644537,1195632891098112,0.0616,-0.0587125,0.0265375
1680015644538,1195632893600266,0.058575,-0.06765,0.0284625
1680015644541,1195632896102497,0.0576125,-0.076725,0.0265375
1680015644545,1195632898604651,0.0545875,-0.087725,0.0295625
1680015644546,1195632901107035,0.0515625,-0.093637496,0.0284625
1680015644548,1195632903609189,0.04455,-0.103675,0.0284625
1680015644550,1195632906111651,0.0435875,-0.11275,0.024475
1680015644554,1195632908613882,0.0416625,-0.1197625,0.0235125
1680015644556,1195632911116266,0.0386375,-0.1287,0.0185625
1680015644558,1195632913618444,0.0356125,-0.1326875,0.0155375
1680015644563,1195632916120675,0.0306625,-0.136675,0.014575
1680015644565,1195632918623060,0.0325875,-0.142725,0.0125124995
1680015644569,1195632921277603,0.0286,-0.142725,0.008525
1680015644570,1195632923627680,0.0276375,-0.142725,0.0045375
1680015644571,1195632926129911,0.02255,-0.14575,0.002475
1680015644575,1195632928632065,0.0246125,-0.142725,-4.125E-4
1680015644576,1195632931134449,0.02255,-0.1417625,-0.007425
1680015644578,1195632933636598,0.0196625,-0.1417625,-0.0114124995
1680015644581,1195632936139060,0.015675,-0.142725,-0.0125124995
1680015644588,1195632938641290,0.013612499,-0.1406625,-0.0125124995
1680015644588,1195632941143444,0.013612499,-0.142725,-0.018424999
1680015644588,1195632943645824,0.013612499,-0.1417625,-0.018424999
1680015644591,1195632946148055,0.01265,-0.142725,-0.0165
1680015644594,1195632948650439,0.01155,-0.1417625,-0.0155375
1680015644596,1195632951152670,0.009625,-0.136675,-0.0125124995
1680015644600,1195632953655079,0.0105875,-0.1417625,-0.01045
1680015644602,1195632956157232,0.009625,-0.14465,-0.01045
1680015644605,1195632958659463,0.0105875,-0.142725,-0.0094875
1680015644607,1195632961161617,0.0086624995,-0.1326875,-0.0034375
1680015644608,1195632963664002,0.009625,-0.1216875,-0.0034375
1680015644611,1195632966166237,0.0075625,-0.117699996,5.5E-4
1680015644614,1195632968668699,0.0066,-0.1106875,-4.125E-4
1680015644616,1195632971170853,0.009625,-0.098725,5.5E-4
1680015644618,1195632973673237,0.009625,-0.087725,0.002475
1680015644621,1195632976175482,0.0086624995,-0.07865,-0.002475
1680015644624,1195632978677636,0.01155,-0.0666875,-4.125E-4
1680015644626,1195632981180021,0.013612499,-0.0617375,-0.0034375
1680015644628,1195632983682482,0.01265,-0.04675,-0.0064625
1680015644630,1195632986184636,0.01155,-0.032725,-0.0064625
1680015644634,1195632988686862,0.0155375,-0.02475,-0.01045
1680015644637,1195632991189016,0.0155375,-0.0116875,-0.01045
1680015644639,1195632993691400,0.0155375,-0.0037125,-0.019524999
1680015644641,1195632996193626,0.0196625,0.0053625,-0.019524999
1680015644644,1195632998696011,0.0215875,0.0163625,-0.0204875
1680015644646,1195633001198242,0.0196625,0.0273625,-0.019524999
1680015644648,1195633003700626,0.0185625,0.0342375,-0.0224125
1680015644651,1195633006202857,0.0215875,0.044275,-0.02145
1680015644654,1195633008705031,0.02255,0.0493625,-0.019524999
1680015644656,1195633011207415,0.0215875,0.0543125,-0.02145
1680015644658,1195633013709646,0.020624999,0.061325,-0.0204875
1680015644661,1195633016212031,0.020624999,0.0672375,-0.024475
1680015644663,1195633018714262,0.0196625,0.0672375,-0.024475
1680015644666,1195633021216405,0.0155375,0.0683375,-0.024475
1680015644668,1195633023718790,0.014575,0.0713625,-0.024475
1680015644671,1195633026221021,0.01265,0.0732875,-0.0284625
1680015644675,1195633028723400,0.0105875,0.0732875,-0.0265375
1680015644678,1195633031225631,0.009625,0.0702625,-0.0275
1680015644679,1195633033728016,0.0086624995,0.0713625,-0.0284625
1680015644681,1195633036230247,0.009625,0.069299996,-0.0284625
1680015644685,1195633038732400,0.0086624995,0.0702625,-0.0284625
1680015644686,1195633041234766,0.0105875,0.0683375,-0.030524999
1680015644688,1195633043736920,0.0105875,0.0622875,-0.030524999
1680015644690,1195633046239382,0.0075625,0.0653125,-0.0284625
1680015644694,1195633048741535,0.0075625,0.0603625,-0.030524999
1680015644696,1195633051243766,0.0045375,0.0463375,-0.032449998
1680015644698,1195633053746170,0.0026125,0.0433125,-0.0334125
1680015644700,1195633056248324,-0.001375,0.033275,-0.032449998
1680015644703,1195633058750554,-0.0023375,0.02035,-0.029424999
1680015644705,1195633061253016,-0.0034375,0.0122375,-0.030524999
1680015644708,1195633063755391,-0.007425,0.0033,-0.030524999
1680015644712,1195633066257544,-0.00935,-0.0067375,-0.030524999
1680015644715,1195633068759775,-0.007425,-0.01265,-0.030524999
1680015644717,1195633071261929,-0.012375,-0.0187,-0.029424999
1680015644719,1195633073764309,-0.01045,-0.0276375,-0.029424999
1680015644722,1195633076266539,-0.0114124995,-0.03575,-0.030524999
1680015644729,1195633078768924,-0.012375,-0.037675,-0.0334125
1680015644729,1195633081271155,-0.0114124995,-0.0416625,-0.035475
1680015644730,1195633083773539,-0.01045,-0.045649998,-0.0364375
1680015644731,1195633086275689,-0.012375,-0.048675,-0.0394625
1680015644734,1195633088777920,-0.0114124995,-0.054725,-0.0394625
1680015644736,1195633091280382,-0.012375,-0.0537625,-0.0424875
1680015644739,1195633093782535,-0.012375,-0.0526625,-0.0455125
1680015644740,1195633096284920,-0.0144375,-0.0587125,-0.046475
1680015644744,1195633098787146,-0.0154,-0.0627,-0.0485375
1680015644746,1195633101289300,-0.0154,-0.0666875,-0.0504625
1680015644750,1195633103791684,-0.0163625,-0.06875,-0.0534875
1680015644752,1195633106293900,-0.018424999,-0.076725,-0.0534875
1680015644755,1195633108796285,-0.0174625,-0.081675,-0.0554125
1680015644756,1195633111298516,-0.018424999,-0.0837375,-0.0605
1680015644758,1195633113800669,-0.02145,-0.0847,-0.0584375
1680015644762,1195633116303045,-0.02035,-0.095699996,-0.0584375
1680015644764,1195633118805276,-0.023375,-0.0996875,-0.0605
1680015644766,1195633121307660,-0.0264,-0.103675,-0.062425
1680015644768,1195633123809891,-0.029424999,-0.109725,-0.0675125
1680015644771,1195633126312276,-0.029424999,-0.114675,-0.0664125
1680015644775,1195633128814434,-0.0353375,-0.1197625,-0.0675125
1680015644776,1195633131316664,-0.034375,-0.1266375,-0.068475
1680015644779,1195633133819049,-0.0374,-0.1296625,-0.0705375
1680015644781,1195633136321203,-0.0394625,-0.1296625,-0.0724625
1680015644784,1195633138823664,-0.045375,-0.13475,-0.0724625
1680015644788,1195633141325895,-0.0413875,-0.1417625,-0.0715
1680015644791,1195633143828049,-0.040425,-0.1376375,-0.0774125
1680015644792,1195633146330434,-0.0444125,-0.1406625,-0.079475
1680015644796,1195633148832655,-0.0493625,-0.1397,-0.0785125
1680015644797,1195633151334809,-0.0504625,-0.1417625,-0.0785125
1680015644798,1195633153837271,-0.051425,-0.1406625,-0.079475
1680015644802,1195633156339655,-0.051425,-0.1376375,-0.082499996
1680015644805,1195633158841809,-0.0523875,-0.1357125,-0.0864875
1680015644806,1195633161344040,-0.054449998,-0.1376375,-0.08745
1680015644808,1195633163846194,-0.0523875,-0.1326875,-0.08745
1680015644811,1195633166348579,-0.0504625,-0.1307625,-0.0895125
1680015644814,1195633168851040,-0.051425,-0.1296625,-0.0895125
1680015644816,1195633171353218,-0.0523875,-0.1287,-0.0925375
1680015644819,1195633173855449,-0.0523875,-0.125675,-0.0944625
1680015644822,1195633176357833,-0.051425,-0.120725,-0.0944625
1680015644826,1195633178860044,-0.045375,-0.1186625,-0.09845
1680015644828,1195633181362198,-0.045375,-0.1167375,-0.0994125
1680015644830,1195633183864583,-0.051425,-0.115637496,-0.1005125
1680015644831,1195633186366813,-0.045375,-0.1137125,-0.1005125
1680015644836,1195633188869199,-0.04235,-0.11275,-0.1005125
1680015644837,1195633191371430,-0.043449998,-0.11165,-0.102437496
1680015644838,1195633193873584,-0.0413875,-0.1087625,-0.1005125
1680015644842,1195633196375968,-0.0394625,-0.1087625,-0.09845
1680015644845,1195633198878199,-0.034375,-0.1076625,-0.0944625
1680015644846,1195633201380593,-0.0353375,-0.1027125,-0.0994125
1680015644849,1195633203882823,-0.029424999,-0.10065,-0.09845
1680015644852,1195633206385208,-0.0254375,-0.0996875,-0.09845
1680015644855,1195633208887362,-0.0254375,-0.0977625,-0.096525
1680015644856,1195633211389608,-0.0224125,-0.093637496,-0.096525
1680015644858,1195633213891992,-0.018424999,-0.08965,-0.09845
1680015644864,1195633216394223,-0.018424999,-0.092675,-0.0994125
1680015644865,1195633218896608,-0.0144375,-0.0917125,-0.096525
1680015644867,1195633221398761,-0.0154,-0.08965,-0.096525
1680015644869,1195633223900991,-0.0133375,-0.08965,-0.096525
1680015644872,1195633226403376,-0.0083875,-0.0856625,-0.096525
1680015644875,1195633228905530,-0.007425,-0.087725,-0.0994125
1680015644876,1195633231407991,-0.0064625,-0.0867625,-0.096525
1680015644879,1195633233910208,-0.0064625,-0.0837375,-0.0994125
1680015644882,1195633236412593,-0.0083875,-0.0856625,-0.0994125
1680015644884,1195633238914747,-0.0034375,-0.0837375,-0.095425
1680015644887,1195633241416977,0.00165,-0.081675,-0.0935
1680015644889,1195633243919141,0.0026125,-0.0826375,-0.095425
1680015644891,1195633246421603,0.003575,-0.0837375,-0.095425
1680015644895,1195633248923757,0.0026125,-0.0826375,-0.096525
1680015644896,1195633251426141,0.00165,-0.0856625,-0.096525
1680015644900,1195633253928376,-4.125E-4,-0.0917125,-0.0935
1680015644902,1195633256430761,0.00165,-0.092675,-0.091437496
1680015644905,1195633258932991,0.003575,-0.0947375,-0.0925375
1680015644907,1195633261435145,0.0026125,-0.098725,-0.08745
1680015644908,1195633263937530,0.0045375,-0.1067,-0.085525
1680015644912,1195633266439741,0.0056375,-0.1106875,-0.085525
1680015644915,1195633268942125,0.0026125,-0.117699996,-0.085525
1680015644917,1195633271444279,0.0056375,-0.120725,-0.0815375
1680015644920,1195633273946741,0.0075625,-0.1307625,-0.079475
1680015644923,1195633276448967,0.0075625,-0.13475,-0.084425
1680015644926,1195633278951121,0.01155,-0.13475,-0.082499996
1680015644928,1195633281479429,0.013612499,-0.136675,-0.0834625
1680015644930,1195633283955660,0.014575,-0.1417625,-0.0834625
1680015644931,1195633286457891,0.0155375,-0.1467125,-0.0815375
1680015644935,1195633288960352,0.0155375,-0.1516625,-0.0864875
1680015644938,1195633291462506,0.0196625,-0.1516625,-0.090475
1680015644940,1195633293964891,0.0196625,-0.1507,-0.0895125
1680015644941,1195633296467121,0.02255,-0.147675,-0.090475
1680015644946,1195633298969505,0.0246125,-0.147675,-0.095425
1680015644946,1195633301471659,0.020624999,-0.14973749,-0.1005125
1680015644949,1195633303974120,0.02255,-0.14465,-0.104499996
1680015644951,1195633306476274,0.02255,-0.142725,-0.1054625
1680015644954,1195633308978501,0.0246125,-0.142725,-0.10945
1680015644956,1195633311480886,0.02365,-0.1417625,-0.113437496
1680015644959,1195633313983039,0.025575,-0.13475,-0.1155
1680015644962,1195633316485270,0.0265375,-0.1307625,-0.1164625
1680015644964,1195633318987655,0.0265375,-0.125675,-0.118525
1680015644966,1195633321489886,0.0295625,-0.1247125,-0.1225125
1680015644968,1195633323992270,0.0356125,-0.12375,-0.123475
1680015644971,1195633326494501,0.036575,-0.1186625,-0.1225125
1680015644976,1195633328996669,0.0386375,-0.11275,-0.1255375
1680015644978,1195633331499053,0.0375375,-0.1076625,-0.13145
1680015644980,1195633334001284,0.036575,-0.10175,-0.1324125
1680015644982,1195633336503669,0.0405625,-0.093637496,-0.1375
1680015644987,1195633339005881,0.0386375,-0.087725,-0.1414875
1680015644987,1195633341508035,0.04455,-0.07975,-0.1445125
1680015644988,1195633344010419,0.0485375,-0.0666875,-0.1464375
1680015644993,1195633346512650,0.0466125,-0.059675,-0.1524875
1680015644997,1195633349014804,0.0496375,-0.0526625,-0.1574375
1680015644997,1195633351517265,0.053625,-0.0477125,-0.162525
1680015644999,1195633354019650,0.0576125,-0.04675,-0.1684375
1680015645002,1195633356521881,0.0606375,-0.0427625,-0.1714625
1680015645005,1195633359024035,0.0636625,-0.043725,-0.173525
1680015645006,1195633361526419,0.06765,-0.0427625,-0.1775125
1680015645009,1195633364028568,0.064625,-0.048675,-0.1854875
1680015645013,1195633366531030,0.0655875,-0.0507375,-0.1904375
1680015645016,1195633369033183,0.06765,-0.0537625,-0.195525
1680015645018,1195633371535385,0.064625,-0.05775,-0.20047499
1680015645020,1195633374037770,0.0636625,-0.059675,-0.205425
1680015645021,1195633376539924,0.0636625,-0.0627,-0.20845
1680015645025,1195633379042154,0.0606375,-0.06875,-0.2184875
1680015645026,1195633381544616,0.0625625,-0.0746625,-0.227425
1680015645030,1195633384047001,0.058575,-0.0837375,-0.2365
1680015645031,1195633386549154,0.058575,-0.095699996,-0.24447499
1680015645035,1195633389051385,0.056649998,-0.0996875,-0.25547498
1680015645036,1195633391553539,0.05555,-0.1087625,-0.266475
1680015645039,1195633394055924,0.0526625,-0.1186625,-0.2765125
1680015645042,1195633396558390,0.0466125,-0.12773749,-0.2894375
1680015645045,1195633399060544,0.0466125,-0.1307625,-0.3004375
1680015645047,1195633401562775,0.0416625,-0.1406625,-0.3114375
1680015645050,1195633404065141,0.0405625,-0.14575,-0.321475
1680015645052,1195633406567294,0.0356125,-0.14973749,-0.326425
1680015645055,1195633409069525,0.0306625,-0.158675,-0.3394875
1680015645057,1195633411571910,0.0306625,-0.169675,-0.3474625
1680015645058,1195633414074141,0.0265375,-0.1816375,-0.354475
1680015645062,1195633416576510,0.0265375,-0.1907125,-0.360525
1680015645064,1195633419078741,0.02365,-0.1986875,-0.3675375
1680015645066,1195633421580895,0.0166375,-0.20075,-0.3675375
1680015645068,1195633424083279,0.0155375,-0.21367499,-0.371525
1680015645071,1195633426585423,0.013612499,-0.22275,-0.3755125
1680015645074,1195633429087885,0.009625,-0.23773749,-0.3755125
1680015645076,1195633431590116,0.0066,-0.2487375,-0.3785375
1680015645079,1195633434092269,0.0066,-0.2586375,-0.3785375
1680015645083,1195633436594659,0.003575,-0.2726625,-0.382525
1680015645085,1195633439096890,-4.125E-4,-0.2847625,-0.3834875
1680015645089,1195633441599274,-0.001375,-0.3007125,-0.381425
1680015645091,1195633444101505,-0.0044,-0.312675,-0.381425
1680015645092,1195633446603919,-0.0083875,-0.3257375,-0.38541248
1680015645095,1195633449106150,-0.0083875,-0.34265,-0.38541248
1680015645097,1195633451608303,-0.00935,-0.351725,-0.3884375
1680015645099,1195633454110688,-0.01045,-0.3667125,-0.3944875
1680015645101,1195633456612842,-0.012375,-0.37565,-0.398475
1680015645105,1195633459115303,-0.01045,-0.3927,-0.398475
1680015645106,1195633461617534,-0.012375,-0.4057625,-0.403425
1680015645109,1195633464119688,-0.012375,-0.417725,-0.409475
1680015645112,1195633466622073,-0.0114124995,-0.42473748,-0.4115375
1680015645115,1195633469124309,-0.0114124995,-0.4357375,-0.4184125
1680015645117,1195633471626462,-0.0114124995,-0.45265,-0.4235
1680015645120,1195633474128924,-0.0114124995,-0.456775,-0.4305125
1680015645122,1195633476631309,-0.01045,-0.4626875,-0.4354625
1680015645127,1195633479133452,-0.0144375,-0.46667498,-0.4415125
1680015645130,1195633481635683,-0.02035,-0.46667498,-0.447425
1680015645131,1195633484137837,-0.0224125,-0.46667498,-0.4525125
1680015645132,1195633486640222,-0.0224125,-0.46365,-0.458425
1680015645135,1195633489142442,-0.02145,-0.4626875,-0.464475
1680015645136,1195633491644827,-0.02035,-0.4577375,-0.47547498
1680015645139,1195633494147058,-0.0224125,-0.4547125,-0.48345
1680015645141,1195633496649442,-0.02145,-0.4467375,-0.4904625
1680015645144,1195633499151673,-0.018424999,-0.4406875,-0.4984375
1680015645146,1195633501653799,-0.0154,-0.4357375,-0.5014625
1680015645149,1195633504156184,-0.0133375,-0.4277625,-0.513425
1680015645152,1195633506658414,-0.0114124995,-0.4266625,-0.5185125
1680015645156,1195633509160823,-0.0083875,-0.4257,-0.52442497
1680015645157,1195633511662977,-0.0053625,-0.41965,-0.5335
1680015645160,1195633514165208,0.003575,-0.411675,-0.536525
1680015645164,1195633516667592,0.01155,-0.406725,-0.5374875
1680015645167,1195633519168707,0.014575,-0.3997125,-0.541475
1680015645168,1195633521669824,0.020624999,-0.389675,-0.541475
1680015645169,1195633524174438,0.02365,-0.384725,-0.5435375
1680015645172,1195633526676823,0.0276375,-0.3936625,-0.5424375
1680015645175,1195633529178977,0.0325875,-0.39875,-0.541475
1680015645177,1195633531681208,0.034649998,-0.39875,-0.5374875
1680015645179,1195633534183606,0.0405625,-0.400675,-0.5335
1680015645182,1195633536685837,0.04455,-0.4046625,-0.530475
1680015645184,1195633539188222,0.0485375,-0.4046625,-0.52442497
1680015645187,1195633541690376,0.0526625,-0.4107125,-0.5204375
1680015645189,1195633544192620,0.056649998,-0.412775,-0.514525
1680015645192,1195633546695005,0.056649998,-0.40865,-0.508475
1680015645196,1195633549197159,0.058575,-0.406725,-0.5014625
1680015645196,1195633551699620,0.0636625,-0.4107125,-0.49445
1680015645201,1195633554201842,0.0636625,-0.4167625,-0.4895
1680015645203,1195633556703996,0.0705375,-0.4257,-0.4874375
1680015645206,1195633559206381,0.0726,-0.43175,-0.4794625
1680015645208,1195633561708611,0.075625,-0.4387625,-0.47245
1680015645211,1195633564210765,0.0796125,-0.4437125,-0.4665375
1680015645212,1195633566713145,0.0796125,-0.450725,-0.4635125
1680015645214,1195633569215376,0.0796125,-0.4587,-0.4574625
1680015645216,1195633571717760,0.0875875,-0.4626875,-0.4544375
1680015645218,1195633574219991,0.091575,-0.46475,-0.4514125
1680015645221,1195633576722183,0.0906125,-0.4717625,-0.4445375
1680015645224,1195633579224568,0.093637496,-0.4736875,-0.4415125
1680015645226,1195633581726798,0.0946,-0.4797375,-0.437525
1680015645229,1195633584229260,0.0955625,-0.489775,-0.4345
1680015645231,1195633586731429,0.0946,-0.4937625,-0.43353748
1680015645235,1195633589233813,0.097625,-0.49774998,-0.4305125
1680015645238,1195633591735967,0.097625,-0.500775,-0.4244625
1680015645240,1195633594238198,0.0955625,-0.5047625,-0.420475
1680015645244,1195633596740337,0.093637496,-0.50765,-0.4184125
1680015645246,1195633599242798,0.0925375,-0.5097125,-0.4164875
1680015645247,1195633601745183,0.0906125,-0.5047625,-0.4104375
1680015645249,1195633604247414,0.0875875,-0.5027,-0.4074125
1680015645251,1195633606749568,0.0796125,-0.5066875,-0.4005375
1680015645255,1195633609251952,0.0686125,-0.5027,-0.3975125
1680015645256,1195633611754183,0.064625,-0.5017375,-0.3914625
1680015645259,1195633614256568,0.0606375,-0.49774998,-0.3865125
1680015645263,1195633616758798,0.0515625,-0.4937625,-0.3804625
1680015645265,1195633619261159,0.0416625,-0.4917,-0.3724875
1680015645266,1195633621763313,0.0375375,-0.489775,-0.3645125
1680015645269,1195633624265544,0.034649998,-0.4846875,-0.354475
1680015645271,1195633626767698,0.0295625,-0.47575,-0.3425125
1680015645276,1195633629270077,0.0265375,-0.467775,-0.332475
1680015645279,1195633631772539,0.0215875,-0.4626875,-0.321475
1680015645279,1195633634274693,0.020624999,-0.45168748,-0.310475
1680015645282,1195633636776923,0.0185625,-0.439725,-0.2954875
1680015645286,1195633639279308,0.0185625,-0.4277625,-0.2875125
1680015645287,1195633641781520,0.01265,-0.40974998,-0.277475
1680015645290,1195633644283674,0.009625,-0.3966875,-0.2674375
1680015645292,1195633646786135,0.01265,-0.3777125,-0.2564375
1680015645297,1195633649288289,0.01265,-0.3617625,-0.2475
1680015645297,1195633651790674,0.0086624995,-0.34375,-0.238425
1680015645299,1195633654292832,0.0066,-0.324775,-0.2264625
1680015645302,1195633656795063,0.0086624995,-0.3056625,-0.21945
1680015645305,1195633659297448,0.0066,-0.2847625,-0.20845
1680015645306,1195633661799909,0.0026125,-0.2677125,-0.1984125
1680015645310,1195633664302063,0.0026125,-0.2506625,-0.1925
1680015645313,1195633666804294,0.0066,-0.224675,-0.1824625
1680015645316,1195633669306679,0.009625,-0.202675,-0.172425
1680015645318,1195633671808832,0.009625,-0.175725,-0.162525
1680015645321,1195633674311063,0.0066,-0.1527625,-0.156475
1680015645324,1195633676813448,0.0086624995,-0.131725,-0.150425
1680015645327,1195633679314563,0.009625,-0.11275,-0.1434125
1680015645327,1195633681815680,0.0155375,-0.0917125,-0.1375
1680015645329,1195633684320217,0.0196625,-0.0697125,-0.134475
1680015645332,1195633686822424,0.020624999,-0.048675,-0.128425
1680015645335,1195633689324809,0.02365,-0.027775,-0.123475
1680015645336,1195633691827039,0.0295625,-0.005775,-0.1194875
1680015645339,1195633694329424,0.0286,0.0133375,-0.118525
1680015645341,1195633696831655,0.034649998,0.0353375,-0.118525
1680015645345,1195633699333809,0.0375375,0.055275,-0.117425
1680015645346,1195633701836193,0.042625,0.07425,-0.1155
1680015645351,1195633704338424,0.04455,0.094325,-0.112475
1680015645352,1195633706840573,0.0485375,0.1172875,-0.113437496
1680015645356,1195633709343034,0.05555,0.1362625,-0.1164625
1680015645357,1195633711845188,0.056649998,0.1573,-0.117425
1680015645359,1195633714347573,0.0616,0.1793,-0.117425
1680015645363,1195633716849804,0.0595375,0.1882375,-0.1225125
1680015645365,1195633719352188,0.0636625,0.20735,-0.1255375
1680015645367,1195633721854419,0.06765,0.2223375,-0.1274625
1680015645369,1195633724356573,0.0655875,0.23925,-0.1335125
1680015645371,1195633726858957,0.06765,0.2553375,-0.140525
1680015645374,1195633729361217,0.0655875,0.26633748,-0.1434125
1680015645376,1195633731863371,0.064625,0.2792625,-0.1464375
1680015645379,1195633734365833,0.0625625,0.286275,-0.1494625
1680015645381,1195633736868217,0.0655875,0.2902625,-0.15345
1680015645384,1195633739370452,0.0616,0.292325,-0.1574375
1680015645388,1195633741872606,0.0636625,0.2883375,-0.1544125
1680015645390,1195633744374760,0.0606375,0.2822875,-0.150425
1680015645392,1195633746877144,0.0606375,0.27335,-0.1485
1680015645395,1195633749379351,0.056649998,0.2652375,-0.145475
1680015645397,1195633751881736,0.0515625,0.2523125,-0.1384625
1680015645399,1195633754383967,0.042625,0.23925,-0.1335125
1680015645402,1195633756886351,0.036575,0.226325,-0.1255375
1680015645405,1195633759388505,0.0265375,0.204325,-0.10945
1680015645407,1195633761890736,0.0185625,0.1863125,-0.104499996
1680015645409,1195633764393197,0.0056375,0.1643125,-0.0935
1680015645412,1195633766895351,-0.0053625,0.143275,-0.084425
1680015645415,1195633769397736,-0.012375,0.127325,-0.07645
1680015645416,1195633771899900,-0.023375,0.1032625,-0.068475
1680015645419,1195633774402130,-0.034375,0.0793375,-0.0595375
1680015645421,1195633776904515,-0.0444125,0.0562375,-0.054449998
1680015645427,1195633779406761,-0.0523875,0.028324999,-0.0485375
1680015645430,1195633781909145,-0.0573375,0.006325,-0.0394625
1680015645431,1195633784411376,-0.0683375,-0.014712499,-0.0334125
1680015645432,1195633786913761,-0.07645,-0.0336875,-0.0275
1680015645435,1195633789415915,-0.0823625,-0.060775,-0.02145
1680015645436,1195633791918160,-0.0924,-0.0856625,-0.0155375
1680015645439,1195633794420545,-0.1034,-0.1076625,-0.0155375
1680015645444,1195633796922776,-0.1123375,-0.131725,-0.0125124995
1680015645446,1195633799425160,-0.1233375,-0.15675,-0.0094875
1680015645447,1195633801927314,-0.1343375,-0.1766875,-0.0045375
1680015645449,1195633804429545,-0.14245,-0.19167499,-0.002475
1680015645454,1195633806931699,-0.15235,-0.202675,-4.125E-4
1680015645455,1195633809434084,-0.1593625,-0.2167,0.003575
1680015645456,1195633811936545,-0.16733749,-0.2277,0.0094875
1680015645459,1195633814438795,-0.1733875,-0.23375,0.0094875
1680015645463,1195633816940949,-0.1813625,-0.241725,0.0165
1680015645466,1195633819443333,-0.18645,-0.24365,0.0155375
1680015645467,1195633821945545,-0.188375,-0.241725,0.0185625
1680015645470,1195633824447699,-0.194425,-0.247775,0.0235125
1680015645472,1195633826950161,-0.19635,-0.23773749,0.025575
1680015645476,1195633829452314,-0.2003375,-0.2316875,0.0295625
1680015645477,1195633831954699,-0.2044625,-0.2267375,0.03355
1680015645479,1195633834456930,-0.2024,-0.2167,0.036575
1680015645483,1195633836959084,-0.2044625,-0.2096875,0.0405625
1680015645485,1195633839461468,-0.205425,-0.1986875,0.0424875
1680015645487,1195633841963930,-0.205425,-0.186725,0.046475
1680015645489,1195633844466180,-0.205425,-0.1747625,0.0485375
1680015645491,1195633846968333,-0.2063875,-0.1577125,0.0534875
1680015645495,1195633849470718,-0.210375,-0.147675,0.0515625
1680015645496,1195633851972872,-0.2124375,-0.1326875,0.0545875
1680015645501,1195633854475098,-0.2154625,-0.1216875,0.0565125
1680015645504,1195633856977252,-0.216425,-0.1106875,0.057475
1680015645505,1195633859479713,-0.21835,-0.0977625,0.058575
1680015645508,1195633861982098,-0.2173875,-0.0847,0.0595375
1680015645509,1195633864484252,-0.221375,-0.076725,0.0625625
1680015645514,1195633866986482,-0.2264625,-0.0647625,0.0644875
1680015645515,1195633869488867,-0.2264625,-0.05775,0.069575
1680015645517,1195633871991098,-0.2314125,-0.0517,0.069575
1680015645520,1195633874493482,-0.2363625,-0.04675,0.0705375
1680015645523,1195633876995689,-0.24035,-0.0367125,0.0754875
1680015645526,1195633879497843,-0.2484625,-0.0336875,0.0765875
1680015645527,1195633882000228,-0.254375,-0.0306625,0.079475
1680015645529,1195633884502458,-0.2553375,-0.02475,0.0815375
1680015645532,1195633887004612,-0.260425,-0.021724999,0.0864875
1680015645535,1195633889507088,-0.2674375,-0.0196625,0.0875875
1680015645538,1195633892009472,-0.27335,-0.016775,0.0895125
1680015645540,1195633894511626,-0.2784375,-0.01265,0.0935
1680015645542,1195633897013857,-0.28545,-0.0097624995,0.0955625
1680015645547,1195633899516228,-0.2864125,-0.01265,0.102575
1680015645547,1195633902018458,-0.28545,-0.0037125,0.107525
1680015645549,1195633904520843,-0.2924625,-6.875E-4,0.1084875
1680015645552,1195633907023074,-0.298375,-6.875E-4,0.113575
1680015645555,1195633909525190,-0.293425,0.0012375,0.118525
1680015645556,1195633912027574,-0.298375,2.75E-4,0.1225125
1680015645559,1195633914529728,-0.304425,2.75E-4,0.13255
1680015645562,1195633917031959,-0.3053875,2.75E-4,0.140525
1680015645565,1195633919534444,-0.304425,0.0033,0.1425875
1680015645567,1195633922036598,-0.3084125,0.005225,0.151525
1680015645569,1195633924538983,-0.309375,0.0072875,0.15853749
1680015645572,1195633927041214,-0.3084125,0.0072875,0.1615625
1680015645576,1195633929543607,-0.31033748,0.011275,0.1695375
1680015645578,1195633932045761,-0.3163875,0.0122375,0.1775125
1680015645580,1195633934547992,-0.309375,0.0103124995,0.17847499
1680015645582,1195633937050377,-0.31239998,0.0072875,0.1865875
1680015645585,1195633939552607,-0.31845,0.0122375,0.1915375
1680015645587,1195633942055011,-0.31845,0.0133375,0.1934625
1680015645590,1195633944557165,-0.31845,0.015262499,0.1945625
1680015645593,1195633947059396,-0.3213375,0.016224999,0.20253749
1680015645596,1195633949561780,-0.3213375,0.0143,0.206525
1680015645597,1195633952064011,-0.3254625,0.0143,0.2074875
1680015645599,1195633954566392,-0.3254625,0.00825,0.20955
1680015645604,1195633957068622,-0.3254625,0.0103124995,0.2145
1680015645606,1195633959570776,-0.326425,0.0072875,0.217525
1680015645607,1195633962073156,-0.325325,0.006325,0.217525
1680015645609,1195633964575387,-0.325325,0.006325,0.2215125
1680015645614,1195633967077771,-0.3243625,0.006325,0.2255
1680015645616,1195633969580002,-0.3243625,0.011275,0.22247499
1680015645618,1195633972082170,-0.3243625,0.015262499,0.22453749
1680015645620,1195633974584554,-0.3194125,0.017324999,0.2255
1680015645622,1195633977086785,-0.31735,0.0243375,0.2255
1680015645627,1195633979588939,-0.315425,0.028324999,0.223575
1680015645629,1195633982091401,-0.3114375,0.0363,0.22247499
1680015645630,1195633984593766,-0.3084125,0.0452375,0.2195875
1680015645632,1195633987095997,-0.3014,0.050325,0.217525
1680015645636,1195633989598151,-0.2993375,0.0512875,0.211475
1680015645637,1195633992100536,-0.2943875,0.0543125,0.20955
1680015645640,1195633994602708,-0.2894375,0.0622875,0.2085875
1680015645643,1195633997105170,-0.28545,0.0653125,0.20253749
1680015645645,1195633999607324,-0.282425,0.066275,0.1945625
1680015645647,1195634002109555,-0.282425,0.069299996,0.190575
1680015645651,1195634004611973,-0.2784375,0.0653125,0.1824625
1680015645652,1195634007114204,-0.2773375,0.06325,0.1744875
1680015645655,1195634009616358,-0.2784375,0.06325,0.1695375
1680015645657,1195634012118742,-0.2754125,0.0562375,0.1634875
1680015645659,1195634014621204,-0.276375,0.0482625,0.1604625
1680015645662,1195634017123353,-0.2794,0.0473,0.1595
1680015645664,1195634019625584,-0.282425,0.0433125,0.15455
1680015645667,1195634022127968,-0.28435,0.033275,0.1524875
1680015645670,1195634024630122,-0.2894375,0.0232375,0.151525
1680015645673,1195634027132366,-0.29535,0.0122375,0.1494625
1680015645675,1195634029634750,-0.3053875,-0.004675,0.15455
1680015645677,1195634032136981,-0.309375,-0.0166375,0.1555125
1680015645680,1195634034639366,-0.31239998,-0.0306625,0.1604625
1680015645683,1195634037141535,-0.3194125,-0.043725,0.167475
1680015645685,1195634039643765,-0.3234,-0.0627,0.17655
1680015645691,1195634042146150,-0.3304125,-0.0776875,0.18755
1680015645691,1195634044648612,-0.3383875,-0.09075,0.1975875
1680015645693,1195634047150785,-0.342375,-0.0977625,0.211475
1680015645696,1195634049653015,-0.347325,-0.1106875,0.2255
1680015645698,1195634052155169,-0.35035,-0.1197625,0.2404875
1680015645700,1195634054657554,-0.3554375,-0.1287,0.2585
1680015645702,1195634057159708,-0.3573625,-0.1326875,0.277475
1680015645704,1195634059662150,-0.358325,-0.1357125,0.294525
1680015645707,1195634062164381,-0.359425,-0.1357125,0.310475
1680015645710,1195634064666766,-0.3554375,-0.13475,0.3265625
1680015645712,1195634067168919,-0.3554375,-0.1376375,0.34347498
1680015645714,1195634069671145,-0.3524125,-0.13475,0.3595625
1680015645717,1195634072173530,-0.3524125,-0.131725,0.3755125
1680015645720,1195634074675684,-0.347325,-0.1186625,0.3905
1680015645722,1195634077178145,-0.33935,-0.1137125,0.4024625
1680015645727,1195634079680390,-0.3344,-0.1067,0.4125
1680015645729,1195634082182544,-0.3344,-0.0977625,0.426525
1680015645731,1195634084684698,-0.326425,-0.0867625,0.4345
1680015645732,1195634087187082,-0.31845,-0.0746625,0.4415125
1680015645735,1195634089689323,-0.309375,-0.0587125,0.4494875
1680015645737,1195634092191785,-0.3053875,-0.0446875,0.4555375
1680015645739,1195634094693938,-0.298375,-0.0257125,0.46254998
1680015645742,1195634097196323,-0.2883375,-0.0056375,0.470525
1680015645746,1195634099698539,-0.276375,0.0072875,0.47355
1680015645747,1195634102200923,-0.270325,0.0253,0.4824875
1680015645750,1195634104703077,-0.26235,0.0482625,0.48455
1680015645752,1195634107205539,-0.2534125,0.0713625,0.4885375
1680015645755,1195634109707693,-0.238425,0.0933625,0.4965125
1680015645758,1195634112209919,-0.227425,0.116325,0.503525
1680015645760,1195634114712303,-0.2173875,0.14025,0.50655
1680015645764,1195634117214457,-0.20735,0.16335,0.508475
1680015645767,1195634119716688,-0.1953875,0.1903,0.5165875
1680015645768,1195634122391135,-0.18933749,0.2162875,0.520575
1680015645770,1195634124721289,-0.1794375,0.237325,0.5225
1680015645772,1195634127223674,-0.1684375,0.26633748,0.5275875
1680015645775,1195634129725905,-0.1563375,0.28435,0.5325375
1680015645776,1195634132228058,-0.149325,0.3023625,0.5355625
1680015645779,1195634134730433,-0.1354375,0.3232625,0.5374875
1680015645782,1195634137232664,-0.127325,0.3422375,0.5374875
1680015645785,1195634139735048,-0.122375,0.3642375,0.5385875
1680015645788,1195634142237279,-0.1104125,0.3793625,0.5355625
1680015645790,1195634144739429,-0.106425,0.39325,0.536525
1680015645791,1195634147241814,-0.102437496,0.402325,0.536525
1680015645794,1195634149744044,-0.0963875,0.413325,0.5344625
1680015645797,1195634152246198,-0.089375,0.4213,0.5325375
1680015645801,1195634154748679,-0.0884125,0.42625,0.5295125
1680015645803,1195634157251063,-0.0924,0.4332625,0.52854997
1680015645806,1195634159753217,-0.089375,0.4362875,0.5234625
1680015645808,1195634162255448,-0.08635,0.43725,0.519475
1680015645810,1195634164757833,-0.08745,0.4362875,0.5115
1680015645812,1195634167259972,-0.0903375,0.43835,0.508475
1680015645815,1195634169762433,-0.0933625,0.4362875,0.503525
1680015645817,1195634172264587,-0.0963875,0.4302375,0.497475
1680015645820,1195634174766818,-0.102437496,0.424325,0.4904625
1680015645822,1195634177269197,-0.1043625,0.4192375,0.48455
1680015645826,1195634179771351,-0.10945,0.4082375,0.48455
1680015645827,1195634182273582,-0.113437496,0.39833748,0.4794625
1680015645829,1195634184776044,-0.113437496,0.3922875,0.47753748
1680015645834,1195634187278414,-0.117425,0.385275,0.4745125
1680015645837,1195634189780568,-0.1254,0.3773,0.47547498
1680015645838,1195634192282799,-0.1254,0.3672625,0.47753748
1680015645840,1195634194785183,-0.128425,0.3562625,0.4824875
1680015645843,1195634197287428,-0.1354375,0.3443,0.4824875
1680015645846,1195634199789813,-0.1354375,0.32835,0.4835875
1680015645847,1195634202291967,-0.1403875,0.3113,0.48455
1680015645849,1195634204794197,-0.1464375,0.292325,0.4885375
1680015645852,1195634207296351,-0.149325,0.2712875,0.492525
1680015645855,1195634209798804,-0.1574375,0.2542375,0.49555
1680015645856,1195634212301188,-0.161425,0.2322375,0.497475
1680015645859,1195634214803342,-0.161425,0.2143625,0.5025625
1680015645862,1195634217305573,-0.16733749,0.1923625,0.5055875
1680015645865,1195634219807958,-0.172425,0.165275,0.50655
1680015645867,1195634222310188,-0.171325,0.1463,0.5115
1680015645870,1195634224812573,-0.177375,0.1203125,0.5135625
1680015645872,1195634227314804,-0.1794375,0.094325,0.5185125
1680015645876,1195634229816958,-0.18535,0.0713625,0.5245625
1680015645878,1195634232319342,-0.1904375,0.0482625,0.5245625
1680015645880,1195634234821573,-0.194425,0.028324999,0.5275875
1680015645883,1195634237323727,-0.2003375,0.0053625,0.5325375
1680015645886,1195634239826102,-0.204325,-0.014712499,0.5355625
1680015645888,1195634242328332,-0.2063875,-0.034649998,0.5374875
1680015645890,1195634244830717,-0.2143625,-0.0526625,0.536525
1680015645892,1195634247332948,-0.216425,-0.0746625,0.536525
1680015645895,1195634249835332,-0.2173875,-0.0917125,0.5374875
1680015645897,1195634252337476,-0.2223375,-0.1076625,0.5355625
1680015645900,1195634254839707,-0.2244,-0.1197625,0.536525
1680015645902,1195634257342169,-0.2253625,-0.1357125,0.536525
1680015645905,1195634259844322,-0.2223375,-0.1467125,0.530475
1680015645908,1195634262346707,-0.2283875,-0.1577125,0.52854997
1680015645910,1195634264848861,-0.2283875,-0.1656875,0.5234625
1680015645916,1195634267351092,-0.227425,-0.1727,0.525525
1680015645917,1195634269853476,-0.2283875,-0.1846625,0.5215375
1680015645920,1195634272355727,-0.2283875,-0.1907125,0.5185125
1680015645924,1195634277358112,-0.23333749,-0.19167499,0.519475
1680015645927,1195634278688036,-0.23333749,-0.18975,0.5105375
1680015645927,1195634280024035,-0.2344375,-0.19373749,0.508475
1680015645929,1195634282364871,-0.2393875,-0.18975,0.50655
1680015645930,1195634284867102,-0.2393875,-0.1967625,0.503525
1680015645932,1195634287369563,-0.243375,-0.1986875,0.5005
1680015645935,1195634289871717,-0.2464,-0.2017125,0.497475
1680015645937,1195634292374102,-0.2503875,-0.2057,0.4945875
1680015645940,1195634294876271,-0.254375,-0.2066625,0.49555
1680015645942,1195634297378501,-0.2564375,-0.197725,0.4904625
1680015645945,1195634299880655,-0.2574,-0.1967625,0.487575
1680015645947,1195634302383040,-0.2644125,-0.2017125,0.4855125
1680015645953,1195634304885497,-0.2684,-0.202675,0.4785
1680015645954,1195634307387728,-0.2754125,-0.2077625,0.476575
1680015645956,1195634309889882,-0.2754125,-0.2057,0.47355
1680015645958,1195634312392267,-0.2833875,-0.197725,0.4714875
1680015645960,1195634314894497,-0.2864125,-0.1967625,0.4695625
1680015645963,1195634317396669,-0.2913625,-0.2057,0.464475
1680015645965,1195634319899131,-0.2993375,-0.2036375,0.459525
1680015645967,1195634322401285,-0.3053875,-0.2057,0.4555375
1680015645969,1195634324903669,-0.31033748,-0.208725,0.453475
1680015645972,1195634327405900,-0.309375,-0.20075,0.4505875
1680015645975,1195634329908040,-0.315425,-0.19373749,0.4475625
1680015645978,1195634332410424,-0.3194125,-0.1926375,0.4464625
1680015645979,1195634334912886,-0.3213375,-0.1947,0.4464625
1680015645982,1195634337415040,-0.3243625,-0.18975,0.4445375
1680015645986,1195634339917257,-0.3334375,-0.1907125,0.443575
1680015645989,1195634342419641,-0.336325,-0.1857625,0.4455
1680015645991,1195634344921795,-0.33935,-0.17765,0.4505875
1680015645993,1195634347424026,-0.34141248,-0.17765,0.4464625
1680015645996,1195634349926453,-0.3433375,-0.1766875,0.45155
1680015645998,1195634352428607,-0.3454,-0.1766875,0.4525125
1680015646000,1195634354930992,-0.347325,-0.175725,0.4494875
1680015646003,1195634357433146,-0.3493875,-0.16775,0.4505875
1680015646005,1195634359935377,-0.3524125,-0.16665,0.453475
1680015646007,1195634362437771,-0.35433748,-0.169675,0.45155
1680015646012,1195634364940233,-0.3554375,-0.16775,0.4445375
1680015646014,1195634367442387,-0.3564,-0.1607375,0.4455
1680015646015,1195634369944617,-0.35433748,-0.1607375,0.442475
1680015646017,1195634372446978,-0.353375,-0.1617,0.442475
1680015646020,1195634374949132,-0.3554375,-0.16665,0.44055
1680015646023,1195634377451363,-0.3564,-0.16665,0.437525
1680015646026,1195634379953516,-0.353375,-0.1617,0.432575
1680015646028,1195634382455978,-0.348425,-0.1527625,0.432575
1680015646030,1195634384958363,-0.347325,-0.1527625,0.4244625
1680015646032,1195634387460516,-0.3433375,-0.1546875,0.4225375
1680015646035,1195634389962747,-0.3444375,-0.1577125,0.420475
1680015646037,1195634392465132,-0.3444375,-0.14575,0.4175875
1680015646040,1195634394967271,-0.34045,-0.1357125,0.4145625
1680015646046,1195634397469732,-0.3353625,-0.13475,0.4115375
1680015646046,1195634399971963,-0.336325,-0.13365,0.404525
1680015646048,1195634402474117,-0.3344,-0.1307625,0.4054875
1680015646050,1195634404976536,-0.331375,-0.1247125,0.4035625
1680015646052,1195634407478766,-0.326425,-0.114675,0.4005375
1680015646055,1195634409980920,-0.325325,-0.12375,0.3955875
1680015646057,1195634412483382,-0.3224375,-0.125675,0.388575
1680015646062,1195634414985545,-0.3213375,-0.1186625,0.38747498
1680015646064,1195634417487929,-0.31735,-0.114675,0.38555
1680015646068,1195634419990160,-0.315425,-0.1186625,0.3834875
1680015646070,1195634422492545,-0.31239998,-0.1137125,0.3815625
1680015646071,1195634424994727,-0.31239998,-0.1167375,0.3815625
1680015646072,1195634427497189,-0.31239998,-0.12375,0.3804625
1680015646075,1195634429999420,-0.315425,-0.120725,0.3795
1680015646077,1195634432501574,-0.31845,-0.115637496,0.3795
1680015646080,1195634435003958,-0.3194125,-0.117699996,0.3845875
1680015646084,1195634437506064,-0.320375,-0.1247125,0.38747498
1680015646087,1195634440008295,-0.320375,-0.13365,0.388575
1680015646089,1195634442510756,-0.3213375,-0.1307625,0.393525
1680015646090,1195634445012910,-0.320375,-0.131725,0.4024625
1680015646092,1195634447515295,-0.31735,-0.136675,0.404525
1680015646095,1195634450017507,-0.3234,-0.14575,0.40755
1680015646097,1195634452519660,-0.3273875,-0.1596375,0.4115375
1680015646102,1195634455022045,-0.3304125,-0.1637625,0.4175875
1680015646103,1195634457524276,-0.3334375,-0.1687125,0.420475
1680015646106,1195634460026732,-0.34045,-0.1827375,0.4235
1680015646108,1195634462528886,-0.347325,-0.1926375,0.426525
1680015646110,1195634465031271,-0.35145,-0.1986875,0.426525
1680015646112,1195634467533425,-0.3564,-0.21367499,0.42955
1680015646115,1195634470035651,-0.3653375,-0.2267375,0.43353748
1680015646118,1195634472537804,-0.369325,-0.23375,0.4365625
1680015646121,1195634475040266,-0.375375,-0.2476375,0.44055
1680015646124,1195634477542651,-0.386375,-0.26565,0.4455
1680015646127,1195634480044895,-0.39545,-0.2806375,0.4525125
1680015646129,1195634482547049,-0.4013625,-0.29067498,0.4555375
1680015646131,1195634485049434,-0.4093375,-0.3086875,0.46048748
1680015646133,1195634487551665,-0.419375,-0.32175,0.4695625
1680015646135,1195634490054049,-0.42845,-0.33165,0.476575
1680015646140,1195634492556252,-0.4343625,-0.34265,0.486475
1680015646142,1195634495058406,-0.4404125,-0.3496625,0.492525
1680015646143,1195634497560790,-0.452375,-0.3606625,0.5005
1680015646146,1195634500062944,-0.4563625,-0.373725,0.5105375
1680015646148,1195634502565175,-0.458425,-0.37867498,0.5234625
1680015646150,1195634505067661,-0.46145,-0.3826625,0.5344625
1680015646152,1195634507570045,-0.4643375,-0.384725,0.5484875
1680015646157,1195634510072199,-0.46145,-0.38665,0.5594875
1680015646158,1195634512574430,-0.463375,-0.38665,0.5665
1680015646160,1195634515076832,-0.4593875,-0.3856875,0.5795625
1680015646163,1195634517578986,-0.4544375,-0.3887125,0.591525
1680015646166,1195634520081217,-0.45045,-0.3837625,0.602525
1680015646167,1195634522583679,-0.446325,-0.37565,0.6155875
1680015646170,1195634525085832,-0.436425,-0.36465,0.6235625
1680015646172,1195634527588231,-0.42845,-0.356675,0.6285125
1680015646176,1195634530090385,-0.4214375,-0.3466375,0.635525
1680015646179,1195634532592616,-0.4114,-0.3337125,0.6425375
1680015646181,1195634535094991,-0.4013625,-0.3246375,0.64556247
1680015646182,1195634537597453,-0.3884375,-0.307725,0.646525
1680015646186,1195634540099607,-0.381425,-0.2957625,0.6535375
1680015646188,1195634542601838,-0.3683625,-0.2787125,0.651475
1680015646190,1195634545104222,-0.3554375,-0.2536875,0.651475
1680015646192,1195634547606376,-0.33935,-0.23375,0.652575
1680015646195,1195634550108607,-0.326425,-0.2167,0.6535375
1680015646198,1195634552610991,-0.314325,-0.19373749,0.651475
1680015646200,1195634555113222,-0.3053875,-0.1727,0.6485875
1680015646203,1195634557615400,-0.292325,-0.1617,0.6444625
1680015646206,1195634560117785,-0.2794,-0.1436875,0.641575
1680015646208,1195634562620015,-0.27335,-0.13475,0.6395125
1680015646210,1195634565122400,-0.2674375,-0.12375,0.6345625
1680015646214,1195634567624636,-0.26235,-0.114675,0.629475
1680015646217,1195634570127020,-0.260425,-0.1106875,0.6265875
1680015646218,1195634572629251,-0.2583625,-0.11165,0.6235625
1680015646220,1195634575131636,-0.260425,-0.115637496,0.619575
1680015646223,1195634577633790,-0.2644125,-0.12375,0.6224625
1680015646226,1195634580135991,-0.26633748,-0.136675,0.624525
1680015646228,1195634582638376,-0.2684,-0.14575,0.6254875
1680015646229,1195634585140607,-0.2723875,-0.1577125,0.6254875
1680015646232,1195634587642761,-0.2754125,-0.1797125,0.62755
1680015646235,1195634590145164,-0.2794,-0.1967625,0.6345625
1680015646237,1195634592647395,-0.2864125,-0.2187625,0.63855
1680015646241,1195634595149549,-0.29535,-0.2366375,0.6444625
1680015646245,1195634597651934,-0.303325,-0.2597375,0.651475
1680015646247,1195634600154404,-0.31033748,-0.2787125,0.6545
1680015646249,1195634602656635,-0.3163875,-0.3007125,0.6615125
1680015646252,1195634605158789,-0.3213375,-0.32175,0.6694875
1680015646255,1195634607661173,-0.3304125,-0.34265,0.6765
1680015646257,1195634610163351,-0.3353625,-0.3617625,0.6835125
1680015646258,1195634612665582,-0.342375,-0.3826625,0.6925875
1680015646260,1195634615167967,-0.3493875,-0.4016375,0.6985
1680015646262,1195634617670197,-0.3564,-0.41965,0.70248747
1680015646265,1195634620172582,-0.364375,-0.44275,0.707575
1680015646267,1195634622674813,-0.370425,-0.46667498,0.718575
1680015646270,1195634625176967,-0.3774375,-0.4786375,0.723525
1680015646273,1195634627679351,-0.38445,-0.4907375,0.7275125
1680015646276,1195634630181813,-0.3884375,-0.505725,0.734525
1680015646279,1195634632684054,-0.392425,-0.5157625,0.7385125
1680015646280,1195634635186207,-0.3994375,-0.5256625,0.7415375
1680015646284,1195634637688592,-0.40535,-0.53267497,0.7475875
1680015646287,1195634640190746,-0.4093375,-0.5427125,0.751575
1680015646290,1195634642692982,-0.413325,-0.5457375,0.7544625
1680015646292,1195634645195366,-0.4203375,-0.554675,0.7585875
1680015646295,1195634647697597,-0.4214375,-0.55165,0.7654625
1680015646297,1195634650199982,-0.4203375,-0.5597625,0.77055
1680015646299,1195634652702212,-0.4214375,-0.5647125,0.7695875
1680015646300,1195634655204385,-0.4203375,-0.5666375,0.7745375
1680015646303,1195634657706770,-0.419375,-0.5677375,0.78155
1680015646305,1195634660209001,-0.4214375,-0.5677375,0.7855375
1680015646307,1195634662711155,-0.419375,-0.56168747,0.789525
1680015646310,1195634665213539,-0.4184125,-0.56168747,0.7935125
1680015646312,1195634667715789,-0.4203375,-0.5597625,0.7935125
1680015646315,1195634670218251,-0.419375,-0.5537125,0.795575
1680015646318,1195634672720404,-0.4184125,-0.549725,0.7975
1680015646320,1195634675222789,-0.41635,-0.5467,0.800525
1680015646323,1195634677725020,-0.41635,-0.5357,0.800525
1680015646327,1195634680227174,-0.41635,-0.5286875,0.7995625
1680015646330,1195634682729558,-0.4153875,-0.521675,0.800525
1680015646334,1195634685231712,-0.41745,-0.510675,0.80355
1680015646338,1195634687734174,-0.4153875,-0.5017375,0.80355
1680015646340,1195634690236428,-0.41745,-0.4917,0.8045125
1680015646343,1195634692738582,-0.419375,-0.4767125,0.8014875
1680015646346,1195634695240967,-0.4203375,-0.4626875,0.805475
1680015646347,1195634697743198,-0.41745,-0.4547125,0.8075375
1680015646349,1195634700245577,-0.419375,-0.44165,0.811525
1680015646351,1195634702747808,-0.4184125,-0.42473748,0.817575
1680015646352,1195634705250193,-0.419375,-0.40865,0.822525
1680015646354,1195634707752423,-0.4224,-0.3887125,0.8265125
1680015646356,1195634710254601,-0.4233625,-0.3686375,0.833525
1680015646358,1195634712756986,-0.4214375,-0.3557125,0.8375125
1680015646360,1195634715259140,-0.4233625,-0.3397625,0.8454875
1680015646365,1195634717761606,-0.4224,-0.3227125,0.855525
1680015646367,1195634720263760,-0.419375,-0.29865,0.8635
1680015646369,1195634723011145,-0.4203375,-0.2677125,0.8705125
1680015646371,1195634725268376,-0.4153875,-0.2396625,0.8765625
1680015646373,1195634727770606,-0.413325,-0.2077625,0.883575
1680015646376,1195634730272731,-0.4074125,-0.1797125,0.888525
1680015646377,1195634732775193,-0.402325,-0.1516625,0.893475
1680015646380,1195634735277577,-0.3933875,-0.1137125,0.9004875
1680015646383,1195634737779731,-0.3873375,-0.07975,0.90255
1680015646386,1195634740281952,-0.38334998,-0.0477125,0.904475
1680015646388,1195634742784106,-0.37345,-0.015675,0.905575
1680015646391,1195634745286490,-0.3674,0.015262499,0.904475
1680015646392,1195634747788952,-0.358325,0.0482625,0.9035125
1680015646396,1195634750291106,-0.3524125,0.0812625,0.9015875
1680015646398,1195634752793352,-0.3454,0.1043625,0.8985625
1680015646401,1195634755295736,-0.337425,0.1313125,0.893475
1680015646405,1195634757797967,-0.3344,0.1552375,0.893475
1680015646407,1195634760300121,-0.3243625,0.17435,0.8905875
1680015646408,1195634762802496,-0.320375,0.19635,0.888525
1680015646410,1195634765304957,-0.31735,0.2102375,0.8845375
1680015646412,1195634767807111,-0.3114375,0.2212375,0.8855
1680015646416,1195634770309342,-0.3084125,0.2343,0.8864625
1680015646418,1195634772811496,-0.3023625,0.2432375,0.888525
1680015646420,1195634775313880,-0.298375,0.2453,0.8894875
1680015646422,1195634777816034,-0.29535,0.2462625,0.894575
1680015646425,1195634780318496,-0.292325,0.2453,0.9004875
1680015646429,1195634782820726,-0.2894375,0.2363625,0.904475
1680015646430,1195634785323121,-0.2883375,0.21835,0.91355
1680015646433,1195634787825275,-0.2904,0.20735,0.9194625
1680015646435,1195634790327506,-0.2913625,0.19635,0.926475
1680015646439,1195634792829890,-0.287375,0.176275,0.93747497
1680015646441,1195634795332126,-0.2883375,0.1502875,0.9444875
1680015646444,1195634797834511,-0.292325,0.1282875,0.9524625
1680015646446,1195634800336741,-0.2943875,0.1013375,0.9634625
1680015646448,1195634802838895,-0.3023625,0.066275,0.9735
1680015646450,1195634805341280,-0.31239998,0.033275,0.9805125
1680015646453,1195634807843424,-0.31845,0.0012375,0.9835375
1680015646456,1195634810345885,-0.32835,-0.0317625,0.9915125
1680015646458,1195634812848116,-0.34141248,-0.070675,1.0005875
1680015646464,1195634815350501,-0.35145,-0.1076625,1.0055375
1680015646464,1195634817852660,-0.364375,-0.1397,1.0085624
1680015646466,1195634820354891,-0.37235,-0.1727,1.0165375
1680015646467,1195634822857276,-0.381425,-0.21065,1.0195625
1680015646470,1195634825359430,-0.391325,-0.2426875,1.0275375
1680015646472,1195634827861876,-0.403425,-0.2756875,1.031525
1680015646477,1195634830364030,-0.4114,-0.3037375,1.0324875
1680015646479,1195634832866261,-0.41635,-0.3287625,1.0385375
1680015646480,1195634835368415,-0.4224,-0.3496625,1.042525
1680015646483,1195634837870780,-0.435325,-0.37675,1.048575
1680015646487,1195634840373011,-0.447425,-0.3966875,1.053525
1680015646488,1195634842875473,-0.4533375,-0.40974998,1.0575125
1680015646493,1195634845377627,-0.4544375,-0.42267498,1.0605375
1680015646493,1195634847880001,-0.46145,-0.4277625,1.0624624
1680015646496,1195634850382232,-0.4703875,-0.439725,1.064525
1680015646498,1195634852884617,-0.4764375,-0.4456375,1.06755
1680015646500,1195634855386770,-0.480425,-0.444675,1.0734625
1680015646504,1195634857889204,-0.4813875,-0.444675,1.0745625
1680015646506,1195634860391358,-0.4813875,-0.44165,1.0775875
1680015646508,1195634862893589,-0.4783625,-0.4387625,1.0835
1680015646510,1195634865395742,-0.480425,-0.428725,1.0874875
1680015646514,1195634867898141,-0.4774,-0.411675,1.091475
1680015646518,1195634870400372,-0.474375,-0.3887125,1.0965625
1680015646520,1195634872902833,-0.4673625,-0.36465,1.1055
1680015646522,1195634875404987,-0.46145,-0.3356375,1.1075625
1680015646525,1195634877907358,-0.4563625,-0.3086875,1.113475
1680015646529,1195634880409589,-0.4514125,-0.27775,1.1204875
1680015646530,1195634882948358,-0.44233748,-0.2487375,1.124475
1680015646531,1195634885414127,-0.436425,-0.2187625,1.1265374
1680015646533,1195634887916589,-0.42845,-0.186725,1.13355
1680015646537,1195634890418738,-0.4233625,-0.158675,1.135475
1680015646538,1195634892920968,-0.41745,-0.13365,1.135475
1680015646540,1195634895423122,-0.4114,-0.11165,1.1375375
1680015646542,1195634897925507,-0.4043875,-0.0856625,1.1405625
1680015646545,1195634900427738,-0.397375,-0.059675,1.141525
1680015646547,1195634902929910,-0.3933875,-0.037675,1.146475
1680015646552,1195634905432372,-0.38445,-0.01375,1.1504625
1680015646555,1195634907934757,-0.3784,0.006325,1.1495
1680015646556,1195634910436987,-0.3713875,0.0292875,1.1504625
1680015646559,1195634912939170,-0.3683625,0.0452375,1.1534874
1680015646560,1195634915441555,-0.3653375,0.0683375,1.1504625
1680015646563,1195634917943709,-0.36245,0.08525,1.146475
1680015646566,1195634920446170,-0.3603875,0.1062875,1.1455125
1680015646568,1195634922948324,-0.358325,0.122237496,1.1405625
1680015646572,1195634925450540,-0.3573625,0.1353,1.1375375
1680015646573,1195634927952924,-0.3564,0.1442375,1.130525
1680015646576,1195634930455078,-0.3554375,0.15235,1.1204875
1680015646578,1195634932957309,-0.35433748,0.160325,1.1125125
1680015646580,1195634935459776,-0.3554375,0.160325,1.103575
1680015646584,1195634937962160,-0.3524125,0.1593625,1.0965625
1680015646586,1195634940464314,-0.35433748,0.1593625,1.080475
1680015646591,1195634942966531,-0.353375,0.1502875,1.0734625
1680015646592,1195634945468915,-0.3603875,0.14135,1.0694749
1680015646596,1195634947971069,-0.3603875,0.138325,1.05655
1680015646597,1195634950473531,-0.364375,0.1343375,1.048575
1680015646598,1195634952975685,-0.370425,0.121275,1.0385375
1680015646600,1195634955477911,-0.37235,0.1142625,1.0355124
1680015646605,1195634957980295,-0.375375,0.1123375,1.0275375
1680015646607,1195634960482449,-0.380325,0.1032625,1.0195625
1680015646608,1195634962984680,-0.386375,0.09625,1.0175
1680015646610,1195634965487064,-0.391325,0.0842875,1.0135125
1680015646613,1195634967989535,-0.402325,0.0763125,1.0055375
1680015646616,1195634970491689,-0.4104375,0.066275,1.0025125
1680015646618,1195634972993920,-0.41635,0.05335,0.998525
1680015646620,1195634975496073,-0.4263875,0.041249998,0.9915125
1680015646623,1195634977998468,-0.435325,0.0213125,0.9854625
1680015646627,1195634980500699,-0.43945,0.0103124995,0.982575
1680015646629,1195634983003083,-0.446325,0.0012375,0.9805125
1680015646631,1195634985505314,-0.44935,-0.0077,0.9735
1680015646633,1195634988007457,-0.452375,-0.01265,0.971575
1680015646636,1195634990509842,-0.458425,-0.01375,0.96854997
1680015646638,1195634993012072,-0.458425,-0.0177375,0.96648747
1680015646640,1195634995514457,-0.463375,-0.02365,0.959475
1680015646644,1195634998016674,-0.4664,-0.0177375,0.9554875
1680015646648,1195635000519058,-0.46145,-0.010725,0.9524625
1680015646649,1195635003021289,-0.4593875,-0.0067375,0.9505375
1680015646650,1195635005523443,-0.457325,-6.875E-4,0.949575
1680015646653,1195635008025828,-0.452375,0.006325,0.9444875
1680015646656,1195635010527996,-0.45045,0.0213125,0.9444875
1680015646658,1195635013030457,-0.447425,0.0363,0.9425625
1680015646670,1195635015532688,-0.4444,0.0512875,0.9425625
1680015646671,1195635018034842,-0.4444,0.0653125,0.9405
1680015646671,1195635020537226,-0.43945,0.0803,0.9425625
1680015646671,1195635023039457,-0.4373875,0.091299996,0.943525
1680015646673,1195635025541842,-0.4404125,0.1043625,0.9414625
1680015646676,1195635028044073,-0.436425,0.113299996,0.93857497
1680015646678,1195635030546453,-0.4334,0.121275,0.93747497
1680015646679,1195635033048684,-0.4313375,0.132275,0.9304625
1680015646680,1195635035550838,-0.42845,0.149325,0.9235875
1680015646683,1195635038053222,-0.4263875,0.16225,0.9205625
1680015646686,1195635040555385,-0.424325,0.171325,0.915475
1680015646688,1195635043057616,-0.41745,0.1942875,0.90749997
1680015646690,1195635045560001,-0.40645,0.2132625,0.9004875
1680015646693,1195635048062231,-0.39833748,0.23333749,0.8925125
1680015646696,1195635050564616,-0.3884375,0.2633125,0.883575
1680015646697,1195635053066852,-0.3774375,0.281325,0.871475
1680015646702,1195635055569006,-0.3674,0.2982375,0.8644625
1680015646705,1195635058071390,-0.359425,0.3152875,0.8545625
1680015646706,1195635060573852,-0.3493875,0.3293125,0.838475
1680015646708,1195635063076001,-0.3383875,0.35227498,0.8265125
1680015646710,1195635065578231,-0.32835,0.380325,0.81455
1680015646713,1195635068080616,-0.31845,0.4002625,0.795575
1680015646716,1195635070582770,-0.31033748,0.413325,0.778525
1680015646718,1195635073085001,-0.304425,0.424325,0.7654625
1680015646720,1195635075587371,-0.292325,0.4313375,0.74855
1680015646724,1195635078089602,-0.287375,0.4362875,0.7324625
1680015646726,1195635080591987,-0.2784375,0.4332625,0.717475
1680015646728,1195635083094218,-0.2693625,0.4313375,0.6985
1680015646731,1195635085596376,-0.2613875,0.4302375,0.6785625
1680015646733,1195635088098761,-0.254375,0.4222625,0.6615125
1680015646735,1195635090601223,-0.249425,0.418275,0.6425375
1680015646739,1195635093103375,-0.24035,0.41525,0.6254875
1680015646741,1195635095605606,-0.237325,0.40535,0.607475
1680015646743,1195635098107760,-0.2344375,0.391325,0.59455
1680015646746,1195635100610145,-0.2344375,0.3752375,0.5795625
1680015646747,1195635103112375,-0.23539999,0.36025,0.563475
1680015646750,1195635105614732,-0.2363625,0.3452625,0.5545375
1680015646753,1195635108116963,-0.2393875,0.3293125,0.542575
1680015646756,1195635110619347,-0.2424125,0.3183125,0.5344625
1680015646758,1195635113121501,-0.24145,0.3012625,0.52648747
1680015646760,1195635115623746,-0.243375,0.28325,0.520575
1680015646764,1195635118126131,-0.2464,0.26633748,0.5185125
1680015646766,1195635120628361,-0.2503875,0.253275,0.5165875
1680015646768,1195635123130746,-0.254375,0.2382875,0.51755
1680015646770,1195635125632982,-0.2574,0.22935,0.51755
1680015646773,1195635128135136,-0.259325,0.22825,0.5165875
1680015646777,1195635130637520,-0.259325,0.2233,0.5165875
1680015646780,1195635133139751,-0.2613875,0.2212375,0.5215375
1680015646782,1195635135642107,-0.2644125,0.215325,0.52648747
1680015646783,1195635138144261,-0.2644125,0.2162875,0.52854997
1680015646786,1195635140646491,-0.26633748,0.2162875,0.5325375
1680015646788,1195635143148876,-0.2684,0.2223375,0.5374875
1680015646790,1195635145651030,-0.270325,0.2322375,0.53955
1680015646795,1195635148153486,-0.2723875,0.237325,0.5445
1680015646798,1195635150655717,-0.276375,0.2443375,0.5515125
1680015646799,1195635153158102,-0.2754125,0.2542375,0.5515125
1680015646800,1195635155660256,-0.2773375,0.26235,0.5545375
1680015646805,1195635158162462,-0.276375,0.270325,0.558525
1680015646807,1195635160664847,-0.276375,0.28435,0.56155
1680015646808,1195635163167078,-0.2693625,0.297275,0.56155
1680015646810,1195635165669462,-0.26633748,0.3092375,0.5665
1680015646814,1195635168171630,-0.265375,0.32725,0.5665
1680015646818,1195635170673861,-0.26235,0.33935,0.5665
1680015646820,1195635173176246,-0.2613875,0.3433375,0.5655375
1680015646822,1195635175727323,-0.2583625,0.34925,0.5655375
1680015646824,1195635178180866,-0.25245,0.35227498,0.56155
1680015646826,1195635180683097,-0.249425,0.3532375,0.558525
1680015646829,1195635183185481,-0.249425,0.3592875,0.5545375
1680015646831,1195635185687635,-0.2443375,0.3623125,0.5515125
1680015646833,1195635188189866,-0.24035,0.3642375,0.5445
1680015646835,1195635190692020,-0.23333749,0.3763375,0.5405125
1680015646838,1195635193194481,-0.2253625,0.3922875,0.5374875
1680015646840,1195635195696866,-0.2223375,0.40535,0.5344625
1680015646844,1195635198199020,-0.221375,0.4142875,0.530475
1680015646846,1195635200701285,-0.2234375,0.42734998,0.5275875
1680015646848,1195635203203439,-0.21835,0.435325,0.52648747
1680015646852,1195635205705823,-0.216425,0.44233748,0.5245625
1680015646854,1195635208208054,-0.2124375,0.4433,0.5234625
1680015646856,1195635210710506,-0.21133749,0.4533375,0.520575
1680015646858,1195635213212659,-0.2124375,0.4662625,0.5245625
1680015646860,1195635215715044,-0.2124375,0.4723125,0.525525
1680015646863,1195635218217275,-0.21133749,0.4763,0.5355625
1680015646866,1195635220719429,-0.2094125,0.4802875,0.53955
1680015646868,1195635223221808,-0.204325,0.4833125,0.5445
1680015646870,1195635225724039,-0.2003375,0.48235,0.5545375
1680015646873,1195635228226424,-0.19635,0.48427498,0.56155
1680015646876,1195635230728654,-0.1904375,0.48633748,0.57255
1680015646878,1195635233230823,-0.182325,0.4893625,0.5825875
1680015646881,1195635235733208,-0.1764125,0.49225,0.591525
1680015646884,1195635238235439,-0.1733875,0.4882625,0.6004625
1680015646886,1195635240737900,-0.172425,0.4833125,0.6095375
1680015646890,1195635243240044,-0.17435,0.4763,0.61654997
1680015646892,1195635245742429,-0.1783375,0.4673625,0.6215
1680015646895,1195635248244659,-0.182325,0.4522375,0.6224625
1680015646897,1195635250746813,-0.1783375,0.4332625,0.6224625
1680015646898,1195635253249198,-0.1843875,0.4093375,0.6205375
1680015646900,1195635255751395,-0.182325,0.3862375,0.619575
1680015646903,1195635258253779,-0.1783375,0.363275,0.6105
1680015646906,1195635260756010,-0.183425,0.3482875,0.60555
1680015646908,1195635263258164,-0.18535,0.3183125,0.5995
1680015646910,1195635265760564,-0.1874125,0.2902625,0.5955125
1680015646913,1195635268262794,-0.193325,0.2673,0.5894625
1680015646916,1195635270764948,-0.194425,0.24035,0.58355
1680015646918,1195635273267410,-0.204325,0.21133749,0.5765375
1680015646921,1195635275769813,-0.20735,0.18727499,0.57255
1680015646924,1195635278272044,-0.20845,0.1593625,0.5674625
1680015646929,1195635280774198,-0.215325,0.132275,0.5605875
1680015646931,1195635283276583,-0.2204125,0.1032625,0.5605875
1680015646931,1195635285778726,-0.2283875,0.0803,0.5564625
1680015646935,1195635288281188,-0.2344375,0.061325,0.552475
1680015646936,1195635290783342,-0.238425,0.041249998,0.5515125
1680015646938,1195635293285573,-0.24145,0.022275,0.5484875
1680015646941,1195635295787957,-0.2454375,0.011275,0.5484875
1680015646943,1195635298290111,-0.249425,0.0023375,0.5454625
1680015646946,1195635300792342,-0.25245,-0.0056375,0.5495875
1680015646948,1195635303294803,-0.2503875,-0.0067375,0.55055
1680015646950,1195635305797188,-0.243375,-0.0077,0.552475
1680015646953,1195635308299347,-0.238425,-0.0067375,0.55055
1680015646956,1195635310801578,-0.238425,-0.00275,0.55055
1680015646958,1195635313303962,-0.22935,0.0053625,0.5515125
1680015646960,1195635315806116,-0.2234375,0.0232375,0.5484875
1680015646965,1195635318308602,-0.2234375,0.028324999,0.5454625
1680015646968,1195635320809678,-0.2253625,0.0372625,0.5445
1680015646968,1195635323310757,-0.2234375,0.044275,0.541475
1680015646970,1195635325815371,-0.21945,0.050325,0.536525
1680015646973,1195635328317525,-0.2173875,0.0603625,0.5325375
1680015646976,1195635330819800,-0.215325,0.0683375,0.530475
1680015646978,1195635333322261,-0.216425,0.0732875,0.5245625
1680015646980,1195635335824646,-0.2143625,0.0842875,0.5215375
1680015646984,1195635338326800,-0.2094125,0.094325,0.519475
1680015646986,1195635340829016,-0.20735,0.10835,0.5115
1680015646988,1195635343331170,-0.2063875,0.1233375,0.509575
1680015646991,1195635345833555,-0.2014375,0.14025,0.503525
1680015646993,1195635348335786,-0.19635,0.1563375,0.4934875
1680015646996,1195635350838170,-0.1904375,0.1683,0.48455
1680015646998,1195635353340401,-0.18535,0.1793,0.4745125
1680015647002,1195635355842786,-0.18535,0.1882375,0.46254998
1680015647005,1195635358344939,-0.188375,0.2003375,0.4455
1680015647007,1195635360847170,-0.18933749,0.2123,0.4305125
1680015647009,1195635363349555,-0.19139999,0.2223375,0.41854998
1680015647011,1195635365851786,-0.18933749,0.22825,0.399575
1680015647013,1195635368354170,-0.1923625,0.242275,0.3815625
1680015647017,1195635370856401,-0.1923625,0.2523125,0.3675375
1680015647018,1195635373358540,-0.1923625,0.2542375,0.3485625
1680015647021,1195635375860925,-0.193325,0.2523125,0.3295875
1680015647025,1195635378363155,-0.1984125,0.2563,0.3125375
1680015647026,1195635380865540,-0.2063875,0.2572625,0.2935625
1680015647030,1195635383367786,-0.2124375,0.253275,0.2795375
1680015647031,1195635385869940,-0.215325,0.2523125,0.2605625
1680015647034,1195635388372324,-0.2143625,0.2563,0.2475
1680015647036,1195635390874555,-0.20735,0.2572625,0.23155
1680015647040,1195635393376940,-0.2063875,0.2553375,0.217525
1680015647041,1195635395879170,-0.2033625,0.2633125,0.2074875
1680015647046,1195635398381555,-0.2033625,0.2652375,0.195525
1680015647047,1195635400883786,-0.2003375,0.2682625,0.1854875
1680015647049,1195635403385940,-0.2033625,0.2682625,0.17655
1680015647050,1195635405888319,-0.20845,0.2712875,0.1634875
1680015647054,1195635408390473,-0.2094125,0.2783,0.15853749
1680015647056,1195635410892704,-0.2124375,0.286275,0.151525
1680015647058,1195635413395088,-0.2143625,0.2932875,0.145475
1680015647061,1195635415897343,-0.2143625,0.3042875,0.1414875
1680015647064,1195635418399728,-0.216425,0.31033748,0.13653749
1680015647066,1195635420901959,-0.215325,0.319275,0.135575
1680015647068,1195635423404112,-0.216425,0.3323375,0.134475
1680015647071,1195635425906516,-0.2143625,0.33825,0.1304875
1680015647074,1195635428408978,-0.215325,0.3433375,0.1304875
1680015647079,1195635430911131,-0.21835,0.36025,0.134475
1680015647080,1195635433413362,-0.2244,0.3782625,0.134475
1680015647081,1195635435915742,-0.2283875,0.391325,0.135575
1680015647087,1195635438417896,-0.23333749,0.40535,0.1384625
1680015647092,1195635440920127,-0.22935,0.4192375,0.140525
1680015647092,1195635443422511,-0.226325,0.435325,0.1425875
1680015647092,1195635445924742,-0.2234375,0.4613125,0.1414875
1680015647094,1195635448427127,-0.221375,0.479325,0.1395625
1680015647096,1195635450929357,-0.2143625,0.4893625,0.140525
1680015647098,1195635453431511,-0.2063875,0.50435,0.1375
1680015647100,1195635455933896,-0.2024,0.528275,0.1304875
1680015647104,1195635458436347,-0.193325,0.55935,0.1274625
1680015647106,1195635460938501,-0.1874125,0.5842375,0.1205875
1680015647108,1195635463440732,-0.1783375,0.61435,0.1115125
1680015647110,1195635465943117,-0.1684375,0.64735,0.107525
1680015647116,1195635468445275,-0.1593625,0.6752625,0.101475
1680015647118,1195635473447506,-0.15235,0.69836247,0.090475
1680015647121,1195635474808949,-0.14245,0.7293,0.080575
1680015647121,1195635476176430,-0.1384625,0.754325,0.0765875
1680015647127,1195635478454506,-0.133375,0.7733,0.069575
1680015647127,1195635480956670,-0.1233375,0.7913125,0.06655
1680015647129,1195635483458901,-0.1164625,0.8042375,0.0644875
1680015647131,1195635485961285,-0.10945,0.8152375,0.0614625
1680015647135,1195635488463516,-0.09845,0.8243125,0.0605
1680015647136,1195635490965901,-0.089375,0.8262375,0.0655875
1680015647138,1195635493468117,-0.0884125,0.8283,0.068475
1680015647140,1195635495970271,-0.0823625,0.8243125,0.0655875
1680015647144,1195635498472655,-0.0683375,0.8173,0.0644875
1680015647146,1195635500974809,-0.0594,0.8133125,0.0614625
1680015647149,1195635503477015,-0.054449998,0.80025,0.0614625
1680015647153,1195635505979476,-0.0504625,0.78223747,0.0625625
1680015647155,1195635508481861,-0.043449998,0.7662875,0.0605
1680015647157,1195635510984015,-0.0413875,0.7442875,0.0565125
1680015647159,1195635513486242,-0.040425,0.7192625,0.0515625
1680015647161,1195635515988626,-0.040425,0.70125,0.0455125
1680015647165,1195635518490857,-0.0383625,0.6813125,0.0405625
1680015647166,1195635520993242,-0.0364375,0.6513375,0.03355
1680015647168,1195635523495457,-0.0374,0.616275,0.030524999
1680015647171,1195635525997611,-0.0364375,0.5872625,0.0275
1680015647174,1195635528499996,-0.0364375,0.561275,0.0235125
1680015647176,1195635531002150,-0.0383625,0.5303375,0.0165
1680015647179,1195635533504380,-0.0383625,0.4983,0.0165
1680015647181,1195635536006842,-0.0413875,0.4662625,0.0155375
1680015647184,1195635538508996,-0.04235,0.43725,0.0185625
1680015647190,1195635541011366,-0.0444125,0.40425,0.02255
1680015647190,1195635543513597,-0.0504625,0.37235,0.02255
1680015647192,1195635546015982,-0.0554125,0.3463625,0.0275
1680015647196,1195635548518136,-0.0614625,0.3183125,0.03355
1680015647197,1195635551020597,-0.0633875,0.2883375,0.0375375
1680015647198,1195635553522751,-0.0694375,0.26235,0.0424875
1680015647202,1195635556024962,-0.07645,0.242275,0.0515625
1680015647205,1195635558527346,-0.0823625,0.21725,0.0595375
1680015647207,1195635561029500,-0.089375,0.198275,0.06655
1680015647209,1195635563531731,-0.0933625,0.1802625,0.0715
1680015647210,1195635566034116,-0.100375,0.1573,0.079475
1680015647215,1195635568536352,-0.100375,0.14025,0.082499996
1680015647216,1195635571038736,-0.1043625,0.1282875,0.08855
1680015647220,1195635573540967,-0.1123375,0.11935,0.0935
1680015647221,1195635576043121,-0.12045,0.10835,0.0955625
1680015647228,1195635578545491,-0.1254,0.10835,0.096525
1680015647229,1195635581047722,-0.13035,0.110275,0.0974875
1680015647231,1195635583550107,-0.1354375,0.110275,0.0955625
1680015647232,1195635586052338,-0.1434125,0.113299996,0.0955625
1680015647235,1195635588554722,-0.150425,0.1153625,0.0955625
1680015647236,1195635591056871,-0.15345,0.127325,0.0935
1680015647239,1195635593559102,-0.1604625,0.1362625,0.0895125
1680015647242,1195635596061256,-0.1684375,0.1353,0.0925375
1680015647245,1195635598563717,-0.1733875,0.14135,0.0864875
1680015647246,1195635601065871,-0.1794375,0.1463,0.0785125
1680015647248,1195635603568242,-0.1843875,0.143275,0.0735625
1680015647251,1195635606070472,-0.1904375,0.138325,0.0655875
1680015647255,1195635608572857,-0.19635,0.13035,0.0595375
1680015647256,1195635611075078,-0.2033625,0.1243,0.0485375
1680015647258,1195635613577462,-0.2024,0.11935,0.041525
1680015647261,1195635616079616,-0.2033625,0.10835,0.035475
1680015647266,1195635618581847,-0.2044625,0.1023,0.0275
1680015647267,1195635621084217,-0.199375,0.100237496,0.0185625
1680015647269,1195635623586447,-0.194425,0.0903375,0.01155
1680015647271,1195635626088832,-0.188375,0.0812625,0.0055
1680015647274,1195635628591063,-0.1813625,0.0782375,-4.125E-4
1680015647277,1195635631093217,-0.17435,0.072325,-0.0045375
1680015647279,1195635633595592,-0.166375,0.0702625,-0.0094875
1680015647282,1195635636097746,-0.1623875,0.0653125,-0.0114124995
1680015647284,1195635638600208,-0.1593625,0.06435,-0.0114124995
1680015647286,1195635641102439,-0.1494625,0.06325,-0.01045
1680015647288,1195635643604587,-0.14135,0.0562375,-0.013475
1680015647292,1195635646106972,-0.1364,0.05335,-0.0125124995
1680015647296,1195635648609203,-0.1263625,0.0493625,-0.0094875
1680015647298,1195635651111587,-0.1233375,0.0473,-0.0045375
1680015647299,1195635653613741,-0.1183875,0.041249998,5.5E-4
1680015647303,1195635656116203,-0.1123375,0.0372625,0.0015125
1680015647305,1195635658618434,-0.10945,0.039325,0.0045375
1680015647307,1195635661120587,-0.1054625,0.03135,0.0125124995
1680015647309,1195635663622987,-0.102437496,0.0232375,0.014575
1680015647311,1195635666125141,-0.09845,0.0323125,0.0185625
1680015647315,1195635668627372,-0.091437496,0.044275,0.02255
1680015647316,1195635671129833,-0.0853875,0.0452375,0.024475
1680015647322,1195635673631997,-0.0793375,0.044275,0.024475
1680015647323,1195635676134382,-0.078375,0.0493625,0.0265375
1680015647325,1195635678636612,-0.0724625,0.052249998,0.0275
1680015647327,1195635681138766,-0.0704,0.05335,0.0235125
1680015647329,1195635683641151,-0.0694375,0.0583,0.0215875
1680015647331,1195635686143626,-0.062425,0.0653125,0.0185625
1680015647335,1195635688645857,-0.0573375,0.0653125,0.014575
1680015647336,1195635691148011,-0.0603625,0.0672375,0.0094875
1680015647340,1195635693650396,-0.0594,0.066275,0.0075625
1680015647342,1195635696152550,-0.0584375,0.0702625,-4.125E-4
1680015647346,1195635698654780,-0.0573375,0.0683375,-4.125E-4
1680015647347,1195635701157165,-0.0573375,0.066275,-0.0034375
1680015647349,1195635703659396,-0.0573375,0.069299996,-0.01045
1680015647351,1195635706161780,-0.0603625,0.0702625,-0.0094875
1680015647354,1195635708664016,-0.0594,0.07425,-0.01045
1680015647356,1195635711166170,-0.0584375,0.0702625,-0.0125124995
1680015647358,1195635713668555,-0.0594,0.0713625,-0.018424999
1680015647362,1195635716170785,-0.0584375,0.0803,-0.019524999
1680015647365,1195635718673184,-0.0523875,0.09625,-0.019524999
1680015647366,1195635721175415,-0.051425,0.10835,-0.0235125
1680015647368,1195635723677569,-0.0463375,0.1203125,-0.0235125
1680015647371,1195635726179953,-0.040425,0.1392875,-0.0235125
1680015647374,1195635728682184,-0.0334125,0.1593625,-0.0265375
1680015647378,1195635731184324,-0.0273625,0.1813625,-0.0284625
1680015647380,1195635733686785,-0.0174625,0.2003375,-0.032449998
1680015647382,1195635736189170,-0.0114124995,0.21725,-0.032449998
1680015647384,1195635738691401,-0.007425,0.2363625,-0.035475
1680015647386,1195635741193550,-0.001375,0.2492875,-0.0345125
1680015647389,1195635743695934,0.0066,0.2602875,-0.0364375
1680015647391,1195635746198165,0.01265,0.2682625,-0.0385
1680015647394,1195635748700550,0.013612499,0.2783,-0.0385
1680015647396,1195635751202804,0.014575,0.286275,-0.0364375
1680015647398,1195635753704958,0.0155375,0.2883375,-0.029424999
1680015647402,1195635756207343,0.020624999,0.2902625,-0.0284625
1680015647404,1195635758709497,0.02365,0.2893,-0.0265375
1680015647406,1195635761211728,0.025575,0.292325,-0.018424999
1680015647409,1195635763714189,0.031625,0.2893,-0.0114124995
1680015647412,1195635766216574,0.0356125,0.2872375,-0.008525
1680015647416,1195635768718709,0.0356125,0.2803625,5.5E-4
1680015647417,1195635771220939,0.0386375,0.2803625,0.0075625
1680015647419,1195635773723324,0.0416625,0.275275,0.013475
1680015647421,1195635776225478,0.0386375,0.26633748,0.0204875
1680015647424,1195635778727939,0.0386375,0.2602875,0.0265375
1680015647426,1195635781230184,0.0386375,0.2553375,0.030524999
1680015647429,1195635783732338,0.0405625,0.248325,0.0385
1680015647431,1195635786234723,0.0416625,0.23925,0.04455
1680015647434,1195635788736877,0.042625,0.2322375,0.0515625
1680015647436,1195635791239107,0.042625,0.2272875,0.057475
1680015647438,1195635793741492,0.047575,0.2242625,0.0625625
1680015647442,1195635796243723,0.0526625,0.21835,0.06655
1680015647444,1195635798746107,0.056649998,0.2143625,0.0715
1680015647446,1195635801248357,0.058575,0.20927499,0.0765875
1680015647448,1195635803750742,0.0616,0.21133749,0.0785125
1680015647454,1195635806252896,0.0616,0.20735,0.079475
1680015647456,1195635808755126,0.0655875,0.2052875,0.079475
1680015647458,1195635811257502,0.0705375,0.204325,0.0754875
1680015647460,1195635813759733,0.0735625,0.20735,0.0705375
1680015647461,1195635816262117,0.0765875,0.2033625,0.0655875
1680015647465,1195635818764271,0.07865,0.1973125,0.0605
1680015647467,1195635821266502,0.0815375,0.1942875,0.058575
1680015647468,1195635823768887,0.0856625,0.1903,0.0545875
1680015647471,1195635826271117,0.086625,0.193325,0.052525
1680015647474,1195635828773502,0.0845625,0.1863125,0.0455125
1680015647477,1195635831275733,0.080575,0.17435,0.0405625
1680015647479,1195635833778093,0.075625,0.16225,0.036575
1680015647482,1195635836280247,0.0726,0.1533125,0.0295625
1680015647485,1195635838782478,0.0606375,0.14135,0.025575
1680015647487,1195635841284863,0.0526625,0.12925,0.0204875
1680015647490,1195635843787097,0.047575,0.122237496,0.0155375
1680015647492,1195635846289251,0.0375375,0.1153625,0.0125124995
1680015647495,1195635848791636,0.0265375,0.105325,0.0105875
1680015647497,1195635851293867,0.0196625,0.094325,0.003575
1680015647500,1195635853796021,0.0066,0.089237496,0.002475
1680015647503,1195635856298497,-0.0023375,0.0803,-0.0015125
1680015647505,1195635858800882,-0.0044,0.077275,5.5E-4
1680015647507,1195635861303112,-0.01045,0.0763125,0.002475
1680015647509,1195635863805266,-0.0133375,0.0702625,0.003575
1680015647512,1195635866307646,-0.0163625,0.069299996,0.0064625
1680015647514,1195635868809877,-0.0193875,0.0653125,0.0064625
1680015647517,1195635871312031,-0.0254375,0.06435,0.0094875
1680015647519,1195635873814492,-0.0284625,0.06435,0.0105875
1680015647522,1195635876316858,-0.032449998,0.06435,0.0204875
1680015647525,1195635878819012,-0.0353375,0.0622875,0.0235125
1680015647531,1195635881321242,-0.0353375,0.06325,0.025575
1680015647533,1195635883823396,-0.0334125,0.0583,0.0314875
1680015647535,1195635886325781,-0.0273625,0.0583,0.03355
1680015647537,1195635888828242,-0.0273625,0.0573375,0.0375375
1680015647538,1195635891330473,-0.0254375,0.0493625,0.041525
1680015647540,1195635893832627,-0.0193875,0.0433125,0.0435875
1680015647542,1195635896335012,-0.0154,0.0372625,0.047575
1680015647546,1195635898837242,-0.0133375,0.03135,0.052525
1680015647547,1195635901339396,-0.012375,0.0243375,0.05555
1680015647549,1195635903841858,-0.00935,0.022275,0.058575
1680015647553,1195635906344012,-0.0053625,0.015262499,0.0625625
1680015647555,1195635908846410,0.00165,0.0143,0.0625625
1680015647556,1195635911348641,0.0045375,0.006325,0.06655
1680015647558,1195635913850795,0.01155,0.0042625,0.0715
1680015647562,1195635916353180,0.013612499,0.0053625,0.0754875
1680015647566,1195635918855612,0.020624999,0.0012375,0.0785125
1680015647569,1195635921357766,0.0295625,-0.00165,0.080575
1680015647570,1195635923859997,0.031625,2.75E-4,0.0864875
1680015647572,1195635926362381,0.0325875,-0.00275,0.0925375
1680015647575,1195635928864598,0.0416625,-0.00275,0.0935
1680015647576,1195635931366752,0.04455,-0.00275,0.0985875
1680015647579,1195635933869137,0.047575,-0.00275,0.101475
1680015647582,1195635936371367,0.0485375,-0.00165,0.096525
1680015647584,1195635938873771,0.0515625,0.0012375,0.0974875
1680015647587,1195635941375925,0.0515625,0.0042625,0.0985875
1680015647589,1195635943878156,0.056649998,0.011275,0.096525
1680015647591,1195635946380540,0.0606375,0.0143,0.0944625
1680015647596,1195635948882752,0.0616,0.0133375,0.0944625
1680015647597,1195635951385137,0.064625,0.0182875,0.091575
1680015647599,1195635953887367,0.0636625,0.0133375,0.0864875
1680015647604,1195635956389752,0.0625625,0.011275,0.085525
1680015647606,1195635958891935,0.0616,0.0103124995,0.080575
1680015647608,1195635961498396,0.0576125,0.00825,0.0754875
1680015647611,1195635963896550,0.059675,0.0072875,0.0724625
1680015647612,1195635966398781,0.059675,0.0012375,0.0705375
1680015647615,1195635968901151,0.05555,2.75E-4,0.069575
1680015647616,1195635971403304,0.053625,-0.0077,0.0625625
1680015647619,1195635973905535,0.0496375,-0.01265,0.0565125
1680015647622,1195635976407920,0.0466125,-0.015675,0.0534875
1680015647625,1195635978910074,0.045649998,-0.026675,0.047575
1680015647627,1195635981412545,0.0416625,-0.03575,0.04455
1680015647629,1195635983914776,0.036575,-0.0427625,0.0385
1680015647631,1195635986417161,0.0356125,-0.0517,0.0325875
1680015647635,1195635988919315,0.036575,-0.0617375,0.030524999
1680015647637,1195635991421540,0.031625,-0.0697125,0.025575
1680015647641,1195635993923925,0.02365,-0.0776875,0.0215875
1680015647643,1195635996426156,0.0246125,-0.0867625,0.0215875
1680015647646,1195635998928310,0.0246125,-0.0947375,0.013475
1680015647647,1195636001430699,0.0246125,-0.1027125,0.01155
1680015647649,1195636003932930,0.02365,-0.114675,0.01155
1680015647651,1195636006435084,0.0166375,-0.115637496,0.0105875
1680015647654,1195636008937468,0.0105875,-0.1216875,0.0064625
1680015647656,1195636011439699,0.0105875,-0.1287,0.0045375
1680015647658,1195636013942161,0.009625,-0.13365,0.002475
1680015647661,1195636016444315,0.01155,-0.13475,0.003575
1680015647665,1195636018946699,0.009625,-0.1376375,0.002475
1680015647666,1195636021448930,0.0026125,-0.142725,0.003575
1680015647668,1195636023951060,0.0026125,-0.1417625,0.003575
1680015647671,1195636026453444,0.003575,-0.1376375,0.0045375
1680015647675,1195636028955675,-4.125E-4,-0.13475,0.003575
1680015647678,1195636031458060,0.003575,-0.1296625,0.0064625
1680015647680,1195636033960296,0.0066,-0.1247125,0.0105875
1680015647683,1195636036462449,0.004675,-0.117699996,0.0105875
1680015647685,1195636038964834,0.0086624995,-0.11275,0.013475
1680015647687,1195636041467065,0.01155,-0.103675,0.0155375
1680015647689,1195636043969526,0.0105875,-0.10065,0.0185625
1680015647691,1195636046471689,0.014575,-0.09075,0.019524999
1680015647694,1195636048974074,0.0185625,-0.07865,0.0204875
1680015647696,1195636051476305,0.0166375,-0.070675,0.0165
1680015647698,1195636053978459,0.0196625,-0.0627,0.0165
1680015647701,1195636056480843,0.02365,-0.0537625,0.019524999
1680015647704,1195636058983074,0.0295625,-0.0446875,0.0185625
1680015647706,1195636061485459,0.0295625,-0.0386375,0.0165
1680015647709,1195636063987689,0.0286,-0.0297,0.0155375
1680015647715,1195636066489858,0.031625,-0.015675,0.0125124995
1680015647716,1195636068992243,0.0306625,-0.0086624995,0.0125124995
1680015647718,1195636071494474,0.034649998,-0.004675,0.014575
1680015647720,1195636073996858,0.034649998,0.0103124995,0.0185625
1680015647723,1195636076499084,0.031625,0.02035,0.0204875
1680015647727,1195636079000161,0.0276375,0.03135,0.0215875
1680015647727,1195636081501238,0.026675,0.0433125,0.0235125
1680015647729,1195636084006084,0.026675,0.0473,0.0265375
1680015647731,1195636086508315,0.02255,0.0573375,0.0284625
1680015647735,1195636089010478,0.013612499,0.069299996,0.0325875
1680015647736,1195636091512862,0.0075625,0.0732875,0.035475
1680015647739,1195636094015093,0.0026125,0.0803,0.0375375
1680015647741,1195636096517247,-0.0034375,0.088275,0.0394625
1680015647745,1195636099019641,-0.0114124995,0.0983125,0.0424875
1680015647747,1195636101521872,-0.0163625,0.1032625,0.0435875
1680015647749,1195636104024257,-0.017324999,0.113299996,0.0424875
1680015647754,1195636106526488,-0.017324999,0.1332375,0.0435875
1680015647756,1195636109028623,-0.0193875,0.1472625,0.041525
1680015647758,1195636111531007,-0.017324999,0.154275,0.041525
1680015647760,1195636114033238,-0.0163625,0.171325,0.0385
1680015647763,1195636116535623,-0.0163625,0.18727499,0.0314875
1680015647765,1195636119037853,-0.0133375,0.2022625,0.025575
1680015647766,1195636121540266,-0.0083875,0.2132625,0.0185625
1680015647769,1195636124042420,-0.007425,0.22825,0.01155
1680015647771,1195636126544651,-0.007425,0.2382875,0.003575
1680015647774,1195636129046804,-0.006325,0.2473625,-0.007425
1680015647776,1195636131549247,-0.0053625,0.2523125,-0.013475
1680015647780,1195636134051632,-0.001375,0.2602875,-0.024475
1680015647782,1195636136553785,0.003575,0.2652375,-0.0345125
1680015647785,1195636139056016,0.004675,0.2673,-0.0424875
1680015647787,1195636141558401,0.0075625,0.2652375,-0.0504625
1680015647791,1195636144060632,0.0075625,0.2652375,-0.0554125
1680015647792,1195636146563016,0.0075625,0.2563,-0.0614625
1680015647797,1195636149065247,0.0075625,0.2453,-0.0664125
1680015647797,1195636151567632,0.0066,0.2343,-0.0705375
1680015647799,1195636154069785,0.0105875,0.2272875,-0.0724625
1680015647802,1195636156572016,0.0105875,0.2143625,-0.0754875
1680015647805,1195636159074170,0.0075625,0.1973125,-0.0785125
1680015647806,1195636161576555,0.0075625,0.18425,-0.079475
1680015647809,1195636164078804,0.0075625,0.1683,-0.082499996
1680015647812,1195636166581189,0.003575,0.15125,-0.084425
1680015647815,1195636169083420,-0.0044,0.1313125,-0.079475
1680015647816,1195636171585804,-0.0034375,0.1142625,-0.0785125
1680015647819,1195636174087958,-0.0034375,0.0933625,-0.079475
1680015647821,1195636176590189,-0.007425,0.072325,-0.074525
1680015647824,1195636179092651,-0.0083875,0.0493625,-0.074525
1680015647829,1195636181595035,-0.012375,0.03025,-0.0705375
1680015647830,1195636184097199,-0.0133375,0.00825,-0.068475
1680015647832,1195636186599430,-0.0144375,-0.01375,-0.068475
1680015647835,1195636189101584,-0.0144375,-0.03575,-0.06545
1680015647836,1195636191603968,-0.0144375,-0.05775,-0.063525
1680015647839,1195636194106199,-0.0154,-0.07975,-0.0605
1680015647843,1195636196608593,-0.0163625,-0.0996875,-0.0584375
1680015647846,1195636199110824,-0.0154,-0.1106875,-0.0554125
1680015647847,1195636201613208,-0.01045,-0.1247125,-0.0534875
1680015647849,1195636204115362,-0.0083875,-0.1357125,-0.0504625
1680015647851,1195636206617593,-0.007425,-0.147675,-0.051425
1680015647855,1195636209120078,-0.001375,-0.1596375,-0.0584375
1680015647856,1195636211622232,-0.0034375,-0.158675,-0.0595375
1680015647859,1195636214124617,-0.0044,-0.1596375,-0.062425
1680015647863,1195636216626771,-4.125E-4,-0.158675,-0.0675125
1680015647866,1195636219128987,0.0075625,-0.1577125,-0.0715
1680015647868,1195636221631372,0.0086624995,-0.1516625,-0.0754875
1680015647870,1195636224133603,0.009625,-0.1486375,-0.0785125
1680015647872,1195636226635987,0.01155,-0.1467125,-0.082499996
1680015647876,1195636229138213,0.01155,-0.1397,-0.08745
1680015647879,1195636231640367,0.009625,-0.1296625,-0.090475
1680015647880,1195636234142752,0.0056375,-0.125675,-0.0944625
1680015647882,1195636236644982,0.003575,-0.1197625,-0.0935
1680015647885,1195636239147367,0.00165,-0.1167375,-0.095425
1680015647887,1195636241649607,-0.0023375,-0.114675,-0.101475
1680015647889,1195636244151992,-0.0044,-0.1137125,-0.1035375
1680015647891,1195636246654145,-0.00935,-0.1137125,-0.101475
1680015647896,1195636249156376,-0.0163625,-0.115637496,-0.104499996
1680015647897,1195636251658530,-0.02035,-0.1186625,-0.1054625
1680015647899,1195636254160906,-0.028324999,-0.12375,-0.106425
1680015647905,1195636256663367,-0.032449998,-0.1266375,-0.1104125
1680015647906,1195636259165598,-0.0353375,-0.12773749,-0.1084875
1680015647908,1195636261667752,-0.043449998,-0.1296625,-0.112475
1680015647910,1195636264170160,-0.0463375,-0.13365,-0.117425
1680015647912,1195636266672391,-0.050325,-0.1376375,-0.12045
1680015647915,1195636269174545,-0.054449998,-0.1397,-0.1265
1680015647917,1195636271677007,-0.0573375,-0.1397,-0.1335125
1680015647919,1195636274179410,-0.067375,-0.142725,-0.1375
1680015647922,1195636276681564,-0.0694375,-0.1436875,-0.1445125
1680015647925,1195636279183795,-0.073425,-0.142725,-0.1555125
1680015647927,1195636281685949,-0.0823625,-0.14575,-0.162525
1680015647929,1195636284188333,-0.091437496,-0.1406625,-0.172425
1680015647932,1195636286690809,-0.100375,-0.1397,-0.1854875
1680015647935,1195636289192963,-0.1034,-0.1436875,-0.195525
1680015647936,1195636291695193,-0.111375,-0.1397,-0.2035
1680015647940,1195636294197578,-0.122375,-0.13475,-0.2124375
1680015647942,1195636296699795,-0.1343375,-0.1326875,-0.22453749
1680015647946,1195636299201949,-0.1403875,-0.1266375,-0.228525
1680015647947,1195636301704410,-0.150425,-0.114675,-0.2314125
1680015647949,1195636304206795,-0.1544125,-0.10065,-0.238425
1680015647951,1195636306708949,-0.1574375,-0.09075,-0.2454375
1680015647955,1195636309211194,-0.160325,-0.073699996,-0.2484625
1680015647956,1195636311713347,-0.16335,-0.0477125,-0.250525
1680015647959,1195636314215732,-0.1654125,-0.0276375,-0.2514875
1680015647964,1195636316717988,-0.1654125,-0.0037125,-0.2514875
1680015647965,1195636319220372,-0.1563375,0.0292875,-0.250525
1680015647967,1195636321722603,-0.14533749,0.0683375,-0.2454375
1680015647969,1195636324224988,-0.139425,0.1032625,-0.24145
1680015647973,1195636326727142,-0.1293875,0.1332375,-0.2355375
1680015647975,1195636329229357,-0.12045,0.1643125,-0.2294875
1680015647979,1195636331731742,-0.10835,0.1903,-0.2215125
1680015647980,1195636334234204,-0.0963875,0.2223375,-0.2105125
1680015647982,1195636336736357,-0.0853875,0.2492875,-0.2044625
1680015647985,1195636339238588,-0.072325,0.275275,-0.1904375
1680015647987,1195636341740742,-0.0584375,0.29535,-0.184525
1680015647989,1195636344243127,-0.0474375,0.31735,-0.1775125
1680015647992,1195636346745281,-0.0364375,0.3312375,-0.167475
1680015647995,1195636349247742,-0.0243375,0.33825,-0.1604625
1680015647997,1195636351749973,-0.012375,0.35035,-0.1574375
1680015647999,1195636354252357,-0.001375,0.35433748,-0.150425
1680015648002,1195636356754511,0.0075625,0.35035,-0.1414875
1680015648005,1195636359256717,0.01265,0.3463625,-0.139425
1680015648007,1195636361759102,0.02255,0.336325,-0.134475
1680015648009,1195636364261332,0.0295625,0.32725,-0.1274625
1680015648012,1195636366763717,0.036575,0.3113,-0.123475
1680015648016,1195636369265963,0.0405625,0.2902625,-0.112475
1680015648018,1195636371768117,0.047575,0.2762375,-0.104499996
1680015648020,1195636374270501,0.0515625,0.2553375,-0.0935
1680015648022,1195636376772655,0.0515625,0.23127499,-0.084425
1680015648025,1195636379274886,0.047575,0.2052875,-0.073425
1680015648027,1195636381777343,0.0466125,0.1793,-0.062425
1680015648030,1195636384279496,0.045649998,0.1563375,-0.0565125
1680015648031,1195636386781881,0.0435875,0.132275,-0.0424875
1680015648034,1195636389284112,0.042625,0.1032625,-0.0364375
1680015648037,1195636391786496,0.036575,0.0793375,-0.029424999
1680015648039,1195636394288669,0.036575,0.0583,-0.0224125
1680015648043,1195636396791131,0.0325875,0.0363,-0.0204875
1680015648048,1195636399293362,0.0356125,0.0133375,-0.019524999
1680015648049,1195636401795515,0.031625,-0.0056375,-0.0174625
1680015648051,1195636404297669,0.026675,-0.021724999,-0.0165
1680015648053,1195636406800054,0.025575,-0.0416625,-0.013475
1680015648056,1195636409302285,0.020624999,-0.0517,-0.0155375
1680015648057,1195636411804736,0.0166375,-0.0666875,-0.0174625
1680015648059,1195636414306890,0.015675,-0.0826375,-0.0165
1680015648062,1195636416809275,0.01265,-0.092675,-0.0174625
1680015648064,1195636419311505,0.0185625,-0.0996875,-0.0204875
1680015648066,1195636421813890,0.0185625,-0.109725,-0.0204875
1680015648070,1195636424316063,0.020624999,-0.115637496,-0.0235125
1680015648074,1195636426818524,0.0185625,-0.1197625,-0.0265375
1680015648076,1195636429320678,0.0196625,-0.125675,-0.032449998
1680015648078,1195636431822909,0.02365,-0.1326875,-0.0334125
1680015648079,1195636434325054,0.025575,-0.1376375,-0.035475
1680015648082,1195636436827439,0.0295625,-0.1406625,-0.041525
1680015648085,1195636439329669,0.0276375,-0.1486375,-0.0444125
1680015648087,1195636441832054,0.031625,-0.153725,-0.0495
1680015648091,1195636444334266,0.0356125,-0.15675,-0.054449998
1680015648093,1195636446836650,0.036575,-0.15675,-0.0614625
1680015648096,1195636449338881,0.037675,-0.15675,-0.0664125
1680015648098,1195636451841035,0.036575,-0.158675,-0.0705375
1680015648099,1195636454343420,0.034649998,-0.164725,-0.074525
1680015648102,1195636456845659,0.031625,-0.1706375,-0.082499996
1680015648105,1195636459348044,0.025575,-0.17875,-0.08745
1680015648107,1195636461850275,0.0246125,-0.18975,-0.091437496
1680015648109,1195636464352429,0.020624999,-0.20075,-0.0925375
1680015648112,1195636466854832,0.020624999,-0.208725,-0.096525
1680015648115,1195636469357063,0.0166375,-0.2176625,-0.1005125
1680015648116,1195636471859217,0.01155,-0.2256375,-0.1005125
1680015648120,1195636474361678,0.0086624995,-0.230725,-0.1005125
1680015648124,1195636476864039,0.00165,-0.2347125,-0.101475
1680015648127,1195636479366270,-0.0053625,-0.241725,-0.095425
1680015648129,1195636481868424,-0.0133375,-0.2476375,-0.095425
1680015648131,1195636484370808,-0.017324999,-0.2457125,-0.0944625
1680015648133,1195636486872962,-0.0224125,-0.2457125,-0.091437496
1680015648136,1195636489375410,-0.028324999,-0.24475,-0.0884125
1680015648138,1195636491877640,-0.034375,-0.230725,-0.085525
1680015648140,1195636494379794,-0.0364375,-0.2176625,-0.079475
1680015648142,1195636496882179,-0.0383625,-0.208725,-0.0815375
1680015648146,1195636499384347,-0.04235,-0.19167499,-0.0754875
1680015648147,1195636501886578,-0.05335,-0.1727,-0.0705375
1680015648150,1195636504389039,-0.045375,-0.1546875,-0.0664125
1680015648151,1195636506891424,-0.039325,-0.136675,-0.0664125
1680015648155,1195636509393573,-0.0374,-0.1167375,-0.0614625
1680015648157,1195636511895803,-0.0303875,-0.093637496,-0.0565125
1680015648159,1195636514398188,-0.0303875,-0.06765,-0.0504625
1680015648163,1195636516900342,-0.0303875,-0.0407,-0.046475
1680015648167,1195636519402808,-0.0303875,-0.0166375,-0.0455125
1680015648171,1195636521905039,-0.0334125,0.006325,-0.0444125
1680015648174,1195636524407193,-0.0364375,0.0292875,-0.040425
1680015648176,1195636526909578,-0.0383625,0.0473,-0.043449998
1680015648180,1195636529411732,-0.039325,0.0603625,-0.0495
1680015648181,1195636531913982,-0.04235,0.0793375,-0.0495
1680015648183,1195636534416367,-0.043449998,0.0873125,-0.0534875
1680015648185,1195636536918828,-0.040425,0.099275,-0.057475
1680015648187,1195636539420982,-0.04235,0.1123375,-0.063525
1680015648188,1195636541923203,-0.04235,0.121275,-0.0705375
1680015648189,1195636544425357,-0.043449998,0.12925,-0.0724625
1680015648192,1195636546927742,-0.043449998,0.1392875,-0.079475
1680015648196,1195636549429972,-0.043449998,0.143275,-0.082499996
1680015648198,1195636551932357,-0.0413875,0.1502875,-0.085525
1680015648199,1195636554434579,-0.0364375,0.1533125,-0.090475
1680015648205,1195636556936733,-0.034375,0.160325,-0.096525
1680015648207,1195636559439117,-0.032449998,0.1662375,-0.102437496
1680015648209,1195636562058579,-0.0264,0.1662375,-0.106425
1680015648210,1195636564443733,-0.0243375,0.1692625,-0.112475
1680015648213,1195636566945963,-0.02035,0.1722875,-0.1155
1680015648215,1195636569448117,-0.0163625,0.17435,-0.1194875
1680015648217,1195636571950502,-0.012375,0.171325,-0.1255375
1680015648219,1195636574452733,-0.00935,0.1703625,-0.1255375
1680015648222,1195636576955107,-0.00935,0.16335,-0.128425
1680015648227,1195636579457338,-0.01045,0.1552375,-0.1335125
1680015648229,1195636581959723,-0.0114124995,0.143275,-0.1354375
1680015648230,1195636584461953,-0.0133375,0.1243,-0.134475
1680015648232,1195636586964097,-0.017324999,0.1043625,-0.134475
1680015648235,1195636589466482,-0.0243375,0.0842875,-0.13145
1680015648237,1195636591968713,-0.0303875,0.06325,-0.128425
1680015648241,1195636594471097,-0.0334125,0.0452375,-0.124437496
1680015648243,1195636596973314,-0.0383625,0.0122375,-0.1225125
1680015648246,1195636599475468,-0.043449998,-0.01375,-0.113437496
1680015648248,1195636601977853,-0.045375,-0.034649998,-0.107525
1680015648249,1195636604480083,-0.0523875,-0.0636625,-0.1005125
1680015648252,1195636606982237,-0.0594,-0.08965,-0.0944625
1680015648255,1195636609484699,-0.06545,-0.1106875,-0.085525
1680015648256,1195636611987083,-0.0694375,-0.13475,-0.07645
1680015648259,1195636614489237,-0.0713625,-0.1527625,-0.0664125
1680015648262,1195636616991468,-0.0694375,-0.164725,-0.0584375
1680015648264,1195636619493863,-0.0704,-0.1747625,-0.0495
1680015648267,1195636621996016,-0.073425,-0.17765,-0.043449998
1680015648269,1195636624498478,-0.0713625,-0.1766875,-0.040425
1680015648271,1195636627000709,-0.067375,-0.1736625,-0.032449998
1680015648275,1195636629502872,-0.06545,-0.1727,-0.030524999
1680015648278,1195636632005256,-0.0594,-0.1687125,-0.0265375
1680015648280,1195636634507410,-0.056375,-0.1596375,-0.019524999
1680015648283,1195636637009641,-0.0523875,-0.14973749,-0.0204875
1680015648285,1195636639512073,-0.051425,-0.136675,-0.0155375
1680015648287,1195636642014458,-0.0493625,-0.1247125,-0.013475
1680015648289,1195636644516612,-0.0413875,-0.11275,-0.007425
1680015648292,1195636647018843,-0.0353375,-0.103675,-0.0034375
1680015648297,1195636649521227,-0.0303875,-0.08965,-0.002475
1680015648298,1195636652023376,-0.0273625,-0.0776875,-4.125E-4
1680015648300,1195636654525838,-0.0224125,-0.06765,0.0015125
1680015648303,1195636657027991,-0.0193875,-0.056649998,0.002475
1680015648305,1195636659530222,-0.017324999,-0.0477125,0.002475
1680015648307,1195636662032627,-0.0154,-0.0367125,0.002475
1680015648309,1195636664534781,-0.0154,-0.0297,0.0015125
1680015648313,1195636667037012,-0.01045,-0.02365,0.002475
1680015648317,1195636669539473,-0.0044,-0.014712499,0.0015125
1680015648319,1195636672041622,-4.125E-4,-0.0067375,-4.125E-4
1680015648321,1195636674544007,0.003575,-0.00165,0.0015125
1680015648323,1195636677046237,0.0066,0.00825,0.0015125
1680015648326,1195636679548622,0.0105875,0.0182875,-4.125E-4
1680015648328,1195636682050757,0.01155,0.03025,5.5E-4
1680015648330,1195636684552911,0.01265,0.0383625,0.0015125
1680015648332,1195636687055372,0.01265,0.052249998,0.003575
1680015648336,1195636689557603,0.013612499,0.0653125,0.002475
1680015648340,1195636692059757,0.013612499,0.0732875,0.0055
1680015648340,1195636694562107,0.01265,0.0803,0.008525
1680015648341,1195636697064338,0.009625,0.091299996,0.0064625
1680015648345,1195636699566723,0.0086624995,0.1013375,0.003575
1680015648347,1195636702068954,0.009625,0.110275,0.003575
1680015648349,1195636704571328,0.009625,0.11825,0.0105875
1680015648353,1195636707073559,0.01265,0.1263625,0.0094875
1680015648356,1195636709575713,0.015675,0.1353,0.01155
1680015648358,1195636712078097,0.013612499,0.1463,0.0125124995
1680015648359,1195636714580237,0.0166375,0.15235,0.014575
1680015648362,1195636717082699,0.0185625,0.1573,0.013475
1680015648365,1195636719584930,0.014575,0.165275,0.0125124995
1680015648367,1195636722087084,0.0185625,0.17435,0.014575
1680015648370,1195636724589468,0.0196625,0.182325,0.0185625
1680015648372,1195636727091689,0.013612499,0.18727499,0.02255
1680015648375,1195636729593843,0.015675,0.19635,0.0215875
1680015648378,1195636732096304,0.0196625,0.20625,0.0235125
1680015648380,1195636734598689,0.0215875,0.2162875,0.0265375
1680015648382,1195636737100906,0.026675,0.2303125,0.025575
1680015648387,1195636739603060,0.0325875,0.2322375,0.0265375
1680015648388,1195636742105444,0.036575,0.237325,0.0265375
1680015648393,1195636744607622,0.0396,0.23925,0.0265375
1680015648394,1195636747110084,0.0435875,0.2453,0.025575
1680015648398,1195636749612237,0.045649998,0.253275,0.0265375
1680015648398,1195636752114468,0.048675,0.2553375,0.0265375
1680015648399,1195636754616853,0.0496375,0.259325,0.024475
1680015648404,1195636757119093,0.0496375,0.259325,0.02255
1680015648406,1195636759621246,0.0515625,0.2563,0.0215875
1680015648407,1195636762123631,0.053625,0.253275,0.019524999
1680015648409,1195636764626093,0.056649998,0.2542375,0.0185625
1680015648412,1195636767128246,0.0576125,0.2542375,0.013475
1680015648415,1195636769630477,0.0526625,0.248325,0.0125124995
1680015648417,1195636772132631,0.0515625,0.242275,0.01155
1680015648419,1195636774635016,0.048675,0.2343,0.014575
1680015648422,1195636777137246,0.045649998,0.2233,0.0125124995
1680015648424,1195636779639631,0.042625,0.2162875,0.013475
1680015648428,1195636782141862,0.0396,0.2022625,0.013475
1680015648430,1195636784644246,0.036575,0.18727499,0.013475
1680015648432,1195636787146400,0.034649998,0.1722875,0.0155375
1680015648434,1195636789648617,0.026675,0.1573,0.0165
1680015648436,1195636792151002,0.0215875,0.1442375,0.0185625
1680015648439,1195636794653233,0.015675,0.1243,0.0185625
1680015648442,1195636797155617,0.01265,0.10835,0.0215875
1680015648446,1195636799657833,0.0075625,0.089237496,0.0265375
1680015648447,1195636802159987,0.00165,0.0763125,0.0284625
1680015648449,1195636804662371,-4.125E-4,0.0573375,0.0284625
1680015648452,1195636807164525,-0.0044,0.0433125,0.0325875
1680015648455,1195636809666987,-0.00935,0.028324999,0.036575
1680015648457,1195636812169233,-0.01045,0.0122375,0.0375375
1680015648459,1195636814671617,-0.0154,2.75E-4,0.0375375
1680015648462,1195636817173771,-0.0193875,-0.01375,0.0405625
1680015648468,1195636819675987,-0.0243375,-0.02475,0.0385
1680015648470,1195636822178371,-0.0273625,-0.034649998,0.0375375
1680015648470,1195636824680525,-0.0334125,-0.0446875,0.0375375
1680015648472,1195636827182987,-0.0374,-0.054725,0.035475
1680015648476,1195636829685218,-0.040425,-0.0636625,0.03355
1680015648478,1195636832187352,-0.04235,-0.0697125,0.0314875
1680015648480,1195636834689737,-0.0463375,-0.0757625,0.0295625
1680015648483,1195636837191891,-0.050325,-0.07975,0.030524999
1680015648486,1195636839694122,-0.0523875,-0.0826375,0.0265375
1680015648488,1195636842196583,-0.0523875,-0.0917125,0.024475
1680015648490,1195636844698737,-0.0523875,-0.093637496,0.02255
1680015648492,1195636847201122,-0.0573375,-0.087725,0.019524999
1680015648496,1195636849703352,-0.061325,-0.09075,0.0165
1680015648497,1195636852205737,-0.0633875,-0.092675,0.01155
1680015648499,1195636854707905,-0.067375,-0.0966625,0.0094875
1680015648504,1195636857210367,-0.0664125,-0.095699996,0.0094875
1680015648506,1195636859712597,-0.0704,-0.095699996,0.0045375
1680015648508,1195636862214751,-0.072325,-0.0947375,0.0015125
1680015648509,1195636864717184,-0.07535,-0.0977625,-0.0015125
1680015648512,1195636867219338,-0.07535,-0.0966625,-0.002475
1680015648515,1195636869721568,-0.073425,-0.095699996,-0.0045375
1680015648517,1195636872223953,-0.0774125,-0.0947375,-0.0055
1680015648520,1195636874726204,-0.078375,-0.093637496,-0.008525
1680015648522,1195636877228588,-0.0793375,-0.093637496,-0.0125124995
1680015648527,1195636879730819,-0.083325,-0.0917125,-0.0155375
1680015648529,1195636882232973,-0.084425,-0.09075,-0.0174625
1680015648531,1195636884735358,-0.0823625,-0.0856625,-0.013475
1680015648533,1195636887237828,-0.0823625,-0.0856625,-0.013475
1680015648535,1195636889739982,-0.084425,-0.07865,-0.019524999
1680015648537,1195636892242213,-0.0853875,-0.0716375,-0.0224125
1680015648541,1195636894744367,-0.083325,-0.06875,-0.0204875
1680015648543,1195636897246766,-0.0804375,-0.0587125,-0.0204875
1680015648546,1195636899748997,-0.07645,-0.0496375,-0.0165
1680015648548,1195636902251151,-0.072325,-0.034649998,-0.0165
1680015648549,1195636904753612,-0.0704,-0.02365,-0.0155375
1680015648552,1195636907255997,-0.061325,-0.0097624995,-0.01045
1680015648555,1195636909758228,-0.0594,0.006325,-0.008525
1680015648557,1195636912260382,-0.050325,0.022275,-0.007425
1680015648559,1195636914762766,-0.04235,0.039325,-0.0045375
1680015648563,1195636917264997,-0.0353375,0.0562375,-0.0015125
1680015648566,1195636919767353,-0.0243375,0.07425,-4.125E-4
1680015648567,1195636922269584,-0.0163625,0.0952875,5.5E-4
1680015648569,1195636924771737,-0.007425,0.1142625,0.003575
1680015648572,1195636927274122,-0.001375,0.1313125,0.0055
1680015648575,1195636929776266,0.0086624995,0.14533749,0.008525
1680015648581,1195636932278497,0.0075625,0.1593625,0.0094875
1680015648582,1195636934780958,0.01265,0.165275,0.01155
1680015648583,1195636937283343,0.0166375,0.17325,0.013475
1680015648585,1195636939785507,0.0215875,0.18425,0.0155375
1680015648589,1195636942287737,0.020624999,0.1942875,0.014575
1680015648590,1195636944790122,0.02365,0.193325,0.0185625
1680015648592,1195636947292276,0.025575,0.1923625,0.0215875
1680015648596,1195636949794737,0.0276375,0.1942875,0.02255
1680015648597,1195636952296886,0.026675,0.1903,0.0204875
1680015648601,1195636954799117,0.0276375,0.1802625,0.0185625
1680015648603,1195636957301502,0.0276375,0.1683,0.019524999
1680015648606,1195636959803656,0.025575,0.160325,0.0215875
1680015648607,1195636962305900,0.025575,0.1463,0.024475
1680015648609,1195636964808362,0.02365,0.13035,0.024475
1680015648612,1195636967310746,0.0215875,0.11825,0.0215875
1680015648616,1195636969812900,0.0246125,0.100237496,0.0215875
1680015648618,1195636972315136,0.0196625,0.083325,0.0235125
1680015648620,1195636974817521,0.0185625,0.06435,0.024475
1680015648622,1195636977319675,0.020624999,0.050325,0.0235125
1680015648625,1195636979821905,0.014575,0.033275,0.0215875
1680015648627,1195636982324290,0.01155,0.0182875,0.0204875
1680015648630,1195636984826521,0.01155,0.0033,0.0185625
1680015648632,1195636987328905,0.0105875,-0.01375,0.014575
1680015648635,1195636989831059,0.003575,-0.0287375,0.0105875
1680015648637,1195636992333290,0.003575,-0.0446875,0.0075625
1680015648639,1195636994835709,-4.125E-4,-0.0617375,0.0015125
1680015648643,1195636997337939,-0.0023375,-0.0716375,-4.125E-4
1680015648648,1195636999840324,-0.001375,-0.0837375,-0.0034375
1680015648648,1195637002342555,-0.0044,-0.0996875,-0.0094875
1680015648651,1195637004844944,-0.0034375,-0.11165,-0.0165
1680015648653,1195637007347098,-0.007425,-0.1186625,-0.018424999
1680015648656,1195637009849329,-0.012375,-0.1266375,-0.02145
1680015648658,1195637012351714,-0.0144375,-0.13365,-0.0265375
1680015648660,1195637014853929,-0.0163625,-0.1436875,-0.0275
1680015648662,1195637017356314,-0.017324999,-0.1486375,-0.030524999
1680015648665,1195637019858468,-0.017324999,-0.1546875,-0.0345125
1680015648667,1195637022360699,-0.017324999,-0.1546875,-0.0385
1680015648670,1195637024863083,-0.012375,-0.1546875,-0.0424875
1680015648672,1195637027365295,-0.00935,-0.1527625,-0.043449998
1680015648675,1195637029867449,-0.01045,-0.14973749,-0.0455125
1680015648677,1195637032369834,-0.0114124995,-0.1436875,-0.046475
1680015648680,1195637034872064,-0.0083875,-0.136675,-0.0534875
1680015648683,1195637037374487,-0.0034375,-0.12773749,-0.052525
1680015648686,1195637039876641,-0.0044,-0.11165,-0.054449998
1680015648688,1195637042379025,-0.0023375,-0.0996875,-0.0565125
1680015648692,1195637044881256,-4.125E-4,-0.08965,-0.0565125
1680015648695,1195637047383376,0.00165,-0.0807125,-0.0565125
1680015648698,1195637049885761,-0.0023375,-0.06875,-0.0584375
1680015648699,1195637052387914,-0.0023375,-0.05775,-0.0554125
1680015648700,1195637054890376,0.00165,-0.04675,-0.0554125
1680015648702,1195637057392607,0.00165,-0.037675,-0.057475
1680015648705,1195637059894775,0.003575,-0.02475,-0.0565125
1680015648707,1195637062397159,0.00165,-0.0116875,-0.054449998
1680015648710,1195637064899390,0.0066,-0.00275,-0.0495
1680015648713,1195637067401775,0.0066,0.00825,-0.0495
1680015648716,1195637069904000,0.009625,0.022275,-0.046475
1680015648718,1195637072406385,0.009625,0.03135,-0.0424875
1680015648720,1195637074908616,0.0086624995,0.0433125,-0.0385
1680015648723,1195637077410770,0.0105875,0.052249998,-0.0345125
1680015648726,1195637079913174,0.0166375,0.06325,-0.032449998
1680015648729,1195637082415328,0.013612499,0.069299996,-0.030524999
1680015648732,1195637084917790,0.015675,0.0793375,-0.0265375
1680015648734,1195637087419944,0.0166375,0.08635,-0.0235125
1680015648736,1195637089922174,0.015675,0.088275,-0.0204875
1680015648738,1195637092424573,0.014575,0.099275,-0.0174625
1680015648740,1195637094926804,0.014575,0.1062875,-0.0174625
1680015648742,1195637097428958,0.014575,0.1123375,-0.0174625
1680015648747,1195637099931419,0.014575,0.11825,-0.0165
1680015648750,1195637102433818,0.01155,0.11825,-0.01045
1680015648751,1195637104935972,0.01265,0.11825,-0.0055
1680015648753,1195637107438202,0.01265,0.11825,-0.0114124995
1680015648756,1195637109940356,0.01155,0.1153625,-0.0064625
1680015648757,1195637112442732,0.009625,0.110275,-0.007425
1680015648760,1195637114945193,0.0075625,0.105325,-0.01045
1680015648763,1195637117447347,0.004675,0.105325,-0.008525
1680015648767,1195637119949563,0.004675,0.09625,-0.0064625
1680015648769,1195637122451948,0.0026125,0.08525,-0.008525
1680015648771,1195637124954178,0.00165,0.0823625,-0.01045
1680015648773,1195637127456332,-0.001375,0.072325,-0.01045
1680015648775,1195637129958717,-0.0023375,0.06325,-0.0114124995
1680015648779,1195637132461188,-0.007425,0.0562375,-0.0155375
1680015648780,1195637134963342,-0.0053625,0.0543125,-0.0174625
1680015648782,1195637137465573,-4.125E-4,0.0512875,-0.0155375
1680015648785,1195637139967727,-0.001375,0.0463375,-0.0174625
1680015648787,1195637142470112,-4.125E-4,0.041249998,-0.0174625
1680015648790,1195637144972265,-4.125E-4,0.0383625,-0.0165
1680015648792,1195637147474727,0.0026125,0.0342375,-0.0174625
1680015648796,1195637149976958,0.003575,0.0253,-0.0165
1680015648799,1195637152479342,0.0056375,0.022275,-0.0174625
1680015648800,1195637154981476,0.0086624995,0.0122375,-0.019524999
1680015648804,1195637157483707,0.0066,0.006325,-0.0204875
1680015648807,1195637159986092,0.004675,-6.875E-4,-0.02145
1680015648809,1195637162717231,0.0066,-0.014712499,-0.0224125
1680015648811,1195637164990693,0.0075625,-0.0257125,-0.02145
1680015648813,1195637167492924,0.0075625,-0.034649998,-0.0235125
1680015648816,1195637169995078,0.0066,-0.04675,-0.024475
1680015648818,1195637172497462,0.0066,-0.0537625,-0.02145
1680015648820,1195637174999626,0.0086624995,-0.0636625,-0.024475
1680015648823,1195637177502088,0.0086624995,-0.06875,-0.0254375
1680015648826,1195637180004318,0.004675,-0.0776875,-0.0265375
1680015648827,1195637182506703,0.004675,-0.0837375,-0.0235125
1680015648830,1195637185008876,0.003575,-0.093637496,-0.0224125
1680015648832,1195637187511107,0.0026125,-0.095699996,-0.02145
1680015648835,1195637190013491,0.0026125,-0.092675,-0.019524999
1680015648837,1195637192515722,-4.125E-4,-0.0947375,-0.018424999
1680015648841,1195637195018126,0.00165,-0.08965,-0.0174625
1680015648843,1195637197520356,0.004675,-0.07865,-0.013475
1680015648846,1195637200022510,0.009625,-0.0666875,-0.008525
1680015648848,1195637202524895,0.0086624995,-0.0537625,-0.007425
1680015648851,1195637205027049,0.009625,-0.0386375,-0.0045375
1680015648852,1195637207529304,0.013612499,-0.0257125,-0.002475
1680015648855,1195637210031765,0.015675,-0.0067375,-4.125E-4
1680015648857,1195637212533919,0.0196625,0.0163625,5.5E-4
1680015648859,1195637215036304,0.02255,0.03025,-4.125E-4
1680015648863,1195637217538539,0.0246125,0.044275,-4.125E-4
1680015648865,1195637220040924,0.0295625,0.0672375,-4.125E-4
1680015648867,1195637222543078,0.0295625,0.0873125,-0.002475
1680015648870,1195637225045539,0.031625,0.10725,-0.0055
1680015648872,1195637227547760,0.036575,0.127325,-0.0055
1680015648875,1195637230049914,0.0306625,0.14135,-0.0055
1680015648880,1195637232552068,0.031625,0.160325,-0.0055
1680015648881,1195637235054452,0.0356125,0.171325,-0.0045375
1680015648884,1195637237556688,0.0306625,0.18535,-0.007425
1680015648887,1195637240059150,0.0276375,0.2003375,-0.008525
1680015648888,1195637242561304,0.0295625,0.21133749,-0.008525
1680015648890,1195637245063688,0.0325875,0.2193125,-0.0094875
