system_ts_ms, sensor_ts_ns, gyrX, gyrY, gyrZ
1679929888430,1109876783149116,0.0097624995,0.096525,0.0334125
1679929888431,1109876785651039,0.010725,0.1056,0.0303875
1679929888432,1109876788153160,0.014712499,0.1115125,0.029424999
1679929888435,1109876790655083,0.0158125,0.115637496,0.0273625
1679929888438,1109876793156929,0.0177375,0.1205875,0.0264
1679929888449,1109876795659083,0.0207625,0.1285625,0.023375
1679929888449,1109876798161169,0.0237875,0.1285625,0.0213125
1679929888449,1109876800663092,0.0237875,0.1285625,0.02035
1679929888450,1109876803164938,0.0237875,0.1315875,0.0213125
1679929888451,1109876805667015,0.0237875,0.1276,0.0224125
1679929888453,1109876808168938,0.021724999,0.1236125,0.0193875
1679929888455,1109876810671015,0.022824999,0.1236125,0.0193875
1679929888459,1109876813172938,0.0198,0.1255375,0.0193875
1679929888461,1109876815675015,0.016775,0.1255375,0.0193875
1679929888463,1109876818176938,0.0177375,0.1236125,0.0193875
1679929888466,1109876820679020,0.016775,0.1266375,0.0143
1679929888468,1109876823180943,0.0127875,0.129525,0.0143
1679929888470,1109876825682789,0.0077,0.129525,0.0154
1679929888473,1109876828184866,0.0077,0.130625,0.0154
1679929888479,1109876830686991,0.0077,0.1335125,0.0154
1679929888480,1109876833188837,0.005775,0.129525,0.012375
1679929888482,1109876835690760,0.005775,0.130625,0.0103124995
1679929888483,1109876838192837,8.25E-4,0.1315875,0.0154
1679929888486,1109876840694736,-0.0012375,0.1315875,0.02035
1679929888490,1109876843196583,-0.0042625,0.129525,0.0243375
1679929888495,1109876845698736,-0.00825,0.1255375,0.0224125
1679929888495,1109876848200813,-0.010175,0.119625,0.0213125
1679929888496,1109876850702727,-0.016224999,0.118525,0.0253
1679929888498,1109876853204574,-0.015262499,0.11055,0.0273625
1679929888501,1109876855706651,-0.0182875,0.0985875,0.0264
1679929888503,1109876858208574,-0.0253,0.0955625,0.0273625
1679929888505,1109876860710651,-0.027224999,0.0845625,0.028324999
1679929888511,1109876863212550,-0.0281875,0.0796125,0.029424999
1679929888511,1109876865714627,-0.0312125,0.0735625,0.0303875
1679929888513,1109876868216550,-0.038225,0.064625,0.03135
1679929888515,1109876870718627,-0.043175,0.0565125,0.0303875
1679929888518,1109876873220473,-0.044275,0.0485375,0.0323125
1679929888521,1109876875722400,-0.0452375,0.042625,0.03135
1679929888524,1109876878224554,-0.0482625,0.0345125,0.029424999
1679929888528,1109876880726631,-0.049225,0.0276375,0.028324999
1679929888530,1109876883228482,-0.0501875,0.019524999,0.029424999
1679929888532,1109876885730405,-0.049225,0.0155375,0.0303875
1679929888533,1109876888232482,-0.0501875,0.01155,0.028324999
1679929888535,1109876890734405,-0.0512875,0.003575,0.028324999
1679929888539,1109876893236482,-0.0501875,-0.001375,0.0273625
1679929888545,1109876895738415,-0.049225,-0.001375,0.0273625
1679929888545,1109876898240492,-0.049225,-0.0083875,0.0253
1679929888546,1109876900742338,-0.054175,-0.0114124995,0.0243375
1679929888549,1109876903244261,-0.0512875,-0.0144375,0.0243375
1679929888550,1109876905746338,-0.0562375,-0.0163625,0.023375
1679929888553,1109876908248478,-0.060225,-0.018424999,0.0253
1679929888555,1109876910750324,-0.055275,-0.0204875,0.023375
1679929888563,1109876913252247,-0.0572,-0.0254375,0.017324999
1679929888564,1109876915754324,-0.0583,-0.0264,0.02035
1679929888565,1109876918256242,-0.0572,-0.0334125,0.017324999
1679929888566,1109876920758088,-0.0572,-0.032449998,0.0154
1679929888569,1109876923260165,-0.0572,-0.0273625,0.0154
1679929888571,1109876925762319,-0.060225,-0.0334125,0.0154
1679929888573,1109876928264242,-0.0572,-0.032449998,0.012375
1679929888580,1109876930766073,-0.055275,-0.0314875,0.0114124995
1679929888580,1109876933268150,-0.055275,-0.0303875,0.00935
1679929888582,1109876935770073,-0.0532125,-0.029424999,0.00935
1679929888584,1109876938272150,-0.055275,-0.0273625,0.012375
1679929888585,1109876940774001,-0.055275,-0.0264,0.012375
1679929888589,1109876943276155,-0.0501875,-0.0273625,0.0103124995
1679929888594,1109876945778078,-0.0501875,-0.0254375,0.0083875
1679929888594,1109876948280155,-0.0512875,-0.024475,0.0103124995
1679929888595,1109876950781996,-0.0482625,-0.0224125,0.0103124995
1679929888600,1109876953283920,-0.0482625,-0.0264,0.0083875
1679929888602,1109876955785996,-0.0501875,-0.0193875,0.012375
1679929888604,1109876958287920,-0.0532125,-0.0174625,0.00935
1679929888606,1109876960790059,-0.0501875,-0.0163625,0.00935
1679929888613,1109876963291906,-0.0501875,-0.0154,0.00935
1679929888614,1109876965793982,-0.0532125,-0.0154,0.0114124995
1679929888615,1109876968295906,-0.054175,-0.012375,0.0133375
1679929888617,1109876970797982,-0.0501875,-0.01045,0.0143
1679929888619,1109876973299838,-0.049225,-0.01045,0.0133375
1679929888622,1109876975801761,-0.0512875,-0.0083875,0.0103124995
1679929888623,1109876978303915,-0.0473,-0.0044,0.012375
1679929888627,1109876980805991,-0.0473,-0.0064625,0.0154
1679929888629,1109876983307930,-0.0462,-0.0064625,0.0133375
1679929888631,1109876985809776,-0.0462,-0.0034375,0.0154
1679929888634,1109876988311853,-0.0482625,-0.0034375,0.0154
1679929888635,1109876990813776,-0.0473,-0.001375,0.0133375
1679929888640,1109876993315843,-0.0482625,-4.125E-4,0.0154
1679929888647,1109876995817766,-0.0482625,0.0015125,0.0143
1679929888648,1109876998319843,-0.049225,0.0056375,0.012375
1679929888649,1109877000821766,-0.0452375,0.0056375,0.012375
1679929888650,1109877003323843,-0.0473,0.003575,0.0133375
1679929888651,1109877005825703,-0.0482625,0.0075625,0.0133375
1679929888653,1109877008327626,-0.0462,0.014575,0.0133375
1679929888655,1109877010829780,-0.043175,0.0176,0.0133375
1679929888661,1109877013331857,-0.041249998,0.0215875,0.0143
1679929888662,1109877015833694,-0.041249998,0.0235125,0.0154
1679929888663,1109877018335617,-0.0402875,0.0295625,0.0133375
1679929888666,1109877020837694,-0.038225,0.030524999,0.0154
1679929888669,1109877023339617,-0.038225,0.0325875,0.0154
1679929888671,1109877025841463,-0.0391875,0.0396,0.0154
1679929888673,1109877028343617,-0.0363,0.0435875,0.0193875
1679929888679,1109877030845694,-0.0342375,0.0396,0.0193875
1679929888680,1109877033347617,-0.032175,0.04455,0.017324999
1679929888681,1109877035849477,-0.027224999,0.04455,0.0163625
1679929888686,1109877038351554,-0.027224999,0.0455125,0.0143
1679929888687,1109877040853477,-0.0262625,0.0485375,0.0154
1679929888689,1109877043355554,-0.0232375,0.0496375,0.017324999
1679929888696,1109877045857477,-0.021175,0.0455125,0.0143
1679929888697,1109877048359549,-0.0202125,0.042625,0.0154
1679929888698,1109877050861395,-0.016224999,0.0396,0.0154
1679929888699,1109877053363318,-0.0143,0.0386375,0.0163625
1679929888702,1109877055865395,-0.0132,0.036575,0.0143
1679929888703,1109877058367544,-0.010175,0.0345125,0.0154
1679929888706,1109877060869467,-0.010175,0.031625,0.0133375
1679929888711,1109877063371313,-0.010175,0.0295625,0.012375
1679929888711,1109877065873390,-0.0061875,0.0265375,0.0114124995
1679929888714,1109877068375309,-0.0072875,0.0295625,0.012375
1679929888716,1109877070877386,-0.0061875,0.0246125,0.012375
1679929888719,1109877073379309,-0.0092124995,0.020624999,0.00935
1679929888722,1109877075881386,-0.0072875,0.0155375,0.00935
1679929888727,1109877078383308,-0.00825,0.0155375,0.0114124995
1679929888728,1109877080885385,-0.00825,0.0075625,0.0103124995
1679929888729,1109877083387308,-0.0061875,0.0045375,0.0114124995
1679929888731,1109877085889385,-0.00825,0.003575,0.00935
1679929888733,1109877088391232,-0.0072875,5.5E-4,0.0103124995
1679929888735,1109877090893366,-0.00825,-0.002475,0.0114124995
1679929888739,1109877093395289,-0.00825,-0.0053625,0.012375
1679929888744,1109877095897366,-0.0092124995,-0.0094875,0.012375
1679929888745,1109877098399213,-0.010175,-0.012375,0.0103124995
1679929888746,1109877100901146,-0.0092124995,-0.013475,0.0133375
1679929888750,1109877103403223,-0.0092124995,-0.0174625,0.0133375
1679929888752,1109877105905069,-0.0092124995,-0.0163625,0.0143
1679929888754,1109877108407223,-0.010175,-0.018424999,0.0154
1679929888756,1109877110909146,-0.0092124995,-0.02145,0.0114124995
1679929888763,1109877113411223,-0.0122375,-0.018424999,0.00935
1679929888764,1109877115913069,-0.00825,-0.0204875,0.0154
1679929888765,1109877118414992,-0.00825,-0.0204875,0.012375
1679929888766,1109877120917069,-0.0072875,-0.0193875,0.00935
1679929888769,1109877123418973,-0.00825,-0.018424999,0.0083875
1679929888771,1109877125921050,-0.0072875,-0.0174625,0.00935
1679929888774,1109877128422973,-0.0042625,-0.0163625,0.0083875
1679929888781,1109877130925050,-0.0042625,-0.0144375,0.0053625
1679929888782,1109877133426987,-0.0012375,-0.013475,0.0053625
1679929888783,1109877135928833,-0.0022,-0.0094875,0.0053625
1679929888785,1109877138430910,-0.0022,-0.0083875,0.00935
1679929888786,1109877140932833,8.25E-4,-0.0083875,0.0083875
1679929888796,1109877143434987,0.0017875,-0.0064625,0.0053625
1679929888797,1109877145936833,8.25E-4,-0.0064625,0.007425
1679929888798,1109877148438910,0.0037125,-0.0064625,0.006325
1679929888799,1109877150940833,0.0037125,-0.0053625,0.0053625
1679929888800,1109877153442910,0.0048125,-0.002475,0.0083875
1679929888801,1109877155944770,0.005775,-0.002475,0.007425
1679929888803,1109877158446693,0.005775,-0.0034375,0.0053625
1679929888806,1109877160948847,0.0077,0.0015125,0.006325
1679929888813,1109877163450924,0.0077,0.0045375,0.007425
1679929888814,1109877165952857,0.0077,0.003575,0.007425
1679929888815,1109877168454703,0.010725,0.0045375,0.007425
1679929888816,1109877170956780,0.0127875,0.0056375,0.0053625
1679929888819,1109877173458703,0.0127875,0.009625,0.006325
1679929888821,1109877175960843,0.0077,0.0105875,0.007425
1679929888823,1109877178462689,0.0077,0.01155,0.006325
1679929888827,1109877180964766,0.010725,0.013612499,0.0083875
1679929888830,1109877183466689,0.010725,0.0105875,0.00935
1679929888831,1109877185968770,0.0097624995,0.01155,0.0083875
1679929888833,1109877188470693,0.0077,0.014575,0.006325
1679929888835,1109877190972539,0.005775,0.0166375,0.0083875
1679929888839,1109877193474693,0.005775,0.0155375,0.007425
1679929888841,1109877195976770,0.0048125,0.0176,0.006325
1679929888844,1109877198478669,0.00275,0.02255,0.006325
1679929888846,1109877200980515,0.00275,0.0235125,0.0044
1679929888850,1109877203482592,0.0017875,0.020624999,0.0044
1679929888851,1109877205984515,-0.0022,0.0235125,0.0044
1679929888853,1109877208486616,-0.0042625,0.0215875,0.0044
1679929888856,1109877210988540,-0.0012375,0.02255,0.001375
1679929888859,1109877213490386,-0.0022,0.0235125,4.125E-4
1679929888862,1109877215992463,-0.0072875,0.02255,0.001375
1679929888865,1109877218494382,-0.0092124995,0.020624999,4.125E-4
1679929888867,1109877220996459,-0.00825,0.019524999,4.125E-4
1679929888870,1109877223498382,-0.0103124995,0.0185625,4.125E-4
1679929888872,1109877226000459,-0.011275,0.0166375,0.001375
1679929888874,1109877228502382,-0.0092124995,0.0185625,4.125E-4
1679929888876,1109877231004479,-0.00825,0.0125124995,0.001375
1679929888879,1109877233506402,-0.0061875,0.01155,-0.00165
1679929888882,1109877236008248,-0.0103124995,0.0105875,4.125E-4
1679929888883,1109877238510402,-0.0092124995,0.0075625,0.0023375
1679929888886,1109877241012455,-0.011275,0.009625,0.001375
1679929888889,1109877243514378,-0.0092124995,0.0045375,0.001375
1679929888891,1109877246016224,-0.0132,-4.125E-4,0.001375
1679929888893,1109877248518301,-0.0103124995,0.0026125,4.125E-4
1679929888896,1109877251020224,-0.0122375,0.0045375,0.001375
1679929888899,1109877253522281,-0.0132,0.0026125,0.0033
1679929888903,1109877256024435,-0.0122375,-4.125E-4,0.0033
1679929888905,1109877258526281,-0.0132,-0.002475,0.0023375
1679929888907,1109877261028219,-0.0143,-0.002475,0.0044
1679929888910,1109877263530296,-0.0143,-0.0034375,0.0044
1679929888911,1109877266032219,-0.0122375,-0.001375,0.001375
1679929888914,1109877268534065,-0.0132,-0.0053625,4.125E-4
1679929888917,1109877271036142,-0.0122375,-0.0064625,-6.875E-4
1679929888919,1109877273538281,-0.016224999,-0.007425,4.125E-4
1679929888922,1109877276040204,-0.016224999,-0.0094875,-6.875E-4
1679929888924,1109877278542050,-0.0171875,-0.013475,-6.875E-4
1679929888926,1109877281044127,-0.0182875,-0.0114124995,-6.875E-4
1679929888929,1109877283546046,-0.01925,-0.0144375,-6.875E-4
1679929888931,1109877286048123,-0.0182875,-0.0163625,-6.875E-4
1679929888934,1109877288549969,-0.0182875,-0.0154,4.125E-4
1679929888937,1109877291052123,-0.0202125,-0.018424999,-6.875E-4
1679929888941,1109877293554065,-0.01925,-0.0204875,-6.875E-4
1679929888943,1109877296056142,-0.01925,-0.0193875,-6.875E-4
1679929888945,1109877298557988,-0.0213125,-0.0193875,-0.0026125
1679929888947,1109877301059911,-0.0213125,-0.02145,4.125E-4
1679929888950,1109877303561988,-0.0262625,-0.024475,0.001375
1679929888952,1109877306063901,-0.0232375,-0.0204875,0.0044
1679929888953,1109877308565978,-0.0253,-0.0193875,0.0033
1679929888956,1109877311067901,-0.027224999,-0.02145,-6.875E-4
1679929888959,1109877313569978,-0.0292875,-0.018424999,0.001375
1679929888961,1109877316071901,-0.0323125,-0.0154,0.0033
1679929888963,1109877318573734,-0.0312125,-0.0154,0.0023375
1679929888966,1109877321075810,-0.03025,-0.0114124995,0.001375
1679929888970,1109877323577734,-0.0323125,-0.012375,0.0023375
1679929888972,1109877326079781,-0.0323125,-0.0094875,0.0023375
1679929888974,1109877328581705,-0.0312125,-0.0064625,0.0033
1679929888977,1109877331083781,-0.0323125,-0.0034375,0.0033
1679929888980,1109877333585705,-0.033275,-0.0034375,0.0033
1679929888984,1109877336087742,-0.033275,-4.125E-4,4.125E-4
1679929888986,1109877338589589,-0.0363,5.5E-4,0.006325
1679929888987,1109877341091512,-0.0312125,0.0045375,0.0083875
1679929888990,1109877343593666,-0.0312125,0.009625,0.001375
1679929888991,1109877346095743,-0.0281875,0.0125124995,0.0044
1679929888993,1109877348597608,-0.0281875,0.019524999,0.006325
1679929888996,1109877351099531,-0.0262625,0.02255,4.125E-4
1679929889000,1109877353601608,-0.027224999,0.0215875,0.0023375
1679929889001,1109877356103531,-0.0253,0.02255,0.0023375
1679929889004,1109877358605608,-0.0232375,0.0295625,-6.875E-4
1679929889006,1109877361107531,-0.0253,0.0286,0.0023375
1679929889009,1109877363609608,-0.0242,0.0286,4.125E-4
1679929889011,1109877366111531,-0.0242,0.0286,4.125E-4
1679929889016,1109877368613637,-0.0253,0.0276375,4.125E-4
1679929889017,1109877371115483,-0.0232375,0.03355,4.125E-4
1679929889020,1109877373617406,-0.022275,0.03355,-0.00165
1679929889022,1109877376119560,-0.0232375,0.030524999,-0.004675
1679929889024,1109877378621637,-0.0262625,0.030524999,-0.003575
1679929889026,1109877381123478,-0.0232375,0.0286,-0.004675
1679929889029,1109877383625401,-0.0213125,0.0265375,-0.0026125
1679929889031,1109877386127478,-0.0253,0.0276375,-0.00165
1679929889033,1109877388629401,-0.0262625,0.0276375,-0.0056375
1679929889036,1109877391131478,-0.0242,0.0235125,-0.004675
1679929889039,1109877393633401,-0.0213125,0.0276375,-0.0056375
1679929889041,1109877396135478,-0.01925,0.02255,-0.0026125
1679929889043,1109877398637324,-0.0213125,0.0215875,-0.00165
1679929889046,1109877401139242,-0.0213125,0.020624999,-0.004675
1679929889050,1109877403641396,-0.0213125,0.019524999,-0.00165
1679929889059,1109877406143473,-0.022275,0.02255,4.125E-4
1679929889066,1109877408645319,-0.0182875,0.0176,-0.00165
1679929889067,1109877411147257,-0.0213125,0.014575,-0.00165
1679929889067,1109877413649334,-0.022275,0.013612499,-6.875E-4
1679929889067,1109877416151257,-0.0232375,0.0125124995,-6.875E-4
1679929889067,1109877418653103,-0.022275,0.01155,-0.0026125
1679929889067,1109877421155257,-0.0213125,0.009625,-0.003575
1679929889069,1109877423657353,-0.022275,0.0075625,-0.004675
1679929889071,1109877426159276,-0.0202125,0.0075625,-0.003575
1679929889073,1109877428661122,-0.0213125,0.0045375,-0.0056375
1679929889075,1109877431163199,-0.0213125,0.003575,-0.003575
1679929889079,1109877433665122,-0.0202125,0.0026125,-0.00165
1679929889082,1109877436167199,-0.0202125,0.0026125,4.125E-4
1679929889083,1109877438669122,-0.0202125,0.0026125,-0.003575
1679929889086,1109877441171199,-0.0171875,5.5E-4,-0.0026125
1679929889091,1109877443673141,-0.0182875,-0.0053625,-0.00165
1679929889093,1109877446175218,-0.0182875,-0.007425,-0.0056375
1679929889095,1109877448677141,-0.0202125,-0.0083875,-0.004675
1679929889096,1109877451178988,-0.0202125,-0.0094875,-0.003575
1679929889099,1109877453681065,-0.0182875,-0.013475,-0.0026125
1679929889102,1109877456183233,-0.022275,-0.0144375,-0.003575
1679929889103,1109877458685156,-0.0213125,-0.0163625,-0.0056375
1679929889106,1109877461187003,-0.0182875,-0.0163625,-0.003575
1679929889110,1109877463689080,-0.01925,-0.024475,-0.004675
1679929889111,1109877466191003,-0.0232375,-0.0264,-0.00165
1679929889113,1109877468693084,-0.0213125,-0.0224125,-0.00165
1679929889116,1109877471194930,-0.0202125,-0.0254375,4.125E-4
1679929889119,1109877473697084,-0.0213125,-0.0284625,-0.00165
1679929889122,1109877476199007,-0.0242,-0.029424999,-0.00165
1679929889123,1109877478701080,-0.022275,-0.0284625,-0.00165
1679929889127,1109877481203003,-0.0253,-0.0303875,-0.0026125
1679929889130,1109877483704849,-0.022275,-0.032449998,0.001375
1679929889132,1109877486206926,-0.022275,-0.032449998,-0.00165
1679929889134,1109877488708834,-0.022275,-0.0364375,-0.003575
1679929889136,1109877491210988,-0.0242,-0.0334125,-0.0026125
1679929889140,1109877493712834,-0.0232375,-0.032449998,-0.004675
1679929889142,1109877496214911,-0.0182875,-0.035475,-0.004675
1679929889144,1109877498716844,-0.0202125,-0.035475,-0.0026125
1679929889146,1109877501218921,-0.022275,-0.0334125,-6.875E-4
1679929889150,1109877503720767,-0.0171875,-0.0334125,-0.00165
1679929889151,1109877506222690,-0.0202125,-0.0334125,-0.00165
1679929889154,1109877508724844,-0.0232375,-0.029424999,-0.00165
1679929889156,1109877511226968,-0.0232375,-0.0303875,-0.0026125
1679929889159,1109877513728814,-0.0213125,-0.0264,-0.003575
1679929889161,1109877516230737,-0.01925,-0.0264,-0.003575
1679929889166,1109877518732814,-0.0213125,-0.0264,-0.004675
1679929889167,1109877521234719,-0.022275,-0.029424999,-0.0026125
1679929889170,1109877523736796,-0.0213125,-0.0284625,-0.0026125
1679929889172,1109877526238719,-0.0213125,-0.0224125,-0.003575
1679929889174,1109877528740796,-0.0182875,-0.0254375,-0.003575
1679929889176,1109877531242642,-0.01925,-0.029424999,-0.003575
1679929889179,1109877533744583,-0.0213125,-0.0264,-0.0066
1679929889183,1109877536246660,-0.0202125,-0.0264,-0.0086624995
1679929889184,1109877538748583,-0.0202125,-0.0273625,-0.0116875
1679929889186,1109877541250737,-0.0182875,-0.0314875,-0.01265
1679929889190,1109877543752569,-0.0202125,-0.032449998,-0.014575
1679929889191,1109877546254646,-0.0213125,-0.032449998,-0.014575
1679929889196,1109877548756569,-0.0213125,-0.0364375,-0.015675
1679929889200,1109877551258424,-0.0182875,-0.0364375,-0.0166375
1679929889200,1109877553760578,-0.0202125,-0.0383625,-0.0187
1679929889203,1109877556262655,-0.01925,-0.0383625,-0.0187
1679929889205,1109877558764578,-0.015262499,-0.043449998,-0.0187
1679929889207,1109877561266424,-0.0171875,-0.0413875,-0.020624999
1679929889209,1109877563768510,-0.01925,-0.0413875,-0.020624999
1679929889211,1109877566270434,-0.01925,-0.043449998,-0.0187
1679929889214,1109877568772510,-0.0202125,-0.0444125,-0.0196625
1679929889217,1109877571274434,-0.0182875,-0.0474375,-0.020624999
1679929889219,1109877573776526,-0.01925,-0.0474375,-0.0187
1679929889222,1109877576278450,-0.0213125,-0.051425,-0.0176
1679929889224,1109877578780526,-0.0213125,-0.0534875,-0.0187
1679929889226,1109877581282373,-0.022275,-0.0523875,-0.0166375
1679929889229,1109877583784310,-0.0242,-0.0554125,-0.0166375
1679929889231,1109877586286464,-0.0232375,-0.062425,-0.0187
1679929889233,1109877588788540,-0.0242,-0.067375,-0.020624999
1679929889236,1109877591290387,-0.0242,-0.0664125,-0.0176
1679929889241,1109877593792305,-0.022275,-0.068475,-0.0187
1679929889243,1109877596294382,-0.0262625,-0.0724625,-0.0196625
1679929889244,1109877598796228,-0.027224999,-0.07645,-0.0196625
1679929889247,1109877601298151,-0.0242,-0.07645,-0.0187
1679929889250,1109877603800305,-0.0262625,-0.078375,-0.0166375
1679929889251,1109877606302363,-0.0232375,-0.0804375,-0.0196625
1679929889254,1109877608804209,-0.022275,-0.0864875,-0.0246125
1679929889256,1109877611306132,-0.0242,-0.0853875,-0.02365
1679929889260,1109877613808209,-0.0292875,-0.0823625,-0.02365
1679929889262,1109877616310113,-0.0292875,-0.0814,-0.0246125
1679929889263,1109877618812190,-0.0262625,-0.0823625,-0.025575
1679929889268,1109877621314113,-0.0292875,-0.0823625,-0.026675
1679929889270,1109877623816190,-0.027224999,-0.0823625,-0.0286
1679929889272,1109877626318108,-0.0213125,-0.0834625,-0.0286
1679929889274,1109877628820185,-0.0213125,-0.0823625,-0.0286
1679929889278,1109877631322031,-0.0202125,-0.0804375,-0.0286
1679929889280,1109877633823954,-0.0182875,-0.078375,-0.0286
1679929889283,1109877636325997,-0.0182875,-0.0774125,-0.0297
1679929889284,1109877638828151,-0.0171875,-0.079475,-0.0286
1679929889286,1109877641329997,-0.01925,-0.0743875,-0.026675
1679929889289,1109877643831920,-0.0171875,-0.0713625,-0.026675
1679929889291,1109877646333997,-0.0182875,-0.0743875,-0.0286
1679929889294,1109877648835925,-0.01925,-0.0724625,-0.026675
1679929889296,1109877651338002,-0.0202125,-0.0644875,-0.0276375
1679929889300,1109877653839848,-0.022275,-0.062425,-0.026675
1679929889302,1109877656342002,-0.0213125,-0.0614625,-0.0276375
1679929889304,1109877658843930,-0.0232375,-0.057475,-0.026675
1679929889306,1109877661346007,-0.0213125,-0.0554125,-0.02365
1679929889310,1109877663847853,-0.0202125,-0.0484,-0.0226875
1679929889312,1109877666349776,-0.0202125,-0.045375,-0.0226875
1679929889315,1109877668851838,-0.01925,-0.0444125,-0.0226875
1679929889317,1109877671353761,-0.0213125,-0.0394625,-0.0226875
1679929889320,1109877673855915,-0.0213125,-0.0314875,-0.0226875
1679929889323,1109877676357761,-0.0232375,-0.029424999,-0.0226875
1679929889326,1109877678859814,-0.0253,-0.0284625,-0.0246125
1679929889327,1109877681361737,-0.0253,-0.024475,-0.0226875
1679929889330,1109877683863814,-0.0242,-0.0193875,-0.0246125
1679929889332,1109877686365660,-0.0253,-0.0154,-0.025575
1679929889334,1109877688867584,-0.027224999,-0.0144375,-0.0246125
1679929889336,1109877691369766,-0.0262625,-0.0114124995,-0.0276375
1679929889340,1109877693871843,-0.0232375,-0.0053625,-0.0286
1679929889342,1109877696373690,-0.0253,-0.0053625,-0.0297
1679929889344,1109877698875613,-0.0262625,-0.0064625,-0.0325875
1679929889347,1109877701377681,-0.0242,5.5E-4,-0.031625
1679929889349,1109877703879527,-0.0242,-4.125E-4,-0.031625
1679929889353,1109877706381681,-0.0253,-4.125E-4,-0.0356125
1679929889354,1109877708883604,-0.027224999,-0.001375,-0.0356125
1679929889356,1109877711385690,-0.0253,0.003575,-0.0356125
1679929889359,1109877713887536,-0.0253,0.0045375,-0.034649998
1679929889361,1109877716389459,-0.0253,0.0026125,-0.0336875
1679929889363,1109877718891613,-0.0253,5.5E-4,-0.036575
1679929889366,1109877721393430,-0.0253,0.003575,-0.0356125
1679929889370,1109877723895507,-0.0232375,0.0026125,-0.034649998
1679929889371,1109877726397430,-0.022275,5.5E-4,-0.0356125
1679929889373,1109877728899507,-0.0292875,-4.125E-4,-0.0336875
1679929889376,1109877731401353,-0.0292875,5.5E-4,-0.0325875
1679929889379,1109877733903276,-0.0253,-0.0034375,-0.036575
1679929889382,1109877736405430,-0.0281875,-0.007425,-0.034649998
1679929889384,1109877738907507,-0.03025,-0.01045,-0.034649998
1679929889386,1109877741409430,-0.0262625,-0.0094875,-0.0356125
1679929889390,1109877743911247,-0.0281875,-0.013475,-0.0336875
1679929889392,1109877746413324,-0.0262625,-0.0174625,-0.034649998
1679929889394,1109877748915247,-0.0281875,-0.0204875,-0.034649998
1679929889396,1109877751417401,-0.0281875,-0.0254375,-0.0336875
1679929889399,1109877753919449,-0.027224999,-0.0273625,-0.0336875
1679929889401,1109877756421295,-0.027224999,-0.0284625,-0.0356125
1679929889403,1109877758923218,-0.0292875,-0.0334125,-0.034649998
1679929889406,1109877761425295,-0.0323125,-0.032449998,-0.031625
1679929889410,1109877763927237,-0.0323125,-0.0334125,-0.0336875
1679929889411,1109877766429083,-0.0323125,-0.035475,-0.0336875
1679929889414,1109877768931237,-0.0292875,-0.0364375,-0.0336875
1679929889417,1109877771433314,-0.0312125,-0.0424875,-0.0325875
1679929889419,1109877773935251,-0.0323125,-0.0444125,-0.031625
1679929889422,1109877776437097,-0.027224999,-0.0444125,-0.0297
1679929889424,1109877778939174,-0.0253,-0.0484,-0.0286
1679929889428,1109877781441097,-0.0312125,-0.0474375,-0.0297
1679929889430,1109877783943198,-0.0292875,-0.0504625,-0.031625
1679929889433,1109877786445121,-0.0262625,-0.0554125,-0.0297
1679929889434,1109877788947198,-0.0262625,-0.0504625,-0.0336875
1679929889436,1109877791449121,-0.027224999,-0.0534875,-0.0325875
1679929889440,1109877793951203,-0.0242,-0.054449998,-0.0297
1679929889441,1109877796453049,-0.022275,-0.054449998,-0.0336875
1679929889444,1109877798954972,-0.022275,-0.054449998,-0.0336875
1679929889446,1109877801457049,-0.022275,-0.0554125,-0.034649998
1679929889450,1109877803959232,-0.0213125,-0.0594,-0.036575
1679929889451,1109877806461078,-0.022275,-0.0523875,-0.0356125
1679929889454,1109877808963001,-0.01925,-0.051425,-0.0356125
1679929889457,1109877811465078,-0.0171875,-0.0504625,-0.0356125
1679929889460,1109877813966911,-0.016224999,-0.0504625,-0.0336875
1679929889462,1109877816468834,-0.01925,-0.0534875,-0.036575
1679929889466,1109877818970911,-0.0182875,-0.0504625,-0.036575
1679929889467,1109877821473064,-0.0182875,-0.051425,-0.037675
1679929889470,1109877823974925,-0.0171875,-0.051425,-0.0407
1679929889472,1109877826476848,-0.0171875,-0.051425,-0.0396
1679929889474,1109877828978925,-0.0182875,-0.0474375,-0.0386375
1679929889477,1109877831480848,-0.016224999,-0.0444125,-0.0407
1679929889479,1109877833982694,-0.016224999,-0.0504625,-0.037675
1679929889482,1109877836484785,-0.016224999,-0.0493625,-0.037675
1679929889484,1109877838986939,-0.016224999,-0.0493625,-0.0386375
1679929889486,1109877841488862,-0.016224999,-0.0484,-0.0396
1679929889490,1109877843990939,-0.0122375,-0.046475,-0.0396
1679929889491,1109877846492781,-0.0092124995,-0.0474375,-0.037675
1679929889494,1109877848994704,-0.0061875,-0.0493625,-0.0386375
1679929889497,1109877851496781,-0.0072875,-0.051425,-0.036575
1679929889500,1109877853998704,-0.005225,-0.0504625,-0.0325875
1679929889503,1109877856500771,-0.005225,-0.054449998,-0.036575
1679929889505,1109877859002694,-0.0022,-0.054449998,-0.036575
1679929889507,1109877861504771,-2.75E-4,-0.054449998,-0.0386375
1679929889511,1109877864006694,0.0017875,-0.051425,-0.0396
1679929889512,1109877866508771,6.875E-4,-0.0594,-0.0416625
1679929889514,1109877869010622,6.875E-4,-0.0603625,-0.0407
1679929889516,1109877871512776,0.0037125,-0.0603625,-0.042625
1679929889519,1109877874014699,0.005775,-0.06545,-0.0446875
1679929889522,1109877876516776,0.0048125,-0.067375,-0.047575
1679929889523,1109877879018622,0.0048125,-0.0694375,-0.047575
1679929889527,1109877881520468,0.0048125,-0.0724625,-0.0506
1679929889530,1109877884022622,0.0067375,-0.0743875,-0.0545875
1679929889531,1109877886524545,0.0067375,-0.078375,-0.0556875
1679929889534,1109877889026627,0.0077,-0.0864875,-0.0556875
1679929889537,1109877891528550,0.0088,-0.08745,-0.058575
1679929889543,1109877894030396,0.005775,-0.0864875,-0.059675
1679929889544,1109877896532473,0.0067375,-0.090475,-0.0627
1679929889546,1109877899034400,0.0097624995,-0.0963875,-0.064625
1679929889548,1109877901536477,0.010725,-0.09845,-0.0627
1679929889551,1109877904038400,0.0077,-0.095425,-0.064625
1679929889552,1109877906540477,0.0088,-0.095425,-0.064625
1679929889554,1109877909042405,0.0088,-0.0963875,-0.06765
1679929889557,1109877911544482,0.005775,-0.0974875,-0.0686125
1679929889560,1109877914046328,0.0048125,-0.100375,-0.069575
1679929889562,1109877916548482,0.0088,-0.09845,-0.070675
1679929889564,1109877919050405,0.010725,-0.1054625,-0.06765
1679929889570,1109877921552487,0.0097624995,-0.1073875,-0.069575
1679929889570,1109877924054410,0.0077,-0.1073875,-0.0726
1679929889572,1109877926556257,0.0048125,-0.1034,-0.0726
1679929889574,1109877929058333,0.0077,-0.1054625,-0.070675
1679929889577,1109877931560228,0.010725,-0.1104125,-0.070675
1679929889580,1109877934062381,0.005775,-0.111375,-0.0726
1679929889583,1109877936564228,0.0077,-0.10945,-0.0746625
1679929889584,1109877939066304,0.0067375,-0.113437496,-0.0746625
1679929889586,1109877941568228,0.0067375,-0.1194875,-0.075625
1679929889589,1109877944070318,0.0088,-0.12045,-0.075625
1679929889591,1109877946572242,0.0077,-0.1183875,-0.0765875
1679929889594,1109877949074088,0.0097624995,-0.122375,-0.0776875
1679929889597,1109877951576242,0.0116875,-0.124437496,-0.0765875
1679929889600,1109877954078324,0.014712499,-0.1263625,-0.0765875
1679929889601,1109877956580247,0.0158125,-0.1274625,-0.0765875
1679929889604,1109877959082093,0.014712499,-0.1293875,-0.080575
1679929889607,1109877961584170,0.016775,-0.1324125,-0.0765875
1679929889610,1109877964086079,0.0177375,-0.133375,-0.0776875
1679929889611,1109877966588156,0.0198,-0.1364,-0.0776875
1679929889617,1109877969090079,0.0187,-0.1403875,-0.0826375
1679929889618,1109877971592156,0.0177375,-0.14245,-0.081675
1679929889621,1109877974094078,0.0158125,-0.1414875,-0.0836
1679929889623,1109877976595924,0.014712499,-0.1403875,-0.081675
1679929889625,1109877979098001,0.016775,-0.145475,-0.0875875
1679929889626,1109877981599924,0.0177375,-0.1483625,-0.0856625
1679929889630,1109877984102001,0.0127875,-0.1494625,-0.086625
1679929889631,1109877986603939,0.0158125,-0.1524875,-0.0886875
1679929889634,1109877989106016,0.0158125,-0.1544125,-0.08965
1679929889636,1109877991607939,0.0097624995,-0.15345,-0.0906125
1679929889640,1109877994110016,0.0088,-0.1604625,-0.091575
1679929889644,1109877996611862,0.0088,-0.166375,-0.091575
1679929889645,1109877999113785,0.0048125,-0.1744875,-0.091575
1679929889646,1109878001615862,0.0017875,-0.1703625,-0.0886875
1679929889650,1109878004118016,6.875E-4,-0.1744875,-0.0875875
1679929889653,1109878006619881,-0.0012375,-0.177375,-0.08965
1679929889655,1109878009121804,-0.0022,-0.18645,-0.08965
1679929889656,1109878011623881,-0.0022,-0.188375,-0.0847
1679929889659,1109878014125804,-0.0012375,-0.19139999,-0.0836
1679929889662,1109878016627650,-0.0061875,-0.194425,-0.0847
1679929889664,1109878019129746,-0.0042625,-0.1964875,-0.080575
1679929889667,1109878021631900,-0.00825,-0.19745,-0.081675
1679929889670,1109878024133823,-0.0061875,-0.1984125,-0.080575
1679929889672,1109878026635900,-0.0061875,-0.2024,-0.080575
1679929889674,1109878029137732,-0.0061875,-0.2044625,-0.0776875
1679929889677,1109878031639655,-0.0072875,-0.2014375,-0.0765875
1679929889684,1109878034141732,-0.0061875,-0.2033625,-0.0765875
1679929889684,1109878036643886,-0.005225,-0.20047499,-0.0726
1679929889684,1109878039145732,-0.0072875,-0.194425,-0.0746625
1679929889687,1109878041647659,-0.0061875,-0.19745,-0.075625
1679929889691,1109878044149736,-0.00825,-0.194425,-0.075625
1679929889693,1109878046651659,-0.0072875,-0.1904375,-0.0765875
1679929889694,1109878049153722,-0.0061875,-0.1854875,-0.07865
1679929889696,1109878051655645,-0.0072875,-0.183425,-0.0836
1679929889700,1109878054157722,-0.0092124995,-0.1824625,-0.0847
1679929889702,1109878056659645,-0.00825,-0.177375,-0.0875875
1679929889704,1109878059161492,-0.0042625,-0.1733875,-0.086625
1679929889707,1109878061663559,-0.0061875,-0.1733875,-0.08965
1679929889710,1109878064165482,-0.0072875,-0.167475,-0.092675
1679929889711,1109878066667635,-0.0103124995,-0.16445,-0.093637496
1679929889714,1109878069169482,-0.0092124995,-0.161425,-0.0946
1679929889717,1109878071671564,-0.0132,-0.1604625,-0.095699996
1679929889724,1109878074173487,-0.0132,-0.1604625,-0.0985875
1679929889724,1109878076675564,-0.0122375,-0.1574375,-0.097625
1679929889726,1109878079177410,-0.0143,-0.1524875,-0.0946
1679929889729,1109878081679328,-0.0182875,-0.1513875,-0.092675
1679929889732,1109878086681482,-0.01925,-0.1483625,-0.0946
1679929889734,1109878087117174,-0.0202125,-0.14739999,-0.0906125
1679929889735,1109878089185405,-0.022275,-0.145475,-0.0875875
1679929889737,1109878091687328,-0.022275,-0.144375,-0.0836
1679929889740,1109878094189429,-0.0213125,-0.144375,-0.081675
1679929889743,1109878096691275,-0.0182875,-0.144375,-0.0776875
1679929889745,1109878099193429,-0.0182875,-0.1414875,-0.0716375
1679929889746,1109878101695352,-0.0171875,-0.1384625,-0.0666875
1679929889752,1109878104197444,-0.0171875,-0.1384625,-0.0666875
1679929889752,1109878106699290,-0.015262499,-0.1354375,-0.0655875
1679929889754,1109878109201213,-0.0143,-0.128425,-0.0616
1679929889757,1109878111703290,-0.0171875,-0.1254,-0.064625
1679929889760,1109878114205213,-0.015262499,-0.124437496,-0.0627
1679929889762,1109878116707343,-0.015262499,-0.1194875,-0.0616
1679929889768,1109878119209189,-0.0171875,-0.1164625,-0.0655875
1679929889768,1109878121711266,-0.0143,-0.117425,-0.0666875
1679929889771,1109878124213189,-0.0143,-0.111375,-0.069575
1679929889775,1109878126715218,-0.0132,-0.111375,-0.070675
1679929889776,1109878129217141,-0.015262499,-0.10945,-0.06765
1679929889779,1109878131718987,-0.015262499,-0.1104125,-0.0716375
1679929889780,1109878134221141,-0.0132,-0.1104125,-0.0765875
1679929889785,1109878136723227,-0.0132,-0.10945,-0.0746625
1679929889786,1109878139225150,-0.011275,-0.1073875,-0.070675
1679929889786,1109878141726996,-0.016224999,-0.10945,-0.0716375
1679929889790,1109878144229073,-0.0122375,-0.1104125,-0.0746625
1679929889791,1109878146730996,-0.0122375,-0.1084875,-0.0726
1679929889794,1109878149233073,-0.0072875,-0.10945,-0.0726
1679929889797,1109878151734968,-0.00825,-0.111375,-0.075625
1679929889800,1109878154237045,-0.0103124995,-0.10945,-0.0765875
1679929889803,1109878156738968,-0.0092124995,-0.1104125,-0.0726
1679929889805,1109878159241045,-0.00825,-0.117425,-0.0746625
1679929889807,1109878161742958,-0.0061875,-0.1164625,-0.073699996
1679929889810,1109878164244804,-0.0061875,-0.117425,-0.0726
1679929889813,1109878166746881,-0.00715,-0.12045,-0.070675
1679929889814,1109878169249035,-2.75E-4,-0.124437496,-0.070675
1679929889817,1109878171750958,8.25E-4,-0.1274625,-0.073699996
1679929889820,1109878174252794,-2.75E-4,-0.13145,-0.0686125
1679929889822,1109878176754871,-0.0012375,-0.134475,-0.06765
1679929889824,1109878179256795,-0.0012375,-0.134475,-0.0686125
1679929889827,1109878181758871,-2.75E-4,-0.1364,-0.0666875
1679929889830,1109878184260689,-2.75E-4,-0.145475,-0.0655875
1679929889832,1109878186762842,8.25E-4,-0.1464375,-0.0655875
1679929889834,1109878189264766,-0.0012375,-0.1494625,-0.0686125
1679929889837,1109878191766842,-0.00715,-0.15345,-0.0686125
1679929889841,1109878194268689,-0.0061875,-0.1544125,-0.0655875
1679929889845,1109878196770612,-0.005225,-0.15345,-0.0655875
1679929889846,1109878199272689,-0.005225,-0.155375,-0.0666875
1679929889847,1109878201774545,-0.00825,-0.1584,-0.0655875
1679929889852,1109878204276699,-0.0061875,-0.1584,-0.0627
1679929889852,1109878206778622,-0.00715,-0.1584,-0.0655875
1679929889854,1109878209280699,-0.010175,-0.1574375,-0.064625
1679929889856,1109878211782545,-0.0132,-0.1574375,-0.0655875
1679929889860,1109878214284454,-0.016224999,-0.1544125,-0.0627
1679929889862,1109878216786608,-0.015262499,-0.1544125,-0.0627
1679929889865,1109878219288454,-0.0122375,-0.15345,-0.0606375
1679929889867,1109878221790531,-0.015262499,-0.150425,-0.059675
1679929889870,1109878224292468,-0.015262499,-0.145475,-0.0576125
1679929889872,1109878226794545,-0.0122375,-0.1403875,-0.0556875
1679929889874,1109878229296468,-0.0122375,-0.1384625,-0.0545875
1679929889878,1109878231798545,-0.014162499,-0.134475,-0.0526625
1679929889881,1109878234300487,-0.010175,-0.128425,-0.0526625
1679929889884,1109878236802564,-0.00825,-0.122375,-0.0496375
1679929889885,1109878239304487,-0.0092124995,-0.1164625,-0.0435875
1679929889887,1109878241806333,-0.0061875,-0.112475,-0.0435875
1679929889889,1109878244308410,-0.0042625,-0.101475,-0.0435875
1679929889891,1109878246810333,-0.0042625,-0.0933625,-0.0416625
1679929889894,1109878249312487,-0.0022,-0.0884125,-0.0435875
1679929889897,1109878251814333,-0.0042625,-0.079475,-0.048675
1679929889900,1109878254316410,-0.0012375,-0.0694375,-0.0517
1679929889902,1109878256818358,0.0017875,-0.06435,-0.053625
1679929889904,1109878259320204,8.25E-4,-0.054449998,-0.0556875
1679929889906,1109878261822281,8.25E-4,-0.0493625,-0.059675
1679929889910,1109878264324435,-0.0012375,-0.04235,-0.0655875
1679929889912,1109878266826348,0.0017875,-0.034375,-0.069575
1679929889916,1109878269328194,-0.0012375,-0.03135,-0.06765
1679929889918,1109878271830271,-0.0022,-0.0224125,-0.0726
1679929889921,1109878274332194,-0.0012375,-0.0193875,-0.0746625
1679929889923,1109878276834267,-0.0042625,-0.012375,-0.075625
1679929889925,1109878279336113,0.00275,-0.00935,-0.080575
1679929889927,1109878281838267,0.00385,-0.00935,-0.080575
1679929889930,1109878284340190,0.0017875,-0.0044,-0.081675
1679929889931,1109878286842267,0.00385,-0.0044,-0.080575
1679929889934,1109878289344113,0.0017875,-0.002475,-0.080575
1679929889937,1109878291846037,0.0017875,-0.0064625,-0.081675
1679929889939,1109878294348113,0.0017875,-0.00935,-0.0776875
1679929889942,1109878296850037,0.00275,-0.00935,-0.0765875
1679929889944,1109878299352161,8.25E-4,-0.012375,-0.0765875
1679929889947,1109878301854085,-0.0022,-0.0193875,-0.0765875
1679929889950,1109878304356161,-0.0061875,-0.0264,-0.075625
1679929889953,1109878306858075,-0.0061875,-0.0364375,-0.073699996
1679929889955,1109878309359921,-0.00825,-0.046475,-0.0726
1679929889957,1109878311861998,-0.0132,-0.0523875,-0.0746625
1679929889959,1109878314363921,-0.0122375,-0.0633875,-0.070675
1679929889962,1109878316866075,-0.0171875,-0.068475,-0.0716375
1679929889965,1109878319368162,-0.01815,-0.07645,-0.073699996
1679929889967,1109878321870008,-0.0202125,-0.090475,-0.070675
1679929889970,1109878324371931,-0.0251625,-0.102437496,-0.069575
1679929889972,1109878326874008,-0.0232375,-0.10945,-0.0686125
1679929889975,1109878329375955,-0.0232375,-0.1214125,-0.070675
1679929889977,1109878331878032,-0.022275,-0.1324125,-0.06765
1679929889981,1109878334379955,-0.022275,-0.1364,-0.06765
1679929889984,1109878336882032,-0.022275,-0.1483625,-0.069575
1679929889985,1109878339383945,-0.022275,-0.1604625,-0.06765
1679929889987,1109878341885791,-0.0232375,-0.1684375,-0.06765
1679929889992,1109878344387868,-0.0232375,-0.1764125,-0.06765
1679929889993,1109878346889791,-0.0232375,-0.183425,-0.06765
1679929889994,1109878349391868,-0.022275,-0.19139999,-0.069575
1679929889997,1109878351894051,-0.0232375,-0.19745,-0.0686125
1679929890000,1109878354395897,-0.0242,-0.2044625,-0.0655875
1679929890002,1109878356897820,-0.0262625,-0.20845,-0.070675
1679929890004,1109878359399897,-0.027224999,-0.2173875,-0.0716375
1679929890007,1109878361901805,-0.0262625,-0.2253625,-0.070675
1679929890010,1109878364403651,-0.03025,-0.233475,-0.073699996
1679929890012,1109878366905728,-0.032175,-0.2374625,-0.0726
1679929890014,1109878369407882,-0.032175,-0.2424125,-0.0716375
1679929890017,1109878371909776,-0.032175,-0.25135,-0.070675
1679929890020,1109878374411622,-0.0342375,-0.2594625,-0.073699996
1679929890022,1109878376913699,-0.0391875,-0.265375,-0.0726
1679929890025,1109878379415622,-0.041249998,-0.271425,-0.0716375
1679929890028,1109878381917680,-0.04015,-0.277475,-0.06765
1679929890031,1109878384419603,-0.04015,-0.28435,-0.0686125
1679929890034,1109878386921680,-0.04015,-0.2894375,-0.0666875
1679929890035,1109878389423603,-0.0422125,-0.2943875,-0.064625
1679929890037,1109878391925449,-0.0422125,-0.3004375,-0.0606375
1679929890040,1109878394427536,-0.0391875,-0.304425,-0.059675
1679929890041,1109878396929690,-0.033275,-0.30635,-0.056649998
1679929890044,1109878399431536,-0.033275,-0.31239998,-0.053625
1679929890046,1109878401933459,-0.033275,-0.3144625,-0.0526625
1679929890050,1109878404435550,-0.03025,-0.315425,-0.0517
1679929890051,1109878406937473,-0.032175,-0.3133625,-0.0506
1679929890054,1109878409439550,-0.0342375,-0.309375,-0.0526625
1679929890057,1109878411941397,-0.027224999,-0.309375,-0.048675
1679929890060,1109878414443564,-0.027224999,-0.3023625,-0.0517
1679929890063,1109878416945487,-0.027224999,-0.29741248,-0.053625
1679929890066,1109878419447564,-0.0232375,-0.29645,-0.053625
1679929890067,1109878421949487,-0.0242,-0.2924625,-0.0576125
1679929890071,1109878424451344,-0.0232375,-0.287375,-0.059675
1679929890073,1109878426953421,-0.021175,-0.2794,-0.0606375
1679929890075,1109878429455344,-0.0202125,-0.271425,-0.064625
1679929890077,1109878431957497,-0.01925,-0.265375,-0.0666875
1679929890080,1109878434459354,-0.0202125,-0.26235,-0.0666875
1679929890082,1109878436961431,-0.01925,-0.254375,-0.0666875
1679929890085,1109878439463354,-0.01925,-0.2473625,-0.0686125
1679929890088,1109878441965431,-0.0171875,-0.24145,-0.0686125
1679929890090,1109878444467373,-0.01815,-0.233475,-0.070675
1679929890091,1109878446969450,-0.0171875,-0.227425,-0.070675
1679929890095,1109878449471373,-0.014162499,-0.221375,-0.069575
1679929890097,1109878451973450,-0.0132,-0.216425,-0.069575
1679929890100,1109878454475378,-0.014162499,-0.2143625,-0.070675
1679929890104,1109878456977224,-0.014162499,-0.20845,-0.0655875
1679929890106,1109878459479301,-0.015262499,-0.2024,-0.06765
1679929890108,1109878461981224,-0.011275,-0.199375,-0.06765
1679929890110,1109878464483349,-0.0132,-0.194425,-0.0666875
1679929890112,1109878466985195,-0.014162499,-0.188375,-0.0666875
1679929890114,1109878469487272,-0.0132,-0.1843875,-0.059675
1679929890117,1109878471989195,-0.0132,-0.1804,-0.0606375
1679929890119,1109878474491041,-0.0132,-0.17545,-0.0606375
1679929890123,1109878476993132,-0.0132,-0.1703625,-0.059675
1679929890125,1109878479495055,-0.014162499,-0.1694,-0.058575
1679929890127,1109878481997209,-0.014162499,-0.16445,-0.0576125
1679929890130,1109878484499055,-0.01815,-0.1544125,-0.0556875
1679929890132,1109878487001142,-0.01815,-0.15345,-0.056649998
1679929890135,1109878489503065,-0.01815,-0.145475,-0.0556875
1679929890137,1109878492005142,-0.016224999,-0.14135,-0.0545875
1679929890141,1109878494506988,-0.014162499,-0.1364,-0.0545875
1679929890143,1109878497008911,-0.016224999,-0.133375,-0.0517
1679929890145,1109878499511065,-0.0122375,-0.1293875,-0.0496375
1679929890147,1109878502013142,-0.014162499,-0.11935,-0.048675
1679929890150,1109878504514988,-0.0122375,-0.113437496,-0.047575
1679929890151,1109878507016911,-0.011275,-0.10945,-0.047575
1679929890154,1109878509518973,-0.0132,-0.1043625,-0.0435875
1679929890158,1109878512020896,-0.011275,-0.102437496,-0.042625
1679929890160,1109878514522973,-0.0132,-0.09735,-0.042625
1679929890162,1109878517024896,-0.0092124995,-0.091437496,-0.0386375
1679929890165,1109878519526940,-0.0092124995,-0.08635,-0.0356125
1679929890167,1109878522028863,-0.010175,-0.0814,-0.0356125
1679929890170,1109878524530709,-0.00715,-0.078375,-0.0336875
1679929890172,1109878527032786,-0.011275,-0.0724625,-0.031625
1679929890174,1109878529534723,-0.010175,-0.067375,-0.031625
1679929890179,1109878532036800,-0.011275,-0.06545,-0.0276375
1679929890185,1109878534538954,-0.011275,-0.0614625,-0.026675
1679929890185,1109878537040800,-0.0092124995,-0.0633875,-0.026675
1679929890186,1109878539542767,-0.0092124995,-0.0603625,-0.0246125
1679929890188,1109878542044843,-0.0092124995,-0.0614625,-0.02365
1679929890191,1109878544546690,-0.011275,-0.0584375,-0.026675
1679929890192,1109878547048613,-0.011275,-0.057475,-0.0215875
1679929890195,1109878549550690,-0.015262499,-0.054449998,-0.0215875
1679929890197,1109878552052661,-0.016224999,-0.0554125,-0.02365
1679929890200,1109878554554738,-0.01815,-0.0554125,-0.020624999
1679929890202,1109878557056661,-0.01815,-0.0554125,-0.020624999
1679929890204,1109878559558738,-0.01925,-0.051425,-0.020624999
1679929890207,1109878562060632,-0.01815,-0.0504625,-0.0187
1679929890210,1109878564562709,-0.022275,-0.051425,-0.0187
1679929890212,1109878567064632,-0.0232375,-0.0493625,-0.0176
1679929890217,1109878569566709,-0.01925,-0.0484,-0.015675
1679929890218,1109878572068522,-0.0171875,-0.045375,-0.0116875
1679929890220,1109878574570445,-0.0171875,-0.043449998,-0.0086624995
1679929890223,1109878577072522,-0.0171875,-0.0413875,-0.0086624995
1679929890225,1109878579574676,-0.01815,-0.035475,-0.0086624995
1679929890227,1109878582076522,-0.0171875,-0.0364375,-0.0077
1679929890230,1109878584578416,-0.015262499,-0.032449998,-0.0066
1679929890232,1109878587080493,-0.014162499,-0.0284625,-0.004675
1679929890235,1109878589582416,-0.016224999,-0.024475,-0.003575
1679929890239,1109878592084493,-0.014162499,-0.018424999,-0.003575
1679929890240,1109878594586290,-0.0122375,-0.0144375,-0.004675
1679929890242,1109878597088444,-0.011275,-0.012375,-0.003575
1679929890244,1109878599590367,-0.0132,-0.00935,-0.0026125
1679929890248,1109878602092444,-0.014162499,-0.0034375,-0.0026125
1679929890250,1109878604594295,-0.014162499,-4.125E-4,-0.00165
1679929890254,1109878607096218,-0.0132,0.0045375,-6.875E-4
1679929890255,1109878609598295,-0.0132,0.0075625,4.125E-4
1679929890259,1109878612100449,-0.0132,0.01155,-6.875E-4
1679929890261,1109878614602357,-0.0122375,0.013612499,-6.875E-4
1679929890266,1109878617104203,-0.010175,0.0166375,-6.875E-4
1679929890267,1109878619606280,-0.011275,0.0185625,0.0023375
1679929890268,1109878622108203,-0.010175,0.019524999,0.0033
1679929890270,1109878624610280,-0.0042625,0.0215875,0.0023375
1679929890272,1109878627112126,-0.010175,0.0276375,0.0044
1679929890276,1109878629614280,-0.010175,0.0246125,0.001375
1679929890278,1109878632116203,-0.0061875,0.0265375,0.0033
1679929890280,1109878634618280,-0.010175,0.0295625,0.006325
1679929890282,1109878637120222,-0.0132,0.0246125,0.007425
1679929890284,1109878639622068,-0.010175,0.0286,0.006325
1679929890287,1109878642124145,-0.0092124995,0.0246125,0.007425
1679929890292,1109878644626068,-0.0092124995,0.0215875,0.0083875
1679929890293,1109878647128126,-0.00715,0.02255,0.0114124995
1679929890295,1109878649630049,-0.005225,0.0215875,0.012375
1679929890298,1109878652132126,-0.0042625,0.0176,0.0154
1679929890300,1109878654634049,-0.0042625,0.020624999,0.0154
1679929890304,1109878657135896,-2.75E-4,0.0166375,0.0163625
1679929890308,1109878659637978,-2.75E-4,0.0125124995,0.0154
1679929890308,1109878662139901,0.00275,0.0176,0.0163625
1679929890309,1109878664642054,0.0037125,0.0176,0.0193875
1679929890312,1109878667143901,0.0048125,0.0155375,0.017324999
1679929890315,1109878669645949,-2.75E-4,0.0176,0.017324999
1679929890317,1109878672147872,0.00275,0.0155375,0.02035
1679929890320,1109878674649949,6.875E-4,0.0176,0.02035
1679929890322,1109878677151795,6.875E-4,0.0185625,0.0154
1679929890324,1109878679653742,-2.75E-4,0.0176,0.017324999
1679929890328,1109878682155896,0.00275,0.013612499,0.0163625
1679929890331,1109878684657973,0.0017875,0.01155,0.0133375
1679929890334,1109878687159838,-0.0012375,0.0075625,0.012375
1679929890335,1109878689661761,-2.75E-4,0.0105875,0.012375
1679929890337,1109878692163838,6.875E-4,0.0045375,0.012375
1679929890339,1109878694665761,-0.0012375,0.0015125,0.00935
1679929890342,1109878697167607,6.875E-4,-4.125E-4,0.0103124995
1679929890344,1109878699669761,-2.75E-4,-0.002475,0.00935
1679929890347,1109878702171833,0.00275,-0.0114124995,0.0103124995
1679929890350,1109878704673756,0.00275,-0.0193875,0.0103124995
1679929890352,1109878707175602,-2.75E-4,-0.0224125,0.0103124995
1679929890355,1109878709677679,0.0017875,-0.0284625,0.0103124995
1679929890359,1109878712179593,6.875E-4,-0.032449998,0.0114124995
1679929890360,1109878714681670,-2.75E-4,-0.0364375,0.0083875
1679929890362,1109878717183593,6.875E-4,-0.0394625,0.00935
1679929890368,1109878719685622,0.0017875,-0.0444125,0.012375
1679929890369,1109878722187545,6.875E-4,-0.0504625,0.0114124995
1679929890371,1109878724689622,0.0017875,-0.0523875,0.012375
1679929890373,1109878727191776,-2.75E-4,-0.051425,0.0154
1679929890375,1109878729693622,6.875E-4,-0.057475,0.0143
1679929890379,1109878732195535,-0.0042625,-0.0614625,0.0163625
1679929890381,1109878734697612,-0.0061875,-0.062425,0.0163625
1679929890385,1109878737199535,-0.0042625,-0.0664125,0.017324999
1679929890386,1109878739701381,-0.0042625,-0.068475,0.017324999
1679929890387,1109878742203458,-0.005225,-0.0644875,0.017324999
1679929890391,1109878744705631,6.875E-4,-0.0664125,0.0154
1679929890392,1109878747207477,0.00275,-0.0664125,0.0163625
1679929890394,1109878749709400,-0.0022,-0.0694375,0.02035
1679929890400,1109878752211477,-0.0022,-0.0704,0.017324999
1679929890404,1109878754713415,-0.0022,-0.0724625,0.0163625
1679929890404,1109878757215261,-0.0022,-0.0743875,0.0133375
1679929890406,1109878759717338,-0.0061875,-0.0774125,0.0103124995
1679929890407,1109878762219492,-0.0042625,-0.0713625,0.012375
1679929890410,1109878764721434,-2.75E-4,-0.0713625,0.0114124995
1679929890412,1109878767223280,-0.0012375,-0.0743875,0.0083875
1679929890414,1109878769725357,-0.005225,-0.0754875,0.00935
1679929890418,1109878772227280,-0.0061875,-0.0704,0.0103124995
1679929890420,1109878774729357,-0.0042625,-0.0713625,0.0083875
1679929890423,1109878777231246,-0.0061875,-0.0724625,0.0103124995
1679929890424,1109878779733323,-0.0061875,-0.0694375,0.0083875
1679929890427,1109878782235246,-0.0061875,-0.067375,0.0083875
1679929890430,1109878784737323,-0.0072875,-0.0664125,0.007425
1679929890432,1109878787239170,-0.0092124995,-0.0664125,0.0053625
1679929890435,1109878789741103,-0.0072875,-0.0664125,0.0044
1679929890438,1109878792243180,-0.0042625,-0.0614625,0.007425
1679929890444,1109878794745333,-0.0092124995,-0.0644875,0.006325
1679929890444,1109878797247180,-0.00825,-0.0633875,0.0083875
1679929890445,1109878799749122,-0.00825,-0.0584375,0.0083875
1679929890447,1109878802251199,-0.0042625,-0.054449998,0.0083875
1679929890451,1109878804753122,-0.0061875,-0.0504625,0.0083875
1679929890452,1109878807254968,-0.0072875,-0.0493625,0.0083875
1679929890455,1109878809757045,-0.005225,-0.0474375,0.0114124995
1679929890459,1109878812259165,-0.0061875,-0.0444125,0.0083875
1679929890460,1109878814761088,-0.0061875,-0.045375,0.007425
1679929890463,1109878817263165,-0.0072875,-0.0424875,0.007425
1679929890465,1109878819765011,-0.0072875,-0.0413875,0.0044
1679929890468,1109878822266934,-0.00825,-0.035475,0.0044
1679929890470,1109878824769030,-0.00825,-0.0303875,0.0033
1679929890473,1109878827270953,-0.00825,-0.0303875,0.0023375
1679929890475,1109878829773107,-0.0132,-0.0284625,4.125E-4
1679929890480,1109878832274949,-0.0122375,-0.02145,-0.00165
1679929890484,1109878834777026,-0.0122375,-0.0163625,-0.0026125
1679929890484,1109878837278949,-0.015262499,-0.012375,-0.004675
1679929890486,1109878839781026,-0.01925,-0.0083875,-0.004675
1679929890487,1109878842282872,-0.0171875,-0.0053625,-0.0066
1679929890491,1109878844784799,-0.016224999,5.5E-4,-0.0086624995
1679929890492,1109878847286953,-0.016224999,0.0056375,-0.0066
1679929890495,1109878849789030,-0.015262499,0.0105875,-0.0077
1679929890497,1109878852290876,-0.016224999,0.0125124995,-0.0116875
1679929890500,1109878854792799,-0.0171875,0.013612499,-0.0116875
1679929890503,1109878857294891,-0.01925,0.020624999,-0.0116875
1679929890504,1109878859796814,-0.01925,0.0185625,-0.0116875
1679929890508,1109878862298660,-0.016224999,0.0215875,-0.0116875
1679929890510,1109878864800814,-0.0213125,0.0235125,-0.0116875
1679929890512,1109878867302872,-0.0213125,0.0235125,-0.01265
1679929890516,1109878869804795,-0.01925,0.0286,-0.0116875
1679929890519,1109878872306641,-0.0213125,0.0276375,-0.0116875
1679929890522,1109878874808727,-0.0242,0.0246125,-0.015675
1679929890523,1109878877310650,-0.0242,0.02255,-0.014575
1679929890525,1109878879812727,-0.0242,0.0215875,-0.0105875
1679929890527,1109878882314650,-0.0253,0.0215875,-0.0116875
1679929890530,1109878884816727,-0.0232375,0.02255,-0.015675
1679929890532,1109878887318568,-0.0213125,0.02255,-0.0196625
1679929890535,1109878889820492,-0.0232375,0.019524999,-0.0215875
1679929890537,1109878892322645,-0.0262625,0.013612499,-0.02365
1679929890540,1109878894824722,-0.0262625,0.01155,-0.0276375
1679929890543,1109878897326578,-0.0262625,0.0056375,-0.0286
1679929890545,1109878899828502,-0.0242,0.003575,-0.0325875
1679929890548,1109878902330578,-0.0292875,-0.002475,-0.0356125
1679929890551,1109878904832502,-0.0292875,-0.0064625,-0.0416625
1679929890555,1109878907334587,-0.0312125,-0.0064625,-0.045649998
1679929890555,1109878909836511,-0.0363,-0.012375,-0.042625
1679929890559,1109878912338587,-0.038225,-0.013475,-0.045649998
1679929890562,1109878914840511,-0.0391875,-0.0204875,-0.048675
1679929890562,1109878917342587,-0.038225,-0.024475,-0.0517
1679929890565,1109878919844435,-0.0422125,-0.0254375,-0.0526625
1679929890567,1109878922346358,-0.0452375,-0.032449998,-0.0526625
1679929890570,1109878924848435,-0.0452375,-0.0334125,-0.0545875
1679929890572,1109878927350589,-0.044275,-0.0383625,-0.053625
1679929890574,1109878929852415,-0.0473,-0.0474375,-0.0545875
1679929890577,1109878932354338,-0.0482625,-0.0554125,-0.0545875
1679929890581,1109878934856415,-0.0501875,-0.0603625,-0.0545875
1679929890585,1109878937358338,-0.049225,-0.0614625,-0.0545875
1679929890585,1109878939860184,-0.0512875,-0.062425,-0.0556875
1679929890588,1109878942362261,-0.055275,-0.06545,-0.0556875
1679929890591,1109878944864415,-0.0572,-0.0713625,-0.053625
1679929890593,1109878947366338,-0.0592625,-0.0814,-0.053625
1679929890595,1109878949868194,-0.06325,-0.0834625,-0.059675
1679929890600,1109878952370271,-0.0642125,-0.0853875,-0.064625
1679929890601,1109878954872194,-0.066275,-0.091437496,-0.0616
1679929890602,1109878957374271,-0.0702625,-0.095425,-0.064625
1679929890605,1109878959876194,-0.069299996,-0.09845,-0.0655875
1679929890607,1109878962378266,-0.0732875,-0.1043625,-0.0686125
1679929890610,1109878964880189,-0.0752125,-0.10945,-0.0716375
1679929890612,1109878967382035,-0.077275,-0.112475,-0.0765875
1679929890615,1109878969884112,-0.0812625,-0.1144,-0.0776875
1679929890618,1109878972386016,-0.0842875,-0.1144,-0.07865
1679929890620,1109878974888093,-0.0862125,-0.1214125,-0.0836
1679929890623,1109878977390016,-0.089237496,-0.1254,-0.0836
1679929890625,1109878979892093,-0.0922625,-0.1254,-0.0847
1679929890628,1109878982394049,-0.0941875,-0.1293875,-0.0856625
1679929890631,1109878984896126,-0.0972125,-0.13145,-0.0836
1679929890633,1109878987398049,-0.0983125,-0.1324125,-0.0847
1679929890635,1109878989899895,-0.1032625,-0.133375,-0.0856625
1679929890637,1109878992401972,-0.1093125,-0.133375,-0.0875875
1679929890640,1109878994904126,-0.111237496,-0.1364,-0.0886875
1679929890645,1109878997406049,-0.113299996,-0.1364,-0.0875875
1679929890645,1109878999908126,-0.1203125,-0.1384625,-0.0906125
1679929890647,1109879002409972,-0.1243,-0.1384625,-0.091575
1679929890652,1109879004911919,-0.1271875,-0.14245,-0.0946
1679929890653,1109879007413996,-0.1302125,-0.1414875,-0.095699996
1679929890654,1109879009915919,-0.1362625,-0.1414875,-0.097625
1679929890657,1109879012418073,-0.1452,-0.1403875,-0.0985875
1679929890659,1109879014919919,-0.1522125,-0.1364,-0.104637496
1679929890663,1109879017422020,-0.159225,-0.133375,-0.1076625
1679929890667,1109879019923943,-0.1643125,-0.134475,-0.108625
1679929890669,1109879022425790,-0.1692625,-0.13145,-0.114675
1679929890672,1109879024927867,-0.176275,-0.1274625,-0.1216875
1679929890674,1109879027429790,-0.1793,-0.1214125,-0.1266375
1679929890675,1109879029931943,-0.1852125,-0.1144,-0.1266375
1679929890677,1109879032434020,-0.1931875,-0.1104125,-0.1276
1679929890680,1109879034935867,-0.20019999,-0.1043625,-0.1315875
1679929890682,1109879037437790,-0.2052875,-0.09845,-0.135575
1679929890685,1109879039939872,-0.2083125,-0.0853875,-0.1406625
1679929890687,1109879042441795,-0.2132625,-0.0834625,-0.14465
1679929890690,1109879044943641,-0.2212375,-0.0694375,-0.1486375
1679929890692,1109879047445795,-0.225225,-0.062425,-0.1546875
1679929890695,1109879049947872,-0.2322375,-0.0614625,-0.157575
1679929890697,1109879052449790,-0.2462625,-0.057475,-0.1606
1679929890700,1109879054951636,-0.2492875,-0.0484,-0.16665
1679929890705,1109879057453790,-0.2563,-0.043449998,-0.1706375
1679929890706,1109879059955641,-0.269225,-0.0374,-0.1736625
1679929890708,1109879062457718,-0.2762375,-0.032449998,-0.17765
1679929890710,1109879064959641,-0.286275,-0.0284625,-0.1816375
1679929890712,1109879067461718,-0.29425,-0.0284625,-0.18259999
1679929890715,1109879069963564,-0.302225,-0.0254375,-0.185625
1679929890718,1109879072465492,-0.3102,-0.0264,-0.1876875
1679929890721,1109879074967646,-0.3202375,-0.0254375,-0.1876875
1679929890723,1109879077469723,-0.3262875,-0.0254375,-0.1865875
1679929890725,1109879079971569,-0.335225,-0.0284625,-0.185625
1679929890727,1109879082473492,-0.3432,-0.029424999,-0.185625
1679929890730,1109879084975573,-0.3513125,-0.0284625,-0.1865875
1679929890732,1109879087477496,-0.3581875,-0.032449998,-0.1896125
1679929890735,1109879089979573,-0.36519998,-0.035475,-0.190575
1679929890738,1109879092481496,-0.3733125,-0.043449998,-0.1876875
1679929890742,1109879094983564,-0.3812875,-0.046475,-0.1876875
1679929890744,1109879097485487,-0.3883,-0.054449998,-0.18865
1679929890746,1109879099987564,-0.3972375,-0.0603625,-0.1876875
1679929890748,1109879102489410,-0.4082375,-0.0694375,-0.1876875
1679929890750,1109879104991333,-0.423225,-0.0804375,-0.18865
1679929890753,1109879107493410,-0.4351875,-0.0924,-0.190575
1679929890755,1109879109995564,-0.4472875,-0.0994125,-0.1926375
1679929890757,1109879112497487,-0.4613125,-0.113437496,-0.1926375
1679929890760,1109879114999323,-0.4742375,-0.1263625,-0.1947
1679929890762,1109879117501400,-0.48427498,-0.1373625,-0.1986875
1679929890765,1109879120003323,-0.4962375,-0.1464375,-0.19965
1679929890767,1109879122505400,-0.5082,-0.1593625,-0.1986875
1679929890771,1109879125007347,-0.51425,-0.177375,-0.201575
1679929890772,1109879127509424,-0.5262125,-0.18645,-0.2036375
1679929890775,1109879130011347,-0.5341875,-0.1984125,-0.202675
1679929890779,1109879132513405,-0.5423,-0.2134,-0.2057
1679929890781,1109879135015251,-0.5522,-0.2283875,-0.2046
1679929890785,1109879137517174,-0.5622375,-0.2363625,-0.2036375
1679929890786,1109879140019251,-0.5713125,-0.2454375,-0.201575
1679929890788,1109879142521405,-0.57928747,-0.2624875,-0.19965
1679929890790,1109879145023280,-0.588225,-0.27445,-0.19965
1679929890792,1109879147525204,-0.5962,-0.2833875,-0.1986875
1679929890795,1109879150027280,-0.6062375,-0.298375,-0.1975875
1679929890798,1109879152529204,-0.616275,-0.3114375,-0.1947
1679929890800,1109879155031045,-0.6232875,-0.3243625,-0.1936
1679929890803,1109879157533122,-0.6392375,-0.3364625,-0.19167499
1679929890806,1109879160035275,-0.6512,-0.3474625,-0.18865
1679929890808,1109879162537199,-0.65725,-0.359425,-0.185625
1679929890810,1109879165039031,-0.66728747,-0.3674,-0.1865875
1679929890813,1109879167541108,-0.676225,-0.3774375,-0.185625
1679929890817,1109879170043031,-0.687225,-0.38541248,-0.18259999
1679929890819,1109879172545108,-0.6942375,-0.3944875,-0.1786125
1679929890821,1109879175046925,-0.70125,-0.4054875,-0.1786125
1679929890824,1109879177549079,-0.7071625,-0.4123625,-0.1755875
1679929890825,1109879180051002,-0.71225,-0.4224,-0.174625
1679929890827,1109879182553079,-0.7181625,-0.42941248,-0.168575
1679929890830,1109879185054925,-0.72627497,-0.430375,-0.1656875
1679929890834,1109879187556824,-0.7291625,-0.4343625,-0.1656875
1679929890836,1109879190058901,-0.7352125,-0.441375,-0.1645875
1679929890838,1109879192560747,-0.7412625,-0.43945,-0.163625
1679929890841,1109879195062901,-0.7492375,-0.43147498,-0.1617
1679929890843,1109879197564804,-0.75625,-0.4334,-0.1566125
1679929890845,1109879200066881,-0.7651875,-0.43147498,-0.1566125
1679929890848,1109879202568727,-0.7712375,-0.4224,-0.157575
1679929890850,1109879205070650,-0.77825,-0.4184125,-0.1566125
1679929890855,1109879207572751,-0.7832,-0.4114,-0.1535875
1679929890856,1109879210074674,-0.78925,-0.40645,-0.1516625
1679929890858,1109879212576828,-0.78925,-0.397375,-0.1496
1679929890860,1109879215078674,-0.7902125,-0.386375,-0.1496
1679929890863,1109879217580751,-0.7942,-0.3774375,-0.14465
1679929890865,1109879220082674,-0.7951625,-0.364375,-0.14465
1679929890868,1109879222584751,-0.797225,-0.354475,-0.1436875
1679929890871,1109879225086674,-0.8012125,-0.3463625,-0.141625
1679929890873,1109879227588751,-0.8012125,-0.3304125,-0.1406625
1679929890876,1109879230090660,-0.803275,-0.3224375,-0.1397
1679929890878,1109879232592506,-0.8042375,-0.310475,-0.1397
1679929890880,1109879235094583,-0.8012125,-0.2913625,-0.135575
1679929890883,1109879237596506,-0.8012125,-0.2814625,-0.13365
1679929890885,1109879240098679,-0.80025,-0.2704625,-0.1287
1679929890887,1109879242600525,-0.7951625,-0.2564375,-0.1236125
1679929890891,1109879245102602,-0.7951625,-0.243375,-0.1236125
1679929890893,1109879247604525,-0.791175,-0.2344375,-0.117699996
1679929890895,1109879250106401,-0.791175,-0.2234375,-0.1106875
1679929890897,1109879252608477,-0.7902125,-0.2134,-0.1095875
1679929890900,1109879255110401,-0.7902125,-0.2063875,-0.1056
1679929890903,1109879257612554,-0.78925,-0.1964875,-0.102575
1679929890905,1109879260114401,-0.786225,-0.1843875,-0.0996875
1679929890908,1109879262616472,-0.7871875,-0.177375,-0.0946
1679929890910,1109879265118396,-0.78925,-0.167475,-0.0906125
1679929890912,1109879267620472,-0.7871875,-0.161425,-0.0886875
1679929890915,1109879270122319,-0.7871875,-0.1524875,-0.0886875
1679929890918,1109879272624271,-0.7841625,-0.145475,-0.0847
1679929890923,1109879275126425,-0.7792125,-0.1364,-0.0836
1679929890925,1109879277628502,-0.775225,-0.1254,-0.080575
1679929890926,1109879280130425,-0.7731625,-0.1164625,-0.0776875
1679929890931,1109879282632280,-0.770275,-0.1104125,-0.07865
1679929890941,1109879285134357,-0.769175,-0.0994125,-0.080575
1679929890941,1109879287636280,-0.770275,-0.0924,-0.07865
1679929890941,1109879290138357,-0.7682125,-0.079475,-0.07865
1679929890942,1109879292640280,-0.7662875,-0.067375,-0.07865
1679929890942,1109879295142386,-0.7651875,-0.0554125,-0.0776875
1679929890943,1109879297644232,-0.7602375,-0.0493625,-0.0746625
1679929890945,1109879300146309,-0.7602375,-0.0364375,-0.0726
1679929890947,1109879302648232,-0.7572125,-0.0264,-0.0726
1679929890950,1109879305150093,-0.758175,-0.0144375,-0.0716375
1679929890952,1109879307652247,-0.7572125,-0.0064625,-0.0666875
1679929890955,1109879310154324,-0.75322497,0.0026125,-0.064625
1679929890957,1109879312656247,-0.75116247,0.014575,-0.0655875
1679929890960,1109879315158069,-0.7462125,0.0235125,-0.0606375
1679929890962,1109879317660146,-0.7412625,0.03355,-0.056649998
1679929890966,1109879320162069,-0.73425,0.0396,-0.053625
1679929890969,1109879322664146,-0.73425,0.0496375,-0.053625
1679929890971,1109879325166304,-0.7282,0.0616,-0.048675
1679929890975,1109879327668150,-0.725175,0.0705375,-0.0446875
1679929890976,1109879330170073,-0.7181625,0.080575,-0.047575
1679929890978,1109879332672150,-0.71225,0.0826375,-0.045649998
1679929890981,1109879335174073,-0.704275,0.0845625,-0.0386375
1679929890985,1109879337675910,-0.69519997,0.0895125,-0.034649998
1679929890986,1109879340177987,-0.69519997,0.096525,-0.0325875
1679929890987,1109879342680141,-0.6942375,0.1016125,-0.025575
1679929890992,1109879345181987,-0.69519997,0.1035375,-0.0196625
1679929890993,1109879347683910,-0.6972625,0.113575,-0.015675
1679929890995,1109879350185992,-0.6961625,0.1145375,-0.0105875
1679929891001,1109879352687915,-0.6961625,0.1145375,-0.0066
1679929891001,1109879355189761,-0.6991875,0.1166,-0.0056375
1679929891004,1109879357691838,-0.69519997,0.1205875,-6.875E-4
1679929891006,1109879360193996,-0.692175,0.1166,0.0023375
1679929891008,1109879362695919,-0.692175,0.1166,0.006325
1679929891010,1109879365197765,-0.687225,0.113575,0.0083875
1679929891012,1109879367699842,-0.6851625,0.107525,0.0103124995
1679929891015,1109879370201765,-0.6802125,0.1065625,0.0143
1679929891017,1109879372703866,-0.6771875,0.102575,0.0193875
1679929891020,1109879375205713,-0.6771875,0.09955,0.0224125
1679929891023,1109879377707866,-0.6741625,0.097625,0.0264
1679929891025,1109879380209789,-0.6722375,0.097625,0.029424999
1679929891027,1109879382711857,-0.66728747,0.085525,0.0363
1679929891030,1109879385213704,-0.66316247,0.0815375,0.039325
1679929891034,1109879387715857,-0.6612375,0.0845625,0.0444125
1679929891035,1109879390217780,-0.6612375,0.0836,0.0493625
1679929891037,1109879392719857,-0.6551875,0.0815375,0.056375
1679929891042,1109879395221704,-0.6532625,0.0785125,0.06435
1679929891044,1109879397723627,-0.6502375,0.0815375,0.067375
1679929891048,1109879400225704,-0.6402,0.07755,0.073425
1679929891049,1109879402727622,-0.6402,0.075625,0.0763125
1679929891051,1109879405229776,-0.63621247,0.0735625,0.0793375
1679929891053,1109879407731622,-0.627275,0.0735625,0.0823625
1679929891055,1109879410233699,-0.626175,0.0675125,0.089375
1679929891058,1109879412735603,-0.621225,0.063525,0.0933625
1679929891061,1109879415237449,-0.6191625,0.0625625,0.0963875
1679929891063,1109879417739526,-0.6191625,0.0576125,0.100375
1679929891066,1109879420241449,-0.6092625,0.0506,0.1034
1679929891067,1109879422743588,-0.6062375,0.04455,0.10835
1679929891071,1109879425245665,-0.605275,0.0396,0.10835
1679929891073,1109879427747511,-0.6012875,0.0356125,0.111375
1679929891075,1109879430249434,-0.5962,0.0276375,0.111375
1679929891079,1109879432751526,-0.593175,0.0215875,0.1104125
1679929891081,1109879435253449,-0.5922125,0.014575,0.113299996
1679929891084,1109879437755295,-0.588225,0.0075625,0.1153625
1679929891086,1109879440257449,-0.5842375,5.5E-4,0.1153625
1679929891087,1109879442759526,-0.583275,-0.0053625,0.1144
1679929891090,1109879445261429,-0.583275,-0.013475,0.1144
1679929891092,1109879447763275,-0.57928747,-0.0254375,0.117425
1679929891095,1109879450265352,-0.5781875,-0.0374,0.116325
1679929891097,1109879452767275,-0.58025,-0.0484,0.1214125
1679929891101,1109879455269368,-0.5751625,-0.0584375,0.1243
1679929891103,1109879457771291,-0.5751625,-0.0664125,0.1243
1679929891105,1109879460273368,-0.5751625,-0.0834625,0.1243
1679929891107,1109879462775291,-0.5742,-0.0944625,0.128425
1679929891110,1109879465277137,-0.5762625,-0.1034,0.1324125
1679929891113,1109879467779257,-0.57928747,-0.113437496,0.1364
1679929891117,1109879470281180,-0.5762625,-0.1274625,0.1353
1679929891118,1109879472783334,-0.5762625,-0.1384625,0.138325
1679929891122,1109879475285180,-0.571175,-0.150425,0.1423125
1679929891124,1109879477787252,-0.5702125,-0.1623875,0.1463
1679929891125,1109879480289175,-0.5682875,-0.1744875,0.150425
1679929891128,1109879482791252,-0.5632,-0.1843875,0.155375
1679929891130,1109879485293098,-0.5632,-0.1923625,0.160325
1679929891132,1109879487795021,-0.5641625,-0.2033625,0.1623875
1679929891135,1109879490297180,-0.566225,-0.2154625,0.16335
1679929891138,1109879492799257,-0.5632,-0.2234375,0.166375
1679929891141,1109879495301103,-0.5632,-0.233475,0.171325
1679929891143,1109879497803026,-0.561275,-0.243375,0.17435
1679929891145,1109879500305103,-0.5592125,-0.2583625,0.1764125
1679929891148,1109879502807027,-0.5542625,-0.265375,0.1783375
1679929891151,1109879505308873,-0.5522,-0.2754125,0.182325
1679929891154,1109879507811027,-0.54821247,-0.2833875,0.18933749
1679929891156,1109879510313122,-0.544225,-0.293425,0.1903
1679929891158,1109879512815046,-0.54821247,-0.3023625,0.193325
1679929891161,1109879515317122,-0.54821247,-0.309375,0.19635
1679929891163,1109879517818969,-0.5462875,-0.3163875,0.2013
1679929891167,1109879520320892,-0.5462875,-0.3224375,0.2013
1679929891168,1109879522822974,-0.5432625,-0.3234,0.2033625
1679929891171,1109879525325127,-0.5421625,-0.3243625,0.20735
1679929891173,1109879527826974,-0.544225,-0.3234,0.20735
1679929891175,1109879530328897,-0.5412,-0.3243625,0.21133749
1679929891181,1109879532830945,-0.53625,-0.315425,0.215325
1679929891184,1109879535332868,-0.5311625,-0.3084125,0.216425
1679929891185,1109879537834714,-0.5341875,-0.3034625,0.221375
1679929891186,1109879540336791,-0.5262125,-0.2904,0.2233
1679929891188,1109879542838945,-0.5231875,-0.271425,0.2244
1679929891192,1109879545340844,-0.5201625,-0.2574,0.2253625
1679929891194,1109879547842921,-0.51425,-0.23539999,0.2244
1679929891196,1109879550344767,-0.511225,-0.211475,0.2244
1679929891198,1109879552846690,-0.5102625,-0.1874125,0.2204125
1679929891201,1109879555348767,-0.5072375,-0.1623875,0.2193125
1679929891203,1109879557850685,-0.5072375,-0.144375,0.216425
1679929891207,1109879560352762,-0.505175,-0.1214125,0.2123
1679929891208,1109879562854608,-0.50325,-0.0963875,0.205425
1679929891211,1109879565356531,-0.505175,-0.079475,0.2033625
1679929891213,1109879567858618,-0.500225,-0.0594,0.19635
1679929891217,1109879570360772,-0.4972,-0.0424875,0.19139999
1679929891218,1109879572862618,-0.4981625,-0.0273625,0.188375
1679929891224,1109879575364541,-0.4962375,-0.0144375,0.183425
1679929891226,1109879577866618,-0.4871625,-0.001375,0.1793
1679929891226,1109879580368541,-0.4852375,0.0066,0.1764125
1679929891230,1109879582870618,-0.4852375,0.0185625,0.1753125
1679929891232,1109879585372464,-0.48125,0.0265375,0.1733875
1679929891234,1109879587874632,-0.4742375,0.0356125,0.172425
1679929891236,1109879590376555,-0.4681875,0.0435875,0.177375
1679929891238,1109879592878401,-0.4642,0.047575,0.17435
1679929891240,1109879595380478,-0.45925,0.0576125,0.17435
1679929891243,1109879597882401,-0.4552625,0.0655875,0.17435
1679929891245,1109879600384464,-0.4541625,0.0726,0.1733875
1679929891248,1109879602886387,-0.445225,0.0785125,0.17435
1679929891251,1109879605388464,-0.43725,0.086625,0.1764125
1679929891253,1109879607890387,-0.434225,0.0925375,0.17435
1679929891255,1109879610392454,-0.4241875,0.0946,0.172425
1679929891258,1109879612894377,-0.4202,0.0985875,0.1733875
1679929891262,1109879615396454,-0.41525,0.1005125,0.17435
1679929891265,1109879617898300,-0.407275,0.1035375,0.1703625
1679929891267,1109879620400234,-0.401225,0.1115125,0.1694
1679929891270,1109879622902387,-0.3911875,0.1095875,0.1683
1679929891272,1109879625404464,-0.384175,0.1166,0.1623875
1679929891274,1109879627906311,-0.3762,0.119625,0.1573
1679929891275,1109879630408234,-0.3661625,0.118525,0.1544125
1679929891278,1109879632910316,-0.362175,0.12155,0.1483625
1679929891281,1109879635412239,-0.362175,0.1225125,0.144375
1679929891283,1109879637914316,-0.3562625,0.118525,0.1403875
1679929891285,1109879640416239,-0.351175,0.1166,0.1364
1679929891288,1109879642918316,-0.3432,0.1126125,0.1293875
1679929891292,1109879645420229,-0.340175,0.107525,0.128425
1679929891294,1109879647922075,-0.335225,0.1005125,0.1254
1679929891296,1109879650424152,-0.3312375,0.0925375,0.11935
1679929891298,1109879652926075,-0.32725,0.0836,0.1203125
1679929891301,1109879655428234,-0.3251875,0.075625,0.116325
1679929891305,1109879657930080,-0.3221625,0.06765,0.1153625
1679929891307,1109879660432157,-0.31515,0.0625625,0.1144
1679929891309,1109879662934085,-0.31515,0.0545875,0.1153625
1679929891311,1109879665436162,-0.3102,0.036575,0.1123375
1679929891313,1109879667938008,-0.302225,0.031625,0.1123375
1679929891317,1109879670439931,-0.296175,0.0185625,0.113299996
1679929891318,1109879672942084,-0.2872375,0.0066,0.116325
1679929891324,1109879675444161,-0.2762375,0.0026125,0.113299996
1679929891326,1109879677946007,-0.2652375,-0.0064625,0.1153625
1679929891327,1109879680447930,-0.253275,-0.013475,0.116325
1679929891329,1109879682950007,-0.241175,-0.0224125,0.117425
1679929891331,1109879685451853,-0.22715,-0.034375,0.117425
1679929891333,1109879687953776,-0.219175,-0.0413875,0.1203125
1679929891336,1109879690455930,-0.2121625,-0.0474375,0.11935
1679929891338,1109879692958007,-0.20625,-0.0554125,0.1203125
1679929891345,1109879695459849,-0.203225,-0.0614625,0.1243
1679929891347,1109879697961772,-0.197175,-0.0664125,0.122375
1679929891351,1109879700463849,-0.19415,-0.0704,0.116325
1679929891353,1109879702965815,-0.192225,-0.07535,0.117425
1679929891355,1109879705467661,-0.1901625,-0.0814,0.1153625
1679929891356,1109879707969815,-0.1901625,-0.0884125,0.113299996
1679929891358,1109879710471892,-0.1882375,-0.090475,0.1123375
1679929891360,1109879712973815,-0.1821875,-0.09735,0.1123375
1679929891362,1109879715475675,-0.1791625,-0.101475,0.1073875
1679929891364,1109879717977752,-0.176275,-0.102437496,0.1043625
1679929891366,1109879720479675,-0.1742125,-0.1034,0.106425
1679929891368,1109879722981829,-0.17325,-0.1043625,0.1043625
1679929891371,1109879725483680,-0.1711875,-0.1043625,0.0983125
1679929891373,1109879727985757,-0.1692625,-0.1034,0.094325
1679929891375,1109879730487680,-0.164175,-0.0963875,0.089375
1679929891380,1109879732989757,-0.1601875,-0.100375,0.089375
1679929891383,1109879735491887,-0.153175,-0.09845,0.0873125
1679929891385,1109879737993733,-0.1461625,-0.091437496,0.0873125
1679929891387,1109879740495656,-0.142175,-0.091437496,0.083325
1679929891390,1109879742997733,-0.1332375,-0.091437496,0.0803
1679929891393,1109879745499656,-0.1192125,-0.090475,0.083325
1679929891394,1109879748001503,-0.111237496,-0.090475,0.0823625
1679929891396,1109879750503580,-0.1032625,-0.0884125,0.0853875
1679929891398,1109879753005733,-0.09625,-0.0933625,0.089375
1679929891400,1109879755507656,-0.0941875,-0.0963875,0.0933625
1679929891403,1109879758009488,-0.0911625,-0.09735,0.0933625
1679929891405,1109879760511565,-0.0922625,-0.09845,0.095425
1679929891408,1109879763013488,-0.0902,-0.101475,0.0994125
1679929891411,1109879765515565,-0.0911625,-0.09735,0.1023
1679929891413,1109879768017411,-0.0972125,-0.095425,0.1034
1679929891418,1109879770519565,-0.1021625,-0.09735,0.1023
1679929891421,1109879773021488,-0.10725,-0.0944625,0.0994125
1679929891423,1109879775523565,-0.1131625,-0.084425,0.0963875
1679929891425,1109879778025416,-0.111237496,-0.078375,0.0963875
1679929891426,1109879780527339,-0.1131625,-0.0713625,0.0963875
1679929891429,1109879783029416,-0.1142625,-0.0633875,0.0963875
1679929891433,1109879785531339,-0.110275,-0.05335,0.094325
1679929891435,1109879788033416,-0.109175,-0.046475,0.095425
1679929891436,1109879790535324,-0.104225,-0.04235,0.0963875
1679929891438,1109879793037401,-0.099275,-0.0334125,0.100375
1679929891440,1109879795539247,-0.09625,-0.02145,0.106425
1679929891443,1109879798041170,-0.0941875,-0.0154,0.10835
1679929891445,1109879800543247,-0.09515,-0.012375,0.1093125
1679929891448,1109879803045150,-0.09515,-0.0064625,0.1123375
1679929891450,1109879805547227,-0.093225,-4.125E-4,0.1144
1679929891454,1109879808049150,-0.100237496,0.003575,0.116325
1679929891457,1109879810551208,-0.10615,0.0066,0.1153625
1679929891459,1109879813053131,-0.1082125,0.0056375,0.116325
1679929891462,1109879815554977,-0.10725,0.0066,0.116325
1679929891463,1109879818057054,-0.109175,0.0056375,0.116325
1679929891465,1109879820559208,-0.1082125,0.003575,0.1144
1679929891468,1109879823061126,-0.10615,0.0026125,0.113299996
1679929891471,1109879825562972,-0.1032625,5.5E-4,0.10835
1679929891474,1109879828065049,-0.100237496,-0.001375,0.1073875
1679929891477,1109879830566972,-0.093225,-0.0064625,0.1034
1679929891479,1109879833069035,-0.093225,-0.0044,0.100375
1679929891481,1109879835570881,-0.088275,-0.00935,0.0963875
1679929891484,1109879838073035,-0.0862125,-0.0193875,0.0933625
1679929891486,1109879840574958,-0.0862125,-0.0193875,0.089375
1679929891488,1109879843077001,-0.089237496,-0.0254375,0.083325
1679929891492,1109879845578924,-0.0941875,-0.029424999,0.078375
1679929891494,1109879848080770,-0.0972125,-0.0394625,0.0774125
1679929891496,1109879850582847,-0.100237496,-0.051425,0.0743875
1679929891499,1109879853084770,-0.100237496,-0.0594,0.0704
1679929891501,1109879855586910,-0.104225,-0.0694375,0.073425
1679929891503,1109879858088757,-0.1021625,-0.0834625,0.0713625
1679929891506,1109879860590833,-0.0972125,-0.090475,0.072325
1679929891508,1109879863092757,-0.0972125,-0.0994125,0.07535
1679929891510,1109879865594828,-0.0941875,-0.10835,0.07535
1679929891515,1109879868096752,-0.0941875,-0.113437496,0.0803
1679929891518,1109879870598598,-0.09515,-0.1153625,0.0853875
1679929891519,1109879873100747,-0.093225,-0.1153625,0.0873125
1679929891522,1109879875602823,-0.09625,-0.117425,0.089375
1679929891524,1109879878104747,-0.1021625,-0.12045,0.089375
1679929891525,1109879880606593,-0.10725,-0.12045,0.0924
1679929891530,1109879883108656,-0.1122,-0.11935,0.094325
1679929891532,1109879885610579,-0.1161875,-0.1164625,0.0933625
1679929891534,1109879888112425,-0.11715,-0.12045,0.0924
1679929891536,1109879890614579,-0.121275,-0.1183875,0.09735
1679929891538,1109879893116425,-0.11715,-0.1164625,0.0994125
1679929891542,1109879895618483,-0.1142625,-0.11935,0.105325
1679929891543,1109879898120406,-0.115225,-0.117425,0.1093125
1679929891545,1109879900622560,-0.11715,-0.111375,0.1123375
1679929891548,1109879903124406,-0.1142625,-0.10945,0.117425
1679929891551,1109879905626483,-0.1122,-0.1073875,0.1214125
1679929891554,1109879908128406,-0.1122,-0.1034,0.1233375
1679929891562,1109879910630252,-0.111237496,-0.101475,0.1263625
1679929891562,1109879913132329,-0.10725,-0.1034,0.13035
1679929891562,1109879915634252,-0.1032625,-0.100375,0.133375
1679929891563,1109879918136411,-0.098175,-0.0944625,0.133375
1679929891567,1109879920638488,-0.093225,-0.095425,0.133375
1679929891569,1109879923140334,-0.089237496,-0.0924,0.1364
1679929891571,1109879925642257,-0.082225,-0.090475,0.1364
1679929891574,1109879928144347,-0.076175,-0.090475,0.1373625
1679929891576,1109879930646270,-0.06325,-0.091437496,0.1353
1679929891578,1109879933148116,-0.0562375,-0.084425,0.133375
1679929891581,1109879935650270,-0.0452375,-0.0834625,0.1324125
1679929891583,1109879938152347,-0.033275,-0.0853875,0.13035
1679929891585,1109879940654285,-0.0262625,-0.07645,0.1254
1679929891589,1109879943156131,-0.0171875,-0.0704,0.1233375
1679929891591,1109879945658208,-0.0132,-0.0713625,0.122375
1679929891593,1109879948160131,-0.0122375,-0.0664125,0.1233375
1679929891596,1109879950662213,-0.0061875,-0.067375,0.122375
1679929891599,1109879953164136,-0.0092124995,-0.067375,0.1243
1679929891601,1109879955666213,-0.0092124995,-0.0603625,0.1263625
1679929891604,1109879958168136,-0.0042625,-0.0584375,0.13035
1679929891606,1109879960670208,-0.005225,-0.0504625,0.1324125
1679929891608,1109879963172131,-0.0061875,-0.046475,0.1373625
1679929891611,1109879965674208,-0.0061875,-0.04235,0.139425
1679929891613,1109879968176054,-0.010175,-0.029424999,0.1463
1679929891615,1109879970678208,-0.015262499,-0.0154,0.149325
1679929891619,1109879973180131,-0.01815,-0.0083875,0.15235
1679929891622,1109879975681978,-0.01815,-0.001375,0.1563375
1679929891624,1109879978184054,-0.0242,0.01155,0.1593625
1679929891626,1109879980685978,-0.027224999,0.0246125,0.160325
1679929891631,1109879983188055,-0.02915,0.0396,0.1593625
1679929891632,1109879985690208,-0.02915,0.05555,0.1593625
1679929891634,1109879988192055,-0.032175,0.0686125,0.1593625
1679929891635,1109879990693978,-0.04015,0.080575,0.1563375
1679929891644,1109879993196041,-0.041249998,0.10065,0.1533125
1679929891646,1109879995697964,-0.0452375,0.115637496,0.14739999
1679929891648,1109879998199810,-0.054175,0.1315875,0.144375
1679929891650,1109880000701887,-0.0581625,0.1505625,0.1403875
1679929891651,1109880003204041,-0.0611875,0.1695375,0.1364
1679929891652,1109880005705978,-0.065175,0.1865875,0.1373625
1679929891653,1109880008207824,-0.065175,0.20253749,0.1364
1679929891655,1109880010709901,-0.065175,0.218625,0.1373625
1679929891659,1109880013211824,-0.0672375,0.2376,0.1313125
1679929891662,1109880015713718,-0.065175,0.256575,0.1313125
1679929891664,1109880018215795,-0.0702625,0.2776125,0.1313125
1679929891666,1109880020717949,-0.065175,0.2996125,0.1293875
1679929891670,1109880023219872,-0.065175,0.3136375,0.1324125
1679929891672,1109880025721718,-0.06325,0.33055,0.1373625
1679929891673,1109880028223795,-0.060225,0.34553748,0.138325
1679929891676,1109880030725718,-0.055275,0.35365,0.14135
1679929891680,1109880033227795,-0.0501875,0.360525,0.1434125
1679929891682,1109880035729655,-0.0462,0.36355,0.149325
1679929891684,1109880038231809,-0.032175,0.3656125,0.155375
1679929891686,1109880040733732,-0.0262625,0.3686375,0.1573
1679929891688,1109880043235809,-0.01925,0.36465,0.1593625
1679929891690,1109880045737655,-0.010175,0.3656125,0.1584
1679929891693,1109880048239573,-2.75E-4,0.366575,0.160325
1679929891695,1109880050741650,0.0048125,0.360525,0.1573
1679929891698,1109880053243573,0.010725,0.3466375,0.1544125
1679929891704,1109880055745650,0.0177375,0.338525,0.15235
1679929891704,1109880058247588,0.0198,0.328625,0.1463
1679929891706,1109880060749665,0.021724999,0.311575,0.138325
1679929891709,1109880063251511,0.022824999,0.2935625,0.133375
1679929891711,1109880065753665,0.02475,0.2715625,0.1254
1679929891713,1109880068255588,0.0287375,0.256575,0.1203125
1679929891718,1109880070757684,0.033825,0.2376,0.113299996
1679929891719,1109880073259607,0.03575,0.217525,0.106425
1679929891723,1109880075761453,0.038775,0.19965,0.09735
1679929891727,1109880078263530,0.0418,0.1816375,0.0933625
1679929891728,1109880080765467,0.043725,0.16665,0.0884125
1679929891731,1109880083267544,0.0418,0.152625,0.08635
1679929891732,1109880085769467,0.044825,0.1376375,0.0814
1679929891734,1109880088271544,0.043725,0.1255375,0.0774125
1679929891736,1109880090773467,0.043725,0.11165,0.0803
1679929891742,1109880093275540,0.044825,0.10065,0.0793375
1679929891743,1109880095777387,0.047849998,0.0906125,0.0763125
1679929891745,1109880098279310,0.049775,0.080575,0.0763125
1679929891746,1109880100781463,0.054725,0.0726,0.0774125
1679929891751,1109880103283540,0.055825,0.0655875,0.0763125
1679929891752,1109880105785391,0.0617375,0.0595375,0.0763125
1679929891757,1109880108287314,0.06985,0.0515625,0.0763125
1679929891758,1109880110789391,0.076725,0.0405625,0.078375
1679929891760,1109880113291314,0.0848375,0.031625,0.0793375
1679929891761,1109880115793155,0.093775,0.020624999,0.078375
1679929891763,1109880118295309,0.1087625,0.0075625,0.0774125
1679929891766,1109880120797386,0.12375,-0.0064625,0.0763125
1679929891770,1109880123299309,0.1368125,-0.018424999,0.078375
1679929891771,1109880125801151,0.1518,-0.034375,0.0763125
1679929891774,1109880128303228,0.165825,-0.05335,0.07535
1679929891775,1109880130805151,0.1808125,-0.067375,0.0743875
1679929891779,1109880133307228,0.19373749,-0.090475,0.0704
1679929891782,1109880135809155,0.21573749,-0.111375,0.067375
1679929891784,1109880138311232,0.2358125,-0.134475,0.0664125
1679929891786,1109880140813155,0.2627625,-0.1584,0.0653125
1679929891792,1109880143315237,0.2847625,-0.1824625,0.062425
1679929891794,1109880145817083,0.308825,-0.211475,0.0583
1679929891795,1109880148319006,0.3378375,-0.2344375,0.05335
1679929891796,1109880150821083,0.36781248,-0.2594625,0.050325
1679929891800,1109880153323237,0.39875,-0.2833875,0.0473
1679929891802,1109880155825083,0.4338125,-0.31239998,0.040425
1679929891803,1109880158327020,0.4657125,-0.34141248,0.0334125
1679929891808,1109880160829097,0.4928,-0.37345,0.0243375
1679929891810,1109880163331020,0.51975,-0.4024625,0.0114124995
1679929891812,1109880165832866,0.5427125,-0.4324375,-6.875E-4
1679929891813,1109880168335035,0.5588,-0.4684625,-0.0166375
1679929891817,1109880170837112,0.57475,-0.507375,-0.0325875
1679929891820,1109880173338958,0.5817625,-0.5454625,-0.0506
1679929891822,1109880175840881,0.5907,-0.5784625,-0.070675
1679929891824,1109880178342953,0.6017,-0.6164125,-0.0906125
1679929891826,1109880180844876,0.6067875,-0.6524375,-0.108625
1679929891834,1109880183346722,0.6166875,-0.6884625,-0.12265
1679929891834,1109880185848876,0.62273747,-0.71445,-0.141625
1679929891837,1109880188350938,0.6287875,-0.7464875,-0.1566125
1679929891838,1109880190852861,0.6358,-0.772475,-0.16665
1679929891840,1109880193354707,0.6386875,-0.78842497,-0.17765
1679929891841,1109880195856784,0.6397875,-0.805475,-0.185625
1679929891844,1109880198358707,0.6468,-0.816475,-0.1876875
1679929891846,1109880200860799,0.64968747,-0.8234875,-0.1936
1679929891851,1109880203362722,0.6468,-0.8294,-0.201575
1679929891853,1109880205864799,0.643775,-0.8294,-0.2036375
1679929891854,1109880208366723,0.6367625,-0.8234875,-0.2046
1679929891856,1109880210868799,0.632775,-0.8184,-0.2036375
1679929891862,1109880213370646,0.621775,-0.810425,-0.202675
1679929891863,1109880215872569,0.615725,-0.8014875,-0.202675
1679929891866,1109880218374646,0.604725,-0.7893875,-0.196625
1679929891868,1109880220876775,0.59675,-0.772475,-0.19167499
1679929891870,1109880223378622,0.5867125,-0.755425,-0.18865
1679929891872,1109880225880545,0.5757125,-0.733425,-0.18259999
1679929891874,1109880228382622,0.566775,-0.7084,-0.1736625
1679929891876,1109880230884545,0.555775,-0.6804875,-0.1676125
1679929891879,1109880233386622,0.5487625,-0.6524375,-0.1645875
1679929891881,1109880235888545,0.5407875,-0.623425,-0.1546875
1679929891884,1109880238390622,0.5328125,-0.5894625,-0.1486375
1679929891886,1109880240892468,0.522775,-0.5473875,-0.1425875
1679929891889,1109880243394400,0.5127375,-0.507375,-0.135575
1679929891891,1109880245896477,0.505725,-0.469425,-0.1315875
1679929891893,1109880248398631,0.49774998,-0.42941248,-0.125675
1679929891896,1109880250900477,0.489775,-0.392425,-0.1186625
1679929891900,1109880253402396,0.4807,-0.3504875,-0.1126125
1679929891902,1109880255904473,0.47079998,-0.3133625,-0.11165
1679929891905,1109880258406396,0.4598,-0.2794,-0.1067
1679929891907,1109880260908242,0.4467375,-0.2454375,-0.102575
1679929891909,1109880263410352,0.434775,-0.2134,-0.097625
1679929891911,1109880265912506,0.4228125,-0.1824625,-0.097625
1679929891913,1109880268414429,0.412775,-0.1494625,-0.092675
1679929891916,1109880270916275,0.4048,-0.1214125,-0.092675
1679929891919,1109880273418352,0.390775,-0.0994125,-0.091575
1679929891922,1109880275920266,0.373725,-0.0713625,-0.091575
1679929891924,1109880278422343,0.3597,-0.0484,-0.0906125
1679929891926,1109880280924189,0.3477375,-0.0284625,-0.091575
1679929891930,1109880283426343,0.335775,-0.007425,-0.0906125
1679929891931,1109880285928285,0.32175,0.0075625,-0.086625
1679929891933,1109880288430131,0.3128125,0.0286,-0.0836
1679929891936,1109880290932208,0.3037375,0.0396,-0.080575
1679929891939,1109880293434131,0.29273748,0.0496375,-0.0726
1679929891943,1109880295936179,0.285725,0.0616,-0.070675
1679929891945,1109880298438025,0.27981248,0.0716375,-0.0686125
1679929891947,1109880300940179,0.2737625,0.080575,-0.064625
1679929891950,1109880303442102,0.2707375,0.0815375,-0.058575
1679929891951,1109880305944179,0.2677125,0.0845625,-0.0545875
1679929891953,1109880308446054,0.263725,0.086625,-0.053625
1679929891956,1109880310947978,0.258775,0.0845625,-0.0526625
1679929891960,1109880313450054,0.2536875,0.0836,-0.0526625
1679929891961,1109880315951978,0.2487375,0.0785125,-0.053625
1679929891963,1109880318454141,0.241725,0.0735625,-0.058575
1679929891966,1109880320955988,0.230725,0.069575,-0.059675
1679929891969,1109880323458064,0.2206875,0.0625625,-0.0627
1679929891971,1109880325959988,0.208725,0.0606375,-0.070675
1679929891974,1109880328461839,0.19373749,0.052525,-0.0746625
1679929891976,1109880330963916,0.1837,0.04455,-0.081675
1679929891982,1109880333466069,0.170775,0.036575,-0.0847
1679929891985,1109880335967993,0.1617,0.03355,-0.086625
1679929891986,1109880338469829,0.153725,0.0286,-0.092675
1679929891987,1109880340971906,0.1436875,0.0235125,-0.0946
1679929891990,1109880343473829,0.1397,0.02255,-0.093637496
1679929891991,1109880345975906,0.1326875,0.0185625,-0.095699996
1679929891993,1109880348477829,0.1287,0.0166375,-0.0985875
1679929891997,1109880350979892,0.1258125,0.0166375,-0.097625
1679929892000,1109880353481815,0.1197625,0.0125124995,-0.0996875
1679929892002,1109880355983892,0.1106875,0.0026125,-0.097625
1679929892004,1109880358485815,0.1038125,5.5E-4,-0.10065
1679929892006,1109880360987661,0.09075,-0.0034375,-0.10065
1679929892009,1109880363489724,0.0837375,-0.0083875,-0.0996875
1679929892011,1109880365991647,0.071775,-0.0163625,-0.103675
1679929892014,1109880368493801,0.0537625,-0.024475,-0.1016125
1679929892019,1109880370995882,0.0418,-0.0303875,-0.0996875
1679929892022,1109880373497728,0.0257125,-0.0383625,-0.10065
1679929892023,1109880375999651,0.0067375,-0.043449998,-0.097625
1679929892025,1109880378501728,-0.0072875,-0.0504625,-0.092675
1679929892026,1109880381003651,-0.0232375,-0.054449998,-0.0875875
1679929892032,1109880383505709,-0.0391875,-0.0584375,-0.075625
1679929892034,1109880386007632,-0.0532125,-0.0594,-0.0666875
1679929892036,1109880388509709,-0.0672375,-0.0633875,-0.0556875
1679929892038,1109880391011555,-0.0782375,-0.06545,-0.0407
1679929892040,1109880393513478,-0.089237496,-0.068475,-0.026675
1679929892041,1109880396015656,-0.1051875,-0.0694375,-0.0187
1679929892044,1109880398517502,-0.122237496,-0.0713625,-6.875E-4
1679929892046,1109880401019579,-0.1332375,-0.068475,0.012375
1679929892050,1109880403521502,-0.148225,-0.0644875,0.0243375
1679929892052,1109880406023574,-0.1612875,-0.062425,0.034375
1679929892057,1109880408525420,-0.1742125,-0.0614625,0.0444125
1679929892059,1109880411027343,-0.1892,-0.057475,0.0543125
1679929892062,1109880413529497,-0.20625,-0.0534875,0.0633875
1679929892064,1109880416031550,-0.2233,-0.0504625,0.072325
1679929892066,1109880418533396,-0.236225,-0.0484,0.0793375
1679929892067,1109880421035319,-0.2492875,-0.0493625,0.0853875
1679929892069,1109880423537396,-0.2652375,-0.043449998,0.0933625
1679929892071,1109880426039319,-0.2811875,-0.0394625,0.0994125
1679929892073,1109880428541382,-0.297275,-0.0383625,0.106425
1679929892076,1109880431043305,-0.3122625,-0.0374,0.1123375
1679929892079,1109880433545382,-0.3251875,-0.0394625,0.11935
1679929892081,1109880436047305,-0.33825,-0.032449998,0.1263625
1679929892084,1109880438549142,-0.3471875,-0.0334125,0.138325
1679929892087,1109880441051219,-0.3562625,-0.0334125,0.1434125
1679929892089,1109880443553142,-0.3663,-0.0314875,0.149325
1679929892093,1109880446055219,-0.374275,-0.0284625,0.160325
1679929892095,1109880448557367,-0.379225,-0.0264,0.1694
1679929892097,1109880451059214,-0.3843125,-0.0224125,0.1753125
1679929892100,1109880453561137,-0.3883,-0.02145,0.182325
1679929892102,1109880456063214,-0.3922875,-0.0204875,0.194425
1679929892103,1109880458565137,-0.39627498,-0.0224125,0.2024
1679929892106,1109880461066950,-0.3972375,-0.0264,0.2083125
1679929892109,1109880463569027,-0.3972375,-0.0314875,0.2143625
1679929892111,1109880466071181,-0.39421248,-0.035475,0.21835
1679929892114,1109880468573104,-0.39421248,-0.0424875,0.2244
1679929892117,1109880471075200,-0.3953125,-0.0484,0.22935
1679929892119,1109880473577046,-0.3883,-0.0603625,0.2303125
1679929892124,1109880476078969,-0.3812875,-0.0704,0.2363625
1679929892127,1109880478581046,-0.3722125,-0.084425,0.23539999
1679929892128,1109880481082873,-0.3592875,-0.0994125,0.2393875
1679929892131,1109880483585027,-0.3482875,-0.1144,0.2413125
1679929892133,1109880486086950,-0.3392125,-0.1324125,0.2424125
1679929892134,1109880488589027,-0.3251875,-0.15345,0.2473625
1679929892136,1109880491090950,-0.3113,-0.1714625,0.248325
1679929892139,1109880493592776,-0.2982375,-0.1904375,0.249425
1679929892143,1109880496094853,-0.286275,-0.2143625,0.248325
1679929892144,1109880498597007,-0.2682625,-0.2344375,0.248325
1679929892146,1109880501098930,-0.2542375,-0.2564375,0.249425
1679929892149,1109880503600771,-0.2402125,-0.27445,0.248325
1679929892151,1109880506102848,-0.2233,-0.2954875,0.25135
1679929892153,1109880508604771,-0.2072125,-0.3144625,0.248325
1679929892156,1109880511106848,-0.1912625,-0.3364625,0.2424125
1679929892159,1109880513608708,-0.17325,-0.3603875,0.2413125
1679929892161,1109880516110862,-0.1573,-0.3784,0.237325
1679929892163,1109880518612785,-0.1442375,-0.39545,0.23539999
1679929892167,1109880521114862,-0.126225,-0.4134625,0.2303125
1679929892170,1109880523616703,-0.113299996,-0.4324375,0.2283875
1679929892172,1109880526118626,-0.09625,-0.4514125,0.2223375
1679929892174,1109880528620703,-0.0803,-0.4703875,0.2204125
1679929892176,1109880531122626,-0.06325,-0.485375,0.2134
1679929892182,1109880533624684,-0.0482625,-0.4984375,0.2094125
1679929892191,1109880536126607,-0.0292875,-0.5064125,0.2094125
1679929892191,1109880538628684,-0.016224999,-0.51645,0.20735
1679929892191,1109880541130607,-0.0022,-0.52442497,0.204325
1679929892192,1109880543632453,0.014712499,-0.5253875,0.2033625
1679929892192,1109880546134530,0.0336875,-0.52745,0.2033625
1679929892193,1109880548636453,0.0477125,-0.5333625,0.2013
1679929892196,1109880551138607,0.0617375,-0.5314375,0.199375
1679929892199,1109880553640477,0.0748,-0.52442497,0.1973125
1679929892201,1109880556142554,0.087725,-0.518375,0.194425
1679929892205,1109880558644401,0.104775,-0.5104,0.1923625
1679929892206,1109880561146554,0.1106875,-0.507375,0.1903
1679929892210,1109880563648473,0.1197625,-0.4994,0.1903
1679929892211,1109880566150549,0.1287,-0.4934875,0.1863125
1679929892213,1109880568652396,0.1368125,-0.486475,0.18535
1679929892217,1109880571154319,0.1436875,-0.4764375,0.183425
1679929892219,1109880573656396,0.1546875,-0.464475,0.183425
1679929892222,1109880576158305,0.164725,-0.46048748,0.1804
1679929892224,1109880578660382,0.16775,-0.4483875,0.1813625
1679929892226,1109880581162305,0.1687125,-0.4334,0.183425
1679929892229,1109880583664382,0.170775,-0.4233625,0.18535
1679929892231,1109880586166305,0.1766875,-0.4104375,0.18535
1679929892233,1109880588668160,0.1808125,-0.4013625,0.182325
1679929892236,1109880591170237,0.175725,-0.3804625,0.182325
1679929892239,1109880593672160,0.175725,-0.36245,0.1863125
1679929892242,1109880596174314,0.1698125,-0.3474625,0.183425
1679929892244,1109880598676165,0.16775,-0.3334375,0.1804
1679929892246,1109880601178242,0.1617,-0.31239998,0.183425
1679929892249,1109880603680165,0.1546875,-0.2924625,0.182325
1679929892251,1109880606182242,0.1447875,-0.2684,0.1793
1679929892253,1109880608684165,0.137775,-0.249425,0.1804
1679929892256,1109880611185997,0.131725,-0.227425,0.1793
1679929892259,1109880613688151,0.1188,-0.2014375,0.1783375
1679929892261,1109880616190228,0.1106875,-0.177375,0.1753125
1679929892263,1109880618692074,0.1027125,-0.15345,0.177375
1679929892266,1109880621194001,0.0947375,-0.1293875,0.1764125
1679929892269,1109880623696078,0.0847,-0.1084875,0.1753125
1679929892271,1109880626198001,0.0697125,-0.078375,0.17435
1679929892273,1109880628699847,0.060775,-0.0493625,0.172425
1679929892276,1109880631202021,0.0477125,-0.02145,0.171325
1679929892282,1109880633704098,0.0367125,0.0056375,0.166375
1679929892283,1109880636206021,0.0237875,0.031625,0.166375
1679929892284,1109880638707867,0.0127875,0.063525,0.1643125
1679929892286,1109880641209967,-2.75E-4,0.0906125,0.1593625
1679929892289,1109880643711890,-0.0132,0.115637496,0.1584
1679929892291,1109880646213967,-0.0262625,0.1395625,0.1584
1679929892293,1109880648715890,-0.041249998,0.162525,0.150425
1679929892296,1109880651217958,-0.0543125,0.1835625,0.14739999
1679929892299,1109880653719881,-0.0672375,0.19855,0.1434125
1679929892304,1109880656221958,-0.0792,0.2165625,0.138325
1679929892305,1109880658723804,-0.0902,0.229625,0.133375
1679929892306,1109880661225728,-0.0983125,0.2376,0.1313125
1679929892309,1109880663727819,-0.113299996,0.2435125,0.128425
1679929892311,1109880666229973,-0.1282875,0.245575,0.117425
1679929892315,1109880668731819,-0.14025,0.24653749,0.1123375
1679929892318,1109880671233729,-0.154275,0.24255,0.1093125
1679929892320,1109880673735805,-0.1692625,0.2336125,0.105325
1679929892323,1109880676237729,-0.1821875,0.2165625,0.0983125
1679929892326,1109880678739575,-0.1942875,0.2006125,0.095425
1679929892327,1109880681241729,-0.203225,0.1915375,0.0933625
1679929892330,1109880683743805,-0.2123,0.1665125,0.089375
1679929892331,1109880686245729,-0.2162875,0.14355,0.0884125
1679929892333,1109880688747575,-0.2242625,0.118525,0.0823625
1679929892336,1109880691249652,-0.2261875,0.097625,0.078375
1679929892340,1109880693751594,-0.225225,0.0705375,0.0774125
1679929892344,1109880696253671,-0.2272875,0.042625,0.0743875
1679929892346,1109880698755825,-0.225225,0.0166375,0.072325
1679929892346,1109880701257671,-0.2242625,-0.0144375,0.067375
1679929892350,1109880703759618,-0.2233,-0.043449998,0.06435
1679929892352,1109880706261695,-0.2182125,-0.0754875,0.0594
1679929892355,1109880708763618,-0.2112,-0.1073875,0.05335
1679929892357,1109880711265464,-0.20625,-0.1364,0.050325
1679929892360,1109880713767541,-0.2041875,-0.1703625,0.0433125
1679929892362,1109880716269695,-0.1973125,-0.20047499,0.034375
1679929892363,1109880718771618,-0.1931875,-0.2314125,0.0273625
1679929892368,1109880721273464,-0.18727499,-0.2583625,0.017324999
1679929892370,1109880723775527,-0.1793,-0.2904,0.0083875
1679929892372,1109880726277681,-0.1772375,-0.3224375,-6.875E-4
1679929892374,1109880728779527,-0.17325,-0.35145,-0.009625
1679929892376,1109880731281450,-0.1632125,-0.375375,-0.0226875
1679929892381,1109880733783527,-0.15619999,-0.398475,-0.0325875
1679929892383,1109880736285455,-0.1533125,-0.4233625,-0.042625
1679929892384,1109880738787301,-0.1452,-0.4464625,-0.053625
1679929892386,1109880741289378,-0.1381875,-0.47341248,-0.0606375
1679929892389,1109880743791532,-0.1332375,-0.4893625,-0.073699996
1679929892394,1109880746293430,-0.126225,-0.4994,-0.0836
1679929892397,1109880748795276,-0.1192125,-0.5143875,-0.08965
1679929892398,1109880751297353,-0.1142625,-0.52745,-0.0985875
1679929892401,1109880753799276,-0.1051875,-0.535425,-0.103675
1679929892402,1109880756301353,-0.0972125,-0.5424375,-0.1076625
1679929892403,1109880758803190,-0.088275,-0.546425,-0.11165
1679929892406,1109880761305344,-0.088275,-0.5484875,-0.1186625
1679929892409,1109880763807267,-0.0831875,-0.5484875,-0.124575
1679929892411,1109880766309344,-0.077275,-0.5484875,-0.1287
1679929892414,1109880768811204,-0.0702625,-0.5454625,-0.130625
1679929892417,1109880771313127,-0.0611875,-0.5473875,-0.1346125
1679929892420,1109880773815204,-0.0583,-0.5473875,-0.135575
1679929892422,1109880776317127,-0.055275,-0.5424375,-0.136675
1679929892424,1109880778819199,-0.0501875,-0.541475,-0.13859999
1679929892426,1109880781321122,-0.0462,-0.5344625,-0.1406625
1679929892433,1109880783823199,-0.0391875,-0.52745,-0.1397
1679929892435,1109880786325122,-0.0372625,-0.5223625,-0.1406625
1679929892436,1109880788827204,-0.0292875,-0.51645,-0.1425875
1679929892437,1109880791329051,-0.0281875,-0.508475,-0.14465
1679929892440,1109880793830974,-0.022275,-0.497475,-0.1436875
1679929892441,1109880796333127,-0.016224999,-0.4934875,-0.1406625
1679929892444,1109880798835204,-0.011275,-0.48839998,-0.141625
1679929892446,1109880801337017,-0.0042625,-0.4783625,-0.1436875
1679929892451,1109880803838940,0.0017875,-0.464475,-0.1456125
1679929892452,1109880806341017,0.0097624995,-0.4554,-0.147675
1679929892454,1109880808842940,0.0187,-0.4483875,-0.1456125
1679929892456,1109880811344762,0.0257125,-0.4404125,-0.1496
1679929892459,1109880813846916,0.0347875,-0.42941248,-0.152625
1679929892462,1109880816348993,0.0427625,-0.4184125,-0.15565
1679929892464,1109880818850916,0.0427625,-0.4134625,-0.157575
1679929892467,1109880821353003,0.0488125,-0.403425,-0.158675
1679929892471,1109880823854849,0.0556875,-0.39545,-0.163625
1679929892473,1109880826356772,0.05775,-0.386375,-0.1656875
1679929892475,1109880828858849,0.0587125,-0.3784,-0.169675
1679929892477,1109880831361003,0.0617375,-0.3694625,-0.174625
1679929892480,1109880833862839,0.0666875,-0.3573625,-0.1786125
1679929892483,1109880836364762,0.0677875,-0.3493875,-0.185625
1679929892484,1109880838866839,0.0708125,-0.3394875,-0.19167499
1679929892487,1109880841368762,0.0697125,-0.3254625,-0.2006125
1679929892490,1109880843870627,0.0708125,-0.315425,-0.207625
1679929892491,1109880846372781,0.071775,-0.298375,-0.21367499
1679929892494,1109880848874858,0.0677875,-0.28545,-0.218625
1679929892496,1109880851376781,0.065725,-0.2734875,-0.2226125
1679929892501,1109880853878627,0.0638,-0.2534125,-0.2305875
1679929892502,1109880856380704,0.060775,-0.2374625,-0.234575
1679929892506,1109880858882627,0.05775,-0.2143625,-0.2366375
1679929892507,1109880861384704,0.0528,-0.194425,-0.2396625
1679929892510,1109880863886617,0.0528,-0.177375,-0.2396625
1679929892512,1109880866388694,0.0537625,-0.1544125,-0.2376
1679929892514,1109880868890617,0.0517,-0.134475,-0.2387
1679929892517,1109880871392694,0.0507375,-0.111375,-0.23567499
1679929892520,1109880873894540,0.0488125,-0.0864875,-0.2366375
1679929892522,1109880876396463,0.0457875,-0.0594,-0.234575
1679929892525,1109880878898540,0.0517,-0.0303875,-0.23265
1679929892528,1109880881400463,0.0517,-0.0064625,-0.2305875
1679929892530,1109880883902540,0.0528,0.020624999,-0.2286625
1679929892533,1109880886404458,0.0528,0.0515625,-0.2286625
1679929892534,1109880888906535,0.0537625,0.0815375,-0.22659999
1679929892537,1109880891408381,0.054725,0.1095875,-0.2256375
1679929892540,1109880893910550,0.0587125,0.13859999,-0.2277
1679929892544,1109880896412473,0.060775,0.1665125,-0.2305875
1679929892546,1109880898914550,0.0647625,0.1936,-0.2316875
1679929892547,1109880901416396,0.06875,0.217525,-0.2376
1679929892550,1109880903918333,0.0727375,0.24653749,-0.2396625
1679929892552,1109880906420410,0.073699996,0.2745875,-0.2426875
1679929892554,1109880908922564,0.0748,0.295625,-0.2497
1679929892556,1109880911424410,0.0787875,0.3146,-0.25465
1679929892560,1109880913926333,0.0807125,0.3356375,-0.2607
1679929892561,1109880916428434,0.0776875,0.349525,-0.267575
1679929892564,1109880918930358,0.0807125,0.3656125,-0.2726625
1679929892566,1109880921432204,0.0818125,0.382525,-0.279675
1679929892569,1109880923934281,0.076725,0.3955875,-0.2827
1679929892571,1109880926436443,0.0776875,0.4026,-0.28765
1679929892574,1109880928938367,0.0807125,0.410575,-0.28861248
1679929892576,1109880931440213,0.0776875,0.4126375,-0.2976875
1679929892581,1109880933942290,0.076725,0.410575,-0.2996125
1679929892583,1109880936444194,0.076725,0.40755,-0.3026375
1679929892585,1109880938946040,0.0787875,0.3986125,-0.3036
1679929892587,1109880941448117,0.0807125,0.393525,-0.3036
1679929892590,1109880943950271,0.0818125,0.3796375,-0.3036
1679929892592,1109880946452194,0.0818125,0.361625,-0.3036
1679929892594,1109880948954040,0.0837375,0.344575,-0.301675
1679929892596,1109880951456117,0.087725,0.322575,-0.3026375
1679929892600,1109880953958040,0.0886875,0.30153748,-0.301675
1679929892602,1109880956460117,0.087725,0.2806375,-0.301675
1679929892604,1109880958961968,0.0897875,0.2545125,-0.300575
1679929892606,1109880961464122,0.09075,0.2305875,-0.2996125
1679929892611,1109880963966045,0.0928125,0.2055625,-0.3036
1679929892612,1109880966468122,0.09075,0.18259999,-0.3036
1679929892614,1109880968970001,0.0917125,0.1596375,-0.3047
1679929892618,1109880971471924,0.0928125,0.129525,-0.3047
1679929892621,1109880973974001,0.0977625,0.1016125,-0.306625
1679929892623,1109880976475924,0.10175,0.0785125,-0.3086875
1679929892625,1109880978978103,0.0996875,0.0515625,-0.3075875
1679929892627,1109880981479949,0.1027125,0.0286,-0.30965
1679929892629,1109880983982026,0.1078,0.0056375,-0.312675
1679929892631,1109880986483949,0.109725,-0.02145,-0.3166625
1679929892634,1109880988985795,0.1117875,-0.0484,-0.3146
1679929892637,1109880991487843,0.1148125,-0.0724625,-0.3157
1679929892641,1109880993989766,0.120725,-0.095425,-0.3166625
1679929892642,1109880996491920,0.120725,-0.1164625,-0.3166625
1679929892644,1109880998993997,0.1247125,-0.1373625,-0.3146
1679929892646,1109881001495838,0.1307625,-0.1634875,-0.317625
1679929892651,1109881003997761,0.13475,-0.1804,-0.3185875
1679929892652,1109881006499838,0.1387375,-0.2014375,-0.3185875
1679929892655,1109881009001761,0.142725,-0.221375,-0.3196875
1679929892657,1109881011503919,0.14973749,-0.2404875,-0.3196875
1679929892660,1109881014005765,0.14973749,-0.2624875,-0.3196875
1679929892664,1109881016507842,0.1527625,-0.2754125,-0.3196875
1679929892666,1109881019009765,0.15675,-0.2904,-0.32065
1679929892667,1109881021511842,0.1607375,-0.3084125,-0.3246375
1679929892671,1109881024013751,0.1607375,-0.31845,-0.3256
1679929892672,1109881026515598,0.1577125,-0.332475,-0.3246375
1679929892674,1109881029017751,0.1557875,-0.342375,-0.3295875
1679929892677,1109881031519828,0.153725,-0.342375,-0.33261248
1679929892679,1109881034021780,0.1527625,-0.3463625,-0.3295875
1679929892681,1109881036523627,0.1518,-0.3524125,-0.3295875
1679929892684,1109881039025703,0.148775,-0.3504875,-0.33261248
1679929892687,1109881041527627,0.14973749,-0.348425,-0.3267
1679929892690,1109881044029727,0.1478125,-0.348425,-0.3256
1679929892693,1109881046531651,0.1467125,-0.3394875,-0.323675
1679929892695,1109881049033728,0.1467125,-0.3353625,-0.3185875
1679929892697,1109881051535651,0.1478125,-0.3304125,-0.3136375
1679929892700,1109881054037502,0.14973749,-0.3224375,-0.3075875
1679929892702,1109881056539579,0.1518,-0.3114375,-0.301675
1679929892704,1109881059041502,0.1557875,-0.3004375,-0.2946625
1679929892707,1109881061543579,0.153725,-0.2904,-0.29067498
1679929892709,1109881064045487,0.1527625,-0.2814625,-0.28765
1679929892711,1109881066547564,0.1527625,-0.2674375,-0.279675
1679929892715,1109881069049410,0.1527625,-0.25245,-0.2726625
1679929892717,1109881071551333,0.153725,-0.2404875,-0.2706
1679929892720,1109881074053487,0.1507,-0.2264625,-0.2646875
1679929892724,1109881076555530,0.1518,-0.211475,-0.2646875
1679929892725,1109881079057376,0.1507,-0.194425,-0.25959998
1679929892726,1109881081559299,0.1507,-0.1813625,-0.2586375
1679929892731,1109881084061396,0.14973749,-0.166375,-0.257675
1679929892733,1109881086563319,0.1478125,-0.150425,-0.2536875
1679929892735,1109881089065396,0.148775,-0.133375,-0.25465
1679929892736,1109881091567550,0.14973749,-0.1183875,-0.2556125
1679929892740,1109881094069396,0.1478125,-0.101475,-0.2536875
1679929892744,1109881096571338,0.14973749,-0.084425,-0.25465
1679929892747,1109881099073415,0.1507,-0.0704,-0.2536875
1679929892748,1109881101575261,0.1518,-0.054449998,-0.2486
1679929892750,1109881104077184,0.14973749,-0.0383625,-0.251625
1679929892751,1109881106579261,0.1527625,-0.0273625,-0.25465
1679929892754,1109881109081444,0.1546875,-0.0163625,-0.251625
1679929892757,1109881111583367,0.1546875,-0.0044,-0.2556125
1679929892759,1109881114085213,0.1546875,0.0056375,-0.2536875
1679929892762,1109881116587290,0.153725,0.014575,-0.2525875
1679929892764,1109881119089232,0.1546875,0.019524999,-0.2497
1679929892768,1109881121591309,0.1546875,0.0265375,-0.2486
1679929892771,1109881124093155,0.1557875,0.03355,-0.2486
1679929892773,1109881126595309,0.15675,0.0375375,-0.246675
1679929892775,1109881129097227,0.1577125,0.0405625,-0.2446125
1679929892777,1109881131599304,0.1607375,0.0466125,-0.240625
1679929892779,1109881134101227,0.164725,0.0485375,-0.2387
1679929892784,1109881136603073,0.1667875,0.052525,-0.23567499
1679929892785,1109881139105150,0.170775,0.05555,-0.2316875
1679929892786,1109881141607078,0.17173749,0.05555,-0.2277
1679929892790,1109881144109232,0.1727,0.0576125,-0.22659999
1679929892791,1109881146611078,0.17173749,0.0545875,-0.223575
1679929892794,1109881149113155,0.1747625,0.0515625,-0.2195875
1679929892797,1109881151615044,0.1727,0.0515625,-0.218625
1679929892800,1109881154117121,0.17379999,0.04455,-0.218625
1679929892802,1109881156618968,0.1747625,0.0435875,-0.218625
1679929892807,1109881159120891,0.176825,0.0405625,-0.2156
1679929892817,1109881161623068,0.1797125,0.0345125,-0.2146375
1679929892817,1109881164124915,0.176825,0.0295625,-0.2156
1679929892817,1109881166626992,0.1777875,0.020624999,-0.2116125
1679929892817,1109881169128915,0.176825,0.01155,-0.2096875
1679929892818,1109881171630992,0.1777875,0.0015125,-0.2057
1679929892819,1109881174132868,0.1747625,-0.0064625,-0.2046
1679929892822,1109881176634791,0.1747625,-0.0144375,-0.2066625
1679929892824,1109881179136945,0.17379999,-0.0224125,-0.2036375
1679929892826,1109881181639022,0.1727,-0.032449998,-0.19965
1679929892829,1109881184140859,0.17173749,-0.0364375,-0.201575
1679929892831,1109881186642782,0.165825,-0.0504625,-0.202675
1679929892834,1109881189144859,0.1617,-0.0603625,-0.202675
1679929892837,1109881191646782,0.1577125,-0.067375,-0.202675
1679929892839,1109881194148878,0.153725,-0.0724625,-0.201575
1679929892843,1109881196650801,0.1507,-0.084425,-0.201575
1679929892844,1109881199152878,0.1447875,-0.0853875,-0.2057
1679929892846,1109881201654801,0.137775,-0.0853875,-0.21065
1679929892851,1109881204156623,0.12375,-0.090475,-0.21065
1679929892852,1109881206658700,0.1227875,-0.0994125,-0.21367499
1679929892854,1109881209160623,0.1188,-0.100375,-0.2167
1679929892856,1109881211662777,0.1038125,-0.100375,-0.2206875
1679929892859,1109881214164603,0.0977625,-0.102437496,-0.2226125
1679929892862,1109881216666680,0.088825,-0.1073875,-0.2226125
1679929892864,1109881219168603,0.0787875,-0.10945,-0.22165
1679929892866,1109881221670680,0.0708125,-0.1084875,-0.2226125
1679929892870,1109881224172589,0.0617375,-0.1073875,-0.218625
1679929892872,1109881226674435,0.055825,-0.1054625,-0.2176625
1679929892874,1109881229176589,0.0477125,-0.102437496,-0.2146375
1679929892877,1109881231678435,0.0407,-0.0974875,-0.2085875
1679929892885,1109881234180493,0.0367125,-0.0974875,-0.2036375
1679929892886,1109881236682416,0.0367125,-0.0924,-0.19965
1679929892886,1109881239184570,0.0257125,-0.091437496,-0.1947
1679929892887,1109881241686416,0.0237875,-0.0864875,-0.1896125
1679929892891,1109881244188493,0.0207625,-0.0774125,-0.1865875
1679929892892,1109881246690416,0.0207625,-0.0704,-0.1837
1679929892894,1109881249192498,0.0177375,-0.068475,-0.1786125
1679929892896,1109881251694344,0.014712499,-0.0603625,-0.1727
1679929892900,1109881254196267,0.0097624995,-0.0534875,-0.169675
1679929892902,1109881256698426,0.0088,-0.0523875,-0.1645875
1679929892904,1109881259200503,0.0017875,-0.0484,-0.1606
1679929892907,1109881261702349,8.25E-4,-0.0424875,-0.1596375
1679929892910,1109881264204272,-0.0022,-0.0383625,-0.157575
1679929892911,1109881266706349,-0.0042625,-0.029424999,-0.1507
1679929892914,1109881269208257,-0.005225,-0.0254375,-0.1507
1679929892918,1109881271710104,-0.0061875,-0.0204875,-0.1516625
1679929892921,1109881274212258,-0.0072875,-0.0154,-0.1486375
1679929892928,1109881276713247,-0.0092124995,-0.01045,-0.147675
1679929892928,1109881279214286,-0.010175,-0.0044,-0.1486375
1679929892930,1109881281718056,-0.0092124995,-0.0034375,-0.147675
1679929892932,1109881284220133,-0.0122375,-0.002475,-0.14465
1679929892933,1109881286722056,-0.0122375,5.5E-4,-0.147675
1679929892934,1109881289224133,-0.011275,0.0026125,-0.1496
1679929892937,1109881291726276,-0.010175,5.5E-4,-0.1535875
1679929892940,1109881294228123,-0.0143,-0.0034375,-0.1535875
1679929892944,1109881296730046,-0.0132,-0.0064625,-0.1596375
1679929892945,1109881299232123,-0.0182875,-0.01045,-0.1645875
1679929892946,1109881301734041,-0.0202125,-0.0163625,-0.16665
1679929892951,1109881304235887,-0.0242,-0.0224125,-0.1706375
1679929892952,1109881306737964,-0.0281875,-0.029424999,-0.1766875
1679929892956,1109881309240118,-0.0363,-0.0374,-0.180675
1679929892957,1109881311742027,-0.0372625,-0.046475,-0.1816375
1679929892960,1109881314244104,-0.0402875,-0.057475,-0.1816375
1679929892962,1109881316745950,-0.044275,-0.0644875,-0.1846625
1679929892964,1109881319247873,-0.0462,-0.0704,-0.1816375
1679929892967,1109881321749950,-0.0452375,-0.0754875,-0.1766875
1679929892970,1109881324251873,-0.0482625,-0.0834625,-0.174625
1679929892972,1109881326753950,-0.049225,-0.0884125,-0.1716
1679929892974,1109881329255873,-0.0512875,-0.0933625,-0.16665
1679929892977,1109881331757950,-0.0473,-0.0963875,-0.1596375
1679929892980,1109881334259878,-0.0462,-0.101475,-0.15565
1679929892983,1109881336761724,-0.0462,-0.1054625,-0.1535875
1679929892985,1109881339263801,-0.0462,-0.1073875,-0.1516625
1679929892987,1109881341765724,-0.044275,-0.1104125,-0.1496
1679929892990,1109881344267863,-0.044275,-0.112475,-0.14465
1679929892993,1109881346769709,-0.041249998,-0.1084875,-0.141625
1679929892995,1109881349271786,-0.041249998,-0.1073875,-0.1397
1679929892997,1109881351773709,-0.0372625,-0.1073875,-0.1406625
1679929893002,1109881354275801,-0.0372625,-0.1034,-0.1376375
1679929893002,1109881356777647,-0.0363,-0.100375,-0.13365
1679929893004,1109881359279801,-0.0342375,-0.09845,-0.1326875
1679929893007,1109881361781724,-0.0363,-0.0963875,-0.1315875
1679929893010,1109881364283801,-0.033275,-0.0933625,-0.1266375
1679929893012,1109881366785637,-0.033275,-0.0924,-0.124575
1679929893017,1109881369287560,-0.0292875,-0.084425,-0.1186625
1679929893019,1109881371789637,-0.027224999,-0.07645,-0.1126125
1679929893021,1109881374291560,-0.0232375,-0.0713625,-0.1095875
1679929893023,1109881376793613,-0.0232375,-0.0694375,-0.103675
1679929893024,1109881379295536,-0.022275,-0.0594,-0.0996875
1679929893027,1109881381797613,-0.01925,-0.0484,-0.093637496
1679929893035,1109881384299445,-0.015262499,-0.0413875,-0.0875875
1679929893036,1109881386801369,-0.0132,-0.032449998,-0.081675
1679929893037,1109881389303445,-0.00825,-0.024475,-0.0765875
1679929893037,1109881391805369,-0.0061875,-0.0204875,-0.070675
1679929893040,1109881394307445,-2.75E-4,-0.0144375,-0.0655875
1679929893042,1109881396809369,0.0048125,-0.0083875,-0.0616
1679929893044,1109881399311459,0.005775,-0.007425,-0.0606375
1679929893047,1109881401813383,0.0097624995,-0.0064625,-0.0606375
1679929893051,1109881404315460,0.014712499,-0.0064625,-0.059675
1679929893053,1109881406817383,0.0187,-0.0083875,-0.056649998
1679929893054,1109881409319498,0.0207625,-0.012375,-0.0545875
1679929893057,1109881411821421,0.0257125,-0.0163625,-0.0545875
1679929893060,1109881414323498,0.0287375,-0.0254375,-0.053625
1679929893063,1109881416825344,0.03575,-0.0303875,-0.0526625
1679929893065,1109881419327262,0.038775,-0.043449998,-0.053625
1679929893068,1109881421829416,0.0427625,-0.051425,-0.0526625
1679929893071,1109881424331493,0.044825,-0.0633875,-0.0526625
1679929893073,1109881426833339,0.0488125,-0.0724625,-0.0496375
1679929893075,1109881429335248,0.0517,-0.0814,-0.048675
1679929893077,1109881431837325,0.0537625,-0.08745,-0.045649998
1679929893080,1109881434339248,0.054725,-0.0974875,-0.0435875
1679929893082,1109881436841094,0.055825,-0.1084875,-0.047575
1679929893084,1109881439343248,0.0537625,-0.1153625,-0.0446875
1679929893087,1109881441845330,0.0517,-0.122375,-0.0435875
1679929893089,1109881444347253,0.0537625,-0.1304875,-0.0407
1679929893092,1109881446849099,0.0517,-0.1364,-0.042625
1679929893094,1109881449351176,0.0488125,-0.1373625,-0.042625
1679929893096,1109881451853132,0.0488125,-0.1403875,-0.0435875
1679929893100,1109881454355209,0.0477125,-0.1403875,-0.0416625
1679929893102,1109881456857132,0.0427625,-0.145475,-0.042625
1679929893105,1109881459359209,0.0378125,-0.144375,-0.0416625
1679929893107,1109881461861137,0.0347875,-0.1384625,-0.042625
1679929893110,1109881464363214,0.033825,-0.1364,-0.047575
1679929893113,1109881466865060,0.0268125,-0.13145,-0.0446875
1679929893115,1109881469366983,0.0207625,-0.1254,-0.047575
1679929893117,1109881471869070,0.014712499,-0.111375,-0.048675
1679929893119,1109881474371224,0.0088,-0.101475,-0.048675
1679929893122,1109881476873070,0.0088,-0.091437496,-0.045649998
1679929893124,1109881479374993,0.00275,-0.078375,-0.0416625
1679929893126,1109881481877070,8.25E-4,-0.0614625,-0.0396
1679929893129,1109881484378926,-0.0012375,-0.0444125,-0.037675
1679929893132,1109881486880849,-0.0012375,-0.032449998,-0.034649998
1679929893134,1109881489382926,-0.0061875,-0.013475,-0.0336875
1679929893136,1109881491885080,-0.0072875,0.0015125,-0.0297
1679929893139,1109881494386958,-0.005225,0.019524999,-0.0276375
1679929893144,1109881496888881,-0.0072875,0.0356125,-0.025575
1679929893145,1109881499390958,-0.00825,0.053625,-0.02365
1679929893147,1109881501892881,-0.010175,0.0785125,-0.0246125
1679929893153,1109881504394949,-0.0122375,0.097625,-0.02365
1679929893153,1109881506896796,-0.0122375,0.118525,-0.020624999
1679929893158,1109881509398949,-0.0122375,0.1346125,-0.020624999
1679929893159,1109881511900872,-0.0132,0.15853749,-0.0187
1679929893161,1109881514402939,-0.0122375,0.179575,-0.020624999
1679929893162,1109881516904786,-0.011275,0.2006125,-0.0215875
1679929893164,1109881519406709,-0.015262499,0.2215125,-0.0196625
1679929893167,1109881521908786,-0.015262499,0.2366375,-0.0215875
1679929893170,1109881524410685,-0.0143,0.250525,-0.0215875
1679929893172,1109881526912762,-0.016224999,0.267575,-0.0215875
1679929893174,1109881529414685,-0.0182875,0.28655,-0.0215875
1679929893177,1109881531916762,-0.0202125,0.300575,-0.0187
1679929893182,1109881534418670,-0.0232375,0.3155625,-0.0166375
1679929893185,1109881536920747,-0.0253,0.328625,-0.015675
1679929893187,1109881539422593,-0.0232375,0.3356375,-0.015675
1679929893189,1109881541924747,-0.0242,0.34553748,-0.01265
1679929893192,1109881544426670,-0.0262625,0.3576375,-0.0116875
1679929893193,1109881546928786,-0.03025,0.3686375,-0.009625
1679929893194,1109881549430709,-0.0312125,0.377575,-0.0086624995
1679929893197,1109881551932555,-0.033275,0.3815625,-0.004675
1679929893200,1109881554434632,-0.0372625,0.38555,-0.0026125
1679929893202,1109881556936555,-0.0342375,0.3906375,-0.0026125
1679929893204,1109881559438723,-0.041249998,0.3906375,-0.00165
1679929893207,1109881561940492,-0.0452375,0.3916,4.125E-4
1679929893209,1109881564442415,-0.0452375,0.394625,0.001375
1679929893212,1109881566944492,-0.0452375,0.3906375,0.001375
1679929893214,1109881569446410,-0.0482625,0.38555,0.0044
1679929893218,1109881571948487,-0.0473,0.3845875,0.0033
1679929893221,1109881574450410,-0.0512875,0.3815625,0.0033
1679929893223,1109881576952487,-0.0562375,0.372625,0.0053625
1679929893225,1109881579454396,-0.0562375,0.3656125,0.0033
1679929893227,1109881581956242,-0.055275,0.360525,0.0053625
1679929893230,1109881584458319,-0.060225,0.350625,0.0053625
1679929893232,1109881586960473,-0.06325,0.34155,0.0053625
1679929893234,1109881589462396,-0.0672375,0.3315125,0.0053625
1679929893237,1109881591964251,-0.069299996,0.31955,0.006325
1679929893240,1109881594466328,-0.066275,0.3045625,0.0053625
1679929893242,1109881596968251,-0.071225,0.295625,0.0083875
1679929893246,1109881599470328,-0.071225,0.2806375,0.0103124995
1679929893247,1109881601972261,-0.0702625,0.267575,0.0133375
1679929893249,1109881604474338,-0.0732875,0.2525875,0.0143
1679929893252,1109881606976261,-0.07425,0.2385625,0.017324999
1679929893256,1109881609478338,-0.07425,0.2256375,0.0163625
1679929893257,1109881611980247,-0.0752125,0.2116125,0.0154
1679929893260,1109881614482324,-0.0752125,0.20253749,0.0163625
1679929893263,1109881616984170,-0.077275,0.1915375,0.0213125
1679929893265,1109881619486093,-0.0803,0.18053749,0.0163625
1679929893267,1109881621988247,-0.082225,0.1695375,0.017324999
1679929893270,1109881624490328,-0.0862125,0.1596375,0.0143
1679929893272,1109881626992251,-0.0842875,0.1486375,0.0114124995
1679929893274,1109881629494098,-0.0831875,0.13859999,0.012375
1679929893277,1109881631996174,-0.0792,0.135575,0.0114124995
1679929893280,1109881634498089,-0.0782375,0.1315875,0.0103124995
1679929893282,1109881636999935,-0.076175,0.1255375,0.007425
1679929893284,1109881639502089,-0.071225,0.1276,0.0053625
1679929893287,1109881642004165,-0.0721875,0.1285625,0.0033
1679929893290,1109881644506084,-0.0732875,0.1276,-6.875E-4
1679929893293,1109881647008160,-0.0721875,0.1335125,-0.004675
1679929893295,1109881649510007,-0.07425,0.13653749,-0.004675
1679929893297,1109881652011930,-0.077275,0.146575,-0.0077
1679929893300,1109881654514002,-0.0782375,0.151525,-0.0116875
1679929893302,1109881657015925,-0.082225,0.15455,-0.01265
1679929893304,1109881659518002,-0.0842875,0.162525,-0.015675
1679929893307,1109881662019925,-0.0842875,0.168575,-0.014575
1679929893310,1109881664521983,-0.088275,0.1725625,-0.0166375
1679929893312,1109881667023829,-0.0902,0.1786125,-0.01265
1679929893316,1109881669525752,-0.0922625,0.18259999,-0.01265
1679929893318,1109881672027829,-0.093225,0.1896125,-0.0116875
1679929893319,1109881674529983,-0.0911625,0.1926375,-0.009625
1679929893325,1109881677031829,-0.093225,0.1936,-0.0077
1679929893326,1109881679533752,-0.093225,0.1945625,-0.0066
1679929893327,1109881682035829,-0.09625,0.1945625,-0.004675
1679929893331,1109881684537752,-0.0972125,0.1945625,-0.00165
1679929893334,1109881687039598,-0.09625,0.1885125,4.125E-4
1679929893335,1109881689541675,-0.1021625,0.1865875,0.001375
1679929893337,1109881692043829,-0.1051875,0.1835625,0.0023375
1679929893340,1109881694545752,-0.1051875,0.18259999,0.0023375
