system_ts_ms, sensor_ts_ns, accX, accY, accZ
1679929888430,1109876783149116,0.11895001,5.1529503,8.52795
1679929888431,1109876785651039,0.06105,5.196,8.50395
1679929888432,1109876788153160,0.16605,5.2270503,8.530951
1679929888435,1109876790655083,0.09,5.2320004,8.524051
1679929888438,1109876793156929,0.040050004,5.1790504,8.49495
1679929888449,1109876795659083,-0.040050004,5.2909503,8.373
1679929888449,1109876798161169,-0.028050002,5.2990503,8.31
1679929888449,1109876800663092,-0.054,5.313,8.30805
1679929888450,1109876803164938,-0.12105001,5.32305,8.29395
1679929888451,1109876805667015,-0.028050002,5.38005,8.368051
1679929888453,1109876808168938,-0.087000005,5.44005,8.301001
1679929888455,1109876810671015,-0.21000001,5.3560505,8.301001
1679929888459,1109876813172938,-0.279,5.43795,8.29395
1679929888461,1109876815675015,-0.252,5.4619503,8.25
1679929888462,1109876818176938,-0.26700002,5.4349504,8.257951
1679929888465,1109876820679020,-0.22200002,5.55495,8.221951
1679929888468,1109876823180943,-0.31305,5.4570003,8.254951
1679929888470,1109876825682789,-0.36495003,5.5020003,8.301001
1679929888473,1109876828184866,-0.291,5.4229503,8.33895
1679929888479,1109876830686991,-0.32895002,5.48505,8.409
1679929888479,1109876833188837,-0.36495003,5.42595,8.380051
1679929888482,1109876835690760,-0.29805002,5.3749504,8.361
1679929888483,1109876838192837,-0.37500003,5.538,8.286
1679929888485,1109876840694760,-0.35595003,5.44995,8.42805
1679929888490,1109876843196583,-0.30795002,5.517,8.301001
1679929888495,1109876845698736,-0.33900002,5.505,8.253
1679929888495,1109876848200813,-0.411,5.418,8.278951
1679929888496,1109876850702727,-0.37005,5.44005,8.236051
1679929888498,1109876853204574,-0.34800002,5.41095,8.20005
1679929888501,1109876855706651,-0.34395,5.4210005,8.236051
1679929888503,1109876858208574,-0.42495003,5.4469504,8.241
1679929888505,1109876860710651,-0.27195,5.45205,8.266951
1679929888511,1109876863212550,-0.372,5.361,8.35095
1679929888511,1109876865714627,-0.351,5.466,8.398951
1679929888513,1109876868216550,-0.39600003,5.4570003,8.370001
1679929888515,1109876870718627,-0.351,5.4090004,8.385
1679929888518,1109876873220473,-0.39405003,5.41095,8.349
1679929888521,1109876875722400,-0.40395,5.37795,8.33895
1679929888523,1109876878224554,-0.30795002,5.4210005,8.274
1679929888528,1109876880726631,-0.372,5.3110504,8.301001
1679929888529,1109876883228482,-0.30495003,5.33895,8.28405
1679929888531,1109876885730405,-0.40095,5.3869505,8.31
1679929888533,1109876888232482,-0.38205,5.385,8.32695
1679929888535,1109876890734405,-0.30495003,5.3710504,8.254951
1679929888538,1109876893236482,-0.303,5.3869505,8.16705
1679929888544,1109876895738415,-0.34605002,5.385,8.215051
1679929888545,1109876898240492,-0.31005,5.361,8.14005
1679929888546,1109876900742338,-0.24795002,5.36595,8.30805
1679929888549,1109876903244261,-0.32205,5.43795,8.337001
1679929888550,1109876905746338,-0.28905,5.38005,8.35095
1679929888553,1109876908248478,-0.30495003,5.36595,8.227051
1679929888555,1109876910750324,-0.246,5.2720504,8.19795
1679929888563,1109876913252247,-0.20700002,5.32305,8.20695
1679929888564,1109876915754324,-0.31995,5.36805,8.187
1679929888565,1109876918256242,-0.25695002,5.3029504,8.248051
1679929888566,1109876920758088,-0.27705002,5.3490005,8.254951
1679929888569,1109876923260165,-0.29595003,5.3560505,8.24295
1679929888571,1109876925762319,-0.30105,5.4160504,8.346001
1679929888573,1109876928264242,-0.24300002,5.3970003,8.217
1679929888580,1109876930766073,-0.18105,5.4469504,8.3890505
1679929888580,1109876933268150,-0.27705002,5.3490005,8.29605
1679929888582,1109876935770073,-0.16905001,5.36805,8.274
1679929888583,1109876938272150,-0.26700002,5.30805,8.236051
1679929888585,1109876940774001,-0.24795002,5.36595,8.215051
1679929888589,1109876943276155,-0.21405001,5.3299503,8.31
1679929888594,1109876945778078,-0.17805001,5.37795,8.37495
1679929888594,1109876948280155,-0.291,5.3629503,8.221951
1679929888595,1109876950781996,-0.22905001,5.3490005,8.155951
1679929888600,1109876953283920,-0.29805002,5.394,8.245951
1679929888602,1109876955785996,-0.21705002,5.42805,8.158951
1679929888604,1109876958287920,-0.23805001,5.4160504,8.245951
1679929888605,1109876960790059,-0.27195,5.33895,8.245951
1679929888613,1109876963291906,-0.25500003,5.41095,8.245951
1679929888614,1109876965793982,-0.291,5.3820004,8.217
1679929888614,1109876968295906,-0.25500003,5.4040504,8.239051
1679929888616,1109876970797982,-0.27705002,5.3490005,8.30595
1679929888619,1109876973299838,-0.23805001,5.34705,8.290951
1679929888622,1109876975801761,-0.279,5.3869505,8.25
1679929888623,1109876978303915,-0.23595001,5.385,8.349
1679929888627,1109876980805991,-0.303,5.3320503,8.262
1679929888628,1109876983307930,-0.28395,5.3419504,8.29605
1679929888631,1109876985809776,-0.18105,5.3710504,8.19495
1679929888633,1109876988311853,-0.21000001,5.2990503,8.32995
1679929888635,1109876990813776,-0.26700002,5.3200502,8.257951
1679929888640,1109876993315843,-0.18105,5.394,8.349
1679929888647,1109876995817766,-0.303,5.29605,8.349
1679929888648,1109876998319843,-0.22905001,5.3560505,8.32005
1679929888649,1109877000821766,-0.23595001,5.2650003,8.278951
1679929888649,1109877003323843,-0.30105,5.3029504,8.274
1679929888651,1109877005825703,-0.17400001,5.3560505,8.229
1679929888653,1109877008327626,-0.25995,5.3320503,8.302951
1679929888655,1109877010829780,-0.26895002,5.4019504,8.241
1679929888661,1109877013331857,-0.20205002,5.361,8.272051
1679929888661,1109877015833694,-0.19005,5.2720504,8.2890005
1679929888663,1109877018335617,-0.19800001,5.4040504,8.248051
1679929888666,1109877020837694,-0.24795002,5.3509502,8.193001
1679929888669,1109877023339617,-0.18105,5.406,8.23095
1679929888671,1109877025841463,-0.26895002,5.3509502,8.33205
1679929888673,1109877028343617,-0.22905001,5.34705,8.3220005
1679929888679,1109877030845694,-0.22905001,5.32305,8.21895
1679929888680,1109877033347617,-0.24795002,5.3200502,8.253
1679929888681,1109877035849463,-0.24105,5.4040504,8.227051
1679929888686,1109877038351554,-0.34605002,5.373,8.278951
1679929888686,1109877040853477,-0.279,5.22405,8.253
1679929888689,1109877043355554,-0.22395001,5.3749504,8.203051
1679929888696,1109877045857477,-0.28395,5.30805,8.265
1679929888697,1109877048359549,-0.19005,5.3110504,8.265
1679929888698,1109877050861395,-0.24795002,5.24805,8.2890005
1679929888699,1109877053363318,-0.21000001,5.2600503,8.227051
1679929888701,1109877055865395,-0.28395,5.29395,8.137051
1679929888703,1109877058367544,-0.291,5.36595,8.215051
1679929888705,1109877060869467,-0.20505,5.37795,8.236051
1679929888711,1109877063371313,-0.279,5.3590503,8.227051
1679929888711,1109877065873390,-0.28905,5.2440004,8.286
1679929888714,1109877068375309,-0.27705002,5.3250003,8.265
1679929888716,1109877070877386,-0.30495003,5.33895,8.104051
1679929888718,1109877073379309,-0.31005,5.3440504,8.31795
1679929888722,1109877075881386,-0.246,5.3560505,8.290951
1679929888727,1109877078383308,-0.28605002,5.2699504,8.17395
1679929888728,1109877080885385,-0.26895002,5.32305,8.31795
1679929888729,1109877083387308,-0.25995,5.3110504,8.233951
1679929888730,1109877085889385,-0.351,5.2530003,8.245951
1679929888733,1109877088391232,-0.30105,5.2990503,8.21205
1679929888735,1109877090893366,-0.37500003,5.3440504,8.254951
1679929888739,1109877093395289,-0.30495003,5.3029504,8.31
1679929888744,1109877095897366,-0.279,5.2720504,8.20695
1679929888745,1109877098399213,-0.31005,5.3250003,8.30805
1679929888746,1109877100901146,-0.26205,5.32695,8.3220005
1679929888749,1109877103403223,-0.231,5.3370004,8.34195
1679929888752,1109877105905069,-0.35595003,5.26305,8.397
1679929888754,1109877108407223,-0.27405003,5.2600503,8.33205
1679929888756,1109877110909146,-0.279,5.28,8.3560505
1679929888763,1109877113411223,-0.25500003,5.26305,8.262
1679929888764,1109877115913069,-0.22905001,5.2579503,8.239051
1679929888765,1109877118414992,-0.23400001,5.289,8.32005
1679929888766,1109877120917069,-0.22605,5.1979504,8.29605
1679929888769,1109877123418973,-0.19995001,5.2270503,8.313001
1679929888771,1109877125921050,-0.21195,5.3179502,8.239051
1679929888773,1109877128422973,-0.19305001,5.24595,8.358001
1679929888780,1109877130925050,-0.20700002,5.289,8.277
1679929888782,1109877133426987,-0.252,5.2720504,8.236051
1679929888783,1109877135928833,-0.18300001,5.3200502,8.20005
1679929888784,1109877138430910,-0.19800001,5.2870502,8.30805
1679929888785,1109877140932833,-0.28605002,5.3110504,8.34195
1679929888795,1109877143434987,-0.28605002,5.34705,8.35305
1679929888797,1109877145936833,-0.19500001,5.2440004,8.37705
1679929888798,1109877148438910,-0.18105,5.32305,8.346001
1679929888799,1109877150940833,-0.25005,5.2579503,8.3869505
1679929888800,1109877153442910,-0.29595003,5.2909503,8.302951
1679929888801,1109877155944770,-0.22605,5.29395,8.346001
1679929888803,1109877158446693,-0.24105,5.289,8.349
1679929888805,1109877160948847,-0.246,5.313,8.3560505
1679929888812,1109877163450924,-0.30795002,5.33505,8.266951
1679929888814,1109877165952857,-0.20700002,5.2840505,8.32995
1679929888815,1109877168454703,-0.25995,5.2510505,8.325001
1679929888816,1109877170956780,-0.24795002,5.36805,8.257951
1679929888818,1109877173458703,-0.27705002,5.3149505,8.31495
1679929888821,1109877175960843,-0.26895002,5.29605,8.260051
1679929888823,1109877178462689,-0.26700002,5.394,8.3869505
1679929888827,1109877180964766,-0.27705002,5.3029504,8.32995
1679929888829,1109877183466689,-0.21195,5.3590503,8.265
1679929888831,1109877185968766,-0.19500001,5.3560505,8.29605
1679929888833,1109877188470693,-0.21405001,5.3419504,8.274
1679929888835,1109877190972539,-0.27705002,5.30595,8.245951
1679929888839,1109877193474693,-0.246,5.35395,8.21895
1679929888841,1109877195976770,-0.22395001,5.3490005,8.205
1679929888843,1109877198478669,-0.17400001,5.48295,8.392051
1679929888846,1109877200980515,-0.291,5.406,8.23095
1679929888849,1109877203482592,-0.31305,5.3920503,8.334001
1679929888850,1109877205984515,-0.26895002,5.4160504,8.29605
1679929888853,1109877208486592,-0.28095,5.3419504,8.358001
1679929888855,1109877210988540,-0.34800002,5.37795,8.260051
1679929888859,1109877213490386,-0.36495003,5.35395,8.358001
1679929888862,1109877215992463,-0.351,5.3320503,8.298
1679929888865,1109877218494382,-0.40800002,5.33895,8.392051
1679929888867,1109877220996459,-0.34095,5.385,8.382
1679929888870,1109877223498382,-0.32700002,5.23605,8.50695
1679929888871,1109877226000459,-0.29805002,5.4349504,8.32695
1679929888874,1109877228502382,-0.43005002,5.3920503,8.301001
1679929888876,1109877231004479,-0.35595003,5.3749504,8.272051
1679929888879,1109877233506402,-0.31005,5.385,8.3220005
1679929888881,1109877236008248,-0.26895002,5.3490005,8.31
1679929888883,1109877238510402,-0.35805002,5.4210005,8.313001
1679929888886,1109877241012479,-0.37995002,5.3179502,8.337001
1679929888889,1109877243514378,-0.37995002,5.2909503,8.33895
1679929888891,1109877246016224,-0.30495003,5.36595,8.3220005
1679929888893,1109877248518301,-0.303,5.3490005,8.370001
1679929888896,1109877251020224,-0.30105,5.21505,8.269951
1679929888899,1109877253522281,-0.30495003,5.2840505,8.277
1679929888903,1109877256024435,-0.31500003,5.3869505,8.37705
1679929888905,1109877258526281,-0.31305,5.2909503,8.28195
1679929888907,1109877261028219,-0.28395,5.34705,8.35305
1679929888910,1109877263530296,-0.32505003,5.3710504,8.302951
1679929888911,1109877266032219,-0.32895002,5.3149505,8.337001
1679929888913,1109877268534065,-0.30795002,5.32305,8.349
1679929888917,1109877271036142,-0.33405003,5.3869505,8.28195
1679929888919,1109877273538281,-0.31500003,5.35395,8.269951
1679929888922,1109877276040204,-0.32895002,5.30595,8.43
1679929888924,1109877278542050,-0.21000001,5.2600503,8.392051
1679929888926,1109877281044127,-0.27405003,5.36595,8.361
1679929888929,1109877283546046,-0.29295,5.3490005,8.34405
1679929888931,1109877286048123,-0.29295,5.2650003,8.290951
1679929888933,1109877288549969,-0.26505002,5.23395,8.30595
1679929888936,1109877291052123,-0.18795002,5.3179502,8.36295
1679929888940,1109877293554065,-0.18105,5.29605,8.425051
1679929888943,1109877296056142,-0.19500001,5.22405,8.30805
1679929888945,1109877298557988,-0.20505,5.3419504,8.302951
1679929888947,1109877301059911,-0.17400001,5.3509502,8.3869505
1679929888949,1109877303561988,-0.123,5.34705,8.35305
1679929888951,1109877306063901,-0.21900001,5.3110504,8.325001
1679929888953,1109877308565978,-0.09705,5.33895,8.3560505
1679929888955,1109877311067901,-0.13995,5.3590503,8.32695
1679929888959,1109877313569978,-0.079950005,5.4229503,8.37495
1679929888961,1109877316071901,-0.087000005,5.3899503,8.433001
1679929888963,1109877318573734,-0.11400001,5.3869505,8.269951
1679929888966,1109877321075810,-0.102000006,5.3629503,8.349
1679929888969,1109877323577734,-0.08295,5.42595,8.46105
1679929888971,1109877326079810,-0.11595,5.41095,8.380051
1679929888973,1109877328581705,-0.135,5.394,8.36295
1679929888977,1109877331083781,-0.16605,5.4570003,8.422951
1679929888980,1109877333585705,-0.23805001,5.394,8.47605
1679929888984,1109877336087742,-0.18105,5.385,8.3890505
1679929888985,1109877338589589,-0.231,5.4300003,8.42805
1679929888987,1109877341091512,-0.27705002,5.4210005,8.36295
1679929888990,1109877343593666,-0.19005,5.42805,8.368051
1679929888991,1109877346095743,-0.16905001,5.50005,8.29395
1679929888993,1109877348597608,-0.26205,5.3509502,8.433001
1679929888996,1109877351099531,-0.28395,5.3490005,8.35305
1679929888999,1109877353601608,-0.22605,5.36595,8.337001
1679929889001,1109877356103531,-0.26895002,5.32695,8.47095
1679929889004,1109877358605608,-0.279,5.3710504,8.401051
1679929889006,1109877361107531,-0.28395,5.3370004,8.35095
1679929889009,1109877363609608,-0.27195,5.394,8.30595
1679929889011,1109877366111531,-0.36795002,5.32305,8.227051
1679929889015,1109877368613637,-0.19995001,5.2819505,8.31795
1679929889016,1109877371115483,-0.28395,5.2909503,8.29395
1679929889020,1109877373617406,-0.27705002,5.36805,8.14005
1679929889022,1109877376119560,-0.34800002,5.28,8.154
1679929889023,1109877378621637,-0.28395,5.289,8.241
1679929889026,1109877381123478,-0.33195,5.1880503,8.274
1679929889029,1109877383625401,-0.31695002,5.2050004,8.167951
1679929889031,1109877386127478,-0.303,5.2990503,8.20695
1679929889033,1109877388629401,-0.32205,5.3149505,8.248051
1679929889036,1109877391131478,-0.29805002,5.33895,8.248051
1679929889039,1109877393633401,-0.29805002,5.2650003,8.33205
1679929889041,1109877396135478,-0.28395,5.2600503,8.158951
1679929889043,1109877398637324,-0.34395,5.268,8.248051
1679929889046,1109877401139247,-0.372,5.2170005,8.34195
1679929889050,1109877403641396,-0.37500003,5.2720504,8.23095
1679929889052,1109877406143473,-0.31995,5.2510505,8.286
1679929889066,1109877408645319,-0.29295,5.35395,8.217
1679929889067,1109877411147242,-0.29805002,5.3250003,8.217
1679929889067,1109877413649334,-0.31005,5.30805,8.16705
1679929889067,1109877416151257,-0.25500003,5.313,8.19495
1679929889067,1109877418653103,-0.291,5.2440004,8.17905
1679929889067,1109877421155257,-0.29595003,5.394,8.203051
1679929889069,1109877423657353,-0.23400001,5.35395,8.262
1679929889071,1109877426159276,-0.32505003,5.2440004,8.28405
1679929889073,1109877428661122,-0.22905001,5.3490005,8.31795
1679929889075,1109877431163199,-0.34095,5.3179502,8.257951
1679929889079,1109877433665122,-0.36,5.30595,8.227051
1679929889081,1109877436167199,-0.29805002,5.3869505,8.274
1679929889083,1109877438669122,-0.27705002,5.2840505,8.149051
1679929889085,1109877441171199,-0.31500003,5.3419504,8.32005
1679929889091,1109877443673141,-0.28095,5.373,8.31795
1679929889093,1109877446175218,-0.29295,5.301,8.227051
1679929889094,1109877448677141,-0.38895002,5.36595,8.31
1679929889096,1109877451178988,-0.33405003,5.3440504,8.361
1679929889099,1109877453681065,-0.351,5.2440004,8.236051
1679929889102,1109877456183233,-0.29595003,5.33895,8.265
1679929889103,1109877458685156,-0.31305,5.361,8.3220005
1679929889106,1109877461187003,-0.39600003,5.33505,8.20005
1679929889109,1109877463689080,-0.34395,5.3299503,8.31
1679929889111,1109877466191003,-0.29805002,5.32305,8.272051
1679929889113,1109877468693084,-0.32505003,5.3749504,8.215051
1679929889116,1109877471194930,-0.29805002,5.3560505,8.278951
1679929889119,1109877473697084,-0.32205,5.3370004,8.24295
1679929889122,1109877476199007,-0.35805002,5.2390504,8.301001
1679929889123,1109877478701080,-0.28905,5.37795,8.241
1679929889127,1109877481203003,-0.26505002,5.301,8.2240505
1679929889130,1109877483704849,-0.28395,5.268,8.349
1679929889132,1109877486206926,-0.27405003,5.2870502,8.262
1679929889134,1109877488708834,-0.27195,5.373,8.368051
1679929889136,1109877491210988,-0.30795002,5.2530003,8.241
1679929889139,1109877493712834,-0.29295,5.3490005,8.302951
1679929889142,1109877496214911,-0.33900002,5.30595,8.262
1679929889144,1109877498716844,-0.28395,5.2909503,8.274
1679929889146,1109877501218921,-0.26895002,5.2870502,8.368051
1679929889150,1109877503720767,-0.26205,5.32695,8.32005
1679929889151,1109877506222690,-0.20205002,5.3299503,8.21895
1679929889153,1109877508724844,-0.24105,5.3200502,8.28405
1679929889156,1109877511226968,-0.25695002,5.30595,8.313001
1679929889159,1109877513728814,-0.29295,5.41095,8.254951
1679929889161,1109877516230737,-0.25695002,5.3590503,8.346001
1679929889165,1109877518732814,-0.162,5.3320503,8.30805
1679929889167,1109877521234719,-0.19500001,5.2819505,8.245951
1679929889170,1109877523736796,-0.39900002,5.2390504,8.274
1679929889172,1109877526238719,-0.32505003,5.4160504,8.254951
1679929889174,1109877528740796,-0.303,5.34705,8.167951
1679929889176,1109877531242642,-0.24795002,5.29395,8.298
1679929889179,1109877533744583,-0.20205002,5.3149505,8.254951
1679929889182,1109877536246660,-0.303,5.3179502,8.274
1679929889184,1109877538748583,-0.24795002,5.4210005,8.36295
1679929889186,1109877541250737,-0.27195,5.361,8.3220005
1679929889189,1109877543752569,-0.34800002,5.2650003,8.2240505
1679929889191,1109877546254646,-0.23595001,5.2770004,8.370001
1679929889196,1109877548756569,-0.31695002,5.2720504,8.30805
1679929889197,1109877551258415,-0.35295,5.3110504,8.43
1679929889200,1109877553760578,-0.37500003,5.3250003,8.37705
1679929889203,1109877556262655,-0.363,5.4019504,8.3220005
1679929889205,1109877558764578,-0.28605002,5.3490005,8.373
1679929889206,1109877561266424,-0.28905,5.3490005,8.33205
1679929889209,1109877563768510,-0.27705002,5.3200502,8.241
1679929889211,1109877566270434,-0.35595003,5.3440504,8.404051
1679929889213,1109877568772510,-0.46095002,5.2909503,8.33205
1679929889217,1109877571274434,-0.37005,5.32695,8.434951
1679929889219,1109877573776526,-0.33705002,5.36805,8.334001
1679929889222,1109877576278450,-0.43005002,5.313,8.398951
1679929889224,1109877578780526,-0.38700002,5.2840505,8.397
1679929889226,1109877581282373,-0.37005,5.33895,8.409
1679929889229,1109877583784310,-0.23400001,5.2720504,8.48295
1679929889231,1109877586286464,-0.35295,5.24805,8.382
1679929889233,1109877588788540,-0.27705002,5.28,8.36295
1679929889236,1109877591290387,-0.351,5.24595,8.36505
1679929889241,1109877593792305,-0.25500003,5.30805,8.32005
1679929889243,1109877596294382,-0.24300002,5.313,8.406
1679929889244,1109877598796228,-0.30105,5.3560505,8.398951
1679929889247,1109877601298151,-0.25005,5.1880503,8.346001
1679929889249,1109877603800305,-0.24795002,5.2320004,8.245951
1679929889251,1109877606302363,-0.19500001,5.30595,8.31
1679929889254,1109877608804209,-0.26895002,5.2699504,8.31
1679929889256,1109877611306132,-0.28395,5.3200502,8.28195
1679929889260,1109877613808209,-0.20505,5.268,8.37705
1679929889262,1109877616310113,-0.231,5.181,8.262
1679929889263,1109877618812190,-0.24105,5.2600503,8.392051
1679929889268,1109877621314113,-0.162,5.361,8.358001
1679929889270,1109877623816190,-0.22605,5.2270503,8.397
1679929889272,1109877626318113,-0.23400001,5.3149505,8.34195
1679929889274,1109877628820185,-0.25995,5.229,8.28195
1679929889278,1109877631322031,-0.21405001,5.22405,8.44905
1679929889280,1109877633823954,-0.28095,5.2170005,8.397
1679929889283,1109877636325997,-0.252,5.2579503,8.42805
1679929889284,1109877638828151,-0.18795002,5.1859503,8.265
1679929889286,1109877641329997,-0.19005,5.29605,8.325001
1679929889289,1109877643831920,-0.147,5.2870502,8.401051
1679929889291,1109877646333997,-0.13095,5.36805,8.239051
1679929889293,1109877648835925,-0.14295001,5.29395,8.3890505
1679929889296,1109877651338002,-0.19305001,5.313,8.32995
1679929889300,1109877653839848,-0.15195,5.23395,8.368051
1679929889302,1109877656342002,-0.13095,5.2120504,8.46105
1679929889304,1109877658843930,-0.079950005,5.2870502,8.358001
1679929889306,1109877661346007,-0.15405001,5.27505,8.47305
1679929889309,1109877663847853,-0.123,5.2650003,8.404051
1679929889311,1109877666349776,-0.079950005,5.3370004,8.42805
1679929889315,1109877668851838,-0.09,5.2870502,8.409
1679929889317,1109877671353761,-0.102000006,5.13105,8.398951
1679929889319,1109877673855915,-0.066,5.22405,8.35095
1679929889323,1109877676357761,-0.078,5.2579503,8.286
1679929889325,1109877678859814,-0.123,5.21505,8.358001
1679929889327,1109877681361737,-0.03195,5.29605,8.368051
1679929889330,1109877683863814,-0.08505,5.2530003,8.36295
1679929889332,1109877686365660,-0.08295,5.2579503,8.37705
1679929889334,1109877688867584,-0.12795001,5.2600503,8.44005
1679929889336,1109877691369766,-0.15195,5.3250003,8.48805
1679929889340,1109877693871843,-0.16605,5.1720004,8.361
1679929889342,1109877696373690,-0.11400001,5.24595,8.286
1679929889344,1109877698875613,-0.20505,5.208,8.32005
1679929889346,1109877701377681,-0.16605,5.1790504,8.34405
1679929889349,1109877703879527,-0.31005,5.26305,8.262
1679929889353,1109877706381681,-0.231,5.196,8.409
1679929889354,1109877708883604,-0.31305,5.22405,8.245951
1679929889356,1109877711385690,-0.25500003,5.1979504,8.37705
1679929889359,1109877713887536,-0.27405003,5.22405,8.158951
1679929889361,1109877716389459,-0.31695002,5.229,8.361
1679929889363,1109877718891613,-0.31695002,5.2050004,8.203051
1679929889366,1109877721393459,-0.31305,5.3250003,8.260051
1679929889369,1109877723895507,-0.28605002,5.2440004,8.32005
1679929889371,1109877726397430,-0.31305,5.2530003,8.29395
1679929889373,1109877728899507,-0.34395,5.2840505,8.245951
1679929889376,1109877731401353,-0.31995,5.2650003,8.253
1679929889379,1109877733903276,-0.28605002,5.2770004,8.254951
1679929889382,1109877736405430,-0.31005,5.27505,8.21205
1679929889384,1109877738907507,-0.363,5.3419504,8.29605
1679929889386,1109877741409430,-0.34800002,5.32695,8.29395
1679929889390,1109877743911247,-0.291,5.30595,8.361
1679929889392,1109877746413324,-0.27195,5.289,8.302951
1679929889394,1109877748915247,-0.25005,5.3179502,8.215051
1679929889396,1109877751417401,-0.27195,5.32305,8.265
1679929889399,1109877753919449,-0.25500003,5.289,8.19495
1679929889401,1109877756421295,-0.26700002,5.3200502,8.30595
1679929889403,1109877758923218,-0.28095,5.28,8.397
1679929889406,1109877761425295,-0.28605002,5.3149505,8.35095
1679929889410,1109877763927237,-0.35295,5.3299503,8.385
1679929889411,1109877766429083,-0.33195,5.29605,8.265
1679929889414,1109877768931237,-0.30105,5.2530003,8.32005
1679929889417,1109877771433314,-0.22605,5.24805,8.32995
1679929889419,1109877773935251,-0.28605002,5.2440004,8.392051
1679929889422,1109877776437097,-0.26205,5.2270503,8.34195
1679929889424,1109877778939174,-0.291,5.2819505,8.301001
1679929889428,1109877781441097,-0.20505,5.3149505,8.397
1679929889430,1109877783943198,-0.29805002,5.2510505,8.290951
1679929889431,1109877786445121,-0.28395,5.2510505,8.3220005
1679929889434,1109877788947198,-0.28395,5.2530003,8.19495
1679929889436,1109877791449121,-0.26895002,5.19105,8.32695
1679929889439,1109877793951203,-0.20505,5.3110504,8.277
1679929889441,1109877796453049,-0.21000001,5.23395,8.301001
1679929889444,1109877798954972,-0.28095,5.22405,8.382
1679929889446,1109877801457049,-0.26895002,5.2200003,8.34405
1679929889449,1109877803959203,-0.28095,5.1979504,8.278951
1679929889451,1109877806461078,-0.279,5.23395,8.175
1679929889454,1109877808963001,-0.186,5.2440004,8.229
1679929889456,1109877811465078,-0.30105,5.196,8.25
1679929889459,1109877813966925,-0.29805002,5.241,8.313001
1679929889462,1109877816468834,-0.22395001,5.169,8.215051
1679929889466,1109877818970911,-0.19305001,5.27505,8.31495
1679929889467,1109877821473064,-0.17805001,5.1880503,8.262
1679929889470,1109877823974925,-0.19800001,5.28,8.262
1679929889472,1109877826476848,-0.246,5.23605,8.253
1679929889474,1109877828978925,-0.26205,5.22195,8.298
1679929889476,1109877831480848,-0.21195,5.3320503,8.3869505
1679929889479,1109877833982694,-0.21000001,5.3590503,8.302951
1679929889481,1109877836484785,-0.29595003,5.2650003,8.253
1679929889483,1109877838986939,-0.13095,5.30805,8.32695
1679929889486,1109877841488862,-0.18300001,5.2600503,8.254951
1679929889489,1109877843990939,-0.25005,5.2390504,8.32995
1679929889491,1109877846492781,-0.23400001,5.2699504,8.33895
1679929889493,1109877848994704,-0.123,5.2720504,8.266951
1679929889496,1109877851496781,-0.246,5.2270503,8.20695
1679929889500,1109877853998704,-0.25995,5.2000504,8.260051
1679929889503,1109877856500771,-0.27705002,5.1979504,8.24295
1679929889505,1109877859002694,-0.18300001,5.14095,8.21895
1679929889507,1109877861504771,-0.25005,5.3149505,8.215051
1679929889510,1109877864006694,-0.123,5.3419504,8.28195
1679929889512,1109877866508771,-0.18105,5.208,8.265
1679929889514,1109877869010622,-0.25500003,5.1930003,8.370001
1679929889516,1109877871512776,-0.20505,5.23395,8.236051
1679929889519,1109877874014699,-0.21000001,5.3179502,8.227051
1679929889522,1109877876516776,-0.20505,5.2579503,8.253
1679929889523,1109877879018622,-0.21195,5.2390504,8.277
1679929889526,1109877881520468,-0.28095,5.23605,8.298
1679929889529,1109877884022622,-0.21705002,5.181,8.370001
1679929889531,1109877886524545,-0.31305,5.22195,8.260051
1679929889534,1109877889026622,-0.25500003,5.1979504,8.272051
1679929889537,1109877891528550,-0.24795002,5.3320503,8.34195
1679929889543,1109877894030396,-0.25500003,5.23395,8.31795
1679929889544,1109877896532473,-0.28395,5.24805,8.278951
1679929889546,1109877899034400,-0.31305,5.2440004,8.31495
1679929889548,1109877901536477,-0.26895002,5.23605,8.290951
1679929889550,1109877904038400,-0.32205,5.24805,8.29605
1679929889552,1109877906540477,-0.30795002,5.196,8.382
1679929889554,1109877909042400,-0.36,5.2270503,8.266951
1679929889556,1109877911544482,-0.31995,5.1769505,8.406
1679929889559,1109877914046328,-0.32205,5.1790504,8.36295
1679929889561,1109877916548482,-0.25500003,5.13105,8.34195
1679929889564,1109877919050405,-0.351,5.1769505,8.33895
1679929889569,1109877921552487,-0.31500003,5.1529503,8.368051
1679929889569,1109877924054410,-0.31500003,5.14095,8.382
1679929889572,1109877926556257,-0.28905,5.22405,8.35095
1679929889574,1109877929058333,-0.32205,5.1859503,8.313001
1679929889577,1109877931560228,-0.34095,5.1649504,8.286
1679929889580,1109877934062381,-0.28395,5.1880503,8.358001
1679929889583,1109877936564228,-0.25500003,5.1720004,8.358001
1679929889584,1109877939066304,-0.21900001,5.20305,8.433001
1679929889586,1109877941568228,-0.291,5.1379504,8.349
1679929889589,1109877944070318,-0.27195,5.1649504,8.3890505
1679929889591,1109877946572242,-0.23805001,5.2099504,8.34195
1679929889594,1109877949074088,-0.26505002,5.184,8.361
1679929889596,1109877951576242,-0.246,5.19105,8.3220005
1679929889600,1109877954078324,-0.291,5.184,8.392051
1679929889601,1109877956580247,-0.22905001,5.1880503,8.35305
1679929889604,1109877959082093,-0.26700002,5.2000504,8.278951
1679929889606,1109877961584170,-0.25500003,5.2840505,8.277
1679929889609,1109877964086079,-0.22395001,5.30805,8.25
1679929889611,1109877966588156,-0.22605,5.2530003,8.19795
1679929889617,1109877969090079,-0.22905001,5.27505,8.278951
1679929889618,1109877971592156,-0.21705002,5.256,8.28405
1679929889620,1109877974094078,-0.20700002,5.29605,8.265
1679929889623,1109877976595924,-0.19305001,5.256,8.298
1679929889624,1109877979098001,-0.22905001,5.32305,8.278951
1679929889626,1109877981599924,-0.19995001,5.29605,8.298
1679929889629,1109877984102001,-0.24795002,5.2579503,8.2890005
1679929889631,1109877986603939,-0.19005,5.2579503,8.277
1679929889634,1109877989106016,-0.25995,5.3509502,8.272051
1679929889636,1109877991607939,-0.31305,5.2170005,8.4210005
1679929889639,1109877994110016,-0.25005,5.33895,8.358001
1679929889644,1109877996611862,-0.25995,5.3490005,8.301001
1679929889645,1109877999113785,-0.33705002,5.26305,8.397
1679929889646,1109878001615862,-0.279,5.3299503,8.401051
1679929889650,1109878004118016,-0.27405003,5.2990503,8.397
1679929889653,1109878006619881,-0.35595003,5.29605,8.42805
1679929889654,1109878009121804,-0.25500003,5.3590503,8.368051
1679929889656,1109878011623881,-0.18795002,5.3149505,8.346001
1679929889659,1109878014125804,-0.27705002,5.30595,8.410951
1679929889662,1109878016627650,-0.19800001,5.268,8.32005
1679929889664,1109878019129746,-0.21000001,5.3419504,8.41605
1679929889667,1109878021631900,-0.15900001,5.35395,8.31795
1679929889670,1109878024133823,-0.16905001,5.30595,8.3560505
1679929889672,1109878026635900,-0.12105001,5.22405,8.31
1679929889674,1109878029137732,-0.17595,5.2699504,8.36505
1679929889676,1109878031639655,-0.042000003,5.2600503,8.337001
1679929889684,1109878034141732,-0.07095,5.32695,8.31795
1679929889684,1109878036643886,-0.010950001,5.2909503,8.253
1679929889684,1109878039145732,-0.00795,5.4540005,8.32995
1679929889686,1109878041647659,-0.034950003,5.2270503,8.398951
1679929889691,1109878044149736,-0.04695,5.3440504,8.3560505
1679929889692,1109878046651659,0.028050002,5.37795,8.272051
1679929889694,1109878049153722,-0.006,5.268,8.385
1679929889696,1109878051655645,-0.034950003,5.30595,8.368051
1679929889700,1109878054157722,-0.022950001,5.3560505,8.37495
1679929889702,1109878056659645,0.016050002,5.4300003,8.34195
1679929889704,1109878059161492,-0.010950001,5.3149505,8.260051
1679929889706,1109878061663559,0.040050004,5.385,8.361
1679929889709,1109878064165482,-0.03705,5.394,8.298
1679929889711,1109878066667635,-0.00795,5.3320503,8.361
1679929889713,1109878069169482,0.00405,5.2440004,8.32005
1679929889716,1109878071671564,-0.043950003,5.3869505,8.3869505
1679929889721,1109878074173487,-0.042000003,5.34705,8.32005
1679929889724,1109878076675564,0.0010500001,5.361,8.35095
1679929889725,1109878079177410,-0.079950005,5.35395,8.48295
1679929889729,1109878081679328,-0.034950003,5.41095,8.4210005
1679929889732,1109878086681482,-0.066,5.3419504,8.406
1679929889734,1109878087117174,-0.17400001,5.30805,8.490001
1679929889735,1109878089185405,-0.078,5.361,8.542951
1679929889737,1109878091687328,-0.058950003,5.4090004,8.500051
1679929889740,1109878094189429,-0.018000001,5.2840505,8.50695
1679929889743,1109878096691275,-0.05595,5.2600503,8.46405
1679929889745,1109878099193429,-0.01995,5.2909503,8.37705
1679929889746,1109878101695352,0.058950003,5.23395,8.466001
1679929889752,1109878104197444,0.066,5.2819505,8.398951
1679929889752,1109878106699290,0.09,5.1930003,8.337001
1679929889754,1109878109201213,0.05595,5.22405,8.44005
1679929889756,1109878111703290,0.07095,5.1379504,8.382
1679929889759,1109878114205213,0.03195,5.1859503,8.361
1679929889762,1109878116707343,0.075,5.1600003,8.3869505
1679929889767,1109878119209189,0.15405001,5.1979504,8.361
1679929889768,1109878121711266,0.109050006,5.19105,8.3869505
1679929889770,1109878124213189,0.123,5.313,8.346001
1679929889775,1109878126715218,0.07095,5.2870502,8.385
1679929889775,1109878129217141,0.147,5.28,8.443951
1679929889779,1109878131718987,0.11895001,5.23395,8.373
1679929889780,1109878134221141,0.08295,5.23395,8.2890005
1679929889785,1109878136723218,0.043950003,5.256,8.392051
1679929889785,1109878139225150,-0.052050002,5.2390504,8.33205
1679929889786,1109878141726996,0.01995,5.36805,8.349
1679929889790,1109878144229073,0.034950003,5.32695,8.32005
1679929889791,1109878146730996,0.06105,5.30595,8.434951
1679929889794,1109878149233073,0.010950001,5.3590503,8.48505
1679929889797,1109878151734968,0.078,5.3179502,8.33205
1679929889800,1109878154237045,0.09,5.301,8.49495
1679929889803,1109878156738968,-0.028050002,5.3419504,8.368051
1679929889805,1109878159241045,-0.042000003,5.313,8.3890505
1679929889807,1109878161742958,-0.052050002,5.4040504,8.221951
1679929889810,1109878164244804,-0.01305,5.2870502,8.36295
1679929889813,1109878166746881,-0.052050002,5.3419504,8.398951
1679929889814,1109878169249035,-0.109050006,5.37795,8.422951
1679929889817,1109878171750958,-0.10695001,5.38005,8.313001
1679929889819,1109878174252794,-0.0010500001,5.361,8.380051
1679929889822,1109878176754871,-0.04695,5.466,8.33895
1679929889824,1109878179256795,-0.11595,5.3299503,8.406
1679929889827,1109878181758871,-0.040050004,5.45205,8.34195
1679929889830,1109878184260689,-0.15405001,5.30595,8.368051
1679929889831,1109878186762842,-0.102000006,5.33895,8.349
1679929889834,1109878189264766,-0.109050006,5.418,8.3890505
1679929889837,1109878191766842,-0.123,5.2270503,8.43
1679929889841,1109878194268689,-0.06795,5.36805,8.48295
1679929889845,1109878196770612,-0.13995,5.2600503,8.385
1679929889846,1109878199272689,-0.052050002,5.28,8.398951
1679929889847,1109878201774545,-0.11595,5.2000504,8.3890505
1679929889851,1109878204276699,-0.07095,5.19105,8.42805
1679929889852,1109878206778622,-0.10395,5.14995,8.418
1679929889854,1109878209280699,-0.123,5.2699504,8.392051
1679929889856,1109878211782545,-0.052050002,5.2170005,8.35305
1679929889860,1109878214284454,-0.07095,5.229,8.47305
1679929889862,1109878216786608,-0.11595,5.0779505,8.466001
1679929889864,1109878219288454,-0.123,5.2120504,8.53995
1679929889866,1109878221790531,-0.030000001,5.1210003,8.51595
1679929889869,1109878224292468,0.034950003,5.124,8.53995
1679929889872,1109878226794545,0.04695,5.1880503,8.466001
1679929889874,1109878229296468,0.078,5.124,8.478001
1679929889878,1109878231798545,0.079950005,5.08605,8.562
1679929889881,1109878234300487,0.15705001,5.1259503,8.35095
1679929889884,1109878236802564,0.17805001,5.19105,8.398951
1679929889885,1109878239304487,0.25005,5.1979504,8.398951
1679929889886,1109878241806333,0.26505002,5.11695,8.47605
1679929889889,1109878244308410,0.26505002,5.1550503,8.31
1679929889891,1109878246810333,0.31005,5.26305,8.466001
1679929889894,1109878249312487,0.30105,5.2120504,8.346001
1679929889896,1109878251814333,0.30495003,5.2099504,8.361
1679929889900,1109878254316410,0.26505002,5.229,8.361
1679929889902,1109878256818358,0.34395,5.2270503,8.31
1679929889904,1109878259320204,0.24795002,5.2440004,8.35095
1679929889906,1109878261822281,0.31500003,5.1930003,8.31
1679929889910,1109878264324435,0.22605,5.3200502,8.254951
1679929889912,1109878266826348,0.24300002,5.3250003,8.257951
1679929889916,1109878269328194,0.13995,5.2770004,8.28405
1679929889918,1109878271830271,0.22905001,5.2440004,8.380051
1679929889921,1109878274332194,0.11595,5.2819505,8.28405
1679929889923,1109878276834267,0.01995,5.26305,8.29395
1679929889925,1109878279336113,0.03195,5.3299503,8.35305
1679929889927,1109878281838267,0.042000003,5.29395,8.25
1679929889930,1109878284340190,-0.03705,5.2870502,8.37495
1679929889931,1109878286842267,-0.063,5.2650003,8.36295
1679929889934,1109878289344113,-0.05595,5.26305,8.346001
1679929889936,1109878291846037,0.0010500001,5.24805,8.35095
1679929889939,1109878294348113,-0.06105,5.2099504,8.443951
1679929889942,1109878296850037,-0.066,5.1790504,8.302951
1679929889944,1109878299352161,-0.10395,5.16195,8.32995
1679929889947,1109878301854085,-0.09195001,5.313,8.33895
1679929889950,1109878304356161,-0.09900001,5.28,8.434951
1679929889953,1109878306858075,-0.20505,5.3110504,8.43
1679929889955,1109878309359921,-0.063,5.241,8.3869505
1679929889957,1109878311861998,-0.09195001,5.2650003,8.269951
1679929889959,1109878314363921,-0.03705,5.2270503,8.44695
1679929889961,1109878316866075,-0.11100001,5.1720004,8.406
1679929889964,1109878319368162,-0.054,5.2819505,8.346001
1679929889967,1109878321870008,-0.06795,5.14095,8.3890505
1679929889970,1109878324371931,-0.10395,5.2120504,8.41605
1679929889972,1109878326874008,-0.09195001,5.2510505,8.28195
1679929889975,1109878329375955,-0.018000001,5.256,8.35305
1679929889977,1109878331878032,-0.07095,5.21505,8.34195
1679929889981,1109878334379955,-0.030000001,5.208,8.346001
1679929889984,1109878336882032,0.010950001,5.2099504,8.361
1679929889985,1109878339383955,-0.06105,5.16195,8.385
1679929889987,1109878341885791,-0.025050001,5.196,8.434951
1679929889991,1109878344387868,0.025050001,5.208,8.290951
1679929889993,1109878346889791,-0.066,5.124,8.313001
1679929889994,1109878349391868,0.0010500001,5.268,8.24295
1679929889997,1109878351894051,0.0010500001,5.289,8.401051
1679929890000,1109878354395897,-0.049050003,5.2699504,8.42805
1679929890002,1109878356897820,-0.094950005,5.2870502,8.370001
1679929890004,1109878359399897,0.03705,5.17395,8.368051
1679929890006,1109878361901805,-0.006,5.2720504,8.346001
1679929890010,1109878364403651,-0.066,5.3029504,8.413051
1679929890012,1109878366905728,-0.087000005,5.2840505,8.433001
1679929890014,1109878369407882,-0.01305,5.2530003,8.397
1679929890017,1109878371909776,-0.087000005,5.19105,8.48505
1679929890019,1109878374411622,-0.07305,5.2440004,8.526
1679929890022,1109878376913699,0.03195,5.2720504,8.52105
1679929890024,1109878379415622,-0.078,5.256,8.512051
1679929890028,1109878381917680,-0.094950005,5.2099504,8.530951
1679929890030,1109878384419603,-0.07095,5.20305,8.50395
1679929890034,1109878386921680,-0.07305,5.30595,8.538
1679929890035,1109878389423603,0.063,5.29605,8.48295
1679929890037,1109878391925449,0.054,5.1790504,8.538
1679929890039,1109878394427536,0.08295,5.1480002,8.64105
1679929890041,1109878396929690,0.066,5.12895,8.557051
1679929890044,1109878399431536,0.135,5.1720004,8.569051
1679929890046,1109878401933459,0.17400001,5.2200003,8.559
1679929890049,1109878404435550,0.171,5.1769505,8.368051
1679929890051,1109878406937473,0.25005,5.1600003,8.47995
1679929890054,1109878409439550,0.28095,5.1330004,8.466001
1679929890057,1109878411941397,0.28905,5.1259503,8.47095
1679929890059,1109878414443564,0.33600003,5.256,8.52105
1679929890062,1109878416945487,0.24495001,5.2120504,8.418
1679929890066,1109878419447564,0.303,5.14095,8.51895
1679929890067,1109878421949487,0.34095,5.13105,8.478001
1679929890071,1109878424451344,0.29295,5.169,8.437051
1679929890073,1109878426953421,0.32700002,5.1480002,8.530951
1679929890075,1109878429455344,0.37500003,5.11905,8.44005
1679929890077,1109878431957497,0.34605002,5.136,8.46105
1679929890079,1109878434459354,0.32700002,5.184,8.43
1679929890082,1109878436961431,0.40395,5.1450005,8.42805
1679929890084,1109878439463354,0.42495003,5.2440004,8.3890505
1679929890087,1109878441965431,0.36,5.1930003,8.397
1679929890090,1109878444467354,0.40800002,5.1930003,8.373
1679929890091,1109878446969450,0.41595003,5.17395,8.368051
1679929890095,1109878449471373,0.45405003,5.13105,8.385
1679929890097,1109878451973450,0.37995002,5.1480002,8.3869505
1679929890100,1109878454475373,0.41295,5.2000504,8.47095
1679929890104,1109878456977224,0.47805002,5.13105,8.368051
1679929890106,1109878459479301,0.40395,5.241,8.44005
1679929890108,1109878461981224,0.42000002,5.1880503,8.48805
1679929890110,1109878464483349,0.37500003,5.23395,8.52795
1679929890112,1109878466985195,0.48000002,5.3629503,8.43
1679929890114,1109878469487272,0.507,5.2720504,8.37705
1679929890117,1109878471989195,0.46095002,5.229,8.50905
1679929890119,1109878474491041,0.52305,5.3029504,8.41605
1679929890122,1109878476993132,0.46800002,5.2720504,8.49705
1679929890125,1109878479495055,0.49695003,5.361,8.61705
1679929890127,1109878481997209,0.51405,5.2600503,8.47605
1679929890130,1109878484499055,0.44895002,5.2000504,8.422951
1679929890132,1109878487001142,0.432,5.181,8.455951
1679929890134,1109878489503065,0.51405,5.241,8.526
1679929890136,1109878492005142,0.45105,5.2050004,8.51895
1679929890141,1109878494506988,0.49500003,5.21505,8.583
1679929890143,1109878497008911,0.55695003,5.241,8.48295
1679929890145,1109878499511065,0.564,5.2699504,8.53995
1679929890147,1109878502013142,0.53295004,5.19105,8.48505
1679929890150,1109878504514988,0.54195005,5.1979504,8.466001
1679929890151,1109878507016911,0.53805,5.1649504,8.47605
1679929890154,1109878509518973,0.53505003,5.23605,8.502001
1679929890158,1109878512020896,0.49905002,5.3200502,8.44905
1679929890160,1109878514522973,0.50895,5.2170005,8.418
1679929890162,1109878517024896,0.492,5.2170005,8.502001
1679929890164,1109878519526940,0.48705003,5.208,8.418
1679929890167,1109878522028863,0.52995,5.28,8.373
1679929890169,1109878524530709,0.44700003,5.184,8.47995
1679929890172,1109878527032786,0.46095002,5.2699504,8.41605
1679929890174,1109878529534723,0.42705002,5.2699504,8.47305
1679929890178,1109878532036800,0.37005,5.2600503,8.392051
1679929890184,1109878534538954,0.39900002,5.2510505,8.41605
1679929890185,1109878537040800,0.38895002,5.19105,8.406
1679929890186,1109878539542767,0.40605003,5.2510505,8.422951
1679929890188,1109878542044843,0.42705002,5.3299503,8.433001
1679929890190,1109878544546690,0.432,5.313,8.490001
1679929890192,1109878547048613,0.38700002,5.33505,8.45205
1679929890194,1109878549550690,0.34605002,5.30595,8.44695
1679929890197,1109878552052661,0.46095002,5.37795,8.418
1679929890199,1109878554554738,0.44205,5.3149505,8.46405
1679929890201,1109878557056661,0.43005002,5.3110504,8.43
1679929890204,1109878559558738,0.37695003,5.28,8.48805
1679929890207,1109878562060632,0.384,5.2819505,8.46105
1679929890210,1109878564562709,0.32700002,5.3179502,8.454
1679929890212,1109878567064632,0.41805002,5.2440004,8.50695
1679929890217,1109878569566709,0.44205,5.32695,8.557051
1679929890218,1109878572068522,0.37995002,5.2770004,8.569051
1679929890220,1109878574570445,0.411,5.27505,8.46105
1679929890223,1109878577072522,0.34605002,5.29605,8.514
1679929890224,1109878579574676,0.34395,5.2699504,8.490001
1679929890227,1109878582076522,0.45900002,5.3509502,8.410951
1679929890230,1109878584578416,0.37500003,5.2440004,8.397
1679929890232,1109878587080493,0.423,5.20305,8.434951
1679929890235,1109878589582416,0.483,5.2390504,8.368051
1679929890237,1109878592084493,0.48705003,5.169,8.500051
1679929890239,1109878594586290,0.492,5.2510505,8.394
1679929890242,1109878597088444,0.46605003,5.2440004,8.3220005
1679929890244,1109878599590367,0.46800002,5.2699504,8.34405
1679929890248,1109878602092444,0.46605003,5.26305,8.302951
1679929890250,1109878604594295,0.42705002,5.2530003,8.170051
1679929890253,1109878607096218,0.46305,5.2320004,8.31495
1679929890255,1109878609598295,0.47505003,5.1930003,8.253
1679929890259,1109878612100449,0.47100002,5.24595,8.32005
1679929890261,1109878614602357,0.47805002,5.2440004,8.358001
1679929890265,1109878617104203,0.38895002,5.24595,8.257951
1679929890266,1109878619606280,0.36795002,5.2699504,8.28195
1679929890268,1109878622108203,0.39600003,5.3250003,8.337001
1679929890270,1109878624610280,0.37005,5.3560505,8.262
1679929890272,1109878627112126,0.411,5.27505,8.33895
1679929890276,1109878629614280,0.36,5.2770004,8.272051
1679929890277,1109878632116203,0.42705002,5.3110504,8.3869505
1679929890279,1109878634618280,0.40605003,5.2840505,8.413051
1679929890282,1109878637120203,0.384,5.2840505,8.361
1679929890284,1109878639622068,0.31695002,5.3419504,8.34195
1679929890287,1109878642124145,0.38895002,5.28,8.313001
1679929890291,1109878644626068,0.52605003,5.2870502,8.35095
1679929890293,1109878647128126,0.33900002,5.32305,8.313001
1679929890295,1109878649630049,0.43695003,5.30595,8.272051
1679929890297,1109878652132126,0.432,5.2990503,8.28405
1679929890300,1109878654634049,0.41295,5.3250003,8.272051
1679929890303,1109878657135896,0.37500003,5.32305,8.215051
1679929890308,1109878659637978,0.372,5.3320503,8.35095
1679929890308,1109878662139901,0.44400004,5.3200502,8.2240505
1679929890309,1109878664642054,0.49005002,5.2840505,8.269951
1679929890312,1109878667143901,0.32895002,5.301,8.262
1679929890314,1109878669645949,0.38205,5.28,8.290951
1679929890317,1109878672147872,0.372,5.3560505,8.2240505
1679929890319,1109878674649949,0.37500003,5.30805,8.227051
1679929890322,1109878677151795,0.26700002,5.3490005,8.29605
1679929890324,1109878679653742,0.36795002,5.2600503,8.380051
1679929890328,1109878682155896,0.38895002,5.313,8.31495
1679929890330,1109878684657973,0.36795002,5.2770004,8.313001
1679929890334,1109878687159819,0.30795002,5.3419504,8.36505
1679929890335,1109878689661761,0.28905,5.33895,8.361
1679929890337,1109878692163838,0.28395,5.385,8.32695
1679929890339,1109878694665761,0.24105,5.3509502,8.31495
1679929890342,1109878697167607,0.25005,5.3710504,8.413051
1679929890344,1109878699669761,0.31695002,5.3629503,8.35095
1679929890346,1109878702171833,0.24795002,5.2390504,8.313001
1679929890350,1109878704673756,0.26205,5.4210005,8.349
1679929890352,1109878707175602,0.25500003,5.32305,8.346001
1679929890354,1109878709677679,0.279,5.3560505,8.29605
1679929890359,1109878712179593,0.22905001,5.29605,8.274
1679929890360,1109878714681670,0.35295,5.4019504,8.23095
1679929890362,1109878717183593,0.31305,5.3250003,8.32695
1679929890368,1109878719685622,0.26205,5.361,8.245951
1679929890369,1109878722187545,0.27405003,5.3440504,8.25
1679929890371,1109878724689622,0.34395,5.2530003,8.313001
1679929890373,1109878727191776,0.32895002,5.38005,8.334001
1679929890375,1109878729693622,0.30105,5.3920503,8.28405
1679929890379,1109878732195535,0.363,5.3029504,8.33895
1679929890381,1109878734697612,0.28605002,5.3179502,8.28405
1679929890384,1109878737199535,0.34605002,5.29605,8.380051
1679929890386,1109878739701381,0.36495003,5.2819505,8.2890005
1679929890387,1109878742203458,0.36495003,5.208,8.358001
1679929890390,1109878744705631,0.30495003,5.4090004,8.35305
1679929890392,1109878747207477,0.37500003,5.32695,8.301001
1679929890394,1109878749709400,0.41295,5.3299503,8.361
1679929890400,1109878752211477,0.33900002,5.26305,8.394
1679929890401,1109878754713415,0.39195,5.2530003,8.31
1679929890404,1109878757215261,0.39600003,5.313,8.361
1679929890406,1109878759717338,0.35295,5.30805,8.361
1679929890407,1109878762219492,0.38205,5.3440504,8.418
1679929890410,1109878764721415,0.33900002,5.28,8.349
1679929890412,1109878767223280,0.34800002,5.2699504,8.3220005
1679929890414,1109878769725357,0.34800002,5.1769505,8.418
1679929890417,1109878772227280,0.483,5.26305,8.466001
1679929890420,1109878774729357,0.41805002,5.1790504,8.559
1679929890423,1109878777231246,0.38700002,5.2270503,8.48505
1679929890424,1109878779733323,0.45405003,5.2650003,8.533051
1679929890427,1109878782235246,0.411,5.32305,8.538
1679929890430,1109878784737323,0.35295,5.33505,8.3560505
1679929890432,1109878787239170,0.41295,5.24595,8.45895
1679929890434,1109878789741103,0.40395,5.2870502,8.48505
1679929890437,1109878792243180,0.43905002,5.2990503,8.47995
1679929890443,1109878794745333,0.411,5.29605,8.47605
1679929890444,1109878797247180,0.43005002,5.1979504,8.394
1679929890445,1109878799749122,0.44400004,5.21505,8.512051
1679929890447,1109878802251199,0.48000002,5.2699504,8.569051
1679929890450,1109878804753122,0.52305,5.313,8.512051
1679929890452,1109878807254968,0.50895,5.28,8.502001
1679929890455,1109878809757045,0.44400004,5.33895,8.49195
1679929890458,1109878812259165,0.49005002,5.2390504,8.4210005
1679929890460,1109878814761088,0.49005002,5.30595,8.4210005
1679929890463,1109878817263165,0.55005,5.2770004,8.563951
1679929890465,1109878819765011,0.507,5.2579503,8.46405
1679929890467,1109878822266934,0.52995,5.2600503,8.51895
1679929890470,1109878824769030,0.53295004,5.268,8.533051
1679929890472,1109878827270953,0.49005002,5.3200502,8.500051
1679929890474,1109878829773107,0.53295004,5.3440504,8.512051
1679929890480,1109878832274949,0.55695003,5.28,8.434951
1679929890482,1109878834777026,0.63105005,5.361,8.49195
1679929890484,1109878837278949,0.55695003,5.2870502,8.607
1679929890486,1109878839781026,0.61695004,5.2699504,8.533051
1679929890487,1109878842282872,0.51000005,5.26305,8.524051
1679929890490,1109878844784799,0.47805002,5.36805,8.547
1679929890492,1109878847286953,0.53805,5.27505,8.48505
1679929890494,1109878849789030,0.47100002,5.33895,8.571
1679929890497,1109878852290876,0.51405,5.2530003,8.46405
1679929890500,1109878854792799,0.34605002,5.2909503,8.443951
1679929890503,1109878857294891,0.41295,5.23395,8.42805
1679929890504,1109878859796814,0.42705002,5.26305,8.538
1679929890507,1109878862298660,0.32505003,5.2120504,8.559
1679929890510,1109878864800814,0.32505003,5.2170005,8.63805
1679929890512,1109878867302872,0.28905,5.1979504,8.545051
1679929890516,1109878869804795,0.39900002,5.2000504,8.49495
1679929890518,1109878872306641,0.37500003,5.229,8.533051
1679929890522,1109878874808727,0.30105,5.2270503,8.454
1679929890523,1109878877310650,0.34605002,5.181,8.47995
1679929890525,1109878879812727,0.37500003,5.17395,8.60295
1679929890527,1109878882314650,0.36495003,5.13105,8.500051
1679929890530,1109878884816727,0.39900002,5.08605,8.422951
1679929890532,1109878887318568,0.20700002,5.23605,8.48295
1679929890534,1109878889820492,0.30495003,5.208,8.512051
1679929890537,1109878892322645,0.38205,5.1450005,8.554951
1679929890540,1109878894824722,0.36,5.11695,8.394
1679929890543,1109878897326578,0.37695003,5.1859503,8.545051
1679929890545,1109878899828502,0.28095,5.1259503,8.49705
1679929890548,1109878902330578,0.31305,5.169,8.455951
1679929890550,1109878904832502,0.22200002,5.1450005,8.51595
1679929890554,1109878907334587,0.25695002,5.097,8.538
1679929890555,1109878909836511,0.24300002,5.21505,8.599951
1679929890559,1109878912338587,0.25500003,5.12895,8.44005
1679929890561,1109878914840511,0.31305,5.05905,8.50395
1679929890562,1109878917342587,0.20505,5.196,8.44695
1679929890565,1109878919844435,0.171,5.229,8.467951
1679929890567,1109878922346358,0.23295002,5.1259503,8.44005
1679929890570,1109878924848435,0.24795002,5.11695,8.46105
1679929890572,1109878927350589,0.24495001,5.22405,8.48505
1679929890574,1109878929852415,0.15705001,5.1930003,8.50695
1679929890577,1109878932354338,0.23295002,5.23395,8.48505
1679929890580,1109878934856415,0.291,5.13105,8.454
1679929890583,1109878937358338,0.27195,5.2870502,8.44005
1679929890585,1109878939860184,0.29295,5.32305,8.526
1679929890587,1109878942362261,0.25995,5.29605,8.41605
1679929890591,1109878944864415,0.25995,5.2699504,8.49495
1679929890593,1109878947366338,0.25695002,5.2440004,8.442
1679929890595,1109878949868194,0.34095,5.3149505,8.442
1679929890600,1109878952370271,0.37695003,5.24595,8.4210005
1679929890601,1109878954872194,0.303,5.26305,8.512051
1679929890602,1109878957374271,0.39900002,5.289,8.35095
1679929890604,1109878959876194,0.34800002,5.21505,8.562
1679929890607,1109878962378266,0.36,5.20305,8.478001
1679929890610,1109878964880189,0.39405003,5.32305,8.50395
1679929890612,1109878967382035,0.34095,5.3440504,8.569051
1679929890615,1109878969884112,0.39405003,5.27505,8.53995
1679929890617,1109878972386016,0.28095,5.3509502,8.437051
1679929890620,1109878974888093,0.34095,5.2390504,8.547
1679929890623,1109878977390016,0.29595003,5.208,8.524051
1679929890625,1109878979892093,0.31995,5.29605,8.715
1679929890628,1109878982394049,0.28095,5.3490005,8.61705
1679929890631,1109878984896126,0.27705002,5.3320503,8.679001
1679929890633,1109878987398049,0.34605002,5.32695,8.60505
1679929890635,1109878989899895,0.27405003,5.3299503,8.682
1679929890637,1109878992401972,0.29595003,5.3299503,8.530951
1679929890640,1109878994904126,0.33405003,5.2770004,8.66205
1679929890643,1109878997406049,0.28905,5.2840505,8.62905
1679929890645,1109878999908126,0.31305,5.385,8.569051
1679929890647,1109879002409972,0.32700002,5.3490005,8.667001
1679929890650,1109879004911919,0.31500003,5.3149505,8.64795
1679929890652,1109879007413996,0.42000002,5.2870502,8.62695
1679929890654,1109879009915919,0.37005,5.2579503,8.67405
1679929890657,1109879012418073,0.34605002,5.36805,8.646001
1679929890659,1109879014919919,0.32700002,5.3149505,8.655001
1679929890663,1109879017422020,0.43695003,5.4570003,8.691
1679929890666,1109879019923943,0.47100002,5.4090004,8.679001
1679929890669,1109879022425790,0.37500003,5.3710504,8.7289505
1679929890671,1109879024927867,0.41295,5.4019504,8.718
1679929890673,1109879027429790,0.39900002,5.4300003,8.740951
1679929890675,1109879029931943,0.41295,5.4540005,8.79195
1679929890677,1109879032434020,0.34605002,5.44005,8.98095
1679929890679,1109879034935867,0.39195,5.418,8.86095
1679929890682,1109879037437790,0.32205,5.3869505,8.93505
1679929890685,1109879039939872,0.279,5.4420004,8.91405
1679929890687,1109879042441795,0.22200002,5.4570003,9.040951
1679929890690,1109879044943641,0.19305001,5.4349504,8.952001
1679929890692,1109879047445795,0.147,5.41095,9.0379505
1679929890695,1109879049947872,0.15,5.418,9.028951
1679929890697,1109879052449790,0.13095,5.4139504,8.955001
1679929890700,1109879054951636,0.21405001,5.43795,9.043051
1679929890705,1109879057453790,0.18300001,5.5069504,9.012
1679929890706,1109879059955641,0.04695,5.4139504,9.1060505
1679929890708,1109879062457718,0.07305,5.50005,9.096001
1679929890710,1109879064959641,0.05595,5.3590503,9.165
1679929890712,1109879067461718,0.040050004,5.3419504,9.031051
1679929890714,1109879069963564,0.04695,5.3749504,9.132
1679929890717,1109879072465492,0.05595,5.3560505,9.117001
1679929890720,1109879074967646,0.087000005,5.3590503,9.031051
1679929890723,1109879077469723,0.06795,5.3490005,9.28005
1679929890725,1109879079971569,0.123,5.32305,9.321
1679929890727,1109879082473492,0.18300001,5.26305,9.249001
1679929890730,1109879084975573,0.10695001,5.3250003,9.229951
1679929890732,1109879087477496,0.10395,5.289,9.328051
1679929890735,1109879089979573,0.15,5.268,9.328051
1679929890737,1109879092481496,0.109050006,5.2699504,9.29205
1679929890741,1109879094983564,0.03195,5.2050004,9.394951
1679929890744,1109879097485487,0.06795,5.2440004,9.35505
1679929890746,1109879099987564,0.08505,5.1720004,9.333
1679929890748,1109879102489410,0.15900001,5.23605,9.309
1679929890750,1109879104991333,0.15405001,5.208,9.309
1679929890752,1109879107493410,0.25005,5.1649504,9.370951
1679929890755,1109879109995564,0.28605002,5.0620503,9.346951
1679929890757,1109879112497487,0.19800001,5.1259503,9.369
1679929890760,1109879114999323,0.231,5.1120005,9.3810005
1679929890762,1109879117501400,0.20700002,5.1070504,9.307051
1679929890765,1109879120003323,0.25995,5.0779505,9.41895
1679929890767,1109879122505400,0.17595,5.02605,9.469951
1679929890771,1109879125007347,0.23295002,5.0830503,9.460051
1679929890772,1109879127509424,0.24300002,5.0400004,9.457951
1679929890774,1109879130011347,0.20700002,4.9009504,9.618
1679929890779,1109879132513405,0.23595001,4.887,9.549001
1679929890781,1109879135015251,0.18795002,4.88205,9.56295
1679929890784,1109879137517174,0.29595003,4.872,9.537001
1679929890786,1109879140019251,0.279,4.74795,9.469951
1679929890788,1109879142521405,0.34800002,4.8,9.702001
1679929890790,1109879145023280,0.30105,4.8559504,9.517051
1679929890792,1109879147525204,0.33600003,4.77705,9.573001
1679929890794,1109879150027280,0.28095,4.6810503,9.54405
1679929890797,1109879152529204,0.30105,4.695,9.618
1679929890800,1109879155031045,0.42705002,4.7140503,9.60795
1679929890802,1109879157533122,0.40800002,4.683,9.711
1679929890806,1109879160035275,0.40800002,4.7070003,9.714001
1679929890807,1109879162537199,0.49500003,4.59705,9.666
1679929890810,1109879165039031,0.47100002,4.5919504,9.640051
1679929890812,1109879167541108,0.51600003,4.53,9.673051
1679929890817,1109879170043031,0.56895,4.5079503,9.649051
1679929890818,1109879172545108,0.53295004,4.4290504,9.69495
1679929890821,1109879175046925,0.55395,4.4170504,9.64395
1679929890824,1109879177549079,0.59295005,4.39605,9.628051
1679929890825,1109879180051002,0.65295005,4.3170004,9.622951
1679929890827,1109879182553079,0.72195005,4.3000503,9.625051
1679929890830,1109879185054925,0.708,4.2070503,9.585
1679929890834,1109879187556824,0.76500005,4.09905,9.525001
1679929890835,1109879190058901,0.78000003,4.06995,9.68505
1679929890838,1109879192560747,0.804,4.1010003,9.460051
1679929890840,1109879195062901,0.82695,4.03905,9.56805
1679929890842,1109879197564804,0.96795005,4.05105,9.4480505
1679929890845,1109879200066881,1.03005,3.9409502,9.382951
1679929890848,1109879202568727,1.056,3.9529502,9.502951
1679929890850,1109879205070650,1.15005,4.02495,9.39795
1679929890854,1109879207572751,1.09695,4.0140004,9.505051
1679929890856,1109879210074674,1.07295,3.9790502,9.41205
1679929890857,1109879212576828,1.0680001,3.8880002,9.490951
1679929890860,1109879215078674,1.15695,3.9889503,9.41895
1679929890863,1109879217580751,1.1590501,3.8710501,9.58695
1679929890865,1109879220082674,1.18095,3.9190502,9.41895
1679929890868,1109879222584751,1.18305,3.831,9.534
1679929890870,1109879225086674,1.1520001,3.83295,9.44295
1679929890873,1109879227588751,1.092,3.8140502,9.46695
1679929890875,1109879230090660,1.08,3.7369502,9.44295
1679929890877,1109879232592506,1.1400001,3.6649501,9.369
1679929890880,1109879235094583,1.14705,3.7200003,9.337951
1679929890883,1109879237596506,1.15695,3.7830002,9.460051
1679929890885,1109879240098660,1.11405,3.696,9.514951
1679929890887,1109879242600525,1.1380501,3.5740502,9.402
1679929890891,1109879245102602,1.0180501,3.5500503,9.402
1679929890893,1109879247604525,1.176,3.627,9.438001
1679929890895,1109879250106401,1.1209501,3.6010501,9.345
1679929890897,1109879252608477,1.1710501,3.6169503,9.4459505
1679929890900,1109879255110401,1.07595,3.5740502,9.41895
1679929890903,1109879257612554,1.116,3.55995,9.394951
1679929890905,1109879260114401,1.131,3.5310001,9.484051
1679929890907,1109879262616472,1.176,3.5500503,9.352051
1679929890910,1109879265118396,1.092,3.55695,9.453
1679929890912,1109879267620472,1.1400001,3.486,9.393001
1679929890915,1109879270122319,1.14705,3.5479503,9.319051
1679929890918,1109879272624271,1.2240001,3.5310001,9.321
1679929890922,1109879275126425,1.28205,3.4279501,9.309
1679929890924,1109879277628502,1.19505,3.5020502,9.357
1679929890926,1109879280130425,1.2379501,3.4660501,9.4140005
1679929890929,1109879282632280,1.23105,3.4740002,9.307051
1679929890941,1109879285134357,1.1520001,3.45,9.37395
1679929890941,1109879287636280,1.212,3.42105,9.38595
1679929890941,1109879290138357,1.1230501,3.354,9.38595
1679929890942,1109879292640280,1.1380501,3.3630002,9.369
1679929890942,1109879295142386,1.092,3.39,9.498
1679929890943,1109879297644232,1.06605,3.3780003,9.357
1679929890945,1109879300146309,1.056,3.38505,9.37905
1679929890947,1109879302648232,1.03695,3.25605,9.36705
1679929890950,1109879305150078,0.98205006,3.32505,9.345
1679929890952,1109879307652247,1.03995,3.3040502,9.319051
1679929890955,1109879310154324,1.06095,3.2580001,9.349951
1679929890957,1109879312656247,0.96795005,3.2410502,9.358951
1679929890960,1109879315158093,0.85605,3.2029502,9.4140005
1679929890962,1109879317660146,0.975,3.153,9.27105
1679929890966,1109879320162069,0.86595005,3.246,9.460051
1679929890968,1109879322664146,0.9289501,3.0979502,9.42195
1679929890971,1109879325166304,0.90795004,3.0930002,9.45495
1679929890975,1109879327668150,0.84195006,3.1690502,9.41895
1679929890976,1109879330170073,0.82695,3.0259502,9.37395
1679929890977,1109879332672150,0.78705,2.9920502,9.32295
1679929890980,1109879335174073,0.72405005,2.8890002,9.168
1679929890985,1109879337675910,0.70095,2.8890002,9.196951
1679929890986,1109879340177987,0.72,2.868,9.14595
1679929890987,1109879342680141,0.72705,2.841,9.120001
1679929890992,1109879345181987,0.67200005,2.80095,9.11295
1679929890992,1109879347683910,0.79200006,2.805,9.1390505
1679929890994,1109879350185992,0.79605,2.7169502,9.10995
1679929891000,1109879352687915,0.79605,2.77905,9.273001
1679929891001,1109879355189761,0.80100006,2.7460501,9.117001
1679929891004,1109879357691838,0.84705,2.772,9.402
1679929891006,1109879360193996,0.81105006,2.7139502,9.33495
1679929891008,1109879362695919,0.897,2.67105,9.394951
1679929891010,1109879365197765,0.82695,2.6110501,9.319051
1679929891012,1109879367699842,0.82995003,2.6809502,9.29205
1679929891015,1109879370201765,0.83205,2.6550002,9.316051
1679929891017,1109879372703866,0.82305,2.7,9.309
1679929891020,1109879375205713,0.72,2.60205,9.181951
1679929891023,1109879377707866,0.83205,2.71005,9.208051
1679929891025,1109879380209789,0.84705,2.6449502,9.22305
1679929891027,1109879382711857,0.69795,2.628,9.217951
1679929891030,1109879385213704,0.73395,2.6089501,9.273001
1679929891033,1109879387715857,0.72195005,2.5440001,9.297001
1679929891035,1109879390217780,0.75600004,2.46495,9.252001
1679929891037,1109879392719857,0.79200006,2.523,9.168
1679929891042,1109879395221704,0.78900003,2.5519502,9.313951
1679929891043,1109879397723627,0.80595005,2.5489502,9.24705
1679929891047,1109879400225704,0.86100006,2.4799502,9.28995
1679929891048,1109879402727622,0.82005006,2.49195,9.27105
1679929891050,1109879405229776,0.79395,2.4409502,9.153001
1679929891053,1109879407731622,0.79200006,2.49405,9.313951
1679929891055,1109879410233699,0.72900003,2.5519502,9.184951
1679929891058,1109879412735603,0.81795,2.5519502,9.264001
1679929891061,1109879415237449,0.80100006,2.47005,9.160951
1679929891063,1109879417739526,0.777,2.40105,9.217951
1679929891065,1109879420241449,0.69105005,2.523,9.261001
1679929891067,1109879422743588,0.67395,2.5110002,9.285001
1679929891070,1109879425245665,0.77505004,2.47005,9.27795
1679929891073,1109879427747511,0.76305,2.56095,9.328051
1679929891075,1109879430249434,0.73200005,2.5729501,9.283051
1679929891078,1109879432751526,0.71295005,2.56095,9.24195
1679929891081,1109879435253449,0.71295005,2.532,9.43095
1679929891084,1109879437755295,0.70500004,2.676,9.40005
1679929891085,1109879440257449,0.624,2.5849502,9.328051
1679929891087,1109879442759526,0.58995,2.6160002,9.24405
1679929891090,1109879445261429,0.47295,2.70495,9.3
1679929891092,1109879447763275,0.44895002,2.64,9.264001
1679929891095,1109879450265352,0.46305,2.6470501,9.29205
1679929891097,1109879452767275,0.52995,2.607,9.27795
1679929891101,1109879455269368,0.43905002,2.676,9.192
1679929891103,1109879457771291,0.44205,2.592,9.276
1679929891105,1109879460273368,0.411,2.6260502,9.364051
1679929891107,1109879462775291,0.39405003,2.7139502,9.26805
1679929891110,1109879465277137,0.41295,2.67405,9.369
1679929891112,1109879467779257,0.34800002,2.6809502,9.346951
1679929891117,1109879470281180,0.37695003,2.6190002,9.429001
1679929891118,1109879472783334,0.34095,2.6830502,9.51
1679929891122,1109879475285180,0.28395,2.6110501,9.505051
1679929891123,1109879477787252,0.36495003,2.56395,9.59595
1679929891125,1109879480289175,0.231,2.5470002,9.59895
1679929891128,1109879482791252,0.31995,2.5470002,9.63195
1679929891130,1109879485293098,0.24300002,2.47305,9.679951
1679929891132,1109879487795021,0.25695002,2.394,9.493951
1679929891135,1109879490297180,0.39195,2.3380501,9.66405
1679929891137,1109879492799257,0.20700002,2.35995,9.735001
1679929891141,1109879495301103,0.36795002,2.25,9.73995
1679929891143,1109879497803026,0.31305,2.29095,9.75
1679929891145,1109879500305103,0.384,2.094,9.73095
1679929891148,1109879502807027,0.33900002,2.085,9.759001
1679929891150,1109879505308873,0.35295,2.08695,9.781051
1679929891154,1109879507811027,0.46800002,2.094,9.71595
1679929891156,1109879510313122,0.46095002,1.99995,9.72795
1679929891158,1109879512815046,0.43695003,1.9600501,9.738001
1679929891161,1109879515317122,0.58095,1.9069501,9.831
1679929891162,1109879517818969,0.60495,1.89795,9.87195
1679929891165,1109879520320892,0.70500004,1.8229501,9.819
1679929891168,1109879522822974,0.66705,1.8019501,9.814051
1679929891171,1109879525325127,0.76500005,1.6969501,9.77595
1679929891173,1109879527826974,0.79905003,1.8019501,9.711
1679929891175,1109879530328897,0.975,1.7230501,9.846001
1679929891180,1109879532830945,1.0710001,1.7520001,9.699
1679929891183,1109879535332868,1.0639501,1.6849501,9.85305
1679929891185,1109879537834714,1.23105,1.6870501,9.637051
1679929891186,1109879540336791,1.2240001,1.6180501,9.691951
1679929891187,1109879542838945,1.3290001,1.6129501,9.526951
1679929891192,1109879545340844,1.2859501,1.5979501,9.63195
1679929891194,1109879547842921,1.401,1.608,9.56295
1679929891196,1109879550344767,1.5139501,1.58895,9.582001
1679929891198,1109879552846690,1.5139501,1.6200001,9.53205
1679929891201,1109879555348767,1.50705,1.55505,9.51
1679929891202,1109879557850685,1.5330001,1.5289501,9.5130005
1679929891205,1109879560352762,1.50195,1.5790501,9.5460005
1679929891208,1109879562854608,1.46595,1.6390501,9.52005
1679929891211,1109879565356531,1.4950501,1.4950501,9.517051
1679929891213,1109879567858618,1.3939501,1.59105,9.585
1679929891215,1109879570360772,1.29795,1.503,9.618
1679929891218,1109879572862618,1.3219501,1.503,9.622951
1679929891223,1109879575364541,1.2910501,1.5840001,9.68805
1679929891225,1109879577866618,1.23105,1.5790501,9.68505
1679929891226,1109879580368541,1.07595,1.5499501,9.73305
1679929891229,1109879582870618,1.07295,1.572,9.642
1679929891232,1109879585372464,1.0180501,1.5600001,9.793051
1679929891234,1109879587874632,0.93705004,1.677,9.72795
1679929891236,1109879590376555,0.906,1.5000001,9.73305
1679929891238,1109879592878401,0.88695,1.5960001,9.735001
1679929891240,1109879595380478,0.85605,1.503,9.666
1679929891242,1109879597882401,0.837,1.58895,9.561001
1679929891245,1109879600384464,0.82695,1.4860501,9.73095
1679929891248,1109879602886387,0.804,1.51005,9.58905
1679929891251,1109879605388464,0.91995007,1.4809501,9.640051
1679929891253,1109879607890387,0.84195006,1.5270001,9.517051
1679929891255,1109879610392454,0.804,1.4449501,9.537001
1679929891258,1109879612894377,0.81795,1.5340501,9.36705
1679929891262,1109879615396454,0.78705,1.5820501,9.462001
1679929891264,1109879617898300,0.83205,1.5270001,9.490951
1679929891267,1109879620400234,0.84195006,1.4449501,9.498
1679929891270,1109879622902387,0.79905003,1.5499501,9.457951
1679929891272,1109879625404464,0.78195006,1.58895,9.402
1679929891274,1109879627906311,0.83895004,1.5270001,9.41895
1679929891275,1109879630408234,0.81105006,1.5270001,9.450001
1679929891278,1109879632910316,0.80805004,1.67505,9.484051
1679929891280,1109879635412239,0.78195006,1.7350501,9.441
1679929891283,1109879637914316,0.74100006,1.5840001,9.40695
1679929891285,1109879640416239,0.74805003,1.641,9.462001
1679929891288,1109879642918316,0.71505004,1.5409501,9.43605
1679929891292,1109879645420229,0.72,1.6369501,9.441
1679929891294,1109879647922075,0.67695004,1.7230501,9.4480505
1679929891296,1109879650424152,0.75600004,1.7710501,9.450001
1679929891298,1109879652926075,0.75795,1.7179501,9.489
1679929891301,1109879655428234,0.79200006,1.8229501,9.441
1679929891305,1109879657930080,0.744,1.7710501,9.606001
1679929891307,1109879660432157,0.80805004,1.77795,9.654
1679929891309,1109879662934085,0.77205,1.8430501,9.69495
1679929891311,1109879665436162,0.72900003,1.86195,9.65205
1679929891313,1109879667938008,0.76995003,1.8280501,9.754951
1679929891316,1109879670439931,0.74805003,1.86705,9.891001
1679929891318,1109879672942085,0.76500005,1.764,9.74295
1679929891323,1109879675444161,0.74100006,1.845,9.783
1679929891326,1109879677946007,0.62595004,1.7320501,9.754951
1679929891327,1109879680447930,0.68100005,1.81605,9.74505
1679929891329,1109879682950007,0.64995,1.7230501,9.838051
1679929891330,1109879685451853,0.64095,1.7760001,9.69495
1679929891333,1109879687953776,0.58095,1.67505,9.73095
1679929891335,1109879690455930,0.708,1.677,9.58005
1679929891338,1109879692958007,0.657,1.6459501,9.55605
1679929891344,1109879695459849,0.66705,1.6030501,9.634951
1679929891346,1109879697961772,0.777,1.6369501,9.498
1679929891350,1109879700463849,0.70995003,1.6699501,9.658951
1679929891353,1109879702965815,0.78405005,1.6680001,9.726001
1679929891354,1109879705467661,0.83505005,1.4809501,9.61305
1679929891356,1109879707969815,0.81105006,1.5270001,9.673051
1679929891358,1109879710471892,0.90195006,1.55505,9.68295
1679929891360,1109879712973815,0.96795005,1.4640001,9.7570505
1679929891362,1109879715475675,0.98700005,1.5190501,9.606001
1679929891364,1109879717977752,1.011,1.335,9.68295
1679929891366,1109879720479675,1.19505,1.3230001,9.61305
1679929891368,1109879722981829,1.18095,1.27005,9.625051
1679929891371,1109879725483680,1.1710501,1.368,9.649051
1679929891373,1109879727985757,1.19805,1.3780501,9.438001
1679929891375,1109879730487680,1.10895,1.30095,9.549001
1679929891379,1109879732989757,1.24995,1.299,9.58695
1679929891383,1109879735491887,1.19805,1.3039501,9.616051
1679929891385,1109879737993733,1.176,1.27695,9.585
1679929891387,1109879740495656,1.19805,1.2220501,9.640051
1679929891389,1109879742997733,1.095,1.3060501,9.529051
1679929891392,1109879745499656,1.0519501,1.27695,9.493951
1679929891394,1109879748001503,1.1209501,1.335,9.426001
1679929891396,1109879750503580,0.98505,1.1740501,9.393001
1679929891398,1109879753005733,1.023,1.3399501,9.505051
1679929891400,1109879755507656,1.167,1.2730501,9.502951
1679929891402,1109879758009503,1.128,1.31595,9.465
1679929891405,1109879760511565,1.167,1.3560001,9.60795
1679929891408,1109879763013488,1.2409501,1.4260501,9.502951
1679929891410,1109879765515565,1.3770001,1.47405,9.64395
1679929891413,1109879768017411,1.3800001,1.42095,9.690001
1679929891417,1109879770519565,1.45395,1.4860501,9.799951
1679929891420,1109879773021488,1.4800501,1.40205,9.807
1679929891422,1109879775523565,1.45905,1.43805,9.975
1679929891424,1109879778025416,1.4680501,1.4790001,9.87405
1679929891426,1109879780527339,1.4899501,1.4670001,9.964951
1679929891428,1109879783029416,1.4830501,1.4760001,9.934051
1679929891433,1109879785531339,1.3800001,1.455,9.843
1679929891434,1109879788033416,1.26495,1.43505,9.927
1679929891436,1109879790535324,1.19505,1.4809501,9.814051
1679929891438,1109879793037401,1.19295,1.452,9.690001
1679929891440,1109879795539247,1.1689501,1.491,9.604051
1679929891442,1109879798041170,1.128,1.524,9.538951
1679929891445,1109879800543247,1.12605,1.6969501,9.450001
1679929891448,1109879803045150,1.07295,1.6290001,9.538951
1679929891450,1109879805547227,1.1380501,1.70595,9.358951
1679929891454,1109879808049150,0.99195004,1.6969501,9.4459505
1679929891457,1109879810551208,0.9580501,1.6969501,9.45495
1679929891459,1109879813053131,0.93405,1.6489501,9.337951
1679929891461,1109879815554977,0.92205006,1.71105,9.346951
1679929891463,1109879818057054,0.87495005,1.7850001,9.288
1679929891465,1109879820559208,0.81795,1.6609501,9.25605
1679929891467,1109879823061126,0.76305,1.7320501,9.4140005
1679929891471,1109879825562972,0.69795,1.7320501,9.26805
1679929891473,1109879828065049,0.69105005,1.764,9.325951
1679929891476,1109879830566972,0.67695004,1.7010001,9.349951
1679929891479,1109879833069035,0.68895006,1.7320501,9.28995
1679929891481,1109879835570881,0.624,1.5960001,9.33495
1679929891483,1109879838073035,0.61200005,1.641,9.42195
1679929891485,1109879840574958,0.55200005,1.7539501,9.4140005
1679929891488,1109879843077001,0.59505004,1.6849501,9.58005
1679929891492,1109879845578924,0.57405,1.70595,9.537001
1679929891494,1109879848080770,0.564,1.6320001,9.56505
1679929891496,1109879850582847,0.51900005,1.641,9.606001
1679929891499,1109879853084770,0.49695003,1.5790501,9.58905
1679929891501,1109879855586910,0.40605003,1.59105,9.634951
1679929891503,1109879858088757,0.57405,1.55805,9.65205
1679929891505,1109879860590833,0.55200005,1.58895,9.679951
1679929891508,1109879863092757,0.62100005,1.58595,9.654
1679929891510,1109879865594828,0.69600004,1.59405,9.642
1679929891515,1109879868096752,0.72,1.7299501,9.558001
1679929891518,1109879870598598,0.76500005,1.6290001,9.604051
1679929891519,1109879873100747,0.79200006,1.644,9.525001
1679929891521,1109879875602823,0.837,1.62195,9.5460005
1679929891523,1109879878104747,0.91305006,1.7209501,9.5460005
1679929891525,1109879880606593,0.94605005,1.692,9.42405
1679929891529,1109879883108656,0.9990001,1.7560501,9.522
1679929891532,1109879885610579,1.0030501,1.6870501,9.496051
1679929891534,1109879888112425,1.06605,1.728,9.493951
1679929891536,1109879890614579,1.07295,1.6560001,9.394951
1679929891538,1109879893116425,1.0350001,1.6819501,9.486
1679929891541,1109879895618483,1.092,1.6969501,9.489
1679929891543,1109879898120406,1.131,1.644,9.417001
1679929891545,1109879900622560,1.1400001,1.6990501,9.30405
1679929891547,1109879903124406,1.3410001,1.725,9.42195
1679929891550,1109879905626483,1.2430501,1.7400001,9.472051
1679929891553,1109879908128406,1.31295,1.7400001,9.285001
1679929891562,1109879910630252,1.4280001,1.7590501,9.405001
1679929891562,1109879913132329,1.4440501,1.77795,9.321
1679929891562,1109879915634252,1.44,1.6650001,9.369
1679929891563,1109879918136406,1.46595,1.6870501,9.36705
1679929891567,1109879920638488,1.42305,1.67505,9.321
1679929891569,1109879923140334,1.55505,1.58595,9.316051
1679929891571,1109879925642257,1.57605,1.5820501,9.30405
1679929891573,1109879928144347,1.5880501,1.57395,9.441
1679929891576,1109879930646270,1.6669501,1.5340501,9.460051
1679929891578,1109879933148116,1.6380001,1.404,9.56805
1679929891581,1109879935650270,1.5790501,1.38495,9.61095
1679929891583,1109879938152347,1.5670501,1.36395,9.570001
1679929891585,1109879940654285,1.5310501,1.368,9.55605
1679929891589,1109879943156131,1.41795,1.4089501,9.55095
1679929891591,1109879945658208,1.4110501,1.263,9.549001
1679929891593,1109879948160131,1.3920001,1.143,9.679951
1679929891595,1109879950662213,1.473,1.1359501,9.655951
1679929891599,1109879953164136,1.3960501,1.0189501,9.61095
1679929891601,1109879955666213,1.50195,0.99000007,9.699
1679929891604,1109879958168136,1.485,0.96405005,9.72795
1679929891606,1109879960670208,1.5640501,0.92505,9.835951
1679929891608,1109879963172131,1.5979501,0.79095006,9.799951
1679929891611,1109879965674208,1.69605,0.78900003,9.66405
1679929891613,1109879968176054,1.7530501,0.72705,9.778951
1679929891615,1109879970678208,1.7029501,0.64005005,9.640051
1679929891619,1109879973180131,1.84395,0.62805,9.670951
1679929891622,1109879975681978,1.8229501,0.50505,9.508051
1679929891623,1109879978184054,1.9230001,0.52500004,9.5460005
1679929891625,1109879980685978,2.02305,0.39795002,9.541051
1679929891630,1109879983188055,2.046,0.44205,9.53205
1679929891631,1109879985690208,2.02905,0.29205,9.538951
1679929891634,1109879988192055,2.1460502,0.37500003,9.28995
1679929891635,1109879990693978,2.14395,0.28395,9.417001
1679929891641,1109879993196041,2.15595,0.28905,9.26595
1679929891646,1109879995697964,2.1049502,0.28905,9.325951
1679929891647,1109879998199810,2.11995,0.22695,9.193951
1679929891650,1109880000701887,2.15595,0.41295,9.192
1679929891650,1109880003204041,2.1409502,0.38595003,9.13395
1679929891652,1109880005705978,2.01405,0.39600003,9.240001
1679929891653,1109880008207824,2.0740502,0.49695003,9.189
1679929891655,1109880010709901,2.0650501,0.56100005,9.181951
1679929891659,1109880013211824,1.9860001,0.624,9.28005
1679929891662,1109880015713718,1.8420001,0.72900003,9.232051
1679929891663,1109880018215795,1.81305,0.77205,9.33495
1679929891666,1109880020717949,1.7220001,0.83205,9.25605
1679929891669,1109880023219872,1.6480501,0.87705004,9.36705
1679929891671,1109880025721718,1.6840501,0.897,9.496051
1679929891673,1109880028223795,1.5690001,1.04295,9.453
1679929891675,1109880030725718,1.4250001,1.0159501,9.37905
1679929891680,1109880033227795,1.3770001,1.18605,9.43605
1679929891682,1109880035729655,1.4470501,1.16505,9.57705
1679929891684,1109880038231809,1.4250001,1.1700001,9.541051
1679929891686,1109880040733732,1.3050001,1.11,9.57705
1679929891688,1109880043235809,1.401,1.24395,9.64395
1679929891690,1109880045737655,1.3290001,1.2250501,9.642
1679929891693,1109880048239573,1.4299501,1.3090501,9.723001
1679929891695,1109880050741650,1.401,1.4119501,9.673051
1679929891698,1109880053243573,1.34895,1.3369501,9.649051
1679929891701,1109880055745650,1.35105,1.371,9.778951
1679929891704,1109880058247588,1.3729501,1.4809501,9.747001
1679929891706,1109880060749665,1.3219501,1.42095,9.67605
1679929891709,1109880063251511,1.44,1.491,9.89805
1679929891711,1109880065753665,1.44,1.51005,9.77595
1679929891713,1109880068255588,1.332,1.4640001,9.781051
1679929891717,1109880070757684,1.3630501,1.43805,9.807
1679929891719,1109880073259607,1.2889501,1.536,9.76395
1679929891723,1109880075761453,1.2100501,1.6180501,9.68505
1679929891727,1109880078263530,1.1740501,1.52205,9.670951
1679929891728,1109880080765467,1.10895,1.62495,9.52005
1679929891731,1109880083267544,1.2409501,1.62495,9.594001
1679929891732,1109880085769467,1.11405,1.641,9.61305
1679929891734,1109880088271544,0.99705005,1.62195,9.541051
1679929891736,1109880090773467,0.9889501,1.713,9.53205
1679929891740,1109880093275540,1.00605,1.81605,9.501
1679929891743,1109880095777387,0.98205006,1.7880001,9.592051
1679929891745,1109880098279310,0.96795005,1.8280501,9.450001
1679929891746,1109880100781463,0.87795,1.89795,9.538951
1679929891750,1109880103283540,0.90405005,1.9380001,9.616051
1679929891752,1109880105785391,0.873,2.07495,9.534
1679929891756,1109880108287314,0.66,2.02005,9.616051
1679929891758,1109880110789391,0.70305,2.2470002,9.53205
1679929891759,1109880113291314,0.58605003,2.085,9.72795
1679929891761,1109880115793155,0.60705,2.2690501,9.63
1679929891763,1109880118295309,0.492,2.2039502,9.766951
1679929891766,1109880120797386,0.40605003,2.22795,9.7900505
1679929891769,1109880123299309,0.41295,2.2740002,9.811951
1679929891771,1109880125801151,0.33195,2.259,9.91005
1679929891773,1109880128303228,0.303,2.262,9.982051
1679929891775,1109880130805151,0.24495001,2.3050501,10.08495
1679929891779,1109880133307228,0.23595001,2.25195,10.152
1679929891782,1109880135809155,0.186,2.283,10.33395
1679929891784,1109880138311232,0.11895001,2.3140502,10.308001
1679929891786,1109880140813155,0.11895001,2.3719501,10.48005
1679929891791,1109880143315232,0.087000005,2.32905,10.63395
1679929891793,1109880145817083,0.109050006,2.30205,10.66005
1679929891795,1109880148319006,0.06105,2.32905,10.79205
1679929891796,1109880150821083,0.030000001,2.259,10.80105
1679929891798,1109880153323237,0.042000003,2.40105,10.77
1679929891802,1109880155825083,0.087000005,2.42205,10.842001
1679929891803,1109880158327020,0.066,2.3050501,10.974001
1679929891808,1109880160829097,0.11595,2.4100502,11.0140505
1679929891809,1109880163331020,0.21405001,2.47305,10.897051
1679929891811,1109880165832866,0.18105,2.532,10.97805
1679929891813,1109880168335020,0.27405003,2.5519502,10.84395
1679929891816,1109880170837112,0.28905,2.676,10.82295
1679929891819,1109880173338958,0.24105,2.76195,10.882951
1679929891822,1109880175840881,0.34800002,2.86995,10.84395
1679929891824,1109880178342953,0.33405003,2.9250002,10.99995
1679929891826,1109880180844876,0.22200002,3.0310502,10.99005
1679929891834,1109880183346722,0.25005,3.1260002,10.84395
1679929891834,1109880185848876,0.30105,3.2269502,10.95405
1679929891837,1109880188350938,0.21705002,3.31995,10.887
1679929891838,1109880190852861,0.19500001,3.4140003,10.83495
1679929891839,1109880193354707,0.21405001,3.4110003,10.77
1679929891841,1109880195856784,0.22605,3.5020502,10.650001
1679929891843,1109880198358707,0.372,3.5479503,10.63395
1679929891845,1109880200860799,0.47100002,3.5839503,10.585951
1679929891850,1109880203362722,0.42000002,3.59805,10.557
1679929891852,1109880205864799,0.39600003,3.66,10.36995
1679929891854,1109880208366723,0.37500003,3.663,10.26
1679929891856,1109880210868799,0.624,3.7060502,10.2619505
1679929891862,1109880213370646,0.56595004,3.663,10.111051
1679929891863,1109880215872569,0.63795,3.6799502,10.05405
1679929891865,1109880218374646,0.66,3.6439502,10.02495
1679929891868,1109880220876775,0.74805003,3.7849503,9.8890505
1679929891870,1109880223378622,0.86595005,3.76305,9.8890505
1679929891871,1109880225880545,0.975,3.7750502,9.778951
1679929891874,1109880228382622,1.2019501,3.7849503,9.799951
1679929891876,1109880230884545,1.2910501,3.9049501,9.702001
1679929891879,1109880233386622,1.4059501,3.8929503,9.71895
1679929891881,1109880235888545,1.557,4.0410004,9.534
1679929891883,1109880238390622,1.5979501,3.9910502,9.501
1679929891885,1109880240892468,1.6459501,4.11105,9.357
1679929891889,1109880243394391,1.7029501,4.0630503,9.21105
1679929891891,1109880245896477,1.6860001,4.149,9.208051
1679929891893,1109880248398631,1.6890001,4.1059504,9.1060505
1679929891895,1109880250900477,1.794,4.17105,8.99295
1679929891899,1109880253402400,1.7029501,4.23495,8.9740505
1679929891901,1109880255904473,1.6140001,4.257,8.878051
1679929891905,1109880258406396,1.605,4.2660003,8.7630005
1679929891906,1109880260908242,1.54305,4.3240504,8.743951
1679929891909,1109880263410319,1.54305,4.281,8.707951
1679929891911,1109880265912506,1.38195,4.3170004,8.59305
1679929891913,1109880268414429,1.2580501,4.34805,8.599951
1679929891915,1109880270916275,1.21695,4.3309503,8.578951
1679929891918,1109880273418352,1.02795,4.458,8.60505
1679929891922,1109880275920266,0.915,4.4359503,8.586
1679929891924,1109880278422343,0.837,4.3450503,8.533051
1679929891925,1109880280924189,0.78705,4.374,8.29605
1679929891929,1109880283426343,0.68100005,4.3240504,8.37705
1679929891931,1109880285928285,0.64995,4.36005,8.260051
1679929891933,1109880288430131,0.52995,4.3330503,8.257951
1679929891935,1109880290932208,0.52305,4.2520504,8.064
1679929891939,1109880293434131,0.42495003,4.3309503,8.016001
1679929891943,1109880295936179,0.45405003,4.26405,8.05605
1679929891945,1109880298438025,0.45105,4.26405,7.9270506
1679929891946,1109880300940179,0.45600003,4.2259502,7.9180503
1679929891949,1109880303442102,0.54495,4.14195,8.005051
1679929891951,1109880305944179,0.61005,4.1389503,7.7910004
1679929891953,1109880308446054,0.59295005,4.18305,7.7760005
1679929891955,1109880310947978,0.61695004,4.1610003,7.6969504
1679929891959,1109880313450054,0.64095,4.15395,7.6420503
1679929891961,1109880315951978,0.768,4.1080503,7.6489506
1679929891963,1109880318454131,0.813,4.17495,7.668
1679929891966,1109880320955988,0.90795004,4.065,7.5820503
1679929891969,1109880323458064,0.86595005,4.06995,7.5370502
1679929891971,1109880325959988,1.0009501,4.044,7.4940004
1679929891974,1109880328461834,1.0320001,4.017,7.7070003
1679929891976,1109880330963916,0.99705005,3.9169502,7.66095
1679929891981,1109880333466069,1.011,3.9720001,7.6009502
1679929891984,1109880335967993,0.94905007,3.8620503,7.6540504
1679929891986,1109880338469829,1.0180501,3.8520002,7.6780505
1679929891987,1109880340971906,0.9799501,3.7060502,7.80705
1679929891989,1109880343473829,0.98505,3.6799502,7.7710505
1679929891991,1109880345975906,0.99195004,3.5650501,7.872
1679929891993,1109880348477829,1.0129501,3.6030002,7.9180503
1679929891997,1109880350979892,1.0830001,3.5790002,7.8700504
1679929892000,1109880353481815,1.06095,3.4999502,7.8409505
1679929892002,1109880355983892,1.056,3.522,7.8700504
1679929892003,1109880358485815,1.1329501,3.48795,8.002951
1679929892006,1109880360987661,1.1520001,3.4759502,7.9180503
1679929892009,1109880363489724,1.14495,3.52905,7.9459505
1679929892011,1109880365991647,1.0489501,3.52395,7.96995
1679929892013,1109880368493801,1.176,3.4759502,7.9609504
1679929892019,1109880370995882,1.1040001,3.6460502,7.9080005
1679929892022,1109880373497728,1.116,3.59295,7.8600006
1679929892023,1109880375999651,1.04205,3.6370502,8.04
1679929892025,1109880378501728,1.0320001,3.6870003,8.017051
1679929892026,1109880381003651,1.03995,3.663,7.9939504
1679929892031,1109880383505709,0.98700005,3.76095,8.052
1679929892034,1109880386007632,1.0849501,3.8400002,8.04195
1679929892036,1109880388509709,1.0350001,3.8140502,8.00895
1679929892037,1109880391011555,1.0350001,3.8500502,7.9939504
1679929892039,1109880393513478,1.1520001,3.795,7.977
1679929892041,1109880396015656,1.18305,3.83295,8.02305
1679929892043,1109880398517502,1.143,3.8899503,7.9030504
1679929892046,1109880401019579,1.2240001,3.8779502,7.8600006
1679929892050,1109880403521502,1.26705,3.9,7.9150505
1679929892051,1109880406023574,1.317,3.9600003,7.9819503
1679929892056,1109880408525420,1.27695,3.9169502,8.052
1679929892058,1109880411027343,1.2409501,3.9960003,7.9920006
1679929892062,1109880413529497,1.24995,4.08405,8.101951
1679929892064,1109880416031550,1.24995,3.9739501,8.095051
1679929892065,1109880418533396,1.3270501,4.0800004,8.191051
1679929892067,1109880421035319,1.2019501,4.0410004,8.170051
1679929892069,1109880423537396,1.19805,4.02495,8.239051
1679929892071,1109880426039319,1.15005,4.0470004,8.266951
1679929892073,1109880428541382,1.128,4.0800004,8.257951
1679929892075,1109880431043305,1.1190001,4.0279503,8.32995
1679929892079,1109880433545382,1.056,4.00995,8.35095
1679929892081,1109880436047305,1.056,3.9379501,8.28405
1679929892084,1109880438549142,1.011,4.005,8.368051
1679929892086,1109880441051219,0.97695005,3.9240003,8.42805
1679929892089,1109880443553142,0.96300006,3.831,8.49495
1679929892092,1109880446055219,0.897,3.759,8.45895
1679929892095,1109880448557367,0.89505005,3.66,8.50905
1679929892096,1109880451059214,0.82305,3.663,8.62905
1679929892099,1109880453561137,0.73905003,3.6750002,8.583
1679929892102,1109880456063214,0.91695005,3.65595,8.587951
1679929892103,1109880458565137,0.82500005,3.6169503,8.727
1679929892106,1109880461066950,0.78405005,3.486,8.77995
1679929892109,1109880463569027,0.78405005,3.4399502,8.80395
1679929892111,1109880466071181,0.86595005,3.4399502,8.88
1679929892113,1109880468573104,0.813,3.4140003,8.883
1679929892117,1109880471075200,0.72195005,3.354,9.156
1679929892118,1109880473577046,0.72705,3.3280501,9.18
1679929892123,1109880476078969,0.75600004,3.2029502,9.276
1679929892127,1109880478581046,0.71295005,3.3010502,9.4140005
1679929892127,1109880481082873,0.76305,3.14295,9.58695
1679929892131,1109880483585027,0.73395,3.08295,9.59895
1679929892133,1109880486086950,0.76500005,3.045,9.738001
1679929892134,1109880488589027,0.82995003,3.1600502,9.87195
1679929892136,1109880491090950,0.83895004,2.97105,9.955951
1679929892139,1109880493592776,0.85395,3.01095,9.943951
1679929892143,1109880496094853,0.95100003,2.937,10.035001
1679929892144,1109880498597007,0.95595,3.01095,10.309951
1679929892145,1109880501098930,1.023,3.01605,10.21695
1679929892149,1109880503600771,1.15005,3.03795,10.37205
1679929892151,1109880506102848,1.212,3.0690002,10.416
1679929892153,1109880508604771,1.21695,3.07095,10.50195
1679929892156,1109880511106848,1.3960501,3.10695,10.531051
1679929892159,1109880513608708,1.41795,3.0880501,10.686001
1679929892161,1109880516110862,1.5109501,3.0979502,10.720051
1679929892163,1109880518612785,1.5690001,3.081,10.879951
1679929892167,1109880521114862,1.6980001,3.1050003,10.99995
1679929892170,1109880523616703,1.8060001,3.1360502,11.047951
1679929892172,1109880526118626,1.7149501,3.1960502,11.11005
1679929892174,1109880528620703,1.8040501,3.0570002,11.23005
1679929892176,1109880531122626,1.87995,3.1260002,11.26305
1679929892179,1109880533624684,1.9279501,3.0229502,11.352
1679929892191,1109880536126607,1.9380001,3.01605,11.41695
1679929892191,1109880538628684,1.89495,3.009,11.436001
1679929892191,1109880541130607,1.9159501,3.0229502,11.548051
1679929892192,1109880543632453,1.9810501,3.04695,11.45505
1679929892192,1109880546134530,2.0670002,2.94195,11.46195
1679929892193,1109880548636453,2.151,2.94705,11.48595
1679929892195,1109880551138607,2.1079502,2.8990502,11.493001
1679929892199,1109880553640453,2.0359502,2.8579502,11.509951
1679929892201,1109880556142554,2.079,2.844,11.283001
1679929892205,1109880558644401,2.1319501,2.69295,11.433001
1679929892206,1109880561146554,2.08395,2.7259502,11.332951
1679929892209,1109880563648478,2.2060502,2.6899502,11.28495
1679929892211,1109880566150549,2.2369502,2.5800002,11.356951
1679929892213,1109880568652396,2.2729502,2.5399501,11.227051
1679929892216,1109880571154319,2.3500502,2.53695,11.251051
1679929892219,1109880573656396,2.364,2.496,11.103001
1679929892222,1109880576158305,2.30205,2.4100502,11.026051
1679929892224,1109880578660382,2.4450002,2.43405,11.055
1679929892226,1109880581162305,2.42595,2.3500502,10.894951
1679929892229,1109880583664382,2.4769502,2.2759502,10.899
1679929892231,1109880586166305,2.50305,2.40105,10.6050005
1679929892233,1109880588668160,2.601,2.2470002,10.543051
1679929892236,1109880591170237,2.568,2.1709502,10.47795
1679929892239,1109880593672160,2.628,2.12505,10.404
1679929892242,1109880596174314,2.673,2.1420002,10.264951
1679929892244,1109880598676165,2.63895,2.0370002,10.07295
1679929892246,1109880601178242,2.7589502,2.0320501,10.066051
1679929892249,1109880603680165,2.70705,1.9720501,10.01805
1679929892251,1109880606182242,2.7160501,1.9620001,9.92895
1679929892253,1109880608684165,2.742,1.9939501,9.86205
1679929892256,1109880611185997,2.6779501,1.8739501,9.74505
1679929892259,1109880613688151,2.7210002,1.9480501,9.604051
1679929892261,1109880616190228,2.70705,1.86705,9.61305
1679929892263,1109880618692074,2.6560502,1.7920501,9.43095
1679929892265,1109880621194001,2.7829502,1.8400501,9.37905
1679929892269,1109880623696078,2.7540002,1.74405,9.39795
1679929892271,1109880626198001,2.6899502,1.74405,9.26805
1679929892273,1109880628699847,2.6490002,1.7230501,9.193951
1679929892276,1109880631202021,2.6749501,1.7040001,9.036
1679929892282,1109880633704098,2.7280502,1.6290001,8.923051
1679929892282,1109880636206021,2.568,1.6969501,8.92605
1679929892284,1109880638707867,2.5080001,1.6200001,8.81295
1679929892286,1109880641209967,2.532,1.5820501,8.82495
1679929892289,1109880643711890,2.4840002,1.6150501,8.67405
1679929892291,1109880646213967,2.42205,1.6320001,8.715
1679929892293,1109880648715890,2.46495,1.62195,8.62695
1679929892296,1109880651217967,2.3380501,1.5700501,8.62695
1679929892299,1109880653719881,2.2750502,1.6060501,8.60505
1679929892304,1109880656221958,2.21595,1.58595,8.655001
1679929892305,1109880658723804,2.2080002,1.6200001,8.6310005
1679929892305,1109880661225728,2.08395,1.58895,8.62395
1679929892309,1109880663727819,1.96395,1.6609501,8.60295
1679929892311,1109880666229973,1.9279501,1.6129501,8.727
1679929892315,1109880668731819,1.8780001,1.58895,8.703
1679929892318,1109880671233729,1.86405,1.6030501,8.80395
1679929892320,1109880673735805,1.7029501,1.692,8.875951
1679929892323,1109880676237729,1.69305,1.6680001,8.940001
1679929892326,1109880678739575,1.61205,1.7320501,8.940001
1679929892327,1109880681241729,1.52295,1.7730001,9.0
1679929892329,1109880683743805,1.44,1.8090001,9.12705
1679929892331,1109880686245729,1.36995,1.7830501,9.232051
1679929892333,1109880688747575,1.45905,1.8760501,9.24195
1679929892336,1109880691249652,1.3729501,1.8760501,9.27105
1679929892340,1109880693751594,1.36995,1.9189501,9.33495
1679929892344,1109880696253671,1.3560001,1.8880501,9.517051
1679929892346,1109880698755825,1.19295,1.9240501,9.484051
1679929892346,1109880701257671,1.2019501,2.0320501,9.4480505
1679929892350,1109880703759618,1.26495,1.9219501,9.56805
1679929892351,1109880706261695,1.2550501,1.95,9.489
1679929892355,1109880708763618,1.3080001,2.013,9.56295
1679929892356,1109880711265464,1.2550501,1.9429501,9.55095
1679929892359,1109880713767541,1.2910501,2.022,9.40995
1679929892361,1109880716269695,1.3770001,1.9600501,9.489
1679929892363,1109880718771618,1.47105,1.9480501,9.484051
1679929892368,1109880721273464,1.4950501,1.9429501,9.43095
1679929892369,1109880723775541,1.65495,1.8520501,9.526951
1679929892372,1109880726277681,1.7149501,1.8019501,9.30195
1679929892374,1109880728779527,1.6650001,1.8000001,9.38595
1679929892376,1109880731281450,1.93305,1.7209501,9.450001
1679929892380,1109880733783527,1.9069501,1.54305,9.36705
1679929892383,1109880736285455,2.08395,1.5790501,9.405001
1679929892384,1109880738787301,2.1409502,1.641,9.462001
1679929892386,1109880741289378,2.187,1.59405,9.382951
1679929892389,1109880743791532,2.22795,1.53795,9.453
1679929892394,1109880746293430,2.33295,1.455,9.561001
1679929892396,1109880748795276,2.49105,1.4280001,9.5460005
1679929892398,1109880751297353,2.4430501,1.3300501,9.496051
1679929892401,1109880753799276,2.46,1.3230001,9.56505
1679929892402,1109880756301353,2.55795,1.3399501,9.481951
1679929892403,1109880758803190,2.6179502,1.194,9.517051
1679929892406,1109880761305344,2.63205,1.2610501,9.453
1679929892409,1109880763807267,2.6950502,1.1580001,9.465
1679929892411,1109880766309344,2.66295,1.11,9.522
1679929892413,1109880768811190,2.7259502,1.0860001,9.526951
1679929892416,1109880771313127,2.7499502,1.182,9.541051
1679929892419,1109880773815204,2.7520502,1.1890501,9.64395
1679929892422,1109880776317127,2.8290002,1.03995,9.634951
1679929892424,1109880778819199,2.8290002,1.0189501,9.622951
1679929892426,1109880781321122,2.802,0.98805004,9.618
1679929892433,1109880783823199,2.86905,1.008,9.70905
1679929892434,1109880786325122,2.80995,1.07595,9.726001
1679929892436,1109880788827204,2.9599502,1.08105,9.640051
1679929892437,1109880791329051,2.9959502,0.98505,9.85995
1679929892439,1109880793830974,3.01095,1.0360501,9.819
1679929892441,1109880796333127,3.04695,1.04805,9.640051
1679929892444,1109880798835204,3.0949502,1.05495,9.867001
1679929892446,1109880801337017,3.0870001,1.0639501,9.87705
1679929892450,1109880803838940,3.183,1.04505,10.066051
1679929892452,1109880806341017,3.051,1.0020001,10.05405
1679929892453,1109880808842940,3.1300502,1.0020001,9.999001
1679929892456,1109880811344762,3.1639502,1.07595,10.155001
1679929892459,1109880813846916,3.18105,1.0999501,10.1310005
1679929892462,1109880816348993,3.2310002,1.2220501,10.135051
1679929892464,1109880818850916,3.24795,1.11705,10.224001
1679929892467,1109880821353003,3.1690502,1.1029501,10.156951
1679929892470,1109880823854849,3.2050502,1.2390001,10.18095
1679929892472,1109880826356772,3.1999502,1.21305,10.224001
1679929892475,1109880828858849,3.17595,1.2220501,10.17105
1679929892476,1109880831361003,3.219,1.23405,10.285951
1679929892479,1109880833862839,3.255,1.26795,10.31295
1679929892481,1109880836364762,3.1900501,1.27995,10.32495
1679929892484,1109880838866839,3.2359502,1.19805,10.189951
1679929892486,1109880841368762,3.1879501,1.2079501,10.177951
1679929892489,1109880843870627,3.2050502,1.335,10.240951
1679929892491,1109880846372781,3.1330502,1.194,10.096951
1679929892493,1109880848874858,3.1900501,1.27005,10.167001
1679929892496,1109880851376781,3.0990002,1.20105,10.1640005
1679929892500,1109880853878627,3.1330502,1.215,10.189951
1679929892502,1109880856380704,3.11595,1.16205,10.08705
1679929892505,1109880858882627,3.186,1.24395,10.03995
1679929892507,1109880861384704,3.0610502,1.1910001,10.000951
1679929892510,1109880863886617,3.17595,1.2060001,10.04895
1679929892511,1109880866388694,3.219,1.182,9.979951
1679929892514,1109880868890617,3.2070003,1.1910001,10.07505
1679929892516,1109880871392694,3.25005,1.2100501,9.955951
1679929892519,1109880873894540,3.2410502,1.1359501,9.91695
1679929892522,1109880876396463,3.2689502,1.1359501,9.939
1679929892525,1109880878898540,3.3240001,1.1910001,9.946051
1679929892527,1109880881400463,3.24795,1.1700001,9.870001
1679929892529,1109880883902540,3.37995,1.146,9.85995
1679929892531,1109880886404458,3.2959502,1.146,9.87405
1679929892533,1109880888906535,3.2959502,1.1719501,9.77595
1679929892536,1109880891408381,3.35295,1.182,9.661051
1679929892539,1109880893910535,3.279,1.15995,9.699
1679929892544,1109880896412473,3.2719502,1.182,9.711
1679929892545,1109880898914550,3.2430003,1.2060001,9.594001
1679929892547,1109880901416396,3.2209501,1.15995,9.585
1679929892550,1109880903918319,3.1690502,1.3060501,9.5460005
1679929892551,1109880906420410,3.25005,1.251,9.5460005
1679929892553,1109880908922564,3.1900501,1.26495,9.493951
1679929892556,1109880911424410,3.1230001,1.3420501,9.417001
1679929892559,1109880913926333,3.1690502,1.383,9.438001
1679929892561,1109880916428434,3.111,1.38495,9.534
1679929892563,1109880918930358,3.042,1.4950501,9.453
1679929892566,1109880921432204,2.913,1.4860501,9.4789505
1679929892569,1109880923934281,2.87895,1.42095,9.44295
1679929892571,1109880926436443,2.8960502,1.5270001,9.450001
1679929892573,1109880928938367,2.7640502,1.4980501,9.522
1679929892576,1109880931440213,2.7499502,1.62195,9.457951
1679929892580,1109880933942290,2.661,1.644,9.514951
1679929892583,1109880936444194,2.67105,1.6390501,9.43605
1679929892585,1109880938946040,2.57505,1.58895,9.402
1679929892587,1109880941448117,2.4550502,1.66305,9.42405
1679929892589,1109880943950271,2.5459502,1.65795,9.288
1679929892592,1109880946452194,2.4480002,1.67505,9.438001
1679929892594,1109880948954040,2.42895,1.8000001,9.469951
1679929892596,1109880951456117,2.39505,1.8739501,9.37605
1679929892600,1109880953958040,2.331,1.8739501,9.56805
1679929892602,1109880956460117,2.3470502,1.9189501,9.484051
1679929892604,1109880958961968,2.35695,1.9960501,9.38595
1679929892606,1109880961464122,2.328,1.9740001,9.5130005
1679929892610,1109880963966045,2.2440002,1.99995,9.558001
1679929892612,1109880966468122,2.22795,2.0389502,9.517051
1679929892614,1109880968969968,2.1370502,1.95,9.637051
1679929892618,1109880971471924,2.2009501,2.02905,9.490951
1679929892621,1109880973974001,2.11995,2.0329502,9.655951
1679929892623,1109880976475924,2.11305,2.154,9.655951
1679929892624,1109880978978103,2.12505,2.058,9.679951
1679929892626,1109880981479949,1.96905,2.16405,9.723001
1679929892629,1109880983982026,2.08095,2.05095,9.74505
1679929892631,1109880986483949,2.08605,2.0700002,9.66405
1679929892634,1109880988985795,1.9860001,2.0029502,9.65205
1679929892636,1109880991487843,2.01705,2.022,9.634951
1679929892641,1109880993989766,1.9450501,1.9339501,9.634951
1679929892641,1109880996491920,2.022,1.93605,9.69495
1679929892644,1109880998993997,2.0650501,1.845,9.679951
1679929892646,1109881001495843,2.046,1.93605,9.74505
1679929892651,1109881003997761,2.1340501,1.9410001,9.59895
1679929892652,1109881006499838,2.15295,1.9909501,9.57705
1679929892655,1109881009001761,2.2729502,1.86405,9.642
1679929892657,1109881011503919,2.25405,1.9600501,9.604051
1679929892660,1109881014005765,2.319,1.8859501,9.670951
1679929892664,1109881016507842,2.4169502,2.082,9.585
1679929892665,1109881019009765,2.4190502,2.0370002,9.501
1679929892667,1109881021511842,2.4720001,2.082,9.529051
1679929892670,1109881024013751,2.4499502,2.082,9.582001
1679929892672,1109881026515598,2.4739501,2.09205,9.44295
1679929892674,1109881029017751,2.6110501,2.223,9.541051
1679929892676,1109881031519828,2.60805,2.1780002,9.472051
1679929892679,1109881034021780,2.5890002,2.262,9.52005
1679929892681,1109881036523627,2.604,2.2789502,9.490951
1679929892683,1109881039025703,2.56305,2.19705,9.646951
1679929892686,1109881041527627,2.5510502,2.2759502,9.481951
1679929892690,1109881044029727,2.70705,2.3050501,9.4789505
1679929892693,1109881046531651,2.62995,2.367,9.606001
1679929892694,1109881049033728,2.7499502,2.42505,9.474
1679929892696,1109881051535651,2.74005,2.36205,9.514951
1679929892700,1109881054037502,2.6869502,2.46105,9.541051
1679929892702,1109881056539579,2.7930002,2.4460502,9.490951
1679929892704,1109881059041502,2.8240502,2.42205,9.505051
1679929892706,1109881061543579,2.79795,2.5420501,9.549001
1679929892709,1109881064045502,2.8500001,2.5759501,9.472051
1679929892711,1109881066547564,2.86905,2.4799502,9.51
1679929892715,1109881069049410,2.8600502,2.631,9.60105
1679929892717,1109881071551333,2.9839501,2.6140501,9.429001
1679929892719,1109881074053487,2.98005,2.7220502,9.469951
1679929892723,1109881076555530,2.9890501,2.6430001,9.453
1679929892724,1109881079057376,2.9560502,2.67405,9.40005
1679929892726,1109881081559299,2.913,2.7550502,9.460051
1679929892731,1109881084061396,2.901,2.7810001,9.525001
1679929892733,1109881086563319,2.9250002,2.7529502,9.53205
1679929892734,1109881089065396,3.04695,2.7240002,9.438001
1679929892736,1109881091567550,2.9340003,2.7769501,9.38595
1679929892739,1109881094069396,2.86905,2.7960002,9.4480505
1679929892744,1109881096571338,2.9599502,2.7529502,9.40695
1679929892746,1109881099073415,2.9340003,2.80305,9.33495
1679929892748,1109881101575261,2.8240502,2.69805,9.361951
1679929892750,1109881104077184,2.9269502,2.7910502,9.328051
1679929892751,1109881106579261,2.83095,2.74305,9.273001
1679929892754,1109881109081444,2.80995,2.868,9.346951
1679929892756,1109881111583367,2.84505,2.7769501,9.27795
1679929892759,1109881114085213,2.8290002,2.79795,9.240001
1679929892761,1109881116587290,2.73105,2.7910502,9.40005
1679929892763,1109881119089232,2.69895,2.76195,9.297001
1679929892768,1109881121591309,2.7450001,2.7550502,9.276
1679929892771,1109881124093155,2.66295,2.80995,9.35505
1679929892773,1109881126595309,2.66595,2.8249502,9.283051
1679929892775,1109881129097227,2.5530002,2.8290002,9.313951
1679929892777,1109881131599304,2.5129502,2.69805,9.364051
1679929892779,1109881134101227,2.4190502,2.80995,9.370951
1679929892784,1109881136603073,2.4859502,2.83905,9.228001
1679929892785,1109881139105150,2.4859502,2.83905,9.352051
1679929892786,1109881141607078,2.4139502,2.83905,9.361951
1679929892789,1109881144109232,2.4120002,2.8819501,9.3
1679929892791,1109881146611078,2.388,2.86995,9.469951
1679929892794,1109881149113155,2.3140502,2.877,9.34305
1679929892796,1109881151615044,2.3040001,2.8219502,9.37905
1679929892800,1109881154117121,2.295,2.9280002,9.361951
1679929892802,1109881156618968,2.2009501,2.8840501,9.295051
1679929892806,1109881159120891,2.2369502,2.877,9.307051
1679929892817,1109881161623068,2.115,2.94,9.252001
1679929892817,1109881164124915,2.11995,2.98305,9.40695
1679929892817,1109881166626992,2.1319501,2.83695,9.288
1679929892817,1109881169128915,2.0299501,2.8650002,9.321
1679929892818,1109881171630992,2.08905,2.8510501,9.264001
1679929892819,1109881174132868,2.01405,2.904,9.25395
1679929892822,1109881176634791,2.08095,2.937,9.192
1679929892824,1109881179136945,2.05005,2.8939502,9.25395
1679929892826,1109881181639022,2.0719502,2.901,9.264001
1679929892829,1109881184140859,2.0400002,2.94705,9.237
1679929892831,1109881186642782,2.046,2.9299502,9.261001
1679929892833,1109881189144859,2.115,2.877,9.205951
1679929892836,1109881191646782,2.058,2.904,9.232051
1679929892839,1109881194148878,2.12205,2.901,9.196951
1679929892842,1109881196650801,2.15805,2.8489501,9.177
1679929892844,1109881199152878,2.1049502,2.7810001,9.213
1679929892846,1109881201654801,2.0959501,2.8249502,9.08895
1679929892850,1109881204156623,2.1370502,2.77005,9.049951
1679929892852,1109881206658700,2.11305,2.7220502,9.028951
1679929892854,1109881209160623,2.0689502,2.69805,9.06705
1679929892856,1109881211662777,2.14905,2.8270502,8.919001
1679929892859,1109881214164603,2.0770502,2.73405,9.052951
1679929892862,1109881216666680,2.1010501,2.7529502,8.904
1679929892864,1109881219168603,2.0299501,2.7859502,8.887951
1679929892866,1109881221670680,1.9759501,2.72895,8.9740505
1679929892870,1109881224172589,1.8709501,2.7769501,8.919001
1679929892872,1109881226674435,1.95,2.7550502,8.9740505
1679929892874,1109881229176589,1.9810501,2.77905,8.98095
1679929892876,1109881231678435,1.9069501,2.76195,9.040951
1679929892885,1109881234180493,1.93305,2.6569502,9.061951
1679929892885,1109881236682416,1.9450501,2.7460501,9.0
1679929892886,1109881239184570,1.9879501,2.7190502,9.016951
1679929892887,1109881241686416,1.9930501,2.736,9.10095
1679929892891,1109881244188493,1.9810501,2.71005,9.144
1679929892892,1109881246690416,2.0299501,2.80095,9.13395
1679929892894,1109881249192498,2.019,2.805,9.07005
1679929892896,1109881251694344,1.9710001,2.736,9.055051
1679929892900,1109881254196267,1.9950001,2.7930002,9.141001
1679929892902,1109881256698421,2.1100502,2.8270502,9.055051
1679929892904,1109881259200503,2.1030002,2.77005,9.14595
1679929892906,1109881261702349,2.127,2.8510501,9.187051
1679929892909,1109881264204272,2.08095,2.832,9.297001
1679929892911,1109881266706349,2.1100502,2.8560002,9.153001
1679929892914,1109881269208257,2.2420502,2.76195,9.189
1679929892918,1109881271710104,2.15805,2.73795,9.240001
1679929892920,1109881274212258,2.1700501,2.7499502,9.249001
1679929892927,1109881276713247,2.26095,2.77005,9.3
1679929892927,1109881279214286,2.223,2.76195,9.316051
1679929892929,1109881281718056,2.21805,2.8609502,9.297001
1679929892930,1109881284220133,2.2399502,2.8219502,9.22305
1679929892933,1109881286722056,2.2729502,2.8270502,9.313951
1679929892934,1109881289224133,2.196,2.73405,9.417001
1679929892936,1109881291726276,2.18205,2.7169502,9.41205
1679929892939,1109881294228123,2.259,2.8290002,9.39105
1679929892944,1109881296730046,2.30205,2.83695,9.45495
1679929892945,1109881299232123,2.25195,2.7859502,9.472051
1679929892946,1109881301734041,2.1750002,2.83395,9.493951
1679929892950,1109881304235887,2.22495,2.8249502,9.429001
1679929892952,1109881306737964,2.2060502,2.8150501,9.486
1679929892955,1109881309240118,2.1409502,2.8459501,9.561001
1679929892957,1109881311742027,2.14395,2.83695,9.60795
1679929892960,1109881314244104,2.19405,2.83395,9.75195
1679929892962,1109881316745950,2.05005,2.7580502,9.70905
1679929892964,1109881319247873,2.19195,2.80095,9.702001
1679929892967,1109881321749950,2.0380502,2.74305,9.74505
1679929892969,1109881324251873,2.019,2.72895,9.76395
1679929892972,1109881326753950,2.14395,2.7460501,9.667951
1679929892974,1109881329255873,2.17995,2.5870502,9.75195
1679929892977,1109881331757950,2.1319501,2.63505,9.642
1679929892980,1109881334259878,2.1769502,2.50095,9.658951
1679929892982,1109881336761724,2.36595,2.5849502,9.616051
1679929892985,1109881339263801,2.295,2.5489502,9.594001
1679929892987,1109881341765724,2.3400002,2.5489502,9.525001
1679929892990,1109881344267863,2.46195,2.5399501,9.59595
1679929892993,1109881346769709,2.46495,2.5399501,9.460051
1679929892995,1109881349271786,2.5080001,2.595,9.429001
1679929892997,1109881351773709,2.5080001,2.50605,9.42405
1679929893000,1109881354275801,2.52195,2.66205,9.474
1679929893002,1109881356777647,2.50305,2.667,9.405001
1679929893004,1109881359279801,2.5840502,2.7139502,9.41205
1679929893006,1109881361781724,2.5770001,2.7139502,9.333
1679929893009,1109881364283801,2.5560002,2.6860502,9.28995
1679929893012,1109881366785637,2.5530002,2.77005,9.417001
1679929893017,1109881369287560,2.592,2.8459501,9.462001
1679929893019,1109881371789637,2.5560002,2.7810001,9.34305
1679929893021,1109881374291560,2.53395,2.8870502,9.364051
1679929893023,1109881376793613,2.57505,2.94,9.288
1679929893024,1109881379295536,2.6110501,2.9299502,9.28005
1679929893026,1109881381797613,2.60595,2.913,9.346951
1679929893034,1109881384299459,2.5099502,2.832,9.42405
1679929893035,1109881386801369,2.56995,2.8840501,9.41205
1679929893037,1109881389303445,2.5459502,2.8890002,9.25905
1679929893037,1109881391805369,2.5440001,2.832,9.27795
1679929893040,1109881394307445,2.4450002,2.8170002,9.295051
1679929893042,1109881396809369,2.493,2.7,9.26805
1679929893044,1109881399311459,2.469,2.72895,9.333
1679929893046,1109881401813383,2.5129502,2.5759501,9.39105
1679929893050,1109881404315460,2.46195,2.631,9.285001
1679929893053,1109881406817383,2.42205,2.53005,9.37605
1679929893054,1109881409319498,2.4190502,2.46495,9.340051
1679929893057,1109881411821421,2.39505,2.47305,9.364051
1679929893059,1109881414323498,2.331,2.50095,9.426001
1679929893062,1109881416825344,2.32605,2.46495,9.43095
1679929893064,1109881419327262,2.319,2.4870002,9.53205
1679929893068,1109881421829416,2.3040001,2.3380501,9.54405
1679929893070,1109881424331493,2.2369502,2.3170502,9.5460005
1679929893072,1109881426833339,2.259,2.427,9.508051
1679929893074,1109881429335248,2.283,2.4100502,9.51
1679929893076,1109881431837325,2.256,2.42895,9.538951
1679929893079,1109881434339248,2.18205,2.391,9.666
1679929893082,1109881436841094,2.26605,2.50395,9.63195
1679929893084,1109881439343248,2.2420502,2.5159502,9.661051
1679929893086,1109881441845330,2.256,2.45595,9.649051
1679929893089,1109881444347253,2.19405,2.59695,9.8550005
1679929893091,1109881446849099,2.12205,2.592,9.655951
1679929893094,1109881449351176,2.187,2.595,9.799951
1679929893096,1109881451853132,2.1409502,2.676,9.901051
1679929893099,1109881454355209,2.2039502,2.73795,9.778951
1679929893102,1109881456857132,2.2039502,2.70195,9.8550005
1679929893105,1109881459359209,2.29005,2.73105,9.88395
1679929893107,1109881461861137,2.3089502,2.74305,9.834001
1679929893110,1109881464363214,2.2420502,2.808,9.670951
1679929893113,1109881466865060,2.24895,2.8579502,9.858001
1679929893114,1109881469366983,2.26305,2.7220502,9.86205
1679929893117,1109881471869060,2.292,2.844,9.975
1679929893119,1109881474371224,2.32605,2.77905,10.008
1679929893122,1109881476873070,2.3089502,2.83905,10.044001
1679929893124,1109881479374993,2.29005,2.7810001,9.99195
1679929893126,1109881481877070,2.32305,2.73405,9.913051
1679929893129,1109881484378926,2.3400002,2.6950502,9.89295
1679929893131,1109881486880849,2.4070501,2.6790001,10.011001
1679929893134,1109881489382926,2.3779502,2.676,9.87705
1679929893136,1109881491885080,2.331,2.72895,9.90795
1679929893139,1109881494386958,2.436,2.5900502,9.939
1679929893143,1109881496888881,2.43105,2.56605,9.798
1679929893145,1109881499390958,2.4120002,2.64,9.89805
1679929893147,1109881501892881,2.4450002,2.59695,9.89295
1679929893153,1109881504394949,2.52705,2.5759501,9.89295
1679929893153,1109881506896796,2.53695,2.571,9.891001
1679929893156,1109881509398949,2.46495,2.571,9.91005
1679929893159,1109881511900872,2.4739501,2.49405,9.795
1679929893161,1109881514402939,2.3809502,2.5470002,9.73095
1679929893162,1109881516904786,2.4859502,2.559,9.726001
1679929893164,1109881519406709,2.532,2.4750001,9.7570505
1679929893166,1109881521908786,2.4499502,2.5159502,9.798
1679929893170,1109881524410685,2.42205,2.5129502,9.690001
1679929893172,1109881526912762,2.42205,2.5759501,9.654
1679929893174,1109881529414685,2.3430002,2.50095,9.71895
1679929893176,1109881531916762,2.26605,2.49405,9.61305
1679929893181,1109881534418670,2.25195,2.60205,9.541051
1679929893185,1109881536920747,2.33295,2.523,9.55305
1679929893187,1109881539422593,2.26605,2.6950502,9.5460005
1679929893189,1109881541924747,2.2110002,2.595,9.56505
1679929893191,1109881544426670,2.1720002,2.74095,9.55305
1679929893193,1109881546928786,2.11305,2.6809502,9.561001
1679929893194,1109881549430709,2.14395,2.7910502,9.51
1679929893196,1109881551932555,2.019,2.7840002,9.498
1679929893199,1109881554434632,2.0719502,2.79795,9.5130005
1679929893202,1109881556936555,2.05005,2.8609502,9.469951
1679929893204,1109881559438723,1.9020001,2.76195,9.484051
1679929893206,1109881561940492,1.9159501,2.87295,9.517051
1679929893209,1109881564442415,1.761,2.841,9.457951
1679929893211,1109881566944492,1.8199501,2.8579502,9.441
1679929893214,1109881569446415,1.7920501,2.8939502,9.59595
1679929893218,1109881571948487,1.7509501,2.7889502,9.541051
1679929893220,1109881574450410,1.6530001,2.79795,9.5460005
1679929893223,1109881576952487,1.6380001,2.841,9.501
1679929893225,1109881579454396,1.7029501,2.8990502,9.594001
1679929893227,1109881581956242,1.626,2.8270502,9.622951
1679929893230,1109881584458319,1.60695,2.8819501,9.606001
1679929893232,1109881586960473,1.6000501,2.87505,9.68295
1679929893234,1109881589462396,1.54305,2.8650002,9.67605
1679929893237,1109881591964251,1.5790501,2.8290002,9.654
1679929893240,1109881594466328,1.44,2.832,9.68505
1679929893242,1109881596968251,1.53795,2.86995,9.711
1679929893245,1109881599470328,1.45905,2.841,9.74505
1679929893246,1109881601972261,1.5109501,2.7,9.58695
1679929893249,1109881604474338,1.557,2.6809502,9.63
1679929893252,1109881606976261,1.46595,2.7139502,9.70695
1679929893256,1109881609478338,1.54305,2.67405,9.69495
1679929893257,1109881611980247,1.5520501,2.5900502,9.735001
1679929893260,1109881614482324,1.65795,2.6110501,9.75195
1679929893262,1109881616984170,1.605,2.53005,9.714001
1679929893264,1109881619486093,1.7629501,2.604,9.68805
1679929893267,1109881621988247,1.794,2.5470002,9.69705
1679929893270,1109881624490328,1.7770501,2.523,9.73095
1679929893272,1109881626992251,1.7839501,2.5729501,9.642
1679929893274,1109881629494098,1.88505,2.4769502,9.834001
1679929893277,1109881631996174,1.8730501,2.45805,9.71595
1679929893279,1109881634498089,1.9350001,2.46795,9.711
1679929893282,1109881636999935,1.9980001,2.45595,9.7570505
1679929893284,1109881639502089,2.019,2.50605,9.70905
1679929893286,1109881642004165,2.0770502,2.568,9.795
1679929893289,1109881644506084,2.19405,2.496,9.714001
1679929893293,1109881647008160,2.0670002,2.59695,9.711
1679929893295,1109881649510007,2.14395,2.5560002,9.68295
1679929893297,1109881652011930,1.9950001,2.5780501,9.71895
1679929893300,1109881654514002,2.091,2.5420501,9.699
1679929893302,1109881657015925,2.0329502,2.5900502,9.72105
1679929893304,1109881659518002,1.9900501,2.49405,9.640051
1679929893307,1109881662019925,2.12895,2.5080001,9.82905
1679929893310,1109881664522002,2.02905,2.532,9.850051
1679929893312,1109881667023829,2.08395,2.5489502,9.955951
1679929893316,1109881669525752,2.058,2.403,9.826051
1679929893318,1109881672027829,1.9570501,2.5129502,9.951
1679929893319,1109881674529983,1.9900501,2.3770502,9.92895
1679929893324,1109881677031829,2.02905,2.42895,10.05405
1679929893325,1109881679533752,2.0020502,2.3100002,9.9529505
1679929893327,1109881682035829,2.05305,2.4169502,10.047001
1679929893331,1109881684537752,2.01405,2.3359501,10.063951
1679929893333,1109881687039598,2.0070002,2.2669501,10.119
1679929893335,1109881689541675,2.09805,2.3460002,10.102051
1679929893337,1109881692043829,2.22,2.391,10.120951
1679929893339,1109881694545752,2.1079502,2.3430002,10.144951
1679929893342,1109881697047612,2.127,2.39805,10.00605
1679929893344,1109881699549689,2.1700501,2.391,10.102051
1679929893347,1109881702051612,2.08395,2.2690501,10.080001
1679929893349,1109881704553458,2.0740502,2.259,10.035001
1679929893351,1109881707055612,2.0380502,2.4409502,10.047001
1679929893354,1109881709557689,2.08395,2.319,10.116
1679929893357,1109881712059612,2.02305,2.295,10.063951
1679929893359,1109881714561689,2.0070002,2.283,10.02495
1679929893362,1109881717063535,2.09295,2.394,10.080001
1679929893364,1109881719565448,2.0329502,2.38395,9.915001
1679929893368,1109881722067525,1.9660501,2.298,10.012951
1679929893371,1109881724569679,1.9660501,2.3430002,9.99195
1679929893373,1109881727071525,2.055,2.331,9.87405
1679929893375,1109881729573439,1.9900501,2.262,9.87405
1679929893377,1109881732075516,1.96905,2.19495,10.000951
1679929893380,1109881734577439,2.01705,2.1780002,10.02495
1679929893383,1109881737079516,2.02905,2.3170502,9.96105
1679929893385,1109881739581439,2.0070002,2.25495,10.104
1679929893387,1109881742083520,2.058,2.16405,10.02795
1679929893390,1109881744585443,2.05005,2.2690501,10.18305
1679929893392,1109881747087520,2.0020502,2.23305,10.05405
1679929893394,1109881749589366,2.0380502,2.32605,10.108951
1679929893397,1109881752091290,2.1079502,2.1660001,9.982051
1679929893400,1109881754593443,2.05305,2.1679502,10.114051
1679929893402,1109881757095520,1.9780501,2.223,10.03695
1679929893406,1109881759597367,2.02905,2.2110002,10.044001
1679929893407,1109881762099300,2.0299501,2.19705,10.16205
1679929893410,1109881764601377,2.02905,2.1760502,10.03695
1679929893412,1109881767103223,2.0329502,2.11995,9.979951
1679929893414,1109881769605377,2.055,2.1010501,9.982051
1679929893417,1109881772107300,2.1390002,2.15205,9.939
1679929893419,1109881774609382,2.0959501,2.0389502,9.89295
1679929893423,1109881777111228,2.18205,2.02905,9.963
1679929893425,1109881779613151,2.17995,2.02905,9.85995
1679929893427,1109881782115228,2.2399502,2.022,9.96105
1679929893430,1109881784617170,2.163,2.05305,9.891001
1679929893439,1109881787119247,2.26605,2.046,9.8220005
1679929893440,1109881789621170,2.3040001,2.0629501,9.92895
1679929893440,1109881792123247,2.2780502,2.058,9.826051
1679929893440,1109881794625170,2.364,2.02905,9.7900505
1679929893444,1109881797127016,2.33295,2.0650501,9.798
1679929893445,1109881799629093,2.3380501,2.05305,9.814051
1679929893446,1109881802131016,2.3040001,1.9429501,9.858001
1679929893450,1109881804633165,2.4120002,1.93605,9.831
1679929893451,1109881807135011,2.3779502,2.022,9.769051
1679929893454,1109881809637088,2.19195,2.094,9.72105
1679929893457,1109881812139011,2.25195,1.9789501,9.766951
1679929893459,1109881814641088,2.2800002,1.9410001,9.774
1679929893462,1109881817142934,2.32605,1.9939501,9.71895
1679929893464,1109881819644857,2.2750502,1.9770001,9.628051
1679929893467,1109881822147011,2.18205,1.9860001,9.658951
1679929893470,1109881824649059,2.2369502,2.022,9.691951
1679929893472,1109881827150982,2.1679502,2.1010501,9.58905
1679929893474,1109881829652828,2.187,1.9530001,9.646951
1679929893477,1109881832154905,2.2350001,2.01705,9.594001
1679929893481,1109881834656848,2.2110002,2.058,9.759001
1679929893484,1109881837158694,2.24895,2.1040502,9.56505
1679929893485,1109881839660848,2.2060502,1.9860001,9.60105
1679929893487,1109881842162925,2.23005,1.9410001,9.634951
1679929893490,1109881844664848,2.163,1.9939501,9.70905
1679929893492,1109881847166929,2.14905,1.9789501,9.77595
1679929893494,1109881849668775,2.019,1.9579501,9.691951
1679929893499,1109881852170698,2.055,2.013,9.74295
1679929893501,1109881854672775,1.9860001,1.9069501,9.72795
1679929893503,1109881857174940,2.02605,1.9600501,9.87195
1679929893506,1109881859676863,2.055,1.9429501,9.75
1679929893507,1109881862178709,2.091,1.917,9.69705
1679929893510,1109881864680786,2.08095,1.9189501,9.75
1679929893512,1109881867182709,2.19195,1.8880501,9.661051
1679929893517,1109881869684522,2.1030002,1.8760501,9.678
1679929893518,1109881872186675,2.163,1.8910501,9.59595
1679929893521,1109881874688752,2.14395,1.7920501,9.774
1679929893523,1109881877190675,2.2080002,1.8349501,9.69705
1679929893525,1109881879692771,2.21295,1.78005,9.754951
1679929893527,1109881882194618,2.30205,1.74195,9.735001
1679929893530,1109881884696541,2.2440002,1.74195,9.74295
1679929893532,1109881887198618,2.29905,1.7880001,9.711
1679929893534,1109881889700771,2.2680001,1.71105,9.690001
1679929893537,1109881892202623,2.18895,1.6969501,9.642
1679929893540,1109881894704546,2.22795,1.6560001,9.71895
1679929893544,1109881897206392,2.25195,1.69395,9.72105
1679929893545,1109881899708469,2.26605,1.77795,9.70905
1679929893547,1109881902210623,2.259,1.7880001,9.61305
1679929893550,1109881904712484,2.283,1.845,9.71895
1679929893552,1109881907214407,2.25195,1.7760001,9.642
1679929893556,1109881909716484,2.25195,1.797,9.59595
1679929893558,1109881912218392,2.2009501,1.9410001,9.537001
1679929893561,1109881914720469,2.22495,1.797,9.508051
1679929893562,1109881917222315,2.2680001,1.9260001,9.46695
1679929893564,1109881919724469,2.22495,1.8499501,9.486
1679929893567,1109881922226392,2.0770502,1.8859501,9.462001
1679929893570,1109881924728474,2.04795,1.9620001,9.526951
1679929893572,1109881927230320,1.9950001,1.93605,9.41895
1679929893575,1109881929732243,1.9740001,1.8570001,9.4480505
1679929893578,1109881932234320,1.8319501,1.9459502,9.484051
1679929893580,1109881934736474,1.79595,1.9579501,9.460051
1679929893584,1109881937238320,1.72695,1.9459502,9.4459505
1679929893585,1109881939740243,1.65795,1.8709501,9.498
1679929893587,1109881942242320,1.6099501,1.845,9.66405
1679929893590,1109881944744238,1.5670501,1.8589501,9.502951
1679929893593,1109881947246315,1.49205,1.8229501,9.58905
1679929893595,1109881949748161,1.52295,1.7680501,9.634951
1679929893597,1109881952250315,1.5880501,1.6849501,9.68505
1679929893600,1109881954752214,1.5499501,1.8000001,9.634951
1679929893602,1109881957254291,1.4779501,1.69395,9.68295
1679929893604,1109881959756137,1.5880501,1.7400001,9.56805
1679929893607,1109881962258060,1.6699501,1.6819501,9.594001
1679929893610,1109881964760137,1.6530001,1.728,9.61095
1679929893612,1109881967262041,1.65795,1.71105,9.490951
1679929893614,1109881969764118,1.713,1.7299501,9.549001
1679929893617,1109881972266041,1.7050501,1.7370001,9.522
1679929893620,1109881974768118,1.6669501,1.70895,9.393001
1679929893622,1109881977270050,1.7719501,1.644,9.450001
1679929893625,1109881979771896,1.761,1.74405,9.501
1679929893627,1109881982273973,1.8420001,1.6390501,9.537001
1679929893631,1109881984775868,1.69095,1.6339501,9.541051
1679929893633,1109881987278021,1.72905,1.6890001,9.450001
1679929893635,1109881989779868,1.761,1.6150501,9.481951
1679929893637,1109881992281944,1.794,1.7299501,9.493951
1679929893639,1109881994783868,1.76505,1.6800001,9.52005
1679929893642,1109881997285734,1.8319501,1.7179501,9.522
1679929893644,1109881999787811,1.9279501,1.6150501,9.606001
1679929893647,1109882002289734,1.9810501,1.6009501,9.703951
1679929893651,1109882004791888,1.9900501,1.5960001,9.59895
1679929893652,1109882007293734,1.9210501,1.65795,9.51
1679929893654,1109882009795801,2.0050502,1.6200001,9.54405
1679929893657,1109882012297724,1.9380001,1.6060501,9.66405
1679929893660,1109882014799801,1.99995,1.6459501,9.394951
1679929893662,1109882017301657,1.96905,1.608,9.43395
