system_ts_ms, sensor_ts_ns, gyrX, gyrY, gyrZ
1679995613474,1175601829503194,-0.02145,-0.011275,-0.022275
1679995613476,1175601832005348,-0.02035,-0.0132,-0.0202125
1679995613480,1175601834507416,-0.0224125,-0.0182875,-0.0213125
1679995613482,1175601837009570,-0.02035,-0.0171875,-0.0213125
1679995613484,1175601839511724,-0.017324999,-0.01925,-0.0171875
1679995613494,1175601842013647,-0.0224125,-0.0202125,-0.015262499
1679995613494,1175601844515724,-0.0243375,-0.0202125,-0.0132
1679995613494,1175601847017873,-0.023375,-0.022275,-0.0132
1679995613494,1175601849520027,-0.0264,-0.0202125,-0.0132
1679995613496,1175601852022180,-0.0243375,-0.0143,-0.0132
1679995613499,1175601854524104,-0.023375,-0.011275,-0.015262499
1679995613501,1175601857026262,-0.023375,-0.0092124995,-0.016224999
1679995613505,1175601859528416,-0.0273625,-0.0061875,-0.015262499
1679995613506,1175601862030493,-0.0243375,-0.011275,-0.0171875
1679995613509,1175601864532416,-0.023375,-0.0122375,-0.0182875
1679995613512,1175601867034569,-0.02145,-0.0092124995,-0.0182875
1679995613513,1175601869536723,-0.023375,-0.0092124995,-0.015262499
1679995613517,1175601872038877,-0.02035,-0.0072875,-0.0171875
1679995613521,1175601874540954,-0.0193875,-0.00825,-0.0122375
1679995613523,1175601877043113,-0.02035,-0.0103124995,-0.0092124995
1679995613524,1175601879545036,-0.0193875,-0.011275,-0.011275
1679995613526,1175601882047189,-0.017324999,-0.0103124995,-0.015262499
1679995613529,1175601884549343,-0.0193875,-0.0092124995,-0.0132
1679995613531,1175601887051497,-0.0154,-0.00825,-0.0103124995
1679995613533,1175601889553593,-0.0144375,-0.0033,-0.016224999
1679995613538,1175601892055516,-0.0154,6.875E-4,-0.016224999
1679995613539,1175601894557670,-0.012375,0.0048125,-0.016224999
1679995613541,1175601897059747,-0.0114124995,0.005775,-0.0132
1679995613543,1175601899561935,-0.0114124995,0.010725,-0.0103124995
1679995613546,1175601902064089,-0.01045,0.014712499,-0.0122375
1679995613549,1175601904566243,-0.0114124995,0.014712499,-0.0092124995
1679995613551,1175601907068166,-0.007425,0.01375,-0.00825
1679995613556,1175601909570333,-0.007425,0.0187,-0.00825
1679995613557,1175601912072410,-0.01045,0.0297,-0.00825
1679995613560,1175601914574564,-0.012375,0.0268125,-0.0042625
1679995613562,1175601917076487,-0.0114124995,0.0297,-0.0033
1679995613565,1175601919578872,-0.0114124995,0.0336875,-0.005225
1679995613567,1175601922080800,-0.0114124995,0.03575,-0.005225
1679995613572,1175601924582877,-0.012375,0.03575,-0.0033
1679995613573,1175601927085031,-0.0114124995,0.038775,-0.0022
1679995613575,1175601929587185,-0.0144375,0.0378125,-0.0033
1679995613577,1175601932089108,-0.012375,0.03575,-0.0033
1679995613579,1175601934591262,-0.012375,0.0367125,-0.0033
1679995613582,1175601937093339,-0.0133375,0.0347875,-0.0033
1679995613584,1175601939595492,-0.0133375,0.0317625,-0.0042625
1679995613590,1175601942097661,-0.0144375,0.0297,-0.0033
1679995613590,1175601944599584,-0.0133375,0.0268125,-0.0042625
1679995613593,1175601947101738,-0.01045,0.0237875,-0.0042625
1679995613594,1175601949603892,-0.012375,0.021724999,-0.005225
1679995613597,1175601952105969,-0.0144375,0.0187,-0.0033
1679995613599,1175601954607906,-0.0154,0.01375,-0.0033
1679995613601,1175601957110060,-0.0144375,0.0116875,-0.0033
1679995613607,1175601959612214,-0.0154,0.0116875,-0.0042625
1679995613608,1175601962114397,-0.0144375,0.0097624995,-0.0022
1679995613609,1175601964616474,-0.0154,0.0097624995,-0.0022
1679995613612,1175601967118627,-0.017324999,0.0048125,-0.0042625
1679995613615,1175601969620550,-0.0144375,-0.0022,-0.0042625
1679995613617,1175601972122689,-0.0144375,-0.0022,-0.0061875
1679995613623,1175601974624766,-0.0154,0.00275,-0.0092124995
1679995613623,1175601977126920,-0.0133375,-0.0042625,-0.0092124995
1679995613624,1175601979629074,-0.0133375,-0.011275,-0.0092124995
1679995613628,1175601982131224,-0.0133375,-0.015262499,-0.0103124995
1679995613631,1175601984633147,-0.0144375,-0.0171875,-0.0092124995
1679995613633,1175601987135301,-0.012375,-0.0182875,-0.0103124995
1679995613635,1175601989637378,-0.0114124995,-0.0242,-0.0122375
1679995613640,1175601992139532,-0.00935,-0.0253,-0.0122375
1679995613641,1175601994641689,-0.007425,-0.0262625,-0.0103124995
1679995613642,1175601997143843,-0.01045,-0.0262625,-0.011275
1679995613644,1175601999645766,-0.00935,-0.027224999,-0.016224999
1679995613647,1175602002147920,-0.0053625,-0.0292875,-0.016224999
1679995613649,1175602004649993,-0.006325,-0.0323125,-0.0182875
1679995613652,1175602007151916,-0.007425,-0.0213125,-0.0182875
1679995613656,1175602009654070,-0.007425,-0.0262625,-0.0171875
1679995613656,1175602012156224,-0.006325,-0.0312125,-0.01925
1679995613659,1175602014658392,-0.0083875,-0.0292875,-0.01925
1679995613661,1175602017160469,-0.007425,-0.022275,-0.0202125
1679995613664,1175602019662623,-0.0114124995,-0.0213125,-0.0202125
1679995613668,1175602022164546,-0.0114124995,-0.0182875,-0.016224999
1679995613674,1175602024666632,-0.012375,-0.0132,-0.0122375
1679995613674,1175602027168785,-0.012375,-0.0103124995,-0.0132
1679995613675,1175602029671016,-0.01045,-0.0061875,-0.0122375
1679995613676,1175602032173093,-0.0133375,-0.005225,-0.0072875
1679995613679,1175602034675016,-0.012375,-0.0022,-0.005225
1679995613682,1175602037177180,-0.0144375,0.00275,-0.005225
1679995613684,1175602039679334,-0.0144375,0.005775,-0.005225
1679995613692,1175602042181411,-0.00935,0.005775,-0.0042625
1679995613692,1175602044683551,-0.00935,0.0067375,-0.005225
1679995613693,1175602047185704,-0.00935,0.0097624995,-0.005225
1679995613694,1175602049687628,-0.0083875,0.0116875,-0.0033
1679995613697,1175602052189705,-0.01045,0.0116875,-0.0042625
1679995613699,1175602054691858,-0.007425,0.005775,-2.75E-4
1679995613702,1175602057193978,-0.0083875,0.0067375,-2.75E-4
1679995613706,1175602059695901,-0.0114124995,0.0067375,-0.0012375
1679995613707,1175602062198055,-0.007425,0.005775,0.0048125
1679995613709,1175602064700209,-0.0053625,0.0048125,0.0037125
1679995613712,1175602067202257,-0.007425,0.0067375,0.0048125
1679995613714,1175602069704411,-0.01045,0.0017875,0.005775
1679995613717,1175602072206334,-0.012375,-2.75E-4,0.0048125
1679995613722,1175602074708488,-0.012375,-2.75E-4,0.0037125
1679995613723,1175602077210546,-0.0144375,-2.75E-4,0.0048125
1679995613724,1175602079712776,-0.012375,-0.0022,0.0048125
1679995613728,1175602082214853,-0.0144375,-0.0033,0.00275
1679995613730,1175602084717007,-0.0163625,-0.0022,0.0017875
1679995613732,1175602087218930,-0.02035,-0.0022,6.875E-4
1679995613734,1175602089721007,-0.0224125,-0.0042625,6.875E-4
1679995613739,1175602092223161,-0.0193875,-0.0092124995,0.00275
1679995613739,1175602094725392,-0.02145,-0.0103124995,6.875E-4
1679995613743,1175602097227469,-0.02145,-0.0103124995,-0.0012375
1679995613745,1175602099729392,-0.02145,-0.0132,6.875E-4
1679995613747,1175602102231546,-0.02145,-0.0171875,-0.0012375
1679995613750,1175602104733623,-0.02035,-0.0242,-2.75E-4
1679995613752,1175602107235776,-0.02035,-0.0253,-2.75E-4
1679995613756,1175602109737690,-0.02145,-0.022275,-0.0012375
1679995613757,1175602112240074,-0.0224125,-0.0253,-0.0022
1679995613760,1175602114741997,-0.023375,-0.027224999,-0.0033
1679995613762,1175602117244074,-0.0193875,-0.0253,-0.0022
1679995613764,1175602119746219,-0.0144375,-0.0242,-0.0042625
1679995613767,1175602122248373,-0.0133375,-0.027224999,-0.0061875
1679995613773,1175602124750296,-0.012375,-0.0253,-0.0061875
1679995613773,1175602127252450,-0.0133375,-0.0213125,-0.0042625
1679995613774,1175602129754575,-0.012375,-0.022275,-0.005225
1679995613777,1175602132256652,-0.01045,-0.022275,-0.0042625
1679995613781,1175602134758805,-0.0114124995,-0.0202125,-0.0072875
1679995613783,1175602137260729,-0.012375,-0.0171875,-0.0061875
1679995613785,1175602139762896,-0.0144375,-0.016224999,-0.0072875
1679995613789,1175602142264973,-0.0144375,-0.015262499,-0.0072875
1679995613790,1175602144767204,-0.0154,-0.0122375,-0.005225
1679995613792,1175602147269281,-0.0193875,-0.0092124995,-0.0042625
1679995613794,1175602149771411,-0.017324999,-0.00825,-0.0061875
1679995613797,1175602152273334,-0.0163625,-0.0042625,-0.00825
1679995613799,1175602154775488,-0.018424999,-0.0012375,-0.005225
1679995613801,1175602157277565,-0.0193875,-2.75E-4,-0.0033
1679995613806,1175602159779719,-0.02035,0.0048125,-0.0033
1679995613807,1175602162281853,-0.02035,0.0067375,-0.005225
1679995613810,1175602164783777,-0.018424999,0.010725,-0.0042625
1679995613812,1175602167285853,-0.0193875,0.0127875,-0.0012375
1679995613814,1175602169788007,-0.02035,0.01375,0.0017875
1679995613820,1175602172290175,-0.018424999,0.014712499,-2.75E-4
1679995613821,1175602174792329,-0.012375,0.01375,6.875E-4
1679995613827,1175602177294252,-0.0154,0.0127875,0.0037125
1679995613828,1175602179796406,-0.012375,0.0127875,0.0037125
1679995613828,1175602182298483,-0.0114124995,0.0127875,0.0017875
1679995613829,1175602184800406,-0.0133375,0.0127875,0.0037125
1679995613832,1175602187302560,-0.0083875,0.01375,0.00275
1679995613834,1175602189804714,-0.01045,0.0116875,0.0048125
1679995613839,1175602192306868,-0.00935,0.005775,0.0037125
1679995613839,1175602194808930,-0.00935,0.00275,0.0017875
1679995613842,1175602197311084,-0.01045,0.00275,0.0017875
1679995613846,1175602199813007,-0.01045,-0.0022,0.00275
1679995613847,1175602202315161,-0.00935,-0.0022,0.00275
1679995613850,1175602204817286,-0.01045,-2.75E-4,0.0017875
1679995613851,1175602207319440,-0.012375,-0.0022,6.875E-4
1679995613857,1175602209821517,-0.012375,-0.0042625,0.0017875
1679995613858,1175602212323671,-0.012375,-0.0012375,-0.0012375
1679995613861,1175602214825604,-0.012375,-0.0033,-2.75E-4
1679995613861,1175602217327681,-0.0163625,-0.0022,-2.75E-4
1679995613865,1175602219829835,-0.0144375,-0.0042625,6.875E-4
1679995613867,1175602222332065,-0.0163625,-0.0022,-0.0012375
1679995613870,1175602224834142,-0.0193875,-2.75E-4,-0.0022
1679995613872,1175602227336093,-0.017324999,-0.0033,-0.0012375
1679995613874,1175602229838247,-0.0154,-0.0042625,-0.0022
1679995613877,1175602232340324,-0.0163625,-0.0042625,-0.0022
1679995613879,1175602234842478,-0.0154,-0.0072875,-0.0012375
1679995613883,1175602237344632,-0.0154,-0.0092124995,-0.0022
1679995613885,1175602239846786,-0.0154,-0.0122375,-0.0022
1679995613887,1175602242348709,-0.0144375,-0.015262499,-0.0022
1679995613890,1175602244850863,-0.0133375,-0.016224999,-0.0022
1679995613893,1175602247352930,-0.0133375,-0.016224999,-0.0033
1679995613895,1175602249855083,-0.0114124995,-0.016224999,-0.0012375
1679995613897,1175602252357007,-0.0114124995,-0.0213125,0.0017875
1679995613900,1175602254859160,-0.007425,-0.0213125,-2.75E-4
1679995613902,1175602257361314,-0.00935,-0.01925,-0.0022
1679995613905,1175602259863448,-0.007425,-0.0242,-2.75E-4
1679995613907,1175602262365525,-0.0083875,-0.022275,0.0037125
1679995613910,1175602264867448,-0.007425,-0.0182875,0.0037125
1679995613912,1175602267369602,-0.0083875,-0.016224999,0.0017875
1679995613915,1175602269871660,-0.007425,-0.0122375,0.00275
1679995613917,1175602272373814,-0.006325,-0.0092124995,0.0048125
1679995613921,1175602274875968,-0.0053625,-0.00825,0.0037125
1679995613923,1175602277378121,-0.0053625,-0.0092124995,0.0037125
1679995613925,1175602279880040,-0.006325,-0.0042625,0.00275
1679995613929,1175602282382116,-0.0044,6.875E-4,0.0037125
1679995613932,1175602284884270,-4.125E-4,0.00275,0.0037125
1679995613933,1175602287386501,-0.0044,0.0067375,0.0017875
1679995613935,1175602289888593,-0.0044,0.005775,-0.0033
1679995613937,1175602292390516,-0.006325,0.0097624995,-0.0033
1679995613940,1175602294892670,-0.001375,0.014712499,-0.0012375
1679995613942,1175602297394747,-0.0034375,0.01375,-2.75E-4
1679995613948,1175602299896920,-0.0044,0.0158125,-0.0012375
1679995613950,1175602302398843,-0.0053625,0.01375,-2.75E-4
1679995613952,1175602304901227,-4.125E-4,0.0116875,-0.0012375
1679995613954,1175602307403151,-0.0044,0.01375,-2.75E-4
1679995613956,1175602309905227,-0.0053625,0.01375,0.0017875
1679995613957,1175602312407376,-0.0034375,0.0116875,-2.75E-4
1679995613961,1175602314909530,-0.001375,0.01375,-2.75E-4
1679995613963,1175602317411453,-0.0044,0.0127875,6.875E-4
1679995613964,1175602319913550,-0.001375,0.010725,0.0017875
1679995613968,1175602322415781,-0.0034375,0.0037125,0.0037125
1679995613971,1175602324917858,-0.001375,0.00275,0.0037125
1679995613972,1175602327420012,-0.0034375,0.0037125,0.00275
1679995613974,1175602329921935,-0.0053625,-2.75E-4,0.00275
1679995613977,1175602332424113,-0.0034375,-0.0022,0.0048125
1679995613980,1175602334926190,-0.0034375,8.25E-4,0.0048125
1679995613982,1175602337428343,-0.0034375,-0.0022,0.0037125
1679995613985,1175602339930506,-0.001375,-0.0033,0.0037125
1679995613989,1175602342432660,-4.125E-4,-2.75E-4,0.0037125
1679995613991,1175602344934583,-0.001375,-2.75E-4,0.005775
1679995613992,1175602347436660,-4.125E-4,0.0037125,0.005775
1679995613996,1175602349938819,-0.0053625,0.0037125,0.00275
1679995613997,1175602352440742,6.875E-4,0.005775,0.00275
1679995614000,1175602354943127,-0.001375,0.0077,0.0048125
1679995614002,1175602357445050,-0.0044,0.0127875,0.00275
1679995614006,1175602359947213,-0.0053625,0.011825,0.00275
1679995614008,1175602362449290,-0.0034375,0.0127875,0.0037125
1679995614011,1175602364951443,-0.001375,0.014712499,0.0037125
1679995614013,1175602367453366,6.875E-4,0.0158125,0.0037125
1679995614015,1175602369955751,0.00165,0.0177375,0.0017875
1679995614017,1175602372457674,-4.125E-4,0.0177375,6.875E-4
1679995614020,1175602374959751,0.00165,0.0158125,-0.0012375
1679995614022,1175602377461905,-4.125E-4,0.021724999,-2.75E-4
1679995614025,1175602379963828,-4.125E-4,0.014712499,-0.0012375
1679995614028,1175602382466218,-4.125E-4,0.010725,-0.0012375
1679995614031,1175602384968141,-0.006325,0.0067375,-0.0012375
1679995614032,1175602387470295,-0.006325,0.005775,-0.0012375
1679995614035,1175602389972372,-0.0034375,0.0067375,6.875E-4
1679995614037,1175602392474305,-0.0034375,0.0048125,0.0017875
1679995614039,1175602394976458,-0.007425,-0.0012375,0.0017875
1679995614044,1175602397478843,-0.0103124995,0.0017875,0.0017875
1679995614047,1175602399980766,-0.0053625,8.25E-4,0.0037125
1679995614049,1175602402482857,-0.0103124995,-0.0033,0.00275
1679995614051,1175602404985011,-0.0133375,-0.0012375,0.00275
1679995614053,1175602407486934,-0.0103124995,-0.00825,0.0067375
1679995614055,1175602409989088,-0.0114124995,-0.010175,0.0037125
1679995614057,1175602412491165,-0.012375,-0.0072875,0.0048125
1679995614060,1175602414993406,-0.0133375,-0.010175,0.0048125
1679995614062,1175602417495483,-0.0144375,-0.0122375,0.005775
1679995614065,1175602419997406,-0.0133375,-0.0143,0.0037125
1679995614069,1175602422499587,-0.0133375,-0.0132,0.0017875
1679995614071,1175602425001741,-0.0154,-0.0143,0.0037125
1679995614072,1175602427503818,-0.0163625,-0.0171875,0.0037125
1679995614075,1175602430005741,-0.0144375,-0.021175,0.0037125
1679995614078,1175602432508126,-0.018424999,-0.0242,0.00275
1679995614081,1175602435010314,-0.018424999,-0.0253,0.0048125
1679995614083,1175602437512237,-0.0213125,-0.027224999,0.005775
1679995614085,1175602440014314,-0.0213125,-0.027224999,0.0017875
1679995614088,1175602442516468,-0.017324999,-0.03025,0.00275
1679995614090,1175602445018391,-0.017324999,-0.0292875,0.0037125
1679995614092,1175602447520545,-0.017324999,-0.03025,0.005775
1679995614097,1175602450022698,-0.0154,-0.0262625,0.0077
1679995614103,1175602452524852,-0.0133375,-0.0262625,0.005775
1679995614117,1175602455026929,-0.0133375,-0.0242,0.00275
1679995614117,1175602457528852,-0.012375,-0.0242,6.875E-4
1679995614117,1175602460031006,-0.012375,-0.01925,6.875E-4
1679995614117,1175602462533160,-0.00935,-0.0143,0.0048125
1679995614118,1175602465035314,-0.007425,-0.0132,0.0048125
1679995614118,1175602467537386,-0.0083875,-0.011275,0.0048125
1679995614119,1175602470039540,-0.0083875,-0.00825,0.005775
1679995614120,1175602472541463,-0.007425,-0.0042625,0.0037125
1679995614123,1175602475042535,-0.007425,0.0017875,0.00275
1679995614123,1175602477543612,-0.007425,0.0037125,0.0037125
1679995614124,1175602480047919,-0.007425,0.0037125,0.00275
1679995614127,1175602482549996,-0.0044,0.0048125,0.0048125
1679995614130,1175602485052150,-0.006325,0.0097624995,0.0017875
1679995614132,1175602487554073,-0.0044,0.0077,-0.0012375
1679995614135,1175602490056208,-0.006325,0.0097624995,0.0017875
1679995614137,1175602492558285,-0.007425,0.014712499,0.00275
1679995614139,1175602495060439,-0.007425,0.0187,-0.0012375
1679995614142,1175602497562593,-0.007425,0.0198,-0.0033
1679995614145,1175602500064497,-0.007425,0.016775,-2.75E-4
1679995614147,1175602502566651,-0.006325,0.0198,-0.0022
1679995614150,1175602505068728,-0.0053625,0.02475,-0.0012375
1679995614152,1175602507570881,-0.0053625,0.0237875,-2.75E-4
1679995614156,1175602510072794,-0.0053625,0.0308,0.0017875
1679995614157,1175602512574948,-0.0034375,0.03575,0.00275
1679995614160,1175602515077102,-0.0044,0.03575,0.0037125
1679995614162,1175602517579256,-0.0053625,0.0317625,0.0037125
1679995614164,1175602520081333,-0.0044,0.033825,0.00275
1679995614167,1175602522583487,-0.0053625,0.0378125,0.0048125
1679995614170,1175602525085410,-0.001375,0.0347875,0.0067375
1679995614172,1175602527587487,-0.0044,0.0347875,0.005775
1679995614175,1175602530089718,-0.0053625,0.033825,0.0067375
1679995614178,1175602532591810,-0.0053625,0.0308,0.0077
1679995614180,1175602535093963,-0.007425,0.0297,0.0067375
1679995614182,1175602537595886,-0.0053625,0.0207625,0.005775
1679995614185,1175602540098040,-0.006325,0.0187,0.0077
1679995614188,1175602542600131,-0.00935,0.014712499,0.0067375
1679995614190,1175602545102054,-0.007425,0.011825,0.0067375
1679995614194,1175602547604439,-0.007425,0.0048125,0.0048125
1679995614195,1175602550106593,-0.0103124995,0.00275,0.0037125
1679995614197,1175602552608516,-0.0103124995,-0.0022,0.0037125
1679995614200,1175602555110593,-0.0114124995,-0.00825,0.0048125
1679995614202,1175602557612747,-0.0103124995,-0.0122375,0.0077
1679995614205,1175602560114670,-0.012375,-0.010175,0.0077
1679995614207,1175602562616810,-0.0154,-0.0122375,0.0088
1679995614210,1175602565118963,-0.0133375,-0.015262499,0.010725
1679995614212,1175602567621117,-0.012375,-0.0122375,0.0097624995
1679995614215,1175602570123194,-0.0114124995,-0.015262499,0.0097624995
1679995614217,1175602572625117,-0.012375,-0.0132,0.010725
1679995614220,1175602575127271,-0.0103124995,-0.0182875,0.0088
1679995614223,1175602577629425,-0.0103124995,-0.016224999,0.005775
1679995614225,1175602580131579,-0.00935,-0.0182875,0.005775
1679995614228,1175602582633661,-0.00935,-0.0202125,0.0048125
1679995614232,1175602585135815,-0.00935,-0.016224999,0.00275
1679995614233,1175602587637738,-0.00935,-0.015262499,6.875E-4
1679995614235,1175602590139892,-0.00935,-0.0171875,0.0017875
1679995614237,1175602592642045,-0.0083875,-0.0171875,0.0017875
1679995614240,1175602595144118,-0.0083875,-0.0132,6.875E-4
1679995614242,1175602597646272,-0.007425,-0.0122375,0.0037125
1679995614245,1175602600148195,-0.007425,-0.010175,0.005775
1679995614247,1175602602650349,-0.0083875,-0.0061875,6.875E-4
1679995614250,1175602605152430,-0.00935,-0.005225,6.875E-4
1679995614252,1175602607654661,-0.0114124995,-0.0022,0.0017875
1679995614255,1175602610156738,-0.012375,-0.0042625,0.0017875
1679995614257,1175602612658661,-0.0133375,-2.75E-4,6.875E-4
1679995614260,1175602615160815,-0.0144375,8.25E-4,0.00275
1679995614262,1175602617662969,-0.0133375,0.00275,6.875E-4
1679995614264,1175602620165045,-0.0133375,0.0017875,6.875E-4
1679995614268,1175602622666969,-0.012375,0.0017875,-2.75E-4
1679995614271,1175602625169353,-0.0133375,0.0037125,-0.0012375
1679995614272,1175602627671276,-0.0154,0.005775,-0.0022
1679995614275,1175602630173430,-0.017324999,0.0067375,-0.0022
1679995614277,1175602632675507,-0.0193875,0.0048125,-0.0012375
1679995614280,1175602635177680,-0.0154,0.0048125,-0.0022
1679995614283,1175602637679603,-0.0163625,0.0017875,-0.0022
1679995614285,1175602640181757,-0.018424999,0.00275,0.00275
1679995614287,1175602642683911,-0.018424999,0.0048125,-2.75E-4
1679995614290,1175602645186056,-0.02035,0.0037125,6.875E-4
1679995614292,1175602647688132,-0.017324999,0.0048125,-0.0022
1679995614295,1175602650190056,-0.0193875,0.0067375,6.875E-4
1679995614297,1175602652692209,-0.0193875,0.0077,0.00275
1679995614300,1175602655194286,-0.0163625,0.0067375,-2.75E-4
1679995614302,1175602657696546,-0.0154,0.00275,-2.75E-4
1679995614306,1175602660198623,-0.017324999,0.005775,6.875E-4
1679995614307,1175602662700777,-0.017324999,0.0067375,-0.0012375
1679995614311,1175602665202695,-0.0163625,0.005775,-0.0022
1679995614312,1175602667704772,-0.0133375,-0.0022,-0.0012375
1679995614315,1175602670206926,-0.0144375,-0.0012375,-2.75E-4
1679995614318,1175602672709080,-0.0154,-0.0012375,-0.0012375
1679995614320,1175602675211233,-0.0133375,-0.0012375,-0.0012375
1679995614322,1175602677713166,-0.012375,-0.0012375,6.875E-4
1679995614325,1175602680215319,-0.0103124995,-0.0033,6.875E-4
1679995614328,1175602682717396,-0.0103124995,0.0017875,-2.75E-4
1679995614331,1175602685219536,-0.0083875,-0.0012375,6.875E-4
1679995614332,1175602687721459,-0.0083875,-0.0022,0.00275
1679995614337,1175602690223844,-0.0083875,-2.75E-4,0.0037125
1679995614338,1175602692725767,-0.007425,-2.75E-4,0.005775
1679995614340,1175602695227921,-0.0083875,-0.0033,0.0048125
1679995614345,1175602697729974,-0.0044,8.25E-4,0.0037125
1679995614347,1175602700232128,-0.006325,0.0017875,0.0077
1679995614348,1175602702734051,-0.0044,-0.0033,0.0077
1679995614350,1175602705236205,-0.0053625,-0.0042625,0.0097624995
1679995614353,1175602707738358,-0.007425,-0.00825,0.0097624995
1679995614355,1175602710240425,-0.0044,-0.011275,0.010725
1679995614357,1175602712742579,-0.00935,-0.0132,0.0077
1679995614360,1175602715244733,-0.007425,-0.016224999,0.0077
1679995614363,1175602717746656,-0.006325,-0.022275,0.005775
1679995614365,1175602720248733,-0.007425,-0.0202125,0.0077
1679995614368,1175602722750964,-0.0083875,-0.0171875,0.0097624995
1679995614370,1175602725253041,-0.006325,-0.021175,0.0067375
1679995614372,1175602727755195,-0.0053625,-0.022275,0.0088
1679995614375,1175602730257123,-0.0053625,-0.021175,0.0037125
1679995614379,1175602732759277,-0.0053625,-0.01925,0.0048125
1679995614382,1175602735261353,-0.006325,-0.021175,0.0037125
1679995614383,1175602737763277,-0.006325,-0.021175,0.0017875
1679995614385,1175602740265661,-0.0044,-0.015262499,-2.75E-4
1679995614387,1175602742767801,-0.006325,-0.0143,-2.75E-4
1679995614390,1175602745269724,-0.0044,-0.0132,-0.0022
1679995614392,1175602747771801,-0.0083875,-0.0072875,0.0017875
1679995614395,1175602750273955,-0.007425,-0.0042625,0.00275
1679995614398,1175602752776088,-0.0103124995,-2.75E-4,6.875E-4
1679995614400,1175602755278011,-0.0083875,-0.0022,0.00275
1679995614402,1175602757780165,-0.0103124995,-0.0022,0.0037125
1679995614405,1175602760282319,-0.0114124995,0.0077,0.0048125
1679995614408,1175602762784381,-0.00935,0.0017875,0.0077
1679995614410,1175602765286535,-0.0114124995,-2.75E-4,0.0067375
1679995614413,1175602767788458,-0.0103124995,0.0048125,0.0077
1679995614415,1175602770290612,-0.012375,0.00275,0.0088
1679995614419,1175602772792751,-0.0133375,0.005775,0.0077
1679995614422,1175602775294828,-0.0103124995,0.0067375,0.005775
1679995614423,1175602777796982,-0.012375,0.0077,0.0077
1679995614428,1175602780299136,-0.012375,0.005775,0.0088
1679995614430,1175602782801059,-0.0114124995,0.0067375,0.0077
1679995614432,1175602785303136,-0.0114124995,0.0097624995,0.005775
1679995614433,1175602787805290,-0.0133375,0.0077,0.005775
1679995614435,1175602790307443,-0.0103124995,0.0097624995,0.0048125
1679995614437,1175602792809367,-0.00935,0.0067375,0.0037125
1679995614440,1175602795311506,-0.0133375,0.011825,0.00275
1679995614442,1175602797813660,-0.00935,0.0097624995,0.00275
1679995614445,1175602800315737,-0.0053625,0.0077,0.0017875
1679995614448,1175602802817660,-0.007425,0.005775,0.0017875
1679995614450,1175602805319785,-0.0034375,0.00275,-0.0012375
1679995614452,1175602807821939,-0.0044,8.25E-4,-0.0033
1679995614458,1175602810324093,-0.007425,-0.0012375,6.875E-4
1679995614459,1175602812826170,-0.006325,-0.0033,0.0017875
1679995614461,1175602815328339,-0.006325,-0.0061875,6.875E-4
1679995614463,1175602817830492,-0.007425,-0.010175,6.875E-4
1679995614465,1175602820332415,-0.0044,-0.011275,-2.75E-4
1679995614468,1175602822834569,-0.0033,-0.016224999,-0.0022
1679995614471,1175602825336617,-0.006325,-0.015262499,-2.75E-4
1679995614473,1175602827838771,-0.006325,-0.0182875,-2.75E-4
1679995614475,1175602830340694,-0.0083875,-0.0242,-2.75E-4
1679995614478,1175602832843079,-0.006325,-0.0202125,6.875E-4
1679995614480,1175602835345002,-0.0033,-0.0202125,6.875E-4
1679995614485,1175602837847136,-0.0033,-0.022275,0.0017875
1679995614486,1175602840349213,-0.0033,-0.0262625,6.875E-4
1679995614488,1175602842851367,-0.0053625,-0.027224999,0.0017875
1679995614490,1175602845353290,-0.006325,-0.0242,0.0037125
1679995614494,1175602847855353,-0.0083875,-0.0253,0.0017875
1679995614496,1175602850357583,-0.0083875,-0.0253,0.0037125
1679995614498,1175602852859737,-0.006325,-0.0262625,0.005775
1679995614500,1175602855361814,-0.0053625,-0.022275,0.0067375
1679995614503,1175602857863737,-0.0053625,-0.0171875,0.0067375
1679995614505,1175602860365905,-0.007425,-0.016224999,0.0097624995
1679995614507,1175602862868059,-0.0053625,-0.0143,0.0088
1679995614510,1175602865370136,-0.0033,-0.011275,0.010725
1679995614512,1175602867872290,-0.0044,-0.010175,0.0127875
1679995614515,1175602870374463,-0.0044,-0.0061875,0.01375
1679995614518,1175602872876386,-0.0053625,-0.0042625,0.0158125
1679995614521,1175602875378463,-0.0033,-0.0022,0.0187
1679995614522,1175602877880616,-0.0053625,8.25E-4,0.0198
1679995614525,1175602880382770,-0.007425,0.0017875,0.0226875
1679995614529,1175602882884924,-0.006325,0.0037125,0.016775
1679995614532,1175602885386847,-0.006325,0.005775,0.0207625
1679995614534,1175602887889001,-0.0053625,0.0067375,0.0158125
1679995614536,1175602890391078,-0.006325,0.0097624995,0.0158125
1679995614538,1175602892893228,-0.007425,0.010725,0.014712499
1679995614541,1175602895395151,-0.007425,0.014712499,0.0127875
1679995614543,1175602897897305,-0.00935,0.014712499,0.014712499
1679995614546,1175602900399459,-0.0103124995,0.014712499,0.014712499
1679995614548,1175602902901536,-0.0103124995,0.0158125,0.0127875
1679995614551,1175602905403689,-0.0133375,0.016775,0.010725
1679995614552,1175602907905843,-0.0133375,0.0177375,0.0077
1679995614555,1175602910407780,-0.012375,0.0187,0.0077
1679995614559,1175602912909857,-0.0154,0.0158125,0.0088
1679995614563,1175602915412011,-0.018424999,0.01375,0.0088
1679995614565,1175602917914165,-0.017324999,0.0158125,0.0077
1679995614567,1175602920416319,-0.017324999,0.0158125,0.0067375
1679995614569,1175602922918257,-0.0213125,0.010725,0.0048125
1679995614572,1175602925420411,-0.0224125,0.0127875,0.0037125
1679995614573,1175602927922488,-0.02035,0.0158125,0.0017875
1679995614575,1175602930424411,-0.0224125,0.011825,6.875E-4
1679995614578,1175602932926810,-0.0253,0.010725,0.00275
1679995614580,1175602935428964,-0.0243375,0.01375,0.0048125
1679995614583,1175602937930887,-0.0264,0.0127875,0.0037125
1679995614585,1175602940432964,-0.028324999,0.010725,0.0048125
1679995614588,1175602942935142,-0.029424999,0.0037125,0.0088
1679995614590,1175602945437296,-0.028324999,0.00275,0.0097624995
1679995614593,1175602947939219,-0.03135,-2.75E-4,0.0097624995
1679995614595,1175602950441373,-0.0303875,-0.0022,0.010725
1679995614598,1175602952943508,-0.0273625,-0.0033,0.010725
1679995614600,1175602955445585,-0.028324999,-0.0033,0.0116875
1679995614603,1175602957947739,-0.028324999,-0.005225,0.0127875
1679995614607,1175602960449662,-0.0334125,-0.00825,0.0097624995
1679995614609,1175602962951839,-0.03135,-0.0072875,0.0097624995
1679995614611,1175602965453993,-0.0323125,-0.0072875,0.0077
1679995614613,1175602967956147,-0.0273625,-0.0122375,0.005775
1679995614615,1175602970458224,-0.028324999,-0.011275,0.0067375
1679995614618,1175602972960378,-0.0303875,-0.0061875,0.0088
1679995614620,1175602975462315,-0.0323125,-0.00825,0.0048125
1679995614623,1175602977964392,-0.029424999,-0.010175,0.0017875
1679995614625,1175602980466546,-0.029424999,-0.0072875,0.0067375
1679995614628,1175602982968700,-0.029424999,-0.00825,0.0048125
1679995614631,1175602985470844,-0.0273625,-0.00825,0.0037125
1679995614634,1175602987972767,-0.0273625,-0.00825,0.0037125
1679995614636,1175602990474920,-0.028324999,-0.0122375,0.005775
1679995614638,1175602992976997,-0.0273625,-0.0132,0.0067375
1679995614640,1175602995479184,-0.0253,-0.015262499,0.0067375
1679995614645,1175602997981107,-0.0253,-0.0171875,0.0037125
1679995614647,1175603000483492,-0.0273625,-0.015262499,0.0067375
1679995614649,1175603002985415,-0.0273625,-0.0122375,0.005775
1679995614655,1175603005487598,-0.0303875,-0.011275,0.0077
1679995614657,1175603007989675,-0.029424999,-0.011275,0.0088
1679995614660,1175603010491598,-0.029424999,-0.0143,0.005775
1679995614663,1175603012993752,-0.028324999,-0.0132,0.0097624995
1679995614665,1175603015496155,-0.023375,-0.0143,0.0116875
1679995614668,1175603017998078,-0.0253,-0.0143,0.010725
1679995614670,1175603020500155,-0.0253,-0.0182875,0.010725
1679995614672,1175603023002309,-0.0243375,-0.015262499,0.010725
1679995614674,1175603025504232,-0.0243375,-0.011275,0.0097624995
1679995614676,1175603028006372,-0.0253,-0.0171875,0.010725
1679995614680,1175603030508449,-0.0224125,-0.015262499,0.0127875
1679995614682,1175603033010603,-0.023375,-0.00825,0.0116875
1679995614685,1175603035512752,-0.0253,-0.015262499,0.010725
1679995614686,1175603038014675,-0.0253,-0.0182875,0.0116875
1679995614690,1175603040516752,-0.0243375,-0.016224999,0.010725
1679995614691,1175603043018983,-0.0243375,-0.016224999,0.010725
1679995614695,1175603045521059,-0.0253,-0.0202125,0.0077
1679995614697,1175603048023213,-0.0253,-0.021175,0.0048125
1679995614699,1175603050525136,-0.023375,-0.0202125,0.0048125
1679995614701,1175603053027290,-0.0253,-0.0202125,0.005775
1679995614704,1175603055529367,-0.0243375,-0.021175,0.0037125
1679995614705,1175603058031280,-0.0243375,-0.0242,0.005775
1679995614708,1175603060533665,-0.0253,-0.021175,0.005775
1679995614709,1175603063035819,-0.0253,-0.021175,0.0067375
1679995614712,1175603065537742,-0.0273625,-0.0262625,0.0077
1679995614715,1175603068039814,-0.0273625,-0.0281875,0.010725
1679995614717,1175603070541968,-0.028324999,-0.0292875,0.0127875
1679995614720,1175603073044121,-0.029424999,-0.0363,0.010725
1679995614722,1175603075546275,-0.029424999,-0.0352,0.010725
1679995614726,1175603078048189,-0.029424999,-0.0352,0.0077
1679995614737,1175603080550343,-0.028324999,-0.0352,0.0088
1679995614737,1175603083052420,-0.0264,-0.0372625,0.0077
1679995614738,1175603085554574,-0.0253,-0.0391875,0.0037125
1679995614738,1175603088056497,-0.0264,-0.0462,-2.75E-4
1679995614739,1175603090558636,-0.023375,-0.0482625,6.875E-4
1679995614739,1175603093060790,-0.0224125,-0.0422125,-0.0012375
1679995614740,1175603095562867,-0.0224125,-0.0462,-2.75E-4
1679995614742,1175603098065021,-0.02035,-0.052249998,0.00275
1679995614747,1175603100567169,-0.0213125,-0.044275,-0.0012375
1679995614748,1175603103069093,-0.0213125,-0.0482625,-0.0012375
1679995614750,1175603105571169,-0.0193875,-0.0462,-0.0012375
1679995614753,1175603108073323,-0.0154,-0.0452375,-2.75E-4
1679995614756,1175603110575482,-0.0143,-0.044275,-2.75E-4
1679995614759,1175603113077405,-0.0154,-0.0391875,-2.75E-4
1679995614763,1175603115579559,-0.0143,-0.041249998,-0.0022
1679995614763,1175603118081713,-0.012375,-0.0352,-0.0042625
1679995614766,1175603120583790,-0.00935,-0.0281875,-0.00825
1679995614768,1175603123085742,-0.0114124995,-0.0281875,-0.0072875
1679995614770,1175603125588127,-0.012375,-0.0262625,-0.0072875
1679995614773,1175603128090280,-0.0103124995,-0.01925,-0.0042625
1679995614775,1175603130592204,-0.00935,-0.01925,-0.0033
1679995614782,1175603133094280,-0.00935,-0.0143,-0.0072875
1679995614784,1175603135596424,-0.007425,-0.00825,-0.0092124995
1679995614784,1175603138098347,-0.0033,-0.0061875,-0.00825
1679995614786,1175603140600501,-0.00935,8.25E-4,-0.011275
1679995614788,1175603143102655,-0.0103124995,0.0048125,-0.0122375
1679995614791,1175603145604824,-0.006325,0.0067375,-0.011275
1679995614794,1175603148106901,-0.00935,0.01375,-0.0122375
1679995614797,1175603150609055,-0.0103124995,0.014712499,-0.016224999
1679995614798,1175603153110978,-0.0053625,0.016775,-0.0171875
1679995614801,1175603155613060,-0.0053625,0.01375,-0.0171875
1679995614803,1175603158115214,-0.0033,0.014712499,-0.0182875
1679995614807,1175603160617367,-0.0053625,0.010725,-0.016224999
1679995614808,1175603163119501,-0.0053625,0.005775,-0.0132
1679995614812,1175603165621424,-0.006325,0.005775,-0.011275
1679995614812,1175603168123578,-0.006325,0.0037125,-0.0103124995
1679995614815,1175603170625655,-0.0103124995,-0.0022,-0.011275
1679995614820,1175603173127790,-0.00935,-0.00825,-0.011275
1679995614821,1175603175629944,-0.0103124995,-0.0122375,-0.011275
1679995614825,1175603178132098,-0.0103124995,-0.015262499,-0.00825
1679995614825,1175603180634021,-0.0083875,-0.01925,-0.00825
1679995614829,1175603183136175,-0.0103124995,-0.0242,-0.011275
1679995614832,1175603185638223,-0.0143,-0.0262625,-0.011275
1679995614833,1175603188140376,-0.0154,-0.0262625,-0.011275
1679995614835,1175603190642300,-0.0163625,-0.0292875,-0.0092124995
1679995614838,1175603193144453,-0.018424999,-0.027224999,-0.0092124995
1679995614840,1175603195646607,-0.017324999,-0.0281875,-0.0103124995
1679995614843,1175603198148761,-0.0213125,-0.0292875,-0.0092124995
1679995614845,1175603200650838,-0.0213125,-0.0262625,-0.0061875
1679995614848,1175603203152761,-0.0224125,-0.022275,-0.0061875
1679995614851,1175603205654910,-0.023375,-0.016224999,-0.0033
1679995614859,1175603208157064,-0.0224125,-0.0132,-0.0022
1679995614859,1175603210659141,-0.0213125,-0.0061875,-0.0012375
1679995614859,1175603213161295,-0.023375,-0.0061875,0.0017875
1679995614861,1175603215663467,-0.0224125,-0.0012375,0.00275
1679995614863,1175603218165391,-0.0213125,0.00275,0.0037125
1679995614865,1175603220667467,-0.0213125,0.0048125,0.0017875
1679995614869,1175603223169621,-0.023375,0.0048125,0.0017875
1679995614871,1175603225671857,-0.0213125,0.010725,0.0037125
1679995614873,1175603228173934,-0.0213125,0.016775,0.0017875
1679995614875,1175603230675857,-0.0193875,0.0198,0.0017875
1679995614878,1175603233178011,-0.0224125,0.0317625,0.0017875
1679995614880,1175603235680083,-0.0224125,0.0287375,0.00275
1679995614883,1175603238182006,-0.0213125,0.0317625,0.0037125
1679995614885,1175603240684160,-0.017324999,0.0397375,0.0048125
1679995614888,1175603243186544,-0.017324999,0.0407,0.0048125
1679995614891,1175603245688492,-0.018424999,0.0427625,0.0037125
1679995614893,1175603248190568,-0.02035,0.044825,0.0037125
1679995614896,1175603250692722,-0.017324999,0.044825,0.00275
1679995614897,1175603253194876,-0.018424999,0.0427625,0.0017875
1679995614902,1175603255697030,-0.0163625,0.0407,0.0017875
1679995614903,1175603258198973,-0.0133375,0.038775,0.0017875
1679995614907,1175603260701127,-0.012375,0.0407,6.875E-4
1679995614909,1175603263203204,-0.0133375,0.0427625,0.0017875
1679995614913,1175603265705118,-0.0114124995,0.03575,6.875E-4
1679995614914,1175603268207272,-0.012375,0.0317625,-0.0022
1679995614915,1175603270709426,-0.006325,0.0287375,-0.0012375
1679995614918,1175603273211579,-0.0114124995,0.0287375,-2.75E-4
1679995614920,1175603275713656,-0.0143,0.0237875,-2.75E-4
1679995614923,1175603278215781,-0.0103124995,0.0177375,-2.75E-4
1679995614925,1175603280717704,-0.0083875,0.014712499,-2.75E-4
1679995614928,1175603283219858,-0.0103124995,0.011825,0.00275
1679995614931,1175603285722012,-0.012375,0.0048125,0.0037125
1679995614934,1175603288224166,-0.0114124995,0.0048125,0.0037125
1679995614935,1175603290726229,-0.012375,0.0017875,0.00275
1679995614939,1175603293228152,-0.0133375,-0.00825,0.0017875
1679995614940,1175603295730306,-0.012375,-0.011275,0.0048125
1679995614945,1175603298232440,-0.0133375,-0.011275,0.0037125
1679995614946,1175603300734517,-0.0103124995,-0.016224999,6.875E-4
1679995614949,1175603303236670,-0.012375,-0.0242,6.875E-4
1679995614950,1175603305738824,-0.0114124995,-0.0262625,0.0017875
1679995614953,1175603308240978,-0.006325,-0.0292875,0.0037125
1679995614955,1175603310742887,-0.006325,-0.027224999,6.875E-4
1679995614959,1175603313244964,-0.007425,-0.0262625,-2.75E-4
1679995614961,1175603315747118,-0.007425,-0.03025,6.875E-4
1679995614963,1175603318249272,-0.0133375,-0.032175,6.875E-4
1679995614965,1175603320751180,-0.0133375,-0.0281875,0.00275
1679995614969,1175603323253334,-0.017324999,-0.021175,0.00275
1679995614971,1175603325755488,-0.0163625,-0.021175,6.875E-4
1679995614973,1175603328257565,-0.0163625,-0.0202125,0.00275
1679995614976,1175603330759493,-0.017324999,-0.0132,0.00275
1679995614979,1175603333261646,-0.0154,-0.0092124995,0.00275
1679995614982,1175603335763800,-0.0163625,-0.0072875,0.0037125
1679995614983,1175603338265954,-0.0143,-0.0022,0.0037125
1679995614985,1175603340768065,-0.012375,0.005775,0.0017875
1679995614990,1175603343270219,-0.012375,0.010725,0.00275
1679995614991,1175603345772142,-0.012375,0.0158125,0.0048125
1679995614993,1175603348274219,-0.0114124995,0.0158125,0.0037125
1679995614996,1175603350776382,-0.00935,0.0198,6.875E-4
1679995615000,1175603353278613,-0.012375,0.027775,0.00275
1679995615002,1175603355780690,-0.0103124995,0.027775,0.0037125
1679995615003,1175603358282613,-0.0103124995,0.0308,0.005775
1679995615005,1175603360784766,-0.0103124995,0.0317625,0.005775
1679995615009,1175603363286839,-0.0114124995,0.0308,0.0037125
1679995615011,1175603365788993,-0.0103124995,0.033825,0.005775
1679995615013,1175603368291147,-0.00935,0.033825,0.0037125
1679995615016,1175603370793301,-0.0103124995,0.0317625,0.0037125
1679995615021,1175603373295175,-0.00935,0.03575,0.0048125
1679995615022,1175603375797252,-0.0103124995,0.0308,0.0017875
1679995615024,1175603378299406,-0.0083875,0.0297,0.0037125
1679995615026,1175603380801560,-0.007425,0.022824999,0.0037125
1679995615029,1175603383303483,-0.007425,0.0187,0.0067375
1679995615031,1175603385805623,-0.006325,0.0187,0.0037125
1679995615033,1175603388307776,-0.0044,0.014712499,0.0017875
1679995615035,1175603390809853,-0.006325,0.016775,6.875E-4
1679995615039,1175603393312007,-0.0033,0.011825,-2.75E-4
1679995615040,1175603395813930,-0.001375,0.010725,0.0017875
1679995615043,1175603398316094,-0.0053625,0.0067375,6.875E-4
1679995615046,1175603400818171,-0.0033,-2.75E-4,-0.0012375
1679995615049,1175603403320402,0.00165,-0.005225,-2.75E-4
1679995615051,1175603405822479,0.0026125,-0.00825,6.875E-4
1679995615053,1175603408324637,-4.125E-4,-0.011275,-0.0022
1679995615057,1175603410826560,6.875E-4,-0.0122375,-0.0012375
1679995615060,1175603413328714,0.0026125,-0.015262499,-0.0033
1679995615063,1175603415830772,0.0026125,-0.0182875,-0.0012375
1679995615064,1175603418332925,0.00165,-0.0202125,0.0037125
1679995615066,1175603420835079,0.003575,-0.0253,6.875E-4
1679995615070,1175603423337002,6.875E-4,-0.03025,-0.0012375
1679995615071,1175603425839156,6.875E-4,-0.027224999,6.875E-4
1679995615073,1175603428341247,0.00165,-0.0281875,-2.75E-4
1679995615076,1175603430843401,6.875E-4,-0.0281875,-0.0033
1679995615079,1175603433345324,0.00165,-0.0253,0.0017875
1679995615081,1175603435847709,0.003575,-0.0202125,0.0048125
1679995615083,1175603438349656,0.003575,-0.016224999,0.0048125
1679995615085,1175603440851810,0.004675,-0.0171875,0.0048125
1679995615089,1175603443353887,0.0026125,-0.0171875,0.0067375
1679995615093,1175603445855810,0.004675,-0.015262499,0.0067375
1679995615096,1175603448357954,0.0056375,-0.0122375,0.005775
1679995615097,1175603450860339,0.004675,-0.0122375,0.0067375
1679995615099,1175603453362262,0.0056375,-0.010175,0.0067375
1679995615101,1175603455864339,0.0066,-0.0061875,0.005775
1679995615103,1175603458366493,0.0086624995,-0.0092124995,0.0017875
1679995615105,1175603460868416,0.0077,-0.0061875,0.0067375
1679995615109,1175603463370570,0.0077,-0.0042625,0.0017875
1679995615111,1175603465872647,0.0116875,-0.0042625,0.0017875
1679995615114,1175603468374878,0.009625,-0.0022,0.00275
1679995615116,1175603470876974,0.009625,-2.75E-4,-2.75E-4
1679995615119,1175603473378897,0.0116875,8.25E-4,6.875E-4
1679995615122,1175603475880974,0.0116875,0.0037125,0.00275
1679995615124,1175603478383204,0.0116875,8.25E-4,0.0037125
1679995615126,1175603480885353,0.01265,0.0037125,0.0017875
1679995615129,1175603483387430,0.0105875,0.00275,0.0017875
1679995615132,1175603485889353,0.01265,0.0017875,0.0017875
1679995615134,1175603488391507,0.015675,0.0048125,0.00275
1679995615136,1175603490893584,0.015675,0.0017875,0.005775
1679995615139,1175603493395762,0.013612499,8.25E-4,0.0048125
1679995615140,1175603495897916,0.013612499,-2.75E-4,0.005775
1679995615143,1175603498400069,0.01265,0.0017875,0.005775
1679995615146,1175603500901993,0.013612499,-0.0033,0.005775
1679995615149,1175603503404070,0.009625,-0.005225,0.0088
1679995615151,1175603505906223,0.0086624995,-0.0061875,0.0088
1679995615153,1175603508408377,0.0066,-0.0061875,0.010725
1679995615155,1175603510910300,0.0066,-0.0092124995,0.01375
1679995615159,1175603513412440,0.004675,-0.0122375,0.0127875
1679995615160,1175603515914594,0.003575,-0.0171875,0.0127875
1679995615163,1175603518416671,0.003575,-0.021175,0.0127875
1679995615166,1175603520918825,0.0056375,-0.01925,0.0116875
1679995615171,1175603523420757,0.0026125,-0.022275,0.010725
1679995615172,1175603525922911,0.004675,-0.0281875,0.010725
1679995615174,1175603528425065,0.0086624995,-0.0312125,0.0088
1679995615175,1175603530927141,0.004675,-0.03025,0.0097624995
1679995615179,1175603533429295,0.0056375,-0.033275,0.0067375
1679995615181,1175603535931449,0.009625,-0.0342375,0.0077
1679995615183,1175603538433372,0.0086624995,-0.0363,0.0088
1679995615186,1175603540935449,0.0077,-0.0363,0.0067375
1679995615189,1175603543437670,0.0066,-0.0342375,0.0077
1679995615191,1175603545939824,0.0056375,-0.0342375,0.0088
1679995615193,1175603548441747,0.0086624995,-0.0363,0.005775
1679995615196,1175603550943901,0.0105875,-0.033275,0.005775
1679995615199,1175603553446055,0.009625,-0.0281875,0.0077
1679995615200,1175603555948152,0.009625,-0.0312125,0.0077
1679995615203,1175603558450075,0.0105875,-0.0292875,0.0067375
1679995615209,1175603560952459,0.0105875,-0.0292875,0.0067375
1679995615212,1175603563454362,0.0066,-0.0292875,0.005775
1679995615213,1175603565956516,0.0116875,-0.0292875,0.00275
1679995615214,1175603568458593,0.01265,-0.03025,0.005775
1679995615216,1175603570960747,0.0077,-0.033275,0.0048125
1679995615219,1175603573462670,0.0086624995,-0.0312125,0.0048125
1679995615221,1175603575964844,0.0116875,-0.0312125,0.0037125
1679995615224,1175603578466998,0.009625,-0.03025,0.005775
1679995615226,1175603580969152,0.0077,-0.0292875,0.0048125
1679995615229,1175603583471229,0.0077,-0.027224999,0.0037125
1679995615231,1175603585973137,0.0077,-0.03025,0.0048125
1679995615233,1175603588475291,0.0056375,-0.0281875,0.005775
1679995615235,1175603590977367,0.0056375,-0.0262625,0.005775
1679995615239,1175603593479521,0.0077,-0.022275,0.0077
1679995615241,1175603595981675,0.0077,-0.0202125,0.0048125
1679995615245,1175603598483799,0.003575,-0.0202125,0.0048125
1679995615247,1175603600985722,0.0026125,-0.0253,0.0017875
1679995615249,1175603603487876,0.00165,-0.0182875,-0.0012375
1679995615251,1175603605989953,0.003575,-0.022275,-2.75E-4
1679995615253,1175603608492098,0.003575,-0.022275,-2.75E-4
1679995615256,1175603610994252,0.004675,-0.021175,-2.75E-4
1679995615259,1175603613496405,0.003575,-0.01925,0.0017875
1679995615261,1175603615998329,0.003575,-0.0132,0.0017875
1679995615263,1175603618500429,-0.001375,-0.015262499,-2.75E-4
1679995615266,1175603621002583,6.875E-4,-0.0171875,0.0017875
1679995615269,1175603623504737,-0.0044,-0.0092124995,0.0017875
1679995615271,1175603626006660,-0.0053625,-0.0132,0.00275
1679995615273,1175603628508799,-0.0044,-0.0171875,0.00275
1679995615276,1175603631010953,-0.006325,-0.011275,0.00275
1679995615279,1175603633513030,-0.006325,-0.010175,-2.75E-4
1679995615282,1175603636015184,-0.006325,-0.0143,0.00275
1679995615283,1175603638517122,-0.0053625,-0.015262499,0.00275
1679995615286,1175603641019276,-0.007425,-0.015262499,-0.0012375
1679995615289,1175603643521353,-0.007425,-0.0171875,0.0017875
1679995615291,1175603646023506,-0.007425,-0.0202125,0.00275
1679995615293,1175603648525660,-0.0083875,-0.01925,0.00275
1679995615296,1175603651027819,-0.0083875,-0.0253,6.875E-4
1679995615299,1175603653529742,-0.007425,-0.0242,-0.0012375
1679995615301,1175603656031819,-0.0103124995,-0.022275,0.00275
1679995615304,1175603658533973,-0.0154,-0.03025,0.0048125
1679995615306,1175603661036088,-0.012375,-0.0281875,0.0037125
1679995615310,1175603663538242,-0.0103124995,-0.0281875,0.0048125
1679995615311,1175603666040165,-0.0114124995,-0.0292875,0.0048125
1679995615314,1175603668542319,-0.00935,-0.033275,0.005775
1679995615316,1175603671044391,-0.0114124995,-0.0342375,0.00275
1679995615320,1175603673546314,-0.0133375,-0.033275,0.0048125
1679995615323,1175603676048468,-0.017324999,-0.033275,0.0067375
1679995615325,1175603678550621,-0.0163625,-0.0342375,0.0067375
1679995615327,1175603681052775,-0.0154,-0.033275,0.0067375
1679995615330,1175603683554852,-0.0133375,-0.0281875,0.0077
1679995615331,1175603686057006,-0.0143,-0.0292875,0.0067375
1679995615333,1175603688558929,-0.0154,-0.027224999,0.0077
1679995615335,1175603691061083,-0.0133375,-0.021175,0.0097624995
1679995615339,1175603693563218,-0.0114124995,-0.0202125,0.0077
1679995615340,1175603696065295,-0.0114124995,-0.0171875,0.0088
1679995615343,1175603698567449,-0.0103124995,-0.0182875,0.0067375
1679995615345,1175603701069372,-0.0114124995,-0.0202125,0.005775
1679995615351,1175603703571545,-0.0114124995,-0.0171875,0.0048125
1679995615355,1175603706073698,-0.0143,-0.0143,0.0017875
1679995615355,1175603708575852,-0.012375,-0.0132,-2.75E-4
1679995615357,1175603711077929,-0.0154,-0.0092124995,0.0017875
1679995615359,1175603713580054,-0.0143,-0.0092124995,0.0017875
1679995615361,1175603716081977,-0.012375,-0.00825,0.0017875
1679995615363,1175603718584054,-0.0133375,-0.0072875,0.0017875
1679995615366,1175603721086285,-0.012375,-0.005225,0.0037125
1679995615369,1175603723588439,-0.0133375,-0.0012375,0.005775
1679995615370,1175603726090502,-0.0154,-0.0012375,0.005775
1679995615373,1175603728592425,-0.0133375,8.25E-4,0.0077
1679995615376,1175603731094579,-0.0103124995,8.25E-4,0.0097624995
1679995615379,1175603733596655,-0.00935,0.0037125,0.010725
1679995615381,1175603736098584,-0.0114124995,8.25E-4,0.010725
1679995615383,1175603738600968,-0.0103124995,-0.0033,0.0088
1679995615386,1175603741103122,-0.006325,-0.0042625,0.0088
1679995615389,1175603743605045,-0.0053625,-0.005225,0.0067375
1679995615391,1175603746107107,-0.0033,-0.0072875,0.0077
1679995615396,1175603748609261,-0.0044,-0.0042625,0.0067375
1679995615397,1175603751111415,-0.0053625,-0.005225,0.0077
1679995615400,1175603753613338,-0.0044,-0.00825,0.0017875
1679995615401,1175603756115526,-0.0044,-0.0042625,0.005775
1679995615404,1175603758617680,-0.0053625,-0.0042625,0.005775
1679995615406,1175603761119756,-0.0044,-0.0012375,0.0037125
1679995615413,1175603763621910,-0.006325,-0.0012375,0.00275
1679995615413,1175603766123858,-0.0053625,-0.0012375,0.0037125
1679995615415,1175603768626012,-0.0044,0.0017875,0.0048125
1679995615416,1175603771128166,-0.0053625,0.0048125,0.0048125
1679995615419,1175603773630243,-0.006325,0.005775,0.0067375
1679995615420,1175603776132387,-0.0053625,0.010725,0.0077
1679995615423,1175603778634541,-0.006325,0.0127875,0.010725
1679995615426,1175603781136464,-0.0044,0.0158125,0.0097624995
1679995615429,1175603783638541,-0.00935,0.0187,0.0116875
1679995615433,1175603786140666,-0.00935,0.021724999,0.014712499
1679995615434,1175603788642819,-0.0083875,0.016775,0.0127875
1679995615436,1175603791144973,-0.00935,0.0158125,0.0127875
1679995615440,1175603793646896,-0.0114124995,0.01375,0.0127875
1679995615441,1175603796149050,-0.0103124995,0.0158125,0.0127875
1679995615443,1175603798651132,-0.00935,0.01375,0.0097624995
1679995615446,1175603801153286,-0.0103124995,0.01375,0.0088
1679995615449,1175603803655440,-0.00935,0.0158125,0.0097624995
1679995615451,1175603806157363,-0.007425,0.010725,0.0097624995
1679995615453,1175603808659488,-0.00935,0.01375,0.0088
1679995615456,1175603811161565,-0.0083875,0.01375,0.0097624995
1679995615459,1175603813663719,-0.0044,0.01375,0.0088
1679995615462,1175603816165642,-0.006325,0.0127875,0.0077
1679995615464,1175603818667762,-0.007425,0.011825,0.0088
1679995615466,1175603821169916,-0.0053625,0.011825,0.010725
1679995615470,1175603823671993,-0.0053625,0.0077,0.010725
1679995615472,1175603826174147,-0.0044,0.011825,0.010725
1679995615474,1175603828676334,-0.0044,0.0077,0.0116875
1679995615476,1175603831178257,-0.0053625,0.0067375,0.0127875
1679995615482,1175603833680334,-0.0044,0.005775,0.0088
1679995615482,1175603836182488,-0.0034375,0.005775,0.010725
1679995615484,1175603838684719,-4.125E-4,-2.75E-4,0.010725
1679995615486,1175603841186786,6.875E-4,-0.0061875,0.0097624995
1679995615489,1175603843688709,-0.0083875,-0.005225,0.0077
1679995615491,1175603846190862,-0.0053625,-0.0042625,0.0077
1679995615493,1175603848692939,-0.0044,-0.0042625,0.0067375
1679995615496,1175603851194858,-0.001375,-0.0072875,0.0067375
1679995615499,1175603853697243,-4.125E-4,-0.0092124995,0.0067375
1679995615501,1175603856199397,-0.0034375,-0.0122375,0.005775
1679995615504,1175603858701320,-0.0034375,-0.010175,0.0067375
1679995615507,1175603861203401,-4.125E-4,-0.011275,0.0067375
1679995615510,1175603863705555,6.875E-4,-0.015262499,0.005775
1679995615512,1175603866207478,0.00165,-0.0122375,6.875E-4
1679995615514,1175603868709632,6.875E-4,-0.0122375,0.0048125
1679995615516,1175603871211786,-4.125E-4,-0.0122375,0.0048125
1679995615519,1175603873713935,6.875E-4,-0.0132,0.005775
1679995615521,1175603876216012,0.0026125,-0.0122375,-2.75E-4
1679995615523,1175603878717935,6.875E-4,-0.016224999,0.0037125
1679995615526,1175603881220089,0.003575,-0.0143,0.00275
1679995615530,1175603883722238,6.875E-4,-0.011275,0.0048125
1679995615531,1175603886224315,0.00165,-0.010175,0.0077
1679995615533,1175603888726469,0.0066,-0.015262499,0.0088
1679995615537,1175603891228623,0.009625,-0.015262499,0.0048125
1679995615539,1175603893730546,0.0086624995,-0.015262499,0.0037125
1679995615541,1175603896232700,0.0075625,-0.01925,0.005775
1679995615545,1175603898734777,0.009625,-0.0182875,0.0048125
1679995615546,1175603901236931,0.0105875,-0.0122375,0.005775
1679995615551,1175603903739094,0.0116875,-0.0132,0.005775
1679995615552,1175603906241017,0.013612499,-0.00825,0.0048125
1679995615554,1175603908743171,0.0116875,-0.0092124995,0.0048125
1679995615556,1175603911245248,0.0116875,-0.005225,0.0037125
1679995615560,1175603913747479,0.013612499,-0.0061875,0.005775
1679995615562,1175603916249551,0.01265,-0.0042625,0.005775
1679995615566,1175603918751474,0.013612499,-2.75E-4,0.0067375
1679995615567,1175603921253628,0.0116875,-0.0022,0.0088
1679995615569,1175603923755705,0.009625,-0.0042625,0.0067375
1679995615571,1175603926257859,0.0105875,-0.0042625,0.00275
1679995615573,1175603928759782,0.0075625,-0.0042625,0.0048125
1679995615576,1175603931262166,0.0116875,-0.0061875,0.005775
1679995615579,1175603933764089,0.0105875,-0.0042625,0.0017875
1679995615583,1175603936266121,0.0086624995,-0.0042625,6.875E-4
1679995615584,1175603938768275,0.0075625,-0.0042625,0.0017875
1679995615586,1175603941270429,0.009625,-0.0042625,6.875E-4
1679995615589,1175603943772352,0.0086624995,-0.0042625,0.00275
1679995615591,1175603946274429,0.0075625,-0.0042625,0.0017875
1679995615593,1175603948776661,0.0086624995,-0.0033,0.0017875
1679995615596,1175603951278738,0.009625,-2.75E-4,6.875E-4
1679995615600,1175603953780892,0.0105875,-2.75E-4,6.875E-4
1679995615602,1175603956282815,0.0116875,-0.0022,6.875E-4
1679995615604,1175603958784978,0.0116875,8.25E-4,-2.75E-4
1679995615606,1175603961287055,0.0066,-0.0012375,0.0017875
1679995615609,1175603963789285,0.0105875,-2.75E-4,6.875E-4
1679995615613,1175603966291362,0.013612499,8.25E-4,0.0017875
1679995615615,1175603968793516,0.015675,-0.0033,0.0017875
1679995615616,1175603971295439,0.013612499,-0.0022,0.0037125
1679995615620,1175603973797516,0.0166375,8.25E-4,0.00275
1679995615623,1175603976299670,0.013612499,0.0017875,0.0048125
1679995615624,1175603978801593,0.0116875,0.00275,0.0067375
1679995615626,1175603981303978,0.0116875,8.25E-4,0.0048125
1679995615630,1175603983805901,0.0116875,8.25E-4,0.0067375
1679995615631,1175603986308055,0.0105875,-0.0012375,0.0077
1679995615633,1175603988810132,0.013612499,0.0037125,0.0077
1679995615636,1175603991312309,0.0105875,0.005775,0.0088
1679995615639,1175603993814232,0.0086624995,0.0077,0.0088
1679995615641,1175603996316309,0.0116875,0.0127875,0.0077
1679995615643,1175603998818540,0.0116875,0.016775,0.0067375
1679995615646,1175604001320704,0.015675,0.016775,0.005775
1679995615649,1175604003822781,0.01265,0.0207625,0.0048125
1679995615652,1175604006324704,0.0116875,0.021724999,0.0067375
1679995615654,1175604008826858,0.0105875,0.02475,0.0077
1679995615659,1175604011329002,0.0116875,0.021724999,0.0077
1679995615661,1175604013831156,0.0116875,0.0177375,0.0067375
1679995615663,1175604016333233,0.0116875,0.0187,0.0088
1679995615664,1175604018835386,0.01265,0.016775,0.010725
1679995615666,1175604021337309,0.0116875,0.011825,0.0116875
1679995615669,1175604023839396,0.0105875,0.011825,0.0127875
1679995615671,1175604026341550,0.0116875,0.00275,0.01375
1679995615673,1175604028843704,0.009625,-2.75E-4,0.0187
1679995615678,1175604031345858,0.0105875,-0.0033,0.01375
1679995615680,1175604033847795,0.0105875,-0.0092124995,0.014712499
1679995615681,1175604036349949,0.0105875,-0.0171875,0.014712499
1679995615684,1175604038852026,0.0086624995,-0.021175,0.016775
1679995615687,1175604041353949,0.009625,-0.0262625,0.01375
1679995615689,1175604043856103,0.0086624995,-0.03025,0.014712499
1679995615691,1175604046358487,0.0105875,-0.03025,0.0158125
1679995615697,1175604048860410,0.0105875,-0.0342375,0.0207625
1679995615698,1175604051362487,0.0075625,-0.0372625,0.021724999
1679995615701,1175604053864670,0.0075625,-0.041249998,0.021724999
1679995615703,1175604056366824,0.0075625,-0.0422125,0.0187
1679995615704,1175604058868747,0.004675,-0.043175,0.0207625
1679995615706,1175604061370824,0.0056375,-0.043175,0.0187
1679995615710,1175604063873045,0.0056375,-0.044275,0.0158125
1679995615711,1175604066375122,0.0026125,-0.043175,0.0158125
1679995615713,1175604068877276,0.0026125,-0.043175,0.01375
1679995615716,1175604071379199,0.0056375,-0.041249998,0.014712499
1679995615719,1175604073881353,0.003575,-0.043175,0.014712499
1679995615722,1175604076383429,0.0026125,-0.044275,0.0127875
1679995615723,1175604078885353,0.0075625,-0.041249998,0.01375
1679995615726,1175604081387737,0.0056375,-0.0363,0.014712499
1679995615730,1175604083889650,0.0026125,-0.032175,0.01375
1679995615732,1175604086391804,0.0066,-0.032175,0.0158125
1679995615735,1175604088893881,0.003575,-0.03025,0.0198
1679995615736,1175604091396035,6.875E-4,-0.0312125,0.016775
1679995615740,1175604093897929,0.003575,-0.022275,0.0158125
1679995615741,1175604096400314,6.875E-4,-0.0242,0.016775
1679995615744,1175604098902237,-0.001375,-0.021175,0.016775
1679995615747,1175604101404391,-0.001375,-0.0171875,0.016775
1679995615750,1175604103906487,0.00165,-0.0143,0.0207625
1679995615751,1175604106408641,6.875E-4,-0.011275,0.016775
1679995615754,1175604108910564,0.00165,-0.010175,0.016775
1679995615756,1175604111412718,0.00165,-0.0072875,0.0198
1679995615759,1175604113914872,6.875E-4,8.25E-4,0.0187
1679995615761,1175604116417021,-0.0034375,0.00275,0.0207625
1679995615764,1175604118919098,-0.001375,0.0037125,0.0207625
1679995615766,1175604121421021,-0.0034375,0.0048125,0.021724999
1679995615770,1175604123923175,-0.001375,0.0097624995,0.0207625
1679995615772,1175604126425271,-0.0044,0.0048125,0.0207625
1679995615773,1175604128927425,-0.006325,0.005775,0.0198
1679995615776,1175604131429578,-0.007425,0.0097624995,0.0198
1679995615779,1175604133931502,-0.0083875,0.0127875,0.0198
1679995615781,1175604136433664,-0.0053625,0.011825,0.0198
1679995615784,1175604138935741,-0.0083875,0.0097624995,0.0198
1679995615786,1175604141437895,-0.0133375,0.0077,0.0198
1679995615789,1175604143940049,-0.012375,0.010725,0.0207625
1679995615791,1175604146442203,-0.0114124995,0.010725,0.016775
1679995615793,1175604148944131,-0.012375,0.010725,0.016775
1679995615796,1175604151446208,-0.0133375,0.011825,0.01375
1679995615799,1175604153948362,-0.012375,0.01375,0.014712499
1679995615801,1175604156450516,-0.012375,0.0177375,0.0187
1679995615803,1175604158952679,-0.0103124995,0.0198,0.014712499
1679995615807,1175604161454603,-0.0083875,0.014712499,0.0158125
1679995615810,1175604163956756,-0.0103124995,0.0207625,0.0158125
1679995615812,1175604166458838,-0.00935,0.0198,0.0187
1679995615813,1175604168960992,-0.00935,0.0177375,0.016775
1679995615816,1175604171462915,-0.0083875,0.0207625,0.0187
1679995615819,1175604173965300,-0.00935,0.0187,0.0158125
1679995615821,1175604176467223,-0.007425,0.014712499,0.0127875
1679995615825,1175604178969401,-0.006325,0.0077,0.01375
1679995615827,1175604181471478,-0.0034375,0.0048125,0.0158125
1679995615829,1175604183973401,-0.006325,0.0067375,0.0187
1679995615831,1175604186475555,-0.0044,0.00275,0.0158125
1679995615834,1175604188977646,-0.0034375,0.0037125,0.01375
1679995615836,1175604191479876,-0.006325,8.25E-4,0.014712499
1679995615840,1175604193981953,-0.007425,-0.0033,0.01375
1679995615841,1175604196484107,-0.0053625,-0.005225,0.0116875
1679995615847,1175604198986030,-0.0083875,-0.00825,0.0116875
1679995615848,1175604201488107,-0.00935,-0.010175,0.010725
1679995615850,1175604203990261,-0.007425,-0.00825,0.010725
1679995615852,1175604206492492,-0.007425,-0.0061875,0.010725
1679995615853,1175604208994569,-0.0103124995,-0.0092124995,0.0088
1679995615856,1175604211496482,-0.00935,-0.010175,0.0067375
1679995615860,1175604213998636,-0.0083875,-0.010175,0.0088
1679995615861,1175604216500713,-0.0083875,-0.010175,0.0088
1679995615864,1175604219002636,-0.0053625,-0.00825,0.0067375
1679995615865,1175604221504771,-0.007425,-0.0092124995,0.0077
1679995615870,1175604224007155,-0.0053625,-0.0092124995,0.0116875
1679995615871,1175604226509078,-0.007425,-0.00825,0.0097624995
1679995615874,1175604229011155,-0.006325,-0.0092124995,0.0088
1679995615877,1175604231513314,-0.001375,-0.00825,0.0097624995
1679995615880,1175604234015468,-0.0044,-0.0072875,0.0127875
1679995615883,1175604236517391,-0.007425,-0.0132,0.0116875
1679995615884,1175604239019468,-0.007425,-0.0122375,0.0127875
1679995615887,1175604241521699,-0.006325,-0.015262499,0.0116875
1679995615890,1175604244023776,-0.0083875,-0.0182875,0.0116875
1679995615892,1175604246525699,-0.007425,-0.01925,0.0077
1679995615893,1175604249028083,-0.0103124995,-0.01925,0.0077
1679995615897,1175604251530006,-0.00935,-0.022275,0.0077
1679995615899,1175604254032088,-0.012375,-0.021175,0.0067375
1679995615901,1175604256534242,-0.0114124995,-0.01925,0.005775
1679995615905,1175604259036396,-0.012375,-0.021175,0.0067375
1679995615906,1175604261538319,-0.0083875,-0.0202125,0.0048125
1679995615910,1175604264040482,-0.0053625,-0.022275,0.0048125
1679995615914,1175604266542559,-0.007425,-0.0242,0.0037125
1679995615915,1175604269044713,-0.0053625,-0.0242,6.875E-4
1679995615917,1175604271546636,-0.0083875,-0.0242,-0.0022
1679995615920,1175604274049036,-0.006325,-0.022275,-0.0012375
1679995615923,1175604276550960,-0.006325,-0.0202125,-0.0022
1679995615925,1175604279053113,-0.006325,-0.01925,0.0017875
1679995615927,1175604281555190,-0.007425,-0.0182875,6.875E-4
1679995615930,1175604284057343,-0.007425,-0.01925,-0.0012375
1679995615931,1175604286559266,-0.0044,-0.0143,-0.0012375
1679995615935,1175604289061420,-0.0034375,-0.0132,-0.0022
1679995615937,1175604291563574,-0.001375,-0.0122375,-0.0012375
1679995615940,1175604294065651,-0.0034375,-0.0092124995,6.875E-4
1679995615941,1175604296567815,-0.0034375,-0.0061875,-0.0022
1679995615944,1175604299069738,-0.0044,-0.0061875,-0.0042625
1679995615947,1175604301571892,-0.0034375,-2.75E-4,-0.0022
1679995615950,1175604304073969,-0.006325,0.00275,-0.0061875
1679995615951,1175604306576127,-0.0044,0.005775,-0.0042625
1679995615954,1175604309078281,-0.0034375,0.0048125,-0.0012375
1679995615958,1175604311580435,-0.006325,0.011825,-0.0022
1679995615961,1175604314082358,-0.007425,0.016775,-0.0033
1679995615962,1175604316584430,-0.007425,0.021724999,0.0017875
1679995615964,1175604319086584,-0.006325,0.0268125,0.0017875
1679995615967,1175604321588507,-0.0103124995,0.027775,0.0017875
1679995615969,1175604324090892,-0.0103124995,0.033825,0.0048125
1679995615971,1175604326592815,-0.011275,0.0367125,0.0077
1679995615975,1175604329094945,-0.0133375,0.0378125,0.010725
1679995615980,1175604331597022,-0.012375,0.0397375,0.0116875
1679995615980,1175604334098945,-0.0143,0.0427625,0.0077
1679995615982,1175604336601098,-0.0154,0.038775,0.0097624995
1679995615984,1175604339103468,-0.0182875,0.0347875,0.0097624995
1679995615986,1175604341605391,-0.017324999,0.03575,0.01375
1679995615989,1175604344107468,-0.0163625,0.033825,0.010725
1679995615991,1175604346609622,-0.0213125,0.032725,0.01375
1679995615996,1175604349111526,-0.022275,0.0287375,0.01375
1679995615996,1175604351613680,-0.022275,0.021724999,0.010725
1679995615999,1175604354115757,-0.023375,0.0198,0.014712499
1679995616001,1175604356617911,-0.0243375,0.016775,0.0187
1679995616004,1175604359120065,-0.0264,0.0077,0.016775
1679995616006,1175604361621959,-0.0264,0.0048125,0.016775
1679995616009,1175604364124036,-0.0253,-0.0012375,0.0187
1679995616012,1175604366626266,-0.028324999,-0.0092124995,0.0187
1679995616014,1175604369128343,-0.0334125,-0.015262499,0.0198
1679995616016,1175604371630512,-0.0363,-0.0143,0.0187
1679995616019,1175604374132435,-0.0363,-0.021175,0.0207625
1679995616021,1175604376634589,-0.0363,-0.027224999,0.021724999
1679995616023,1175604379136666,-0.0363,-0.03025,0.0187
1679995616026,1175604381638613,-0.0374,-0.03025,0.0158125
1679995616030,1175604384140998,-0.0363,-0.033275,0.01375
1679995616032,1175604386643152,-0.0363,-0.033275,0.0158125
1679995616034,1175604389145075,-0.0402875,-0.0312125,0.014712499
1679995616036,1175604391647152,-0.0334125,-0.0281875,0.0127875
1679995616039,1175604394149300,-0.0353375,-0.0281875,0.0116875
1679995616041,1175604396651223,-0.0374,-0.0262625,0.010725
1679995616047,1175604399153608,-0.0334125,-0.027224999,0.0127875
1679995616047,1175604401655531,-0.0323125,-0.0242,0.0097624995
1679995616050,1175604404157685,-0.03135,-0.0242,0.0088
1679995616051,1175604406659762,-0.0303875,-0.021175,0.0067375
1679995616054,1175604409161916,-0.028324999,-0.027224999,0.0067375
1679995616056,1175604411663839,-0.0243375,-0.0202125,0.005775
1679995616060,1175604414166003,-0.0243375,-0.021175,0.0088
1679995616061,1175604416668157,-0.0253,-0.022275,0.010725
1679995616064,1175604419170234,-0.0264,-0.0171875,0.01375
1679995616066,1175604421672387,-0.023375,-0.0171875,0.0097624995
1679995616071,1175604424174319,-0.0213125,-0.0171875,0.010725
1679995616072,1175604426676473,-0.022275,-0.0132,0.010725
1679995616074,1175604429178550,-0.0243375,-0.010175,0.01375
1679995616076,1175604431680704,-0.022275,-0.0092124995,0.010725
1679995616079,1175604434182868,-0.023375,-0.0092124995,0.0077
1679995616081,1175604436685022,-0.0243375,-0.0072875,0.0088
1679995616084,1175604439186945,-0.0264,-0.005225,0.005775
1679995616086,1175604441689022,-0.022275,-0.0012375,0.0017875
1679995616090,1175604444191165,-0.0213125,8.25E-4,-0.0022
1679995616091,1175604446693319,-0.0273625,0.0048125,-0.0033
1679995616095,1175604449195472,-0.0253,0.011825,-0.0033
1679995616097,1175604451697395,-0.0273625,0.0177375,-0.0042625
1679995616099,1175604454199564,-0.03135,0.027775,-0.00825
1679995616101,1175604456701641,-0.0292875,0.03575,-0.005225
1679995616104,1175604459203795,-0.03135,0.0477125,-0.0033
1679995616109,1175604461705718,-0.0353375,0.0627,-0.0012375
1679995616112,1175604464207871,-0.0383625,0.076725,6.875E-4
1679995616113,1175604466710025,-0.0383625,0.0947375,0.0037125
1679995616115,1175604469212102,-0.0433125,0.115775,0.0097624995
1679995616116,1175604471714256,-0.045375,0.1368125,0.0187
1679995616120,1175604474216179,-0.0433125,0.15675,0.0268125
1679995616122,1175604476718333,-0.0463375,0.1827375,0.0378125
1679995616124,1175604479220410,-0.0433125,0.2057,0.0457875
1679995616126,1175604481722563,-0.0402875,0.2327875,0.05775
1679995616130,1175604484224717,-0.039325,0.25575,0.06875
1679995616131,1175604486726896,-0.0383625,0.2787125,0.0776875
1679995616134,1175604489228819,-0.0402875,0.29975,0.0847
1679995616136,1175604491730973,-0.0374,0.318725,0.0947375
1679995616139,1175604494233050,-0.0374,0.3348125,0.098725
1679995616141,1175604496735204,-0.0253,0.341825,0.1078
1679995616145,1175604499237372,-0.0253,0.3537875,0.120725
1679995616146,1175604501739295,-0.0264,0.3647875,0.1216875
1679995616150,1175604504241449,-0.0273625,0.36781248,0.1247125
1679995616151,1175604506743526,-0.0264,0.37675,0.1216875
1679995616154,1175604509245684,-0.0273625,0.3817,0.115775
1679995616156,1175604511747607,-0.0264,0.38775,0.1106875
1679995616160,1175604514249684,-0.0303875,0.3947625,0.10175
1679995616163,1175604516751915,-0.0323125,0.3927,0.0917125
1679995616165,1175604519254083,-0.0383625,0.3887125,0.0858
1679995616167,1175604521756160,-0.04235,0.38775,0.0787875
1679995616170,1175604524258083,-0.0444125,0.384725,0.0757625
1679995616171,1175604526760237,-0.045375,0.38073748,0.071775
1679995616174,1175604529262319,-0.045375,0.3757875,0.0627
1679995616176,1175604531764550,-0.045375,0.368775,0.060775
1679995616179,1175604534266627,-0.0473,0.3587375,0.0556875
1679995616183,1175604536768780,-0.0433125,0.3477375,0.0488125
1679995616185,1175604539270679,-0.04235,0.33673748,0.0446875
1679995616186,1175604541772833,-0.0413875,0.324775,0.0446875
1679995616189,1175604544274910,-0.0433125,0.3047,0.043725
1679995616192,1175604546776833,-0.04235,0.286825,0.0378125
1679995616194,1175604549279218,-0.0433125,0.26675,0.0367125
1679995616196,1175604551781372,-0.0413875,0.2497,0.0367125
1679995616200,1175604554283295,-0.0493625,0.2297625,0.0367125
1679995616202,1175604556785372,-0.0484,0.20075,0.0378125
1679995616204,1175604559287526,-0.050325,0.1777875,0.038775
1679995616206,1175604561789430,-0.050325,0.1557875,0.0378125
1679995616209,1175604564291507,-0.0523875,0.13475,0.0367125
1679995616212,1175604566793737,-0.0523875,0.1137125,0.0397375
1679995616214,1175604569295814,-0.056375,0.09075,0.0427625
1679995616216,1175604571797968,-0.0573375,0.066825,0.0418
1679995616221,1175604574299910,-0.0603625,0.04675,0.0446875
1679995616224,1175604576802064,-0.0653125,0.0287375,0.043725
1679995616225,1175604579304218,-0.0633875,-2.75E-4,0.0457875
1679995616226,1175604581806372,-0.069299996,-0.0182875,0.0457875
1679995616230,1175604584308434,-0.07535,-0.033275,0.0427625
1679995616231,1175604586810357,-0.077275,-0.0512875,0.0427625
1679995616234,1175604589312511,-0.08635,-0.06325,0.0407
1679995616236,1175604591814588,-0.0873125,-0.0752125,0.0367125
1679995616242,1175604594316799,-0.0903375,-0.0831875,0.0336875
1679995616244,1175604596818876,-0.094325,-0.091299996,0.0297
1679995616246,1175604599321030,-0.0983125,-0.09625,0.0268125
1679995616248,1175604601822953,-0.1023,-0.0972125,0.0187
1679995616250,1175604604325107,-0.1043625,-0.0941875,0.0158125
1679995616251,1175604606827184,-0.10835,-0.0922625,0.014712499
1679995616254,1175604609329415,-0.110275,-0.0922625,0.010725
1679995616258,1175604611831463,-0.113299996,-0.091299996,0.0088
1679995616260,1175604614333617,-0.1144,-0.082225,0.0048125
1679995616263,1175604616835540,-0.1153625,-0.0842875,0.00275
1679995616265,1175604619337617,-0.1183875,-0.0803,-0.0012375
1679995616267,1175604621839770,-0.1203125,-0.0812625,0.0017875
1679995616269,1175604624341694,-0.1243,-0.077275,6.875E-4
1679995616271,1175604626844078,-0.122375,-0.0721875,-2.75E-4
1679995616274,1175604629346001,-0.121275,-0.069299996,0.00275
1679995616276,1175604631848155,-0.1243,-0.069299996,0.0048125
1679995616279,1175604634350198,-0.1243,-0.0672375,0.0077
1679995616281,1175604636852121,-0.1263625,-0.0672375,0.0097624995
1679995616284,1175604639354275,-0.1263625,-0.0583,0.0097624995
1679995616287,1175604641856660,-0.1254,-0.054175,0.0088
1679995616290,1175604644358569,-0.1282875,-0.0501875,0.0116875
1679995616292,1175604646860646,-0.1324125,-0.043175,0.014712499
1679995616298,1175604649362799,-0.1324125,-0.043175,0.014712499
1679995616298,1175604651864723,-0.1324125,-0.041249998,0.014712499
1679995616301,1175604654366799,-0.1364,-0.038225,0.01375
1679995616303,1175604656868953,-0.1353,-0.0391875,0.014712499
1679995616304,1175604659371184,-0.138325,-0.0372625,0.0158125
1679995616307,1175604661873261,-0.1403875,-0.0312125,0.016775
1679995616309,1175604664375415,-0.138325,-0.0312125,0.0187
1679995616313,1175604666877338,-0.1364,-0.038225,0.0207625
1679995616314,1175604669379415,-0.1373625,-0.0372625,0.0237875
1679995616317,1175604671881569,-0.1364,-0.0363,0.0257125
1679995616320,1175604674383492,-0.1364,-0.033275,0.0257125
1679995616322,1175604676885861,-0.1364,-0.0312125,0.0257125
1679995616324,1175604679387785,-0.1353,-0.0281875,0.0257125
1679995616327,1175604681889861,-0.1293875,-0.0262625,0.027775
1679995616330,1175604684392015,-0.1263625,-0.0262625,0.0297
1679995616333,1175604686894141,-0.1233375,-0.027224999,0.027775
1679995616335,1175604689396064,-0.1203125,-0.022275,0.0287375
1679995616337,1175604691898218,-0.1183875,-0.021175,0.032725
1679995616339,1175604694400372,-0.116325,-0.021175,0.03575
1679995616341,1175604696902449,-0.10835,-0.021175,0.0367125
1679995616344,1175604699404617,-0.105325,-0.0182875,0.0378125
1679995616346,1175604701906540,-0.1062875,-0.0182875,0.0378125
1679995616349,1175604704408694,-0.1034,-0.0242,0.0407
1679995616351,1175604706910771,-0.1013375,-0.0202125,0.0397375
1679995616356,1175604709413006,-0.099275,-0.0171875,0.0407
1679995616358,1175604711915083,-0.1023,-0.0143,0.0446875
1679995616362,1175604714417237,-0.1034,-0.0122375,0.04675
1679995616363,1175604716919160,-0.09735,-0.015262499,0.0446875
1679995616365,1175604719421227,-0.1013375,-0.015262499,0.0427625
1679995616367,1175604721923381,-0.1023,-0.0122375,0.0407
1679995616372,1175604724425304,-0.1023,-0.0132,0.0407
1679995616372,1175604726927689,-0.1023,-0.0122375,0.0407
1679995616374,1175604729429612,-0.0983125,-0.0092124995,0.0407
1679995616380,1175604731931785,-0.0963875,-0.0122375,0.0367125
1679995616381,1175604734433862,-0.09735,-0.011275,0.0336875
1679995616382,1175604736936015,-0.1034,-0.011275,0.0317625
1679995616384,1175604739437939,-0.1013375,-0.00825,0.0297
1679995616387,1175604741940078,-0.1023,-0.00825,0.0297
1679995616391,1175604744442232,-0.1034,-0.0092124995,0.0257125
1679995616391,1175604746944309,-0.1013375,-0.011275,0.0268125
1679995616396,1175604749446463,-0.099275,-0.0171875,0.0257125
1679995616397,1175604751948612,-0.1013375,-0.027224999,0.0207625
1679995616399,1175604754450535,-0.105325,-0.0363,0.016775
1679995616402,1175604756952612,-0.1043625,-0.0422125,0.016775
1679995616404,1175604759454766,-0.1034,-0.049225,0.014712499
1679995616409,1175604761956906,-0.105325,-0.0592625,0.0116875
1679995616411,1175604764458829,-0.1062875,-0.066275,0.0158125
1679995616413,1175604766960983,-0.1034,-0.0782375,0.0158125
1679995616414,1175604769463059,-0.1034,-0.082225,0.0116875
1679995616417,1175604771965213,-0.10835,-0.091299996,0.0088
1679995616420,1175604774467347,-0.1043625,-0.0972125,0.0077
1679995616422,1175604776969501,-0.1013375,-0.1023,0.0088
1679995616424,1175604779471424,-0.1023,-0.104225,0.0088
1679995616427,1175604781973578,-0.1062875,-0.1082125,0.0097624995
1679995616430,1175604784475695,-0.105325,-0.1122,0.0088
1679995616432,1175604786977849,-0.10835,-0.109175,0.010725
1679995616434,1175604789479772,-0.110275,-0.1051875,0.0097624995
1679995616436,1175604791981926,-0.10835,-0.1051875,0.0116875
1679995616439,1175604794484003,-0.10835,-0.104225,0.014712499
1679995616441,1175604796986161,-0.110275,-0.1023,0.0158125
1679995616446,1175604799488085,-0.1093125,-0.1023,0.0158125
1679995616447,1175604801990469,-0.1073875,-0.100237496,0.0198
1679995616450,1175604804492425,-0.110275,-0.09625,0.0198
1679995616451,1175604806994502,-0.111375,-0.088275,0.014712499
1679995616454,1175604809496656,-0.110275,-0.0842875,0.0097624995
1679995616456,1175604811998810,-0.110275,-0.0803,0.0067375
1679995616459,1175604814500733,-0.1123375,-0.071225,0.00275
1679995616461,1175604817002825,-0.110275,-0.0642125,6.875E-4
1679995616464,1175604819505056,-0.113299996,-0.060225,-0.0012375
1679995616466,1175604822007133,-0.113299996,-0.0572,-0.005225
1679995616469,1175604824509286,-0.1123375,-0.0512875,-0.005225
1679995616472,1175604827011200,-0.110275,-0.0482625,-0.0072875
1679995616474,1175604829513353,-0.111375,-0.0462,-0.005225
1679995616476,1175604832015430,-0.110275,-0.043175,-0.0022
1679995616480,1175604834517584,-0.10835,-0.0372625,-0.0012375
1679995616483,1175604837019733,-0.1073875,-0.032175,-2.75E-4
1679995616485,1175604839521887,-0.1062875,-0.03025,6.875E-4
1679995616487,1175604842023810,-0.1043625,-0.032175,6.875E-4
1679995616491,1175604844525887,-0.099275,-0.0312125,6.875E-4
1679995616492,1175604847028041,-0.1023,-0.032175,0.0017875
1679995616495,1175604849529979,-0.099275,-0.0292875,0.0017875
1679995616497,1175604852032363,-0.0963875,-0.03025,0.0017875
1679995616500,1175604854534286,-0.0933625,-0.03025,6.875E-4
1679995616502,1175604857036363,-0.0903375,-0.022275,6.875E-4
1679995616504,1175604859538545,-0.089375,-0.021175,-0.0012375
1679995616507,1175604862040699,-0.088275,-0.0253,6.875E-4
1679995616510,1175604864542622,-0.0853875,-0.021175,-2.75E-4
1679995616512,1175604867044699,-0.08635,-0.0182875,-0.0012375
1679995616514,1175604869546906,-0.083325,-0.01925,-0.0012375
1679995616521,1175604872049060,-0.0793375,-0.01925,-0.0022
1679995616523,1175604874551137,-0.0763125,-0.0171875,6.875E-4
1679995616524,1175604877053060,-0.0743875,-0.01925,-0.0022
1679995616525,1175604879643834,-0.0704,-0.022275,-0.0033
1679995616528,1175604882057296,-0.066275,-0.0242,-0.0033
1679995616530,1175604884559526,-0.066275,-0.0242,-0.0033
1679995616532,1175604887061603,-0.0622875,-0.027224999,-0.0042625
1679995616534,1175604889563757,-0.061325,-0.027224999,-0.0061875
1679995616537,1175604892065675,-0.0603625,-0.0253,-0.0061875
1679995616541,1175604894567752,-0.0583,-0.027224999,-0.0061875
1679995616542,1175604897069906,-0.0583,-0.022275,-0.005225
1679995616546,1175604899571829,-0.056375,-0.022275,-0.005225
1679995616547,1175604902073979,-0.055275,-0.021175,-0.005225
1679995616550,1175604904576133,-0.05335,-0.0202125,-0.0033
1679995616552,1175604907078287,-0.0523875,-0.0202125,-2.75E-4
1679995616554,1175604909580364,-0.0493625,-0.0253,0.00275
1679995616558,1175604912082291,-0.045375,-0.03025,0.0037125
1679995616562,1175604914584444,-0.04235,-0.0352,0.005775
1679995616563,1175604917086521,-0.045375,-0.033275,0.0067375
1679995616564,1175604919588752,-0.0413875,-0.038225,0.0088
1679995616567,1175604922090906,-0.0433125,-0.0372625,0.0116875
1679995616570,1175604924592993,-0.0402875,-0.0422125,0.0127875
1679995616572,1175604927094916,-0.0402875,-0.044275,0.0088
1679995616575,1175604929597070,-0.0413875,-0.0501875,0.0097624995
1679995616577,1175604932099147,-0.0433125,-0.049225,0.0097624995
1679995616580,1175604934601407,-0.0413875,-0.0462,0.0077
1679995616582,1175604937103484,-0.04235,-0.0501875,0.010725
1679995616584,1175604939605637,-0.0433125,-0.0512875,0.0067375
1679995616588,1175604942107560,-0.044275,-0.0512875,0.0017875
1679995616590,1175604944609704,-0.0413875,-0.052249998,0.0017875
1679995616592,1175604947111781,-0.0433125,-0.0532125,0.0037125
1679995616595,1175604949613935,-0.0433125,-0.0512875,-2.75E-4
1679995616598,1175604952116089,-0.044275,-0.054175,-0.0033
1679995616603,1175604954617992,-0.0433125,-0.055275,-0.0033
1679995616605,1175604957120146,-0.0463375,-0.052249998,-0.0033
1679995616606,1175604959622223,-0.0473,-0.0532125,-0.00825
1679995616607,1175604962124146,-0.0463375,-0.0501875,-0.0122375
1679995616609,1175604964626309,-0.0484,-0.0512875,-0.0103124995
1679995616612,1175604967128463,-0.045375,-0.052249998,-0.0132
1679995616614,1175604969630616,-0.04235,-0.049225,-0.0122375
1679995616617,1175604972132693,-0.0402875,-0.043175,-0.015262499
1679995616620,1175604974634819,-0.039325,-0.0391875,-0.0132
1679995616622,1175604977136742,-0.0374,-0.0422125,-0.0132
1679995616624,1175604979638819,-0.0363,-0.043175,-0.0122375
1679995616627,1175604982140973,-0.0303875,-0.0391875,-0.0122375
1679995616630,1175604984643199,-0.0273625,-0.038225,-0.0132
1679995616633,1175604987145276,-0.0253,-0.038225,-0.0122375
1679995616635,1175604989647430,-0.0213125,-0.0342375,-0.0122375
1679995616637,1175604992149353,-0.0213125,-0.0342375,-0.011275
1679995616640,1175604994651396,-0.0163625,-0.0342375,-0.0092124995
1679995616642,1175604997153550,-0.0143,-0.0312125,-0.0072875
1679995616645,1175604999655473,-0.0133375,-0.0262625,-0.00825
1679995616647,1175605002157857,-0.00935,-0.027224999,-0.0072875
1679995616650,1175605004659795,-0.0053625,-0.0312125,-0.0072875
1679995616652,1175605007161872,0.0037125,-0.0242,-0.00825
1679995616655,1175605009664026,0.0056375,-0.0202125,-0.0092124995
1679995616657,1175605012166180,0.0066,-0.01925,-0.0072875
1679995616660,1175605014668334,0.010725,-0.0182875,-0.0092124995
1679995616663,1175605017170228,0.010725,-0.016224999,-0.0092124995
1679995616665,1175605019672382,0.01265,-0.015262499,-0.0092124995
1679995616667,1175605022174459,0.0166375,-0.010175,-0.0132
1679995616673,1175605024676372,0.0166375,-0.00825,-0.0122375
1679995616674,1175605027178526,0.015675,-0.0061875,-0.0132
1679995616675,1175605029680910,0.0176,-0.0061875,-0.0132
1679995616679,1175605032182833,0.015675,-0.005225,-0.0132
1679995616681,1175605034684910,0.0166375,0.0067375,-0.011275
1679995616682,1175605037187064,0.0196625,0.0067375,-0.0103124995
1679995616685,1175605039688982,0.0166375,0.0048125,-0.0103124995
1679995616687,1175605042191059,0.0166375,0.0077,-0.0103124995
1679995616690,1175605044693290,0.013612499,0.01375,-0.0061875
1679995616692,1175605047195444,0.015675,0.0158125,-0.0072875
1679995616694,1175605049697531,0.015675,0.0187,-0.0072875
1679995616696,1175605052199454,0.0187,0.0207625,-0.0072875
1679995616700,1175605054701608,0.0166375,0.021724999,-0.005225
1679995616702,1175605057203685,0.0166375,0.0198,-0.005225
1679995616704,1175605059705838,0.013612499,0.022824999,-0.0022
1679995616708,1175605062208006,0.013612499,0.0268125,-0.0022
1679995616712,1175605064710160,0.013612499,0.0287375,-0.0012375
1679995616713,1175605067212083,0.013612499,0.0297,-2.75E-4
1679995616714,1175605069714160,0.0116875,0.027775,-0.0042625
1679995616716,1175605072216319,0.013612499,0.0287375,-0.0042625
1679995616721,1175605074718473,0.010725,0.0287375,-0.0012375
1679995616722,1175605077220396,0.0116875,0.027775,6.875E-4
1679995616724,1175605079722550,0.0116875,0.0287375,-0.0012375
1679995616727,1175605082224689,0.010725,0.0297,-2.75E-4
1679995616730,1175605084726766,0.0056375,0.027775,6.875E-4
1679995616732,1175605087228919,0.0077,0.0237875,0.0017875
1679995616734,1175605089730842,0.0077,0.0268125,0.00275
1679995616737,1175605092232996,0.0086624995,0.0187,6.875E-4
1679995616740,1175605094735150,0.0066,0.01375,-0.0022
1679995616742,1175605097237304,0.004675,0.011825,-0.0012375
1679995616746,1175605099739381,0.0026125,0.0097624995,-0.0022
1679995616747,1175605102241309,-0.001375,0.0037125,-0.0022
1679995616751,1175605104743463,-0.001375,-0.0033,-0.0033
1679995616752,1175605107245617,-0.0033,-0.0033,-0.0033
1679995616754,1175605109747694,-0.001375,-0.011275,-0.005225
1679995616759,1175605112249866,-2.75E-4,-0.0122375,-0.0022
1679995616762,1175605114752020,6.875E-4,-0.022275,0.0017875
1679995616763,1175605117253943,0.00165,-0.0262625,0.00275
1679995616765,1175605119756020,-2.75E-4,-0.0281875,0.005775
1679995616767,1175605122258174,-0.001375,-0.0312125,0.0077
1679995616770,1175605124760344,-0.001375,-0.0363,0.0088
1679995616772,1175605127262498,-0.0044,-0.0422125,0.0097624995
1679995616774,1175605129764421,-0.0053625,-0.044275,0.0088
1679995616777,1175605132266575,-0.0072875,-0.043175,0.005775
1679995616780,1175605134768637,-0.0072875,-0.0391875,0.005775
1679995616783,1175605137270791,-0.0053625,-0.044275,0.0017875
1679995616785,1175605139772944,-0.0053625,-0.0452375,-2.75E-4
1679995616787,1175605142274868,-0.0072875,-0.044275,-0.0022
1679995616790,1175605144777026,-0.0044,-0.043175,-0.0042625
1679995616792,1175605147279103,-0.0033,-0.0422125,-0.0072875
1679995616794,1175605149781257,-0.0044,-0.044275,-0.0072875
1679995616797,1175605152283411,-0.0033,-0.0422125,-0.0092124995
1679995616800,1175605154785334,-0.006325,-0.044275,-0.011275
1679995616802,1175605157287406,-0.0053625,-0.038225,-0.0092124995
1679995616807,1175605159789560,-0.006325,-0.038225,-0.0103124995
1679995616807,1175605162291714,-0.006325,-0.0391875,-0.011275
1679995616810,1175605164793892,-0.001375,-0.0363,-0.011275
1679995616812,1175605167295815,-0.001375,-0.0342375,-0.011275
1679995616815,1175605169797969,-0.0053625,-0.0312125,-0.00825
1679995616817,1175605172300045,-0.0033,-0.0253,-0.0092124995
1679995616821,1175605174802204,6.875E-4,-0.0202125,-0.0103124995
1679995616823,1175605177304358,-0.001375,-0.01925,-0.0103124995
1679995616825,1175605179806281,-0.0044,-0.0143,-0.0092124995
1679995616830,1175605182308435,-0.0044,-0.0061875,-0.0092124995
1679995616832,1175605184810512,-0.001375,-2.75E-4,-0.0061875
1679995616833,1175605187312695,-0.0033,0.0048125,-0.00825
1679995616835,1175605189814618,-0.0033,0.0077,-0.0072875
1679995616837,1175605192316772,-0.0053625,0.0177375,-0.0061875
1679995616840,1175605194818926,-0.0044,0.0207625,-0.0061875
1679995616842,1175605197321085,-0.0044,0.027775,-0.005225
1679995616845,1175605199823161,-0.0053625,0.033825,-0.0061875
1679995616847,1175605202325315,-0.0053625,0.0378125,-0.0061875
1679995616850,1175605204827238,-0.0033,0.0477125,-0.0022
1679995616852,1175605207329323,-0.006325,0.0477125,6.875E-4
1679995616855,1175605209831477,-0.0044,0.0528,0.0017875
1679995616858,1175605212333631,-0.006325,0.0567875,-0.0022
1679995616860,1175605214835785,-0.00935,0.05775,6.875E-4
1679995616862,1175605217337695,-0.0072875,0.0617375,0.0017875
1679995616864,1175605219839849,-0.00935,0.0627,6.875E-4
1679995616867,1175605222341926,-0.0072875,0.0677875,0.00275
1679995616870,1175605224844080,-0.006325,0.066825,0.0037125
1679995616872,1175605227346003,-0.0083875,0.065725,-0.0012375
1679995616875,1175605229848142,-0.012375,0.066825,-0.0033
1679995616877,1175605232350218,-0.0103124995,0.0647625,-0.0022
1679995616880,1175605234852372,-0.011275,0.0627,-0.0033
1679995616882,1175605237354526,-0.012375,0.0627,-0.0042625
1679995616884,1175605239856695,-0.0103124995,0.055825,-0.0072875
1679995616887,1175605242358618,-0.0083875,0.0517,-0.011275
1679995616889,1175605244860695,-0.0143,0.0507375,-0.0072875
1679995616892,1175605247362849,-0.00935,0.0457875,-0.0103124995
1679995616898,1175605249865003,-0.0053625,0.0378125,-0.011275
1679995616900,1175605252366926,-0.006325,0.033825,-0.0103124995
1679995616902,1175605254869080,-0.0072875,0.0308,-0.0092124995
1679995616904,1175605257371234,-0.0072875,0.02475,-0.0072875
1679995616905,1175605259873310,-0.0053625,0.0198,-0.0061875
1679995616908,1175605262375464,-0.0033,0.0187,-0.005225
1679995616910,1175605264877387,-0.0033,0.0127875,-0.005225
1679995616913,1175605267379541,-0.0044,0.0067375,-0.0042625
1679995616915,1175605269881618,-0.0033,0.00275,-0.0033
1679995616917,1175605272383829,-0.0053625,8.25E-4,-0.0042625
1679995616924,1175605274885906,-0.0044,-0.0012375,-0.005225
1679995616926,1175605277388060,-0.0044,-0.0061875,-0.005225
1679995616927,1175605279889983,-0.0072875,-0.0092124995,-0.0092124995
1679995616929,1175605282392055,-0.0072875,-0.0061875,-0.0122375
1679995616931,1175605284894209,-0.0072875,-0.0092124995,-0.0092124995
1679995616934,1175605287396362,-0.0103124995,-0.00825,-0.0072875
1679995616935,1175605289898516,-0.0083875,-0.011275,-0.016224999
1679995616937,1175605292400646,-0.0103124995,-0.00825,-0.015262499
1679995616940,1175605294902569,-0.012375,-0.0072875,-0.0182875
1679995616942,1175605297404646,-0.0103124995,-0.0061875,-0.0182875
1679995616945,1175605299906569,-0.011275,-0.0042625,-0.01925
1679995616947,1175605302408713,-0.011275,0.0017875,-0.0171875
1679995616950,1175605304910867,-0.0133375,0.00275,-0.01925
1679995616952,1175605307413021,-0.012375,-0.0012375,-0.0202125
1679995616955,1175605309915098,-0.0133375,0.00275,-0.01925
1679995616957,1175605312417266,-0.0154,0.0048125,-0.01925
1679995616960,1175605314919189,-0.0143,-0.0012375,-0.0202125
1679995616966,1175605317421343,-0.0143,-2.75E-4,-0.0213125
1679995616967,1175605319923419,-0.0143,8.25E-4,-0.0202125
1679995616967,1175605322425660,-0.017324999,-0.0042625,-0.0202125
1679995616973,1175605324927737,-0.0163625,-0.0031625,-0.0213125
1679995616974,1175605327429891,-0.0143,-0.0042625,-0.0202125
1679995616975,1175605329931814,-0.0133375,-0.0072875,-0.0202125
1679995616977,1175605332433900,-0.015262499,-0.010175,-0.0202125
1679995616980,1175605334936054,-0.0163625,-0.0122375,-0.0213125
1679995616982,1175605337438208,-0.0182875,-0.014162499,-0.0232375
1679995616985,1175605339940362,-0.0193875,-0.016224999,-0.022275
1679995616987,1175605342442285,-0.02035,-0.015262499,-0.0213125
1679995616990,1175605344944430,-0.0193875,-0.0132,-0.0202125
1679995616992,1175605347446506,-0.0193875,-0.0122375,-0.0202125
1679995616995,1175605349948430,-0.02035,-0.0092124995,-0.0171875
1679995616997,1175605352450583,-0.0182875,-0.0122375,-0.0171875
1679995617000,1175605354952977,-0.0182875,-0.015262499,-0.016224999
1679995617004,1175605357454900,-0.0182875,-0.011275,-0.015262499
1679995617006,1175605359956977,-0.0193875,-0.0122375,-0.015262499
1679995617009,1175605362459127,-0.0213125,-0.010175,-0.0171875
1679995617012,1175605364961050,-0.0243375,-0.010175,-0.016224999
1679995617015,1175605367463204,-0.023375,-0.011275,-0.015262499
1679995617016,1175605369965358,-0.0213125,-0.0132,-0.0182875
1679995617017,1175605372467512,-0.0243375,-0.0132,-0.0182875
1679995617020,1175605374969583,-0.0243375,-0.0132,-0.01925
1679995617022,1175605377471737,-0.022275,-0.0122375,-0.01925
1679995617025,1175605379973660,-0.023375,-0.01925,-0.0202125
1679995617027,1175605382475737,-0.022275,-0.01925,-0.0202125
1679995617030,1175605384977872,-0.0213125,-0.015262499,-0.0202125
1679995617032,1175605387480026,-0.02035,-0.0182875,-0.0182875
1679995617035,1175605389982180,-0.0213125,-0.016224999,-0.01925
1679995617037,1175605392484103,-0.0213125,-0.0171875,-0.01925
1679995617040,1175605394986180,-0.02035,-0.0182875,-0.0182875
1679995617042,1175605397488334,-0.02035,-0.016224999,-0.01925
1679995617047,1175605399990257,-0.0193875,-0.0202125,-0.0182875
1679995617048,1175605402492411,-0.017324999,-0.021175,-0.016224999
1679995617050,1175605404994565,-0.0163625,-0.021175,-0.015262499
1679995617052,1175605407496718,-0.0163625,-0.0251625,-0.0171875
1679995617055,1175605409998795,-0.0133375,-0.021175,-0.0182875
1679995617057,1175605412500949,-0.0103124995,-0.0202125,-0.016224999
1679995617060,1175605415002872,-0.0103124995,-0.0182875,-0.01925
1679995617063,1175605417505040,-0.0103124995,-0.0182875,-0.01925
1679995617065,1175605420007194,-0.0103124995,-0.01925,-0.0202125
1679995617067,1175605422509348,-0.0072875,-0.014162499,-0.0182875
1679995617071,1175605425011425,-0.006325,-0.014162499,-0.0202125
1679995617072,1175605427513358,-0.00935,-0.011275,-0.0171875
1679995617075,1175605430015512,-0.011275,-0.0092124995,-0.0122375
1679995617079,1175605432517665,-0.0103124995,-0.005225,-0.0171875
1679995617081,1175605435019742,-0.0103124995,-0.0042625,-0.016224999
1679995617084,1175605437521900,-0.012375,-0.0022,-0.0171875
1679995617086,1175605440024054,-0.011275,0.0017875,-0.0182875
1679995617089,1175605442525977,-0.0103124995,-2.75E-4,-0.016224999
1679995617091,1175605445028054,-0.0103124995,-0.0031625,-0.0122375
1679995617092,1175605447530285,-0.0143,-0.0012375,-0.0132
1679995617097,1175605450032372,-0.0163625,0.0037125,-0.016224999
1679995617097,1175605452534526,-0.0163625,0.0097624995,-0.016224999
1679995617100,1175605455036449,-0.017324999,0.0037125,-0.0132
1679995617102,1175605457538603,-0.0182875,-0.0031625,-0.0182875
1679995617105,1175605460040680,-0.023375,-0.005225,-0.0213125
1679995617107,1175605462542608,-0.0243375,-0.010175,-0.022275
1679995617110,1175605465044992,-0.0273625,-0.0171875,-0.0202125
1679995617113,1175605467546915,-0.028324999,-0.014162499,-0.0232375
1679995617115,1175605470049059,-0.0262625,-0.0182875,-0.0253
1679995617117,1175605472551136,-0.028324999,-0.022275,-0.0242
1679995617123,1175605475053290,-0.03135,-0.022275,-0.0242
1679995617125,1175605477555213,-0.0292875,-0.0202125,-0.022275
1679995617126,1175605480057357,-0.0323125,-0.0202125,-0.0213125
1679995617128,1175605482559511,-0.0363,-0.022275,-0.01925
1679995617131,1175605485061665,-0.0402875,-0.0262625,-0.016224999
1679995617133,1175605487563742,-0.0433125,-0.0281875,-0.015262499
1679995617135,1175605490065665,-0.045375,-0.03025,-0.0122375
1679995617137,1175605492567813,-0.045375,-0.0262625,-0.0103124995
1679995617140,1175605495069890,-0.0463375,-0.0281875,-0.0092124995
1679995617143,1175605497572121,-0.0482625,-0.0312125,-0.0092124995
1679995617147,1175605500074203,-0.0493625,-0.0292875,-0.0092124995
1679995617148,1175605502576357,-0.0493625,-0.032175,-0.0092124995
1679995617150,1175605505078280,-0.050325,-0.0342375,-0.00825
1679995617153,1175605507580434,-0.05335,-0.0352,-0.00825
1679995617155,1175605510082521,-0.0543125,-0.038225,-0.0042625
1679995617160,1175605512584675,-0.0573375,-0.041249998,-0.0072875
1679995617164,1175605515086829,-0.0573375,-0.043175,-0.0072875
1679995617164,1175605517588752,-0.0573375,-0.052249998,-0.00825
1679995617166,1175605520090905,-0.0592625,-0.0512875,-0.0061875
1679995617167,1175605522592972,-0.0603625,-0.0512875,-0.0103124995
1679995617170,1175605525094895,-0.0622875,-0.0592625,-0.0103124995
1679995617172,1175605527597280,-0.06435,-0.06325,-0.011275
1679995617175,1175605530099434,-0.0653125,-0.066275,-0.0092124995
1679995617177,1175605532601372,-0.06435,-0.0622875,-0.011275
1679995617180,1175605535103449,-0.0603625,-0.0672375,-0.015262499
1679995617182,1175605537605603,-0.061325,-0.066275,-0.0171875
1679995617185,1175605540107526,-0.0592625,-0.0702625,-0.0171875
1679995617188,1175605542609680,-0.055275,-0.07425,-0.0213125
1679995617190,1175605545111757,-0.055275,-0.07425,-0.0202125
1679995617192,1175605547613987,-0.0523875,-0.0721875,-0.0232375
1679995617196,1175605550116064,-0.0493625,-0.076175,-0.0232375
1679995617198,1175605552617996,-0.055275,-0.0831875,-0.0253
1679995617200,1175605555120150,-0.050325,-0.0812625,-0.0253
1679995617203,1175605557622304,-0.0523875,-0.0782375,-0.022275
1679995617205,1175605560124381,-0.056375,-0.0792,-0.022275
1679995617207,1175605562626304,-0.0573375,-0.0752125,-0.0253
1679995617210,1175605565128694,-0.0543125,-0.071225,-0.027224999
1679995617217,1175605567630617,-0.056375,-0.066275,-0.0262625
1679995617217,1175605570132771,-0.05335,-0.0592625,-0.0262625
1679995617219,1175605572634848,-0.055275,-0.052249998,-0.027224999
1679995617221,1175605575137002,-0.056375,-0.0462,-0.027224999
1679995617223,1175605577638925,-0.055275,-0.0422125,-0.0253
1679995617227,1175605580141309,-0.0573375,-0.0372625,-0.0253
1679995617231,1175605582643232,-0.0603625,-0.033275,-0.027224999
1679995617231,1175605585145309,-0.0592625,-0.03025,-0.0253
1679995617233,1175605587647463,-0.061325,-0.0262625,-0.0253
1679995617235,1175605590149617,-0.061325,-0.027224999,-0.0232375
1679995617237,1175605592651540,-0.06435,-0.0312125,-0.022275
1679995617241,1175605595153612,-0.0653125,-0.032175,-0.022275
1679995617243,1175605597655843,-0.069299996,-0.0352,-0.022275
1679995617246,1175605600157920,-0.066275,-0.0361625,-0.0253
1679995617247,1175605602659843,-0.0653125,-0.0352,-0.0262625
1679995617250,1175605605162026,-0.072325,-0.032175,-0.0253
1679995617252,1175605607664179,-0.072325,-0.0312125,-0.027224999
1679995617255,1175605610166256,-0.0763125,-0.0281875,-0.022275
1679995617257,1175605612668410,-0.0743875,-0.021175,-0.01925
1679995617260,1175605615170564,-0.072325,-0.0202125,-0.016224999
1679995617263,1175605617672477,-0.0743875,-0.0202125,-0.0171875
1679995617265,1175605620174554,-0.0732875,-0.0202125,-0.022275
1679995617267,1175605622676785,-0.0743875,-0.0251625,-0.0232375
1679995617272,1175605625178881,-0.0763125,-0.0251625,-0.0262625
1679995617273,1175605627680804,-0.07535,-0.027224999,-0.027224999
1679995617274,1175605630182958,-0.077275,-0.021175,-0.0292875
1679995617277,1175605632685112,-0.077275,-0.021175,-0.0281875
1679995617280,1175605635187265,-0.0732875,-0.021175,-0.0292875
1679995617282,1175605637689376,-0.078375,-0.01925,-0.033275
1679995617285,1175605640191299,-0.078375,-0.01925,-0.0323125
1679995617288,1175605642693453,-0.0812625,-0.0251625,-0.0292875
1679995617290,1175605645195530,-0.0803,-0.021175,-0.0281875
1679995617292,1175605647697761,-0.0812625,-0.027224999,-0.0281875
1679995617297,1175605650199838,-0.0812625,-0.0281875,-0.0253
1679995617298,1175605652701992,-0.083325,-0.0281875,-0.0232375
1679995617301,1175605655203915,-0.0823625,-0.0251625,-0.0182875
1679995617302,1175605657705992,-0.0803,-0.027224999,-0.0171875
1679995617305,1175605660208146,-0.077275,-0.0281875,-0.015262499
1679995617308,1175605662710300,-0.07535,-0.0312125,-0.0182875
1679995617313,1175605665212223,-0.07535,-0.0361625,-0.0202125
1679995617314,1175605667714371,-0.078375,-0.0372625,-0.0202125
1679995617315,1175605670216448,-0.0743875,-0.0391875,-0.0242
1679995617317,1175605672718602,-0.0713625,-0.033275,-0.0253
1679995617320,1175605675220756,-0.0713625,-0.0391875,-0.0242
1679995617323,1175605677722665,-0.07535,-0.0372625,-0.0281875
1679995617325,1175605680224819,-0.072325,-0.0352,-0.0281875
1679995617328,1175605682726896,-0.0702625,-0.03025,-0.0292875
1679995617330,1175605685229050,-0.069299996,-0.03025,-0.0323125
1679995617333,1175605687730973,-0.0702625,-0.032175,-0.03025
1679995617335,1175605690233337,-0.0702625,-0.03025,-0.0323125
1679995617337,1175605692735261,-0.072325,-0.0292875,-0.0352
1679995617340,1175605695237414,-0.072325,-0.0251625,-0.038225
1679995617342,1175605697739491,-0.0732875,-0.021175,-0.0352
1679995617346,1175605700241646,-0.07535,-0.0242,-0.0372625
1679995617348,1175605702743569,-0.0713625,-0.0182875,-0.0372625
1679995617350,1175605705245723,-0.069299996,-0.0132,-0.0363
1679995617352,1175605707747877,-0.0732875,-0.0072875,-0.038225
1679995617357,1175605710250031,-0.072325,-0.0042625,-0.0402875
1679995617358,1175605712752117,-0.0713625,0.00275,-0.0422125
1679995617360,1175605715254271,-0.069299996,0.010725,-0.0402875
1679995617363,1175605717756194,-0.06435,0.0207625,-0.0402875
1679995617365,1175605720258271,-0.0633875,0.0268125,-0.0422125
1679995617367,1175605722760501,-0.061325,0.0347875,-0.044275
1679995617370,1175605725262592,-0.061325,0.043725,-0.0433125
1679995617372,1175605727764515,-0.061325,0.044825,-0.041249998
1679995617375,1175605730266669,-0.0603625,0.0488125,-0.0372625
1679995617378,1175605732768823,-0.0583,0.0488125,-0.0342375
1679995617380,1175605735270891,-0.0603625,0.0507375,-0.03025
1679995617384,1175605737772814,-0.0603625,0.0528,-0.03025
1679995617385,1175605740275199,-0.056375,0.0507375,-0.027224999
1679995617388,1175605742777122,-0.0523875,0.0518375,-0.0262625
1679995617390,1175605745279199,-0.0473,0.049775,-0.0281875
1679995617396,1175605747781353,-0.0473,0.0457875,-0.0292875
1679995617398,1175605750283506,-0.0463375,0.0457875,-0.027224999
1679995617399,1175605752785430,-0.044275,0.0427625,-0.0262625
1679995617401,1175605755287583,-0.044275,0.0367125,-0.0281875
1679995617403,1175605757789737,-0.04235,0.0317625,-0.03025
1679995617405,1175605760291814,-0.0463375,0.0298375,-0.03025
1679995617410,1175605762793944,-0.04235,0.0268125,-0.0352
1679995617412,1175605765295867,-0.0413875,0.0287375,-0.0372625
1679995617413,1175605767798021,-0.039325,0.0237875,-0.038225
1679995617415,1175605770300098,-0.04235,0.0198,-0.0391875
1679995617417,1175605772802329,-0.0433125,0.0177375,-0.0402875
1679995617423,1175605775304402,-0.04235,0.01375,-0.041249998
1679995617425,1175605777806555,-0.044275,0.0067375,-0.0391875
1679995617426,1175605780308479,-0.0433125,0.0067375,-0.0391875
1679995617429,1175605782810555,-0.04235,-0.0022,-0.0402875
1679995617431,1175605785312709,-0.044275,-0.0092124995,-0.0363
1679995617432,1175605787814632,-0.045375,-0.01925,-0.0422125
1679995617435,1175605790317017,-0.045375,-0.0242,-0.0402875
1679995617437,1175605792818940,-0.0433125,-0.0292875,-0.038225
1679995617440,1175605795321093,-0.0433125,-0.0391875,-0.0391875
1679995617443,1175605797823170,-0.045375,-0.043175,-0.0391875
1679995617446,1175605800325324,-0.044275,-0.0501875,-0.0372625
1679995617447,1175605802827247,-0.044275,-0.0572,-0.038225
1679995617450,1175605805329373,-0.0463375,-0.0572,-0.0391875
1679995617453,1175605807831527,-0.0493625,-0.065175,-0.038225
1679995617458,1175605810333680,-0.050325,-0.07425,-0.0372625
1679995617459,1175605812835757,-0.0493625,-0.0752125,-0.0402875
1679995617463,1175605815337921,-0.0482625,-0.07425,-0.038225
1679995617463,1175605817839844,-0.0433125,-0.071225,-0.038225
1679995617465,1175605820341921,-0.045375,-0.071225,-0.0402875
1679995617468,1175605822844152,-0.0463375,-0.0702625,-0.038225
1679995617471,1175605825346247,-0.044275,-0.071225,-0.0372625
1679995617474,1175605827848401,-0.0433125,-0.0672375,-0.033275
1679995617475,1175605830350324,-0.045375,-0.0611875,-0.033275
1679995617477,1175605832852478,-0.0433125,-0.0611875,-0.0292875
1679995617480,1175605835354555,-0.04235,-0.0572,-0.027224999
1679995617483,1175605837856474,-0.0413875,-0.0512875,-0.0253
1679995617485,1175605840358628,-0.0433125,-0.0501875,-0.022275
1679995617487,1175605842861012,-0.04235,-0.0372625,-0.0171875
1679995617490,1175605845362935,-0.0413875,-0.03025,-0.016224999
1679995617492,1175605847865021,-0.045375,-0.0242,-0.015262499
1679995617496,1175605850366944,-0.0402875,-0.0092124995,-0.0103124995
1679995617499,1175605852869098,-0.0363,0.0048125,-0.0092124995
1679995617501,1175605855371483,-0.0363,0.0158125,-0.0103124995
1679995617503,1175605857873415,-0.033275,0.0297,-0.00825
1679995617505,1175605860375569,-0.033275,0.04675,-0.0061875
1679995617508,1175605862877646,-0.03135,0.0627,-0.0033
1679995617510,1175605865379569,-0.03135,0.0787875,-0.0022
1679995617513,1175605867881705,-0.0323125,0.0977625,-0.0012375
1679995617515,1175605870383781,-0.033275,0.115775,-2.75E-4
1679995617518,1175605872885935,-0.0253,0.1287,0.00275
1679995617520,1175605875388089,-0.0243375,0.1467125,0.0067375
1679995617523,1175605877890233,-0.0243375,0.165825,0.005775
1679995617526,1175605880392156,-0.0193875,0.1797125,0.0067375
1679995617528,1175605882894310,-0.0193875,0.1918125,0.0097624995
1679995617530,1175605885396464,-0.02035,0.2028125,0.0097624995
1679995617534,1175605887898555,-0.017324999,0.2107875,0.0037125
1679995617536,1175605890400709,-0.0133375,0.2167,6.875E-4
1679995617538,1175605892902632,-0.0154,0.2217875,-2.75E-4
1679995617542,1175605895404709,-0.0133375,0.225775,-0.0012375
1679995617545,1175605897906862,-0.011275,0.2277,-0.0033
1679995617547,1175605900409020,-0.0083875,0.225775,-0.005225
1679995617548,1175605902911174,-0.011275,0.2217875,-0.00825
1679995617551,1175605905413097,-0.0072875,0.2167,-0.0092124995
1679995617553,1175605907915251,-0.00935,0.2068,-0.0122375
1679995617555,1175605910417310,-0.0083875,0.1997875,-0.0132
1679995617558,1175605912919464,-0.0072875,0.1857625,-0.0132
1679995617560,1175605915421387,-0.006325,0.1727,-0.011275
1679995617563,1175605917923541,-0.0053625,0.1588125,-0.011275
1679995617565,1175605920425695,-0.001375,0.137775,-0.011275
1679995617568,1175605922927849,-0.0033,0.117699996,-0.0103124995
1679995617573,1175605925429925,-0.0033,0.0968,-0.0122375
1679995617574,1175605927931849,-2.75E-4,0.0697125,-0.011275
1679995617575,1175605930433925,6.875E-4,0.049775,-0.011275
1679995617578,1175605932936387,6.875E-4,0.0287375,-0.0122375
1679995617580,1175605935438310,6.875E-4,0.00275,-0.016224999
1679995617582,1175605937940387,-2.75E-4,-0.0182875,-0.0171875
1679995617585,1175605940442281,0.0037125,-0.0391875,-0.0202125
1679995617588,1175605942944435,0.0056375,-0.0583,-0.0242
1679995617590,1175605945446512,0.004675,-0.071225,-0.027224999
1679995617592,1175605947948666,0.004675,-0.08525,-0.027224999
1679995617596,1175605950450896,0.0026125,-0.1012,-0.0262625
1679995617597,1175605952952978,0.0037125,-0.1051875,-0.0281875
1679995617600,1175605955454902,0.0056375,-0.110275,-0.03025
1679995617602,1175605957957055,0.0026125,-0.1172875,-0.0323125
1679995617605,1175605960459132,6.875E-4,-0.120175,-0.03025
1679995617609,1175605962961271,0.00165,-0.1271875,-0.027224999
1679995617612,1175605965463425,0.004675,-0.1282875,-0.0253
1679995617613,1175605967965579,0.004675,-0.131175,-0.022275
1679995617615,1175605970467502,0.004675,-0.131175,-0.01925
1679995617618,1175605972969656,0.0066,-0.1252625,-0.0171875
1679995617621,1175605975471723,0.0066,-0.120175,-0.015262499
1679995617623,1175605977973646,0.0056375,-0.115225,-0.0132
1679995617626,1175605980475800,0.0066,-0.1122,-0.011275
1679995617629,1175605982977953,0.0056375,-0.10725,-0.0072875
1679995617630,1175605985480107,0.0037125,-0.098175,-0.00825
1679995617633,1175605987982179,0.004675,-0.0862125,-0.0092124995
1679995617635,1175605990484333,0.0077,-0.0812625,-0.0103124995
1679995617638,1175605992986256,0.0086624995,-0.0702625,-0.0092124995
1679995617640,1175605995488410,0.0077,-0.0611875,-0.0103124995
1679995617643,1175605997990458,0.0116875,-0.0501875,-0.0122375
1679995617647,1175606000492612,0.015675,-0.038225,-0.0122375
1679995617649,1175606002994766,0.0116875,-0.0262625,-0.0132
1679995617651,1175606005496689,0.0086624995,-0.0171875,-0.015262499
1679995617653,1175606007998853,0.0116875,-0.00825,-0.016224999
1679995617656,1175606010500930,0.0166375,-2.75E-4,-0.016224999
1679995617658,1175606013003083,0.010725,0.005775,-0.015262499
1679995617660,1175606015505237,0.013612499,0.01375,-0.0171875
1679995617663,1175606018007146,0.0176,0.0177375,-0.0171875
1679995617665,1175606020509300,0.0176,0.0268125,-0.0171875
1679995617668,1175606023011377,0.015675,0.0297,-0.016224999
1679995617670,1175606025513531,0.013612499,0.032725,-0.0182875
1679995617673,1175606028015463,0.0166375,0.0317625,-0.0202125
1679995617675,1175606030517617,0.0166375,0.0287375,-0.0182875
1679995617679,1175606033019771,0.015675,0.0268125,-0.0182875
1679995617680,1175606035521925,0.013612499,0.022824999,-0.0202125
1679995617684,1175606038024007,0.010725,0.0158125,-0.01925
1679995617686,1175606040526160,0.009625,0.0048125,-0.0182875
1679995617689,1175606043028083,0.0116875,-0.0061875,-0.0202125
1679995617691,1175606045530160,0.009625,-0.0122375,-0.0213125
1679995617692,1175606048032314,0.0077,-0.0202125,-0.01925
1679995617695,1175606050534487,0.009625,-0.0253,-0.0182875
1679995617698,1175606053036641,0.01265,-0.0292875,-0.016224999
1679995617700,1175606055538564,0.015675,-0.032175,-0.015262499
1679995617702,1175606058040718,0.0166375,-0.0372625,-0.0122375
1679995617705,1175606060542776,0.013612499,-0.0512875,-0.0103124995
1679995617708,1175606063044930,0.0116875,-0.0592625,-0.0092124995
1679995617710,1175606065547084,0.015675,-0.065175,-0.0092124995
1679995617712,1175606068049007,0.0196625,-0.076175,-0.00825
1679995617715,1175606070551155,0.010725,-0.0782375,-0.0103124995
1679995617718,1175606073053309,0.010725,-0.0902,-0.0122375
1679995617722,1175606075555386,0.01265,-0.0972125,-0.0132
1679995617723,1175606078057309,0.0037125,-0.099275,-0.016224999
1679995617725,1175606080559463,0.0066,-0.1051875,-0.015262499
1679995617728,1175606083061641,0.0066,-0.1122,-0.016224999
1679995617731,1175606085563718,0.004675,-0.115225,-0.016224999
1679995617733,1175606088065872,0.0026125,-0.1142625,-0.0171875
1679995617735,1175606090568026,0.0056375,-0.111237496,-0.015262499
1679995617737,1175606093069935,0.0037125,-0.1142625,-0.015262499
1679995617740,1175606095572012,0.0026125,-0.110275,-0.0122375
1679995617743,1175606098074242,-2.75E-4,-0.1023,-0.0103124995
1679995617745,1175606100576319,6.875E-4,-0.0952875,-0.0092124995
1679995617748,1175606103078256,-0.001375,-0.088275,-0.00825
1679995617750,1175606105580410,-0.001375,-0.0831875,-0.00825
1679995617753,1175606108082487,-0.0053625,-0.07425,-0.0061875
1679995617755,1175606110584718,-0.0053625,-0.06325,-0.0072875
1679995617760,1175606113086824,-0.0072875,-0.052249998,-0.0042625
1679995617762,1175606115588747,-0.0072875,-0.0422125,-0.0012375
1679995617763,1175606118090901,-0.006325,-0.0281875,-0.0022
1679995617766,1175606120593055,-0.0072875,-0.0182875,-0.00825
1679995617768,1175606123095132,-0.006325,-0.0022,-0.0072875
1679995617770,1175606125597300,-0.0044,0.010725,-0.0042625
1679995617772,1175606128099453,-0.006325,0.0187,-0.0033
1679995617775,1175606130601376,-0.012375,0.0317625,-0.0012375
1679995617779,1175606133103530,-0.0133375,0.0427625,0.0017875
1679995617781,1175606135605623,-0.0103124995,0.043725,6.875E-4
1679995617783,1175606138107777,-0.0072875,0.049775,0.00275
1679995617785,1175606140609700,-0.00935,0.054725,0.0077
1679995617788,1175606143111854,-0.0083875,0.055825,0.0048125
1679995617790,1175606145614008,-0.006325,0.0598125,0.0048125
1679995617793,1175606148116170,-0.0053625,0.0627,0.0077
1679995617797,1175606150618247,-0.006325,0.0598125,0.0037125
1679995617800,1175606153120170,-0.006325,0.0617375,0.0048125
1679995617801,1175606155622339,-0.0033,0.0627,0.0067375
1679995617803,1175606158124416,-0.0044,0.065725,0.0017875
1679995617805,1175606160626569,-0.001375,0.066825,6.875E-4
1679995617808,1175606163128723,0.00165,0.0638,6.875E-4
1679995617810,1175606165630877,0.00165,0.0617375,-0.0012375
1679995617813,1175606168132809,0.0037125,0.0627,-0.0033
1679995617816,1175606170634886,0.0026125,0.0647625,-0.0022
1679995617818,1175606173137040,0.0037125,0.0677875,-0.0022
1679995617821,1175606175639194,0.0066,0.0677875,-0.0022
1679995617823,1175606178141324,0.010725,0.0627,-0.0012375
1679995617825,1175606180643247,0.009625,0.066825,-2.75E-4
1679995617828,1175606183145401,0.010725,0.0708125,6.875E-4
1679995617832,1175606185647478,0.0116875,0.0708125,-0.0012375
1679995617835,1175606188149650,0.01265,0.071775,-0.0012375
1679995617836,1175606190651573,0.0176,0.071775,-2.75E-4
1679995617837,1175606193153958,0.0166375,0.071775,6.875E-4
1679995617840,1175606195655881,0.0187,0.06875,-2.75E-4
1679995617843,1175606198158035,0.02365,0.066825,-2.75E-4
1679995617846,1175606200660108,0.02365,0.0677875,-0.0033
1679995617848,1175606203162031,0.0257125,0.065725,-0.0022
1679995617852,1175606205664185,0.0257125,0.0617375,0.0017875
1679995617856,1175606208166339,0.0276375,0.06875,0.00275
1679995617857,1175606210668507,0.032725,0.0647625,0.0017875
1679995617858,1175606213170584,0.0286,0.060775,0.0037125
1679995617860,1175606215672737,0.0286,0.060775,0.0037125
1679995617863,1175606218174660,0.0297,0.05775,6.875E-4
1679995617865,1175606220676718,0.032725,0.0567875,6.875E-4
1679995617867,1175606223178872,0.032725,0.0567875,0.00275
1679995617872,1175606225681103,0.0336875,0.05775,0.00275
1679995617873,1175606228183180,0.0386375,0.0567875,0.0017875
1679995617875,1175606230685108,0.0386375,0.054725,-2.75E-4
1679995617878,1175606233187262,0.0396,0.0537625,-0.0022
1679995617880,1175606235689339,0.0386375,0.0528,0.0017875
1679995617883,1175606238191262,0.0367125,0.0507375,-0.0022
1679995617885,1175606240693406,0.0416625,0.0477125,-0.0042625
1679995617888,1175606243195790,0.042625,0.0457875,-0.0012375
1679995617890,1175606245697713,0.0416625,0.043725,-0.0022
1679995617893,1175606248199790,0.0367125,0.0397375,-0.0033
1679995617895,1175606250701930,0.037675,0.038775,-0.0012375
1679995617897,1175606253203853,0.0336875,0.032725,-2.75E-4
1679995617900,1175606255706007,0.0336875,0.0347875,-0.0022
1679995617903,1175606258208161,0.0336875,0.0308,-2.75E-4
1679995617905,1175606260710315,0.0276375,0.022824999,-0.0033
1679995617908,1175606263212397,0.0226875,0.0207625,-0.0033
1679995617911,1175606265714320,0.0166375,0.022824999,-2.75E-4
1679995617913,1175606268216474,0.015675,0.0207625,-0.0022
1679995617915,1175606270718551,0.01265,0.0187,-0.0022
1679995617918,1175606273220722,0.0086624995,0.0198,-0.0042625
1679995617921,1175606275722953,0.0026125,0.01375,-0.0042625
1679995617923,1175606278225030,-2.75E-4,0.01375,-0.0042625
1679995617925,1175606280726953,-0.0072875,0.011825,-0.0072875
1679995617929,1175606283229084,-0.0103124995,0.0077,-0.005225
1679995617931,1175606285731161,-0.0143,0.01375,-0.0061875
1679995617932,1175606288233315,-0.023375,0.014712499,-0.0072875
1679995617936,1175606290735224,-0.023375,0.01375,-0.0072875
1679995617938,1175606293237609,-0.0253,0.0198,-0.0061875
1679995617940,1175606295739532,-0.028324999,0.0268125,-0.0022
1679995617943,1175606298241686,-0.0292875,0.0198,-0.0022
1679995617947,1175606300743762,-0.0363,0.0207625,6.875E-4
1679995617950,1175606303245916,-0.0363,0.022824999,0.0048125
1679995617951,1175606305747839,-0.0383625,0.0198,0.0088
1679995617953,1175606308249993,-0.04235,0.0237875,0.0127875
1679995617959,1175606310752142,-0.0433125,0.0287375,0.0187
1679995617959,1175606313254219,-0.044275,0.0237875,0.0226875
1679995617962,1175606315756373,-0.044275,0.0237875,0.02475
1679995617963,1175606318258527,-0.04235,0.0268125,0.027775
1679995617965,1175606320760450,-0.0402875,0.0237875,0.03575
1679995617969,1175606323262580,-0.039325,0.0298375,0.0397375
1679995617971,1175606325764657,-0.0323125,0.033825,0.0446875
1679995617973,1175606328266810,-0.03135,0.0378125,0.0446875
1679995617975,1175606330768734,-0.03135,0.0378125,0.0517
1679995617980,1175606333270882,-0.0292875,0.0408375,0.054725
1679995617982,1175606335773036,-0.022275,0.044825,0.0587125
1679995617984,1175606338275113,-0.022275,0.0457875,0.0598125
1679995617986,1175606340777267,-0.0213125,0.0477125,0.065725
1679995617992,1175606343279200,-0.0213125,0.0488125,0.0697125
1679995617992,1175606345781354,-0.01925,0.0477125,0.0697125
1679995617994,1175606348283431,-0.017324999,0.049775,0.0727375
1679995617996,1175606350785585,-0.01925,0.054725,0.0727375
1679995617999,1175606353287739,-0.0182875,0.0638,0.073699996
1679995618001,1175606355789868,-0.0163625,0.0697125,0.0727375
1679995618003,1175606358291792,-0.015262499,0.0787875,0.0727375
1679995618005,1175606360793868,-0.015262499,0.09075,0.071775
1679995618010,1175606363296022,-0.017324999,0.0968,0.0697125
1679995618010,1175606365797940,-0.0163625,0.1038125,0.0708125
1679995618013,1175606368300325,-0.0143,0.1117875,0.0697125
1679995618015,1175606370802248,-0.011275,0.1188,0.073699996
1679995618018,1175606373304402,-0.0053625,0.12773749,0.0748
1679995618022,1175606375806460,-0.0033,0.1357125,0.073699996
1679995618024,1175606378308614,-2.75E-4,0.13475,0.0787875
1679995618025,1175606380810537,0.004675,0.1368125,0.07975
1679995618030,1175606383312691,0.009625,0.13475,0.0787875
1679995618031,1175606385814845,0.010725,0.1337875,0.082775
1679995618033,1175606388316930,0.015675,0.1337875,0.082775
1679995618035,1175606390819084,0.015675,0.12773749,0.082775
1679995618039,1175606393321238,0.0196625,0.121825,0.07975
1679995618041,1175606395823161,0.0226875,0.117837496,0.0776875
1679995618043,1175606398325219,0.02365,0.1137125,0.0787875
1679995618046,1175606400827373,0.026675,0.1078,0.0787875
1679995618050,1175606403329527,0.0297,0.099825,0.073699996
1679995618052,1175606405831450,0.031625,0.0947375,0.0727375
1679995618053,1175606408333623,0.031625,0.0928125,0.0708125
1679995618056,1175606410835777,0.0336875,0.0858,0.06875
1679995618062,1175606413337854,0.032725,0.0837375,0.0697125
1679995618064,1175606415839777,0.032725,0.0818125,0.0647625
1679995618065,1175606418342151,0.0367125,0.0807125,0.060775
1679995618067,1175606420844074,0.037675,0.077825,0.0567875
1679995618070,1175606423346228,0.037675,0.076725,0.0567875
1679995618071,1175606425848305,0.037675,0.0727375,0.0567875
1679995618073,1175606428350459,0.037675,0.066825,0.054725
1679995618076,1175606430852378,0.0386375,0.0628375,0.054725
1679995618079,1175606433354455,0.0367125,0.0617375,0.0556875
1679995618081,1175606435856686,0.0367125,0.0528,0.05775
1679995618083,1175606438358840,0.0367125,0.0477125,0.05775
1679995618085,1175606440860902,0.037675,0.04675,0.060775
1679995618091,1175606443362825,0.037675,0.04675,0.0617375
1679995618092,1175606445864979,0.0367125,0.0507375,0.0647625
1679995618093,1175606448367055,0.0367125,0.0507375,0.0666875
1679995618097,1175606450869291,0.0367125,0.0537625,0.0708125
1679995618101,1175606453371368,0.0367125,0.0567875,0.0727375
1679995618102,1175606455873522,0.03575,0.0677875,0.073699996
1679995618103,1175606458375445,0.03575,0.0727375,0.0757625
1679995618105,1175606460877599,0.0367125,0.0807125,0.0748
1679995618109,1175606463379695,0.034649998,0.088825,0.07975
1679995618112,1175606465881618,0.037675,0.099825,0.07975
1679995618113,1175606468384003,0.0336875,0.109725,0.0787875
1679995618116,1175606470886156,0.032725,0.1188,0.0787875
1679995618118,1175606473388080,0.0367125,0.1307625,0.0776875
1679995618122,1175606475890141,0.0397375,0.1368125,0.073699996
1679995618124,1175606478392295,0.0416625,0.1408,0.0697125
1679995618126,1175606480894218,0.043725,0.1478125,0.065725
1679995618129,1175606483396381,0.0446875,0.148775,0.0617375
1679995618132,1175606485898535,0.045649998,0.1518,0.05775
1679995618135,1175606488400689,0.0496375,0.1508375,0.054725
1679995618136,1175606490902766,0.0507375,0.1518,0.054725
1679995618140,1175606493404689,0.0507375,0.1508375,0.0477125
1679995618141,1175606495906829,0.0517,0.1467125,0.0427625
1679995618143,1175606498408983,0.0556875,0.142725,0.0407
1679995618146,1175606500911137,0.054725,0.137775,0.0378125
1679995618150,1175606503413213,0.053625,0.1337875,0.0336875
1679995618152,1175606505915372,0.0517,0.1307625,0.0336875
1679995618153,1175606508417295,0.0526625,0.121825,0.0317625
1679995618156,1175606510919372,0.0526625,0.110825,0.0297
1679995618160,1175606513421526,0.053625,0.1007875,0.027775
1679995618165,1175606515923699,0.0526625,0.09075,0.0287375
1679995618167,1175606518425853,0.0507375,0.077825,0.0257125
1679995618170,1175606520927776,0.0517,0.0727375,0.02475
1679995618172,1175606523429930,0.0517,0.0677875,0.0187
1679995618174,1175606525932007,0.0556875,0.060775,0.0116875
1679995618175,1175606528434161,0.05775,0.0507375,0.0067375
1679995618176,1175606530936084,0.059675,0.0457875,0.0037125
1679995618180,1175606533438238,0.059675,0.043725,-0.005225
1679995618181,1175606535940391,0.0606375,0.038775,-0.0122375
1679995618183,1175606538442468,0.0587125,0.0367125,-0.0202125
1679995618185,1175606540944391,0.05775,0.0378125,-0.0232375
1679995618190,1175606543446545,0.05775,0.0408375,-0.0363
1679995618192,1175606545948930,0.056649998,0.0457875,-0.0372625
1679995618193,1175606548450867,0.0556875,0.0528,-0.041249998
1679995618196,1175606550952944,0.054725,0.0567875,-0.0462
1679995618200,1175606553455098,0.054725,0.05775,-0.0501875
1679995618202,1175606555957021,0.05775,0.0628375,-0.0512875
1679995618204,1175606558459103,0.053625,0.0628375,-0.0532125
1679995618206,1175606560961333,0.053625,0.0677875,-0.0532125
1679995618215,1175606563463516,0.05775,0.071775,-0.0501875
1679995618216,1175606565965593,0.056649998,0.0697125,-0.0501875
1679995618218,1175606568467516,0.056649998,0.0628375,-0.0532125
1679995618219,1175606570969670,0.054725,0.0598125,-0.0501875
1679995618221,1175606573471747,0.053625,0.055825,-0.049225
1679995618223,1175606575973901,0.054725,0.049775,-0.0482625
1679995618224,1175606578476040,0.0556875,0.0378125,-0.0452375
1679995618226,1175606580978194,0.0526625,0.0347875,-0.041249998
1679995618232,1175606583480117,0.0507375,0.027775,-0.0391875
1679995618233,1175606585982194,0.048675,0.0237875,-0.0391875
1679995618235,1175606588484348,0.0507375,0.021724999,-0.0352
1679995618236,1175606590986521,0.0496375,0.0207625,-0.0281875
1679995618241,1175606593488444,0.0507375,0.0198,-0.027224999
1679995618242,1175606595990598,0.0507375,0.01375,-0.0281875
1679995618244,1175606598492752,0.0526625,0.0078375,-0.0292875
1679995618247,1175606600994843,0.048675,0.005775,-0.0292875
1679995618250,1175606603496997,0.043725,0.0048125,-0.027224999
1679995618252,1175606605998920,0.042625,8.25E-4,-0.0281875
1679995618253,1175606608500997,0.0407,-0.00825,-0.033275
1679995618256,1175606611003228,0.0407,-0.016224999,-0.0342375
1679995618260,1175606613505392,0.0416625,-0.01925,-0.0363
1679995618263,1175606616007469,0.042625,-0.0292875,-0.038225
1679995618264,1175606618509392,0.0367125,-0.0342375,-0.0372625
1679995618268,1175606621011545,0.0386375,-0.044275,-0.0391875
1679995618272,1175606623513703,0.037675,-0.052249998,-0.0402875
1679995618274,1175606626015780,0.0407,-0.0592625,-0.041249998
1679995618275,1175606628517934,0.0407,-0.0691625,-0.0391875
1679995618277,1175606631020088,0.0386375,-0.0782375,-0.0402875
1679995618280,1175606633522011,0.037675,-0.0831875,-0.041249998
1679995618283,1175606636024165,0.037675,-0.0902,-0.0391875
1679995618285,1175606638526242,0.037675,-0.0972125,-0.0363
1679995618286,1175606641028396,0.03575,-0.104225,-0.0352
1679995618289,1175606643530339,0.037675,-0.110275,-0.0363
1679995618290,1175606646032493,0.037675,-0.1142625,-0.0363
1679995618293,1175606648534646,0.037675,-0.11825,-0.0363
1679995618297,1175606651036723,0.0386375,-0.11825,-0.033275
1679995618298,1175606653538877,0.0367125,-0.11825,-0.0363
1679995618300,1175606656040805,0.0397375,-0.11825,-0.0352
1679995618303,1175606658542959,0.0407,-0.115225,-0.0323125
1679995618307,1175606661045113,0.0407,-0.115225,-0.0323125
1679995618310,1175606663547190,0.03575,-0.1051875,-0.0281875
1679995618311,1175606666049378,0.0287375,-0.0952875,-0.0262625
1679995618313,1175606668551532,0.032725,-0.0862125,-0.0253
1679995618315,1175606671053455,0.03575,-0.077275,-0.0232375
1679995618318,1175606673555532,0.03575,-0.065175,-0.0202125
1679995618322,1175606676057691,0.0287375,-0.0572,-0.0202125
1679995618324,1175606678559844,0.0257125,-0.0471625,-0.016224999
1679995618326,1175606681061998,0.026675,-0.038225,-0.0132
1679995618329,1175606683563921,0.026675,-0.032175,-0.015262499
1679995618331,1175606686066075,0.02365,-0.0242,-0.0122375
1679995618333,1175606688568128,0.0226875,-0.010175,-0.0061875
1679995618336,1175606691070282,0.02475,-0.0022,-0.0042625
1679995618340,1175606693572436,0.02365,0.005775,-0.0022
1679995618341,1175606696074359,0.0226875,0.0188375,-0.0033
1679995618343,1175606698576546,0.020624999,0.0237875,-0.0022
1679995618346,1175606701078623,0.0196625,0.0317625,6.875E-4
1679995618350,1175606703580777,0.0226875,0.0378125,0.0048125
1679995618351,1175606706082700,0.0226875,0.038775,0.0048125
1679995618353,1175606708584867,0.021724999,0.0408375,0.005775
1679995618356,1175606711087021,0.0196625,0.0397375,0.0097624995
1679995618360,1175606713589098,0.020624999,0.0427625,0.0088
1679995618363,1175606716091252,0.0166375,0.0427625,0.0097624995
1679995618364,1175606718593420,0.0166375,0.0397375,0.0067375
1679995618366,1175606721095343,0.0177375,0.0378125,0.0077
1679995618370,1175606723597497,0.0196625,0.0378125,0.010725
1679995618371,1175606726099574,0.0187,0.0308,0.0077
1679995618374,1175606728601723,0.0166375,0.02475,0.0077
1679995618376,1175606731103646,0.0177375,0.0268125,0.0088
1679995618379,1175606733606030,0.01375,0.0237875,0.0067375
1679995618381,1175606736107953,0.0116875,0.0188375,0.0097624995
1679995618384,1175606738610030,0.010725,0.0127875,0.0077
1679995618386,1175606741111944,0.010725,0.0078375,0.0067375
1679995618389,1175606743614329,0.01265,8.25E-4,0.0077
1679995618391,1175606746116252,0.01375,-0.0042625,0.005775
1679995618394,1175606748618406,0.01375,-0.010175,0.0048125
1679995618397,1175606751120492,0.0166375,-0.016224999,0.0048125
1679995618401,1175606753622646,0.01265,-0.0242,0.0048125
1679995618402,1175606756124800,0.01265,-0.03025,0.00275
1679995618404,1175606758626723,0.01265,-0.038225,0.0017875
