system_ts_ms, sensor_ts_ns, accX, accY, accZ
1679995613474,1175601829503194,2.2350001,3.18105,9.189
1679995613476,1175601832005348,2.2470002,3.141,9.30405
1679995613480,1175601834507416,2.36595,3.21495,9.26805
1679995613482,1175601837009570,2.22,3.1309502,9.333
1679995613484,1175601839511724,2.24895,3.0619502,9.23505
1679995613494,1175601842013647,2.2780502,3.17895,9.27795
1679995613494,1175601844515724,2.36205,3.141,9.14595
1679995613494,1175601847017873,2.32605,3.0900002,9.25905
1679995613494,1175601849520027,2.4070501,3.1930501,9.3810005
1679995613496,1175601852022180,2.3809502,3.2269502,9.217951
1679995613499,1175601854524104,2.43105,3.2320502,9.232051
1679995613501,1175601857026262,2.4190502,3.1669502,9.184951
1679995613505,1175601859528416,2.4019501,3.2340002,9.285001
1679995613506,1175601862030493,2.436,3.2080503,9.264001
1679995613509,1175601864532416,2.4070501,3.2050502,9.216001
1679995613511,1175601867034569,2.388,3.1260002,9.288
1679995613513,1175601869536723,2.33505,3.2080503,9.187051
1679995613517,1175601872038877,2.46495,3.1690502,9.33495
1679995613521,1175601874540954,2.4120002,3.07095,9.35505
1679995613523,1175601877043113,2.42895,3.1360502,9.204
1679995613524,1175601879545036,2.4,3.1309502,9.232051
1679995613526,1175601882047189,2.457,3.0979502,9.28995
1679995613529,1175601884549343,2.5099502,3.0949502,9.09795
1679995613531,1175601887051497,2.4430501,3.0589502,9.237
1679995613533,1175601889553593,2.3760002,3.1339502,9.220051
1679995613538,1175601892055516,2.35395,3.045,9.313951
1679995613539,1175601894557670,2.4720001,3.14805,9.24405
1679995613541,1175601897059747,2.4840002,3.1290002,9.27795
1679995613543,1175601899561935,2.3860502,3.0550501,9.213
1679995613546,1175601902064089,2.29005,3.0979502,9.309
1679995613549,1175601904566243,2.29905,3.1600502,9.22305
1679995613551,1175601907068166,2.35695,3.0570002,9.321
1679995613556,1175601909570333,2.32605,3.07605,9.26595
1679995613557,1175601912072410,2.259,3.05205,9.213
1679995613559,1175601914574564,2.32605,3.14295,9.10305
1679995613562,1175601917076487,2.33295,3.08295,9.193951
1679995613564,1175601919578872,2.2470002,3.1240501,9.249001
1679995613566,1175601922080800,2.28495,3.17895,9.189
1679995613572,1175601924582877,2.328,3.1290002,9.217951
1679995613573,1175601927085031,2.3110502,3.1360502,9.156
1679995613574,1175601929587185,2.32605,3.0499501,9.34305
1679995613576,1175601932089108,2.32605,3.0949502,9.205951
1679995613579,1175601934591262,2.3500502,3.1000502,9.316051
1679995613581,1175601937093339,2.283,3.1219501,9.349951
1679995613584,1175601939595492,2.2369502,3.0900002,9.36705
1679995613589,1175601942097646,2.29695,3.05205,9.35505
1679995613590,1175601944599584,2.3860502,3.04005,9.325951
1679995613593,1175601947101738,2.26305,3.1189501,9.34305
1679995613594,1175601949603892,2.25195,3.0859501,9.357
1679995613596,1175601952105969,2.187,3.0640502,9.361951
1679995613599,1175601954607906,2.2080002,3.08295,9.37395
1679995613601,1175601957110060,2.1700501,3.114,9.346951
1679995613607,1175601959612214,2.26095,3.04005,9.228001
1679995613607,1175601962114368,2.187,3.0949502,9.283051
1679995613609,1175601964616474,2.2110002,3.0949502,9.264001
1679995613612,1175601967118627,2.196,3.1579502,9.232051
1679995613614,1175601969620550,2.223,3.17895,9.160951
1679995613616,1175601972122704,2.2420502,3.1720502,9.216001
1679995613622,1175601974624766,2.25195,3.0229502,9.25905
1679995613623,1175601977126920,2.2800002,3.0280502,9.1369505
1679995613624,1175601979629074,2.19405,3.1309502,9.313951
1679995613626,1175601982131228,2.1990001,3.114,9.307051
1679995613631,1175601984633147,2.3400002,3.0880501,9.23505
1679995613633,1175601987135301,2.319,3.10695,9.283051
1679995613635,1175601989637378,2.2729502,3.1189501,9.27105
1679995613640,1175601992139532,2.256,3.1669502,9.283051
1679995613641,1175601994641689,2.3500502,3.153,9.352051
1679995613641,1175601997143843,2.3449502,3.1549501,9.252001
1679995613644,1175601999645766,2.3860502,3.15,9.184951
1679995613646,1175602002147920,2.3760002,3.15,9.3
1679995613649,1175602004649993,2.33505,3.1669502,9.1699505
1679995613651,1175602007151916,2.26605,3.28395,9.37395
1679995613656,1175602009654070,2.4120002,3.14805,9.273001
1679995613656,1175602012156224,2.33295,3.1930501,9.24195
1679995613659,1175602014658392,2.4,3.1189501,9.26595
1679995613661,1175602017160469,2.3160002,3.0949502,9.261001
1679995613664,1175602019662623,2.33295,3.1020002,9.27105
1679995613668,1175602022164546,2.2710001,3.0949502,9.40005
1679995613673,1175602024666632,2.24895,3.1260002,9.199051
1679995613674,1175602027168785,2.3160002,3.17895,9.297001
1679995613675,1175602029671016,2.319,3.0900002,9.192
1679995613676,1175602032173093,2.2750502,3.0880501,9.181951
1679995613679,1175602034675016,2.36205,3.0900002,9.175051
1679995613682,1175602037177180,2.36205,3.1219501,9.229951
1679995613684,1175602039679334,2.4120002,3.0190501,9.261001
1679995613691,1175602042181411,2.3830502,3.141,9.34305
1679995613692,1175602044683565,2.39805,3.0589502,9.361951
1679995613693,1175602047185704,2.3400002,3.0190501,9.405001
1679995613694,1175602049687628,2.39505,3.0210001,9.364051
1679995613697,1175602052189705,2.3089502,3.0330002,9.23505
1679995613699,1175602054691858,2.364,2.9850001,9.30405
1679995613701,1175602057193978,2.3089502,3.1000502,9.345
1679995613705,1175602059695901,2.2710001,3.05205,9.27795
1679995613707,1175602062198055,2.3089502,3.081,9.22305
1679995613709,1175602064700209,2.29905,3.0900002,9.331051
1679995613712,1175602067202257,2.32605,3.0589502,9.184951
1679995613714,1175602069704411,2.2680001,3.08295,9.249001
1679995613717,1175602072206334,2.2800002,3.10695,9.27795
1679995613722,1175602074708488,2.295,3.1930501,9.249001
1679995613723,1175602077210546,2.21805,3.0979502,9.141001
1679995613724,1175602079712776,2.32605,3.0330002,9.196951
1679995613726,1175602082214853,2.292,3.1020002,9.249001
1679995613730,1175602084717007,2.26095,3.0880501,9.196951
1679995613731,1175602087218930,2.22795,3.1189501,9.228001
1679995613734,1175602089721007,2.4049501,3.186,9.216001
1679995613738,1175602092223161,2.29695,3.0259502,9.148951
1679995613739,1175602094725392,2.292,3.1890001,9.196951
1679995613742,1175602097227469,2.29695,3.1650002,9.204
1679995613745,1175602099729392,2.2729502,3.10695,9.261001
1679995613746,1175602102231546,2.32605,3.0979502,9.237
1679995613749,1175602104733623,2.29905,3.1380002,9.261001
1679995613751,1175602107235776,2.32605,3.0619502,9.285001
1679995613755,1175602109737690,2.22495,3.14595,9.28005
1679995613756,1175602112240074,2.4049501,3.249,9.25905
1679995613759,1175602114741997,2.25195,3.2220001,9.35505
1679995613761,1175602117244074,2.2369502,3.1720502,9.31095
1679995613764,1175602119746219,2.2750502,3.1360502,9.319051
1679995613767,1175602122248373,2.256,3.1620002,9.333
1679995613772,1175602124750296,2.319,3.1290002,9.337951
1679995613773,1175602127252450,2.3860502,3.08295,9.30195
1679995613774,1175602129754575,2.3160002,3.1240501,9.321
1679995613776,1175602132256652,2.3830502,3.0880501,9.32295
1679995613780,1175602134758805,2.2750502,3.2340002,9.349951
1679995613782,1175602137260729,2.331,3.045,9.32295
1679995613785,1175602139762896,2.352,3.177,9.35505
1679995613789,1175602142264973,2.364,3.0979502,9.252001
1679995613790,1175602144767204,2.29695,3.141,9.288
1679995613792,1175602147269281,2.3089502,3.1380002,9.189
1679995613794,1175602149771435,2.32305,3.0979502,9.193951
1679995613797,1175602152273334,2.33295,3.1219501,9.141001
1679995613799,1175602154775488,2.26605,3.1890001,9.283051
1679995613801,1175602157277565,2.2680001,3.141,9.217951
1679995613806,1175602159779719,2.3860502,3.141,9.25905
1679995613806,1175602162281853,2.292,3.1050003,9.283051
1679995613809,1175602164783777,2.2729502,3.1740003,9.181951
1679995613812,1175602167285853,2.3160002,3.0880501,9.316051
1679995613814,1175602169788007,2.328,3.1050003,9.208051
1679995613819,1175602172290175,2.3760002,3.1909502,9.297001
1679995613821,1175602174792329,2.3470502,3.1219501,9.32295
1679995613827,1175602177294252,2.3760002,3.10695,9.273001
1679995613828,1175602179796406,2.4550502,3.117,9.41205
1679995613828,1175602182298483,2.43105,3.1309502,9.382951
1679995613829,1175602184800406,2.3809502,3.14805,9.39105
1679995613831,1175602187302560,2.3740501,3.1290002,9.33495
1679995613834,1175602189804714,2.33505,3.18405,9.40995
1679995613839,1175602192306868,2.3860502,3.0880501,9.382951
1679995613839,1175602194808930,2.3760002,3.15,9.316051
1679995613841,1175602197311084,2.36205,3.0880501,9.295051
1679995613846,1175602199813007,2.39805,3.1309502,9.285001
1679995613846,1175602202315161,2.2800002,3.18105,9.285001
1679995613849,1175602204817286,2.3040001,3.081,9.28005
1679995613851,1175602207319440,2.2440002,3.04305,9.276
1679995613856,1175602209821517,2.256,3.078,9.249001
1679995613857,1175602212323671,2.295,3.1240501,9.204
1679995613860,1175602214825604,2.2350001,3.14805,9.156
1679995613861,1175602217327681,2.28705,3.0880501,9.328051
1679995613864,1175602219829835,2.292,3.1740003,9.25605
1679995613866,1175602222332065,2.32605,3.0550501,9.220051
1679995613870,1175602224834142,2.29005,3.0589502,9.26595
1679995613872,1175602227336093,2.22495,3.1050003,9.132
1679995613874,1175602229838247,2.24895,3.0859501,9.22305
1679995613876,1175602232340324,2.29695,3.117,9.25905
1679995613879,1175602234842478,2.24895,3.078,9.26595
1679995613882,1175602237344632,2.223,3.18105,9.201
1679995613885,1175602239846786,2.3070002,3.1309502,9.21105
1679995613887,1175602242348709,2.3449502,3.1909502,9.328051
1679995613890,1175602244850863,2.3160002,3.18405,9.141001
1679995613893,1175602247352930,2.2729502,3.1740003,9.26595
1679995613895,1175602249855083,2.25405,3.2370002,9.261001
1679995613897,1175602252357007,2.3860502,3.0499501,9.288
1679995613899,1175602254859160,2.3689501,3.0949502,9.201
1679995613902,1175602257361314,2.35395,3.1380002,9.27105
1679995613904,1175602259863448,2.32305,3.1360502,9.27105
1679995613907,1175602262365525,2.3689501,3.0900002,9.25605
1679995613910,1175602264867448,2.32095,3.11205,9.285001
1679995613912,1175602267369602,2.3449502,3.1290002,9.321
1679995613915,1175602269871660,2.4049501,3.10995,9.30195
1679995613917,1175602272373814,2.3860502,3.1360502,9.24405
1679995613920,1175602274875968,2.4720001,3.0859501,9.249001
1679995613922,1175602277378121,2.38995,3.07605,9.26595
1679995613925,1175602279880040,2.46495,3.00705,9.309
1679995613928,1175602282382116,2.3760002,3.0640502,9.249001
1679995613931,1175602284884270,2.4070501,3.0259502,9.25395
1679995613933,1175602287386501,2.4499502,3.1020002,9.184951
1679995613934,1175602289888578,2.4139502,3.03795,9.14595
1679995613937,1175602292390516,2.3110502,3.17895,9.288
1679995613940,1175602294892670,2.3689501,3.03795,9.328051
1679995613942,1175602297394747,2.29005,3.0619502,9.32295
1679995613946,1175602299896901,2.33295,3.07605,9.24405
1679995613950,1175602302398843,2.30205,3.1600502,9.24405
1679995613952,1175602304901227,2.2750502,3.05205,9.192
1679995613953,1175602307403151,2.3089502,3.11205,9.24405
1679995613955,1175602309905227,2.29905,3.045,9.225
1679995613957,1175602312407376,2.2780502,3.0619502,9.228001
1679995613960,1175602314909530,2.2750502,3.0690002,9.204
1679995613962,1175602317411453,2.2399502,3.0259502,9.313951
1679995613964,1175602319913530,2.2420502,3.1050003,9.232051
1679995613968,1175602322415781,2.2710001,3.177,9.108001
1679995613971,1175602324917858,2.331,3.078,9.229951
1679995613972,1175602327420012,2.30205,3.1290002,9.175051
1679995613974,1175602329921935,2.29005,3.0979502,9.27105
1679995613977,1175602332424113,2.388,3.1339502,9.22305
1679995613979,1175602334926190,2.35395,3.0930002,9.288
1679995613981,1175602337428343,2.2710001,3.1309502,9.240001
1679995613984,1175602339930497,2.1720002,3.11205,9.42195
1679995613988,1175602342432660,2.2440002,3.1339502,9.28005
1679995613990,1175602344934583,2.25195,3.1020002,9.364051
1679995613992,1175602347436660,2.232,3.078,9.26805
1679995613996,1175602349938819,2.2399502,3.1020002,9.264001
1679995613997,1175602352440742,2.28705,3.0949502,9.175051
1679995614000,1175602354943127,2.2800002,3.117,9.295051
1679995614002,1175602357445050,2.295,3.117,9.24405
1679995614005,1175602359947213,2.32605,3.1909502,9.295051
1679995614007,1175602362449290,2.4169502,3.1260002,9.30195
1679995614010,1175602364951443,2.3400002,3.07095,9.24195
1679995614012,1175602367453366,2.436,3.0979502,9.31095
1679995614014,1175602369955751,2.3089502,3.1000502,9.39105
1679995614017,1175602372457674,2.32305,3.1309502,9.27105
1679995614019,1175602374959751,2.4019501,3.1669502,9.208051
1679995614022,1175602377461905,2.36205,3.0979502,9.285001
1679995614025,1175602379963828,2.364,3.07605,9.337951
1679995614028,1175602382466218,2.22795,3.10995,9.28995
1679995614030,1175602384968141,2.2800002,3.2029502,9.321
1679995614032,1175602387470295,2.29905,3.1309502,9.28005
1679995614034,1175602389972372,2.3760002,3.0859501,9.309
1679995614037,1175602392474295,2.283,3.117,9.357
1679995614039,1175602394976458,2.3089502,3.1960502,9.357
1679995614044,1175602397478843,2.24895,3.07395,9.349951
1679995614046,1175602399980766,2.259,3.07395,9.27105
1679995614048,1175602402482843,2.283,3.0690002,9.337951
1679995614050,1175602404985011,2.1679502,3.07395,9.261001
1679995614052,1175602407486934,2.223,3.10695,9.213
1679995614055,1175602409989088,2.21805,3.14595,9.23505
1679995614057,1175602412491165,2.2369502,3.0670502,9.208051
1679995614059,1175602414993406,2.196,3.1650002,9.177
1679995614062,1175602417495483,2.283,3.07395,9.193951
1679995614064,1175602419997406,2.32305,3.1240501,9.249001
1679995614069,1175602422499559,2.2110002,3.1020002,9.193951
1679995614070,1175602425001741,2.319,3.0619502,9.28995
1679995614072,1175602427503818,2.33295,3.14295,9.192
1679995614074,1175602430005741,2.3689501,3.0499501,9.283051
1679995614077,1175602432508126,2.35395,3.114,9.33495
1679995614081,1175602435010314,2.259,3.1669502,9.181951
1679995614083,1175602437512237,2.28495,3.1050003,9.26805
1679995614085,1175602440014314,2.26605,3.1240501,9.24195
1679995614087,1175602442516468,2.3710501,3.1549501,9.26595
1679995614090,1175602445018391,2.35395,3.14595,9.24195
1679995614092,1175602447520545,2.4,3.10695,9.276
1679995614096,1175602450022698,2.3830502,3.0979502,9.232051
1679995614098,1175602452524852,2.39295,3.10695,9.21105
1679995614117,1175602455026929,2.3400002,3.08295,9.288
1679995614117,1175602457528852,2.3140502,3.117,9.229951
1679995614117,1175602460031006,2.457,3.11205,9.309
1679995614117,1175602462533160,2.3760002,3.1309502,9.220051
1679995614118,1175602465035314,2.2440002,3.141,9.288
1679995614118,1175602467537386,2.4,3.1290002,9.316051
1679995614118,1175602470039540,2.3110502,3.1740003,9.187051
1679995614119,1175602472541463,2.42595,3.1339502,9.172951
1679995614123,1175602475042535,2.4190502,3.21495,9.204
1679995614123,1175602477543612,2.39805,3.1240501,9.229951
1679995614124,1175602480047919,2.35395,3.1050003,9.264001
1679995614127,1175602482549996,2.42205,3.1620002,9.199051
1679995614130,1175602485052150,2.3779502,3.1260002,9.26595
1679995614132,1175602487554073,2.33295,3.18405,9.28005
1679995614134,1175602490056208,2.32605,3.2220001,9.33495
1679995614137,1175602492558285,2.32305,3.2080503,9.25905
1679995614139,1175602495060439,2.388,3.15,9.25905
1679995614141,1175602497562593,2.30205,3.177,9.28995
1679995614145,1175602500064516,2.3089502,3.0900002,9.32295
1679995614146,1175602502566651,2.2800002,3.1600502,9.208051
1679995614149,1175602505068728,2.25195,3.141,9.352051
1679995614152,1175602507570881,2.2750502,3.1930501,9.405001
1679995614155,1175602510072794,2.22795,3.1020002,9.328051
1679995614157,1175602512574948,2.2800002,3.1980002,9.346951
1679995614160,1175602515077102,2.259,3.0979502,9.309
1679995614162,1175602517579256,2.3110502,3.1360502,9.345
1679995614164,1175602520081333,2.26605,3.153,9.24195
1679995614167,1175602522583487,2.223,3.1189501,9.328051
1679995614169,1175602525085410,2.2729502,3.1050003,9.313951
1679995614172,1175602527587487,2.23005,3.1600502,9.352051
1679995614174,1175602530089718,2.36595,3.1020002,9.264001
1679995614177,1175602532591810,2.30205,3.1309502,9.25905
1679995614179,1175602535093963,2.30205,3.0310502,9.27105
1679995614182,1175602537595886,2.32095,3.1579502,9.276
1679995614184,1175602540098040,2.3430002,3.14295,9.261001
1679995614188,1175602542600131,2.259,3.0900002,9.316051
1679995614190,1175602545102054,2.4019501,3.1309502,9.201
1679995614193,1175602547604439,2.36205,3.1260002,9.307051
1679995614195,1175602550106593,2.2750502,3.0880501,9.192
1679995614197,1175602552608516,2.32605,3.10695,9.28995
1679995614199,1175602555110593,2.2350001,3.1720502,9.285001
1679995614201,1175602557612747,2.2039502,3.10695,9.228001
1679995614204,1175602560114670,2.2110002,3.078,9.196951
1679995614207,1175602562616824,2.17995,3.10995,9.232051
1679995614210,1175602565118963,2.1409502,3.114,9.216001
1679995614212,1175602567621117,2.2800002,3.10695,9.172951
1679995614215,1175602570123194,2.3500502,3.1579502,9.192
1679995614217,1175602572625117,2.35395,3.0570002,9.26805
1679995614220,1175602575127271,2.352,3.11205,9.240001
1679995614222,1175602577629425,2.3779502,3.05205,9.204
1679995614224,1175602580131579,2.4409502,3.10695,9.28005
1679995614227,1175602582633656,2.3689501,3.1549501,9.288
1679995614231,1175602585135815,2.4190502,3.1290002,9.313951
1679995614233,1175602587637738,2.33295,3.153,9.29205
1679995614235,1175602590139892,2.436,3.0880501,9.24705
1679995614237,1175602592642045,2.3400002,3.177,9.285001
1679995614240,1175602595144118,2.3430002,3.14295,9.307051
1679995614242,1175602597646272,2.364,3.1290002,9.4140005
1679995614244,1175602600148195,2.3040001,3.0859501,9.27105
1679995614247,1175602602650349,2.295,3.153,9.333
1679995614249,1175602605152430,2.295,3.117,9.264001
1679995614252,1175602607654661,2.3400002,3.1360502,9.35505
1679995614254,1175602610156738,2.3380501,3.10995,9.288
1679995614257,1175602612658661,2.36595,3.1309502,9.37605
1679995614260,1175602615160815,2.3760002,3.15,9.309
1679995614262,1175602617662969,2.29905,3.15,9.337951
1679995614264,1175602620165045,2.33295,3.0670502,9.358951
1679995614268,1175602622666969,2.29905,3.1720502,9.30195
1679995614271,1175602625169353,2.32605,3.1050003,9.25905
1679995614272,1175602627671276,2.29695,3.1669502,9.33495
1679995614275,1175602630173430,2.26305,3.1690502,9.313951
1679995614277,1175602632675507,2.35905,3.1000502,9.27105
1679995614280,1175602635177680,2.28705,3.177,9.273001
1679995614282,1175602637679603,2.26605,3.0880501,9.394951
1679995614285,1175602640181757,2.22495,3.25605,9.240001
1679995614287,1175602642683911,2.25405,3.186,9.313951
1679995614290,1175602645186056,2.26305,3.1260002,9.27105
1679995614292,1175602647688132,2.283,3.15,9.201
1679995614295,1175602650190056,2.3160002,3.1620002,9.23505
1679995614297,1175602652692209,2.3160002,3.1930501,9.264001
1679995614299,1175602655194286,2.2680001,3.2959502,9.24195
1679995614302,1175602657696546,2.292,3.078,9.228001
1679995614306,1175602660198623,2.35395,3.2629502,9.252001
1679995614307,1175602662700777,2.3140502,3.141,9.23505
1679995614310,1175602665202695,2.3110502,3.1690502,9.23505
1679995614312,1175602667704772,2.26605,3.1309502,9.208051
1679995614315,1175602670206926,2.4070501,3.2220001,9.217951
1679995614317,1175602672709080,2.28495,3.10995,9.29205
1679995614320,1175602675211233,2.2680001,3.1380002,9.237
1679995614322,1175602677713166,2.3110502,3.0880501,9.228001
1679995614324,1175602680215319,2.3430002,3.1020002,9.228001
1679995614328,1175602682717396,2.36205,3.1579502,9.192
1679995614330,1175602685219550,2.35695,3.18405,9.252001
1679995614332,1175602687721459,2.3710501,3.1189501,9.26805
1679995614336,1175602690223844,2.259,3.0880501,9.297001
1679995614338,1175602692725767,2.295,3.0670502,9.261001
1679995614340,1175602695227921,2.33295,3.01095,9.25605
1679995614344,1175602697729974,2.3040001,3.14595,9.313951
1679995614346,1175602700232128,2.2800002,3.153,9.27105
1679995614348,1175602702734051,2.2399502,3.1219501,9.232051
1679995614349,1175602705236205,2.3040001,3.1260002,9.199051
1679995614352,1175602707738358,2.3449502,3.2050502,9.273001
1679995614355,1175602710240425,2.3449502,3.1740003,9.264001
1679995614357,1175602712742579,2.292,3.18105,9.283051
1679995614360,1175602715244733,2.33295,3.1930501,9.38805
1679995614363,1175602717746656,2.3040001,3.2050502,9.27105
1679995614364,1175602720248733,2.29695,3.21495,9.28995
1679995614367,1175602722750964,2.3400002,3.1309502,9.24705
1679995614369,1175602725253041,2.33295,3.1960502,9.23505
1679995614372,1175602727755195,2.352,3.1309502,9.237
1679995614374,1175602730257118,2.3140502,3.1669502,9.276
1679995614379,1175602732759277,2.4100502,3.141,9.232051
1679995614381,1175602735261353,2.4550502,3.1309502,9.273001
1679995614383,1175602737763277,2.4,3.153,9.24705
1679995614384,1175602740265661,2.3710501,3.1669502,9.28995
1679995614387,1175602742767801,2.5099502,3.07395,9.184951
1679995614390,1175602745269724,2.4120002,3.1650002,9.249001
1679995614392,1175602747771801,2.39295,3.1000502,9.261001
1679995614395,1175602750273955,2.4120002,3.141,9.28005
1679995614398,1175602752776088,2.3760002,3.18405,9.187051
1679995614400,1175602755278011,2.328,3.045,9.175051
1679995614402,1175602757780165,2.3760002,3.1720502,9.14595
1679995614404,1175602760282319,2.352,3.2029502,9.117001
1679995614408,1175602762784381,2.42595,3.17895,9.192
1679995614410,1175602765286535,2.4499502,3.1020002,9.3
1679995614412,1175602767788458,2.3470502,3.2010002,9.22305
1679995614415,1175602770290612,2.3449502,3.186,9.240001
1679995614419,1175602772792751,2.35395,3.177,9.205951
1679995614421,1175602775294828,2.3400002,3.2440503,9.201
1679995614423,1175602777796982,2.39805,3.14805,9.144
1679995614427,1175602780299136,2.4190502,3.2220001,9.14595
1679995614430,1175602782801059,2.32305,3.14295,9.13395
1679995614432,1175602785303136,2.3110502,3.1549501,9.13395
1679995614433,1175602787805290,2.33295,3.1600502,9.192
1679995614435,1175602790307443,2.33295,3.1339502,9.25395
1679995614437,1175602792809367,2.29905,3.1690502,9.22305
1679995614440,1175602795311506,2.35395,3.141,9.205951
1679995614442,1175602797813660,2.3160002,3.186,9.28005
1679995614445,1175602800315737,2.30205,3.2050502,9.175051
1679995614447,1175602802817660,2.319,3.2340002,9.177
1679995614450,1175602805319785,2.3380501,3.2220001,9.213
1679995614452,1175602807821939,2.223,3.14805,9.187051
1679995614458,1175602810324093,2.32305,3.246,9.27795
1679995614459,1175602812826170,2.2039502,3.17895,9.181951
1679995614461,1175602815328339,2.2710001,3.1650002,9.38805
1679995614463,1175602817830492,2.2680001,3.246,9.297001
1679995614465,1175602820332415,2.2369502,3.0979502,9.232051
1679995614468,1175602822834569,2.163,3.186,9.43095
1679995614470,1175602825336646,2.319,3.141,9.37605
1679995614472,1175602827838771,2.35395,3.1360502,9.283051
1679995614475,1175602830340694,2.2420502,3.1360502,9.201
1679995614477,1175602832843079,2.2780502,3.07095,9.28005
1679995614479,1175602835345002,2.3110502,3.15,9.27795
1679995614484,1175602837847136,2.26605,3.14805,9.316051
1679995614486,1175602840349213,2.2729502,3.1339502,9.26595
1679995614488,1175602842851367,2.33295,3.1309502,9.337951
1679995614490,1175602845353290,2.30205,3.177,9.31095
1679995614493,1175602847855367,2.3740501,3.1579502,9.25605
1679995614495,1175602850357583,2.36205,3.0670502,9.25605
1679995614497,1175602852859737,2.295,3.15,9.189
1679995614500,1175602855361814,2.39505,3.0589502,9.28005
1679995614502,1175602857863737,2.3449502,3.0640502,9.340051
1679995614504,1175602860365905,2.388,3.11205,9.196951
1679995614507,1175602862868059,2.39805,3.0880501,9.252001
1679995614509,1175602865370136,2.3430002,3.1600502,9.297001
1679995614512,1175602867872290,2.3779502,3.10995,9.321
1679995614515,1175602870374463,2.42895,3.0619502,9.25605
1679995614517,1175602872876386,2.4019501,3.114,9.28005
1679995614520,1175602875378463,2.4550502,3.1219501,9.261001
1679995614522,1175602877880616,2.364,3.1690502,9.229951
1679995614525,1175602880382770,2.3110502,3.1020002,9.249001
1679995614529,1175602882884924,2.469,3.0690002,9.288
1679995614532,1175602885386847,2.4790502,3.15,9.283051
1679995614534,1175602887889001,2.39805,3.1669502,9.316051
1679995614536,1175602890391078,2.4499502,3.1260002,9.39105
1679995614538,1175602892893228,2.4049501,3.07395,9.181951
1679995614540,1175602895395151,2.42205,3.0619502,9.217951
1679995614542,1175602897897305,2.3760002,3.1020002,9.175051
1679995614545,1175602900399459,2.3500502,3.10695,9.31095
1679995614547,1175602902901536,2.3070002,3.0280502,9.369
1679995614550,1175602905403689,2.2750502,3.1360502,9.175051
1679995614552,1175602907905843,2.2800002,3.1050003,9.309
1679995614555,1175602910407766,2.29695,3.1309502,9.32295
1679995614558,1175602912909857,2.32605,3.0550501,9.24195
1679995614562,1175602915412011,2.2750502,3.14595,9.321
1679995614564,1175602917914165,2.2729502,3.0640502,9.28995
1679995614566,1175602920416319,2.1409502,3.03795,9.309
1679995614568,1175602922918257,2.35905,3.0949502,9.24195
1679995614571,1175602925420411,2.283,3.009,9.30405
1679995614573,1175602927922488,2.3089502,3.1020002,9.393001
1679995614575,1175602930424411,2.26605,3.078,9.249001
1679995614577,1175602932926810,2.196,3.0900002,9.32295
1679995614580,1175602935428964,2.21595,3.1360502,9.25395
1679995614582,1175602937930887,2.2729502,3.081,9.43095
1679995614585,1175602940432964,2.1990001,3.17895,9.27795
1679995614587,1175602942935142,2.18895,3.10695,9.205951
1679995614590,1175602945437296,2.23005,3.045,9.240001
1679995614592,1175602947939219,2.1990001,3.07095,9.346951
1679995614595,1175602950441373,2.25405,3.18405,9.4140005
1679995614597,1175602952943508,2.2680001,3.2220001,9.328051
1679995614600,1175602955445585,2.2060502,3.2580001,9.264001
1679995614602,1175602957947739,2.26605,3.14805,9.249001
1679995614606,1175602960449662,2.33505,3.153,9.29205
1679995614608,1175602962951839,2.22795,3.17895,9.321
1679995614611,1175602965453993,2.3430002,3.1690502,9.36705
1679995614613,1175602967956147,2.2729502,3.1600502,9.193951
1679995614615,1175602970458224,2.3140502,3.2410502,9.22305
1679995614617,1175602972960378,2.2440002,3.07095,9.18
1679995614620,1175602975462315,2.295,3.0859501,9.29205
1679995614622,1175602977964392,2.25405,3.1890001,9.225
1679995614625,1175602980466546,2.259,3.1650002,9.24195
1679995614628,1175602982968700,2.25195,3.0979502,9.24195
1679995614631,1175602985470844,2.3760002,3.11205,9.120001
1679995614633,1175602987972767,2.38995,3.0330002,9.30405
1679995614635,1175602990474920,2.3070002,3.1189501,9.25605
1679995614637,1175602992976997,2.3779502,3.10995,9.43395
1679995614640,1175602995479184,2.29695,3.07395,9.175051
1679995614645,1175602997981107,2.3430002,3.1290002,9.196951
1679995614647,1175603000483492,2.39295,3.0859501,9.193951
1679995614649,1175603002985415,2.3449502,3.1650002,9.193951
1679995614654,1175603005487598,2.3160002,3.1219501,9.192
1679995614657,1175603007989675,2.352,3.081,9.165
1679995614659,1175603010491598,2.3380501,3.0979502,9.217951
1679995614663,1175603012993752,2.3089502,3.14595,9.177
1679995614665,1175603015496155,2.3689501,3.07395,9.28005
1679995614667,1175603017998078,2.3500502,3.0930002,9.193951
1679995614669,1175603020500155,2.352,3.14805,9.252001
1679995614671,1175603023002309,2.388,3.0979502,9.25395
1679995614674,1175603025504232,2.352,3.1309502,9.297001
1679995614676,1175603028006372,2.39295,3.117,9.27105
1679995614680,1175603030508449,2.24895,3.0880501,9.220051
1679995614682,1175603033010603,2.33295,3.1309502,9.264001
1679995614685,1175603035512752,2.2800002,3.0979502,9.285001
1679995614685,1175603038014675,2.29695,3.01095,9.352051
1679995614689,1175603040516752,2.331,3.0330002,9.319051
1679995614691,1175603043018983,2.3110502,3.10695,9.37605
1679995614693,1175603045521059,2.30205,3.009,9.22305
1679995614696,1175603048023213,2.2420502,2.9920502,9.393001
1679995614698,1175603050525136,2.25405,3.0690002,9.38595
1679995614701,1175603053027290,2.1700501,3.0570002,9.193951
1679995614703,1175603055529367,2.163,3.009,9.25605
1679995614705,1175603058031280,2.15595,3.1240501,9.394951
1679995614707,1175603060533665,2.163,3.114,9.273001
1679995614709,1175603063035819,2.2060502,3.07095,9.148951
1679995614712,1175603065537742,2.17995,3.0229502,9.30195
1679995614714,1175603068039814,2.21805,3.07395,9.261001
1679995614716,1175603070541968,2.232,3.0589502,9.273001
1679995614719,1175603073044121,2.32605,3.0670502,9.25905
1679995614722,1175603075546275,2.36205,3.1000502,9.307051
1679995614724,1175603078048189,2.30205,3.04695,9.192
1679995614737,1175603080550343,2.28705,3.0259502,9.108001
1679995614737,1175603083052420,2.32095,3.07605,9.208051
1679995614737,1175603085554574,2.29905,3.0640502,9.229951
1679995614738,1175603088056497,2.26305,3.04305,9.357
1679995614738,1175603090558636,2.3380501,3.00705,9.189
1679995614739,1175603093060790,2.331,3.1669502,9.349951
1679995614740,1175603095562867,2.319,3.07095,9.199051
1679995614742,1175603098065021,2.35695,3.0499501,9.337951
1679995614747,1175603100567169,2.3760002,3.01605,9.29205
1679995614748,1175603103069093,2.29005,2.9950502,9.283051
1679995614750,1175603105571169,2.43105,3.045,9.316051
1679995614753,1175603108073323,2.3400002,3.078,9.316051
1679995614756,1175603110575482,2.3689501,2.9899502,9.276
1679995614759,1175603113077405,2.3830502,3.0619502,9.288
1679995614762,1175603115579559,2.3449502,3.045,9.340051
1679995614763,1175603118081713,2.3830502,3.045,9.192
1679995614766,1175603120583790,2.3760002,3.01605,9.25605
1679995614768,1175603123085742,2.3430002,3.0550501,9.21105
1679995614770,1175603125588127,2.4409502,2.9869502,9.24705
1679995614773,1175603128090280,2.4379501,3.01095,9.37905
1679995614775,1175603130592204,2.4430501,3.078,9.30195
1679995614782,1175603133094280,2.3470502,3.0259502,9.264001
1679995614784,1175603135596424,2.4049501,3.1050003,9.249001
1679995614784,1175603138098347,2.3449502,3.0330002,9.346951
1679995614786,1175603140600501,2.4409502,3.0589502,9.228001
1679995614788,1175603143102655,2.43105,2.9280002,9.196951
1679995614790,1175603145604824,2.4409502,2.97105,9.307051
1679995614794,1175603148106901,2.33505,2.94405,9.24705
1679995614796,1175603150609055,2.36205,3.01605,9.27795
1679995614798,1175603153110978,2.35905,2.973,9.26805
1679995614800,1175603155613060,2.4019501,2.9850001,9.28005
1679995614802,1175603158115214,2.2369502,3.01095,9.21105
1679995614807,1175603160617367,2.28705,3.05205,9.24405
1679995614808,1175603163119501,2.29905,3.10695,9.201
1679995614812,1175603165621424,2.30205,2.90595,9.24195
1679995614812,1175603168123578,2.22,2.98005,9.24195
1679995614815,1175603170625655,2.2399502,2.8939502,9.352051
1679995614819,1175603173127790,2.26305,2.9320502,9.321
1679995614820,1175603175629944,2.23005,2.913,9.441
1679995614825,1175603178132098,2.3110502,3.0589502,9.24195
1679995614825,1175603180634021,2.2729502,3.00705,9.205951
1679995614829,1175603183136175,2.24895,3.0229502,9.28005
1679995614832,1175603185638223,2.319,3.1050003,9.35505
1679995614833,1175603188140376,2.29005,2.9970002,9.40695
1679995614835,1175603190642300,2.319,3.00195,9.319051
1679995614837,1175603193144453,2.3089502,3.0880501,9.38805
1679995614840,1175603195646607,2.2750502,2.9950502,9.30405
1679995614843,1175603198148761,2.29905,3.045,9.393001
1679995614845,1175603200650838,2.3779502,3.0499501,9.36705
1679995614848,1175603203152761,2.3110502,3.0640502,9.249001
1679995614850,1175603205654910,2.43405,3.0859501,9.30405
1679995614853,1175603208157064,2.33505,3.0550501,9.208051
1679995614859,1175603210659141,2.53695,3.1240501,9.21105
1679995614859,1175603213161295,2.568,3.0499501,9.25605
1679995614861,1175603215663467,2.56305,3.1620002,9.364051
1679995614863,1175603218165391,2.568,3.07605,9.295051
1679995614865,1175603220667467,2.5890002,3.0640502,9.252001
1679995614869,1175603223169621,2.55795,3.078,9.225
1679995614871,1175603225671857,2.5530002,3.04305,9.328051
1679995614873,1175603228173934,2.59395,3.117,9.199051
1679995614875,1175603230675857,2.565,3.213,9.321
1679995614878,1175603233178011,2.4720001,3.15,9.21105
1679995614880,1175603235680088,2.50305,3.07095,9.26805
1679995614882,1175603238182006,2.5150502,3.0900002,9.319051
1679995614885,1175603240684160,2.4480002,3.1240501,9.3
1679995614888,1175603243186544,2.38995,3.1260002,9.229951
1679995614890,1175603245688492,2.39805,3.1309502,9.27105
1679995614893,1175603248190568,2.3779502,3.177,9.35505
1679995614896,1175603250692722,2.3710501,3.10695,9.24195
1679995614897,1175603253194876,2.3449502,3.1240501,9.331051
1679995614902,1175603255697030,2.30205,3.2719502,9.429001
1679995614903,1175603258198973,2.3089502,3.0859501,9.27795
1679995614907,1175603260701127,2.29905,3.1339502,9.405001
1679995614909,1175603263203204,2.295,3.1380002,9.394951
1679995614913,1175603265705118,2.22,3.1549501,9.307051
1679995614913,1175603268207272,2.25195,3.1240501,9.358951
1679995614915,1175603270709426,2.2110002,3.1309502,9.307051
1679995614918,1175603273211579,2.1750002,3.0859501,9.417001
1679995614920,1175603275713656,2.196,3.141,9.40695
1679995614923,1175603278215781,2.11305,3.1579502,9.37395
1679995614925,1175603280717704,2.18895,3.0930002,9.307051
1679995614928,1175603283219858,2.14395,3.0499501,9.28995
1679995614930,1175603285722012,2.1750002,3.0310502,9.35505
1679995614933,1175603288224166,2.1460502,3.0880501,9.328051
1679995614935,1175603290726229,2.12895,3.1020002,9.370951
1679995614939,1175603293228152,2.21595,3.07095,9.283051
1679995614940,1175603295730306,2.259,3.10995,9.28005
1679995614944,1175603298232440,2.3160002,3.10995,9.319051
1679995614946,1175603300734517,2.26305,3.04695,9.394951
1679995614948,1175603303236670,2.3430002,2.98305,9.288
1679995614950,1175603305738824,2.35395,3.18405,9.240001
1679995614952,1175603308240978,2.3830502,3.1219501,9.261001
1679995614955,1175603310742887,2.35395,3.1600502,9.217951
1679995614959,1175603313244964,2.39805,3.1360502,9.30405
1679995614960,1175603315747118,2.4769502,3.0310502,9.295051
1679995614962,1175603318249272,2.331,3.0190501,9.163051
1679995614965,1175603320751180,2.43105,3.0619502,9.273001
1679995614969,1175603323253334,2.4,3.04305,9.325951
1679995614970,1175603325755488,2.3380501,3.11205,9.204
1679995614972,1175603328257565,2.3809502,3.0859501,9.196951
1679995614975,1175603330759493,2.43105,3.10695,9.30405
1679995614979,1175603333261646,2.4049501,3.1189501,9.28995
1679995614982,1175603335763800,2.2800002,3.1909502,9.24405
1679995614983,1175603338265954,2.4019501,3.0880501,9.32295
1679995614985,1175603340768031,2.3449502,2.94195,9.28995
1679995614989,1175603343270219,2.4,3.1600502,9.196951
1679995614991,1175603345772142,2.42895,2.9659503,9.165
1679995614993,1175603348274219,2.46,3.0190501,9.108001
1679995614996,1175603350776382,2.29005,3.07095,9.196951
1679995615000,1175603353278613,2.4190502,3.0619502,9.229951
1679995615001,1175603355780690,2.39805,3.045,9.10095
1679995615003,1175603358282613,2.3760002,3.0550501,9.249001
1679995615005,1175603360784766,2.352,3.1050003,9.175051
1679995615009,1175603363286839,2.4190502,3.04695,9.225
1679995615010,1175603365788993,2.3400002,3.081,9.18
1679995615013,1175603368291147,2.32095,3.009,9.181951
1679995615015,1175603370793301,2.39505,3.0210001,9.129001
1679995615020,1175603373295175,2.33505,3.0949502,9.25905
1679995615022,1175603375797252,2.3430002,3.00195,9.21105
1679995615024,1175603378299406,2.292,2.9989502,9.184951
1679995615025,1175603380801560,2.25195,2.98305,9.23505
1679995615029,1175603383303483,2.2110002,3.1240501,9.232051
1679995615031,1175603385805623,2.1700501,3.01605,9.28995
1679995615032,1175603388307776,2.2080002,3.00195,9.36705
1679995615035,1175603390809853,2.2369502,3.0210001,9.199051
1679995615038,1175603393312007,2.2080002,3.009,9.25395
1679995615040,1175603395813930,2.184,2.9920502,9.220051
1679995615042,1175603398316094,2.256,3.1050003,9.156
1679995615045,1175603400818171,2.1769502,3.0690002,9.328051
1679995615049,1175603403320402,2.2110002,3.0589502,9.30405
1679995615050,1175603405822479,2.1750002,3.0330002,9.252001
1679995615052,1175603408324637,2.259,3.0349503,9.252001
1679995615056,1175603410826560,2.196,3.0229502,9.325951
1679995615059,1175603413328714,2.331,3.05205,9.3
1679995615062,1175603415830791,2.3380501,3.04695,9.28995
1679995615064,1175603418332925,2.28705,3.081,9.328051
1679995615065,1175603420835079,2.3140502,3.1050003,9.264001
1679995615069,1175603423337002,2.36595,3.08295,9.3
1679995615071,1175603425839156,2.2680001,3.078,9.345
1679995615072,1175603428341247,2.32095,2.98305,9.313951
1679995615075,1175603430843401,2.2350001,3.0949502,9.370951
1679995615079,1175603433345324,2.3110502,3.045,9.331051
1679995615080,1175603435847709,2.43105,3.1240501,9.29205
1679995615083,1175603438349656,2.39805,3.0619502,9.34305
1679995615085,1175603440851810,2.3860502,3.0550501,9.328051
1679995615089,1175603443353887,2.4409502,3.1000502,9.319051
1679995615092,1175603445855810,2.3040001,3.0900002,9.361951
1679995615095,1175603448357954,2.319,3.0979502,9.33495
1679995615097,1175603450860339,2.3860502,3.0229502,9.394951
1679995615099,1175603453362262,2.3400002,3.0900002,9.27105
1679995615101,1175603455864339,2.4070501,3.078,9.27795
1679995615103,1175603458366493,2.3140502,2.9920502,9.30405
1679995615105,1175603460868416,2.35905,3.0670502,9.249001
1679995615109,1175603463370570,2.3760002,3.15,9.30195
1679995615111,1175603465872647,2.388,3.078,9.25605
1679995615113,1175603468374878,2.4120002,3.0570002,9.345
1679995615116,1175603470876974,2.319,3.01395,9.276
1679995615118,1175603473378897,2.364,3.0589502,9.25905
1679995615121,1175603475880974,2.35395,3.153,9.309
1679995615124,1175603478383204,2.4190502,3.0880501,9.25395
1679995615125,1175603480885358,2.4120002,3.1189501,9.240001
1679995615129,1175603483387430,2.48895,3.10695,9.288
1679995615132,1175603485889353,2.42205,3.0330002,9.319051
1679995615134,1175603488391507,2.39805,3.0349503,9.21105
1679995615135,1175603490893584,2.35395,3.0979502,9.345
1679995615139,1175603493395762,2.3449502,2.9560502,9.25905
1679995615140,1175603495897916,2.43405,3.078,9.165
1679995615142,1175603498400069,2.33295,3.0229502,9.165
1679995615145,1175603500901993,2.3779502,2.9539502,9.28995
1679995615149,1175603503404070,2.24895,2.98005,9.117001
1679995615150,1175603505906223,2.2729502,3.0550501,9.228001
1679995615153,1175603508408377,2.22495,3.045,9.220051
1679995615155,1175603510910300,2.36205,2.9640002,9.316051
1679995615158,1175603513412440,2.32605,3.078,9.24405
1679995615160,1175603515914594,2.295,3.045,9.220051
1679995615163,1175603518416671,2.36595,3.0979502,9.276
1679995615165,1175603520918825,2.4100502,3.07605,9.199051
1679995615171,1175603523420757,2.22,3.0670502,9.177
1679995615172,1175603525922911,2.29905,3.0880501,9.189
1679995615173,1175603528425065,2.3400002,3.0690002,9.30195
1679995615175,1175603530927141,2.29905,3.1669502,9.189
1679995615179,1175603533429295,2.3449502,3.141,9.26805
1679995615181,1175603535931449,2.2729502,3.0979502,9.204
1679995615183,1175603538433372,2.3470502,3.14595,9.361951
1679995615185,1175603540935449,2.29695,3.1339502,9.252001
1679995615189,1175603543437670,2.39805,3.1260002,9.331051
1679995615191,1175603545939824,2.3070002,3.114,9.31095
1679995615193,1175603548441747,2.22795,3.2050502,9.225
1679995615195,1175603550943901,2.3070002,3.15,9.352051
1679995615199,1175603553446055,2.2780502,3.1290002,9.345
1679995615200,1175603555948152,2.2680001,3.1189501,9.288
1679995615203,1175603558450075,2.2780502,3.0640502,9.295051
1679995615208,1175603560952459,2.32605,3.1000502,9.319051
1679995615212,1175603563454362,2.4139502,2.97495,9.44295
1679995615213,1175603565956516,2.259,3.04695,9.345
1679995615213,1175603568458593,2.319,3.1050003,9.240001
1679995615215,1175603570960747,2.3400002,3.1930501,9.276
1679995615219,1175603573462670,2.3380501,3.01395,9.43605
1679995615221,1175603575964844,2.32095,3.03795,9.297001
1679995615223,1175603578466998,2.3470502,3.0690002,9.261001
1679995615225,1175603580969152,2.35695,3.0040503,9.15795
1679995615229,1175603583471229,2.3470502,3.0880501,9.288
1679995615231,1175603585973137,2.33295,2.9989502,9.249001
1679995615233,1175603588475291,2.3430002,2.973,9.24705
1679995615235,1175603590977367,2.35395,3.07605,9.34305
1679995615239,1175603593479521,2.292,3.14595,9.364051
1679995615241,1175603595981675,2.3449502,3.11205,9.331051
1679995615244,1175603598483799,2.4409502,3.045,9.27795
1679995615247,1175603600985722,2.319,3.01605,9.216001
1679995615249,1175603603487876,2.3470502,3.04695,9.307051
1679995615251,1175603605989953,2.328,3.05205,9.349951
1679995615253,1175603608492098,2.32605,3.08295,9.319051
1679995615255,1175603610994252,2.30205,3.045,9.213
1679995615259,1175603613496405,2.352,3.1380002,9.3
1679995615260,1175603615998329,2.3400002,3.078,9.208051
1679995615263,1175603618500429,2.35695,3.1579502,9.189
1679995615265,1175603621002583,2.3380501,3.1000502,9.213
1679995615269,1175603623504737,2.388,3.05205,9.187051
1679995615271,1175603626006660,2.42205,3.1219501,9.349951
1679995615273,1175603628508799,2.331,3.114,9.370951
1679995615275,1175603631010953,2.3760002,3.1339502,9.249001
1679995615279,1175603633513030,2.35395,3.1290002,9.261001
1679995615282,1175603636015184,2.2729502,3.0880501,9.331051
1679995615283,1175603638517122,2.3760002,3.03795,9.26805
1679995615286,1175603641019276,2.2750502,3.10695,9.316051
1679995615288,1175603643521353,2.364,3.0640502,9.189
1679995615291,1175603646023506,2.33295,2.97495,9.30195
1679995615293,1175603648525660,2.35695,2.9680502,9.288
1679995615296,1175603651027819,2.36595,3.0589502,9.27105
1679995615299,1175603653529742,2.4,3.0670502,9.297001
1679995615300,1175603656031819,2.3740501,3.0880501,9.28005
1679995615303,1175603658533973,2.35905,3.0900002,9.27795
1679995615306,1175603661036088,2.33295,3.10695,9.160951
1679995615309,1175603663538242,2.3430002,3.0259502,9.394951
1679995615311,1175603666040165,2.36205,3.0589502,9.32295
1679995615313,1175603668542319,2.424,3.117,9.28995
1679995615316,1175603671044396,2.39295,3.1000502,9.199051
1679995615320,1175603673546314,2.4790502,3.1020002,9.27795
1679995615322,1175603676048468,2.4430501,3.0949502,9.25605
1679995615325,1175603678550621,2.4769502,3.0349503,9.25395
1679995615327,1175603681052775,2.3689501,3.0330002,9.307051
1679995615329,1175603683554852,2.4720001,3.0040503,9.295051
1679995615331,1175603686057006,2.39295,3.117,9.216001
1679995615333,1175603688558929,2.39295,3.08295,9.252001
1679995615335,1175603691061083,2.36205,3.078,9.33495
1679995615339,1175603693563218,2.4049501,3.2080503,9.33495
1679995615340,1175603696065295,2.4169502,3.07395,9.337951
1679995615343,1175603698567449,2.4430501,3.1240501,9.237
1679995615345,1175603701069372,2.46195,3.14595,9.36705
1679995615349,1175603703571545,2.49795,3.14295,9.26805
1679995615355,1175603706073698,2.4049501,3.1050003,9.288
1679995615355,1175603708575852,2.3809502,3.1890001,9.26595
1679995615357,1175603711077929,2.4049501,3.1219501,9.345
1679995615359,1175603713580054,2.3160002,3.07605,9.229951
1679995615361,1175603716081977,2.32305,3.0310502,9.175051
1679995615363,1175603718584054,2.3689501,3.1290002,9.27795
1679995615365,1175603721086285,2.319,3.15,9.405001
1679995615369,1175603723588439,2.4049501,3.1000502,9.28995
1679995615370,1175603726090502,2.3760002,3.1579502,9.345
1679995615373,1175603728592425,2.35695,3.18105,9.349951
1679995615375,1175603731094579,2.3500502,3.0619502,9.370951
1679995615379,1175603733596655,2.331,3.0619502,9.38595
1679995615381,1175603736098584,2.38995,3.1309502,9.30195
1679995615383,1175603738600968,2.39805,3.14805,9.319051
1679995615385,1175603741103122,2.3430002,3.081,9.38595
1679995615389,1175603743605045,2.331,3.1309502,9.204
1679995615391,1175603746107107,2.319,3.1690502,9.273001
1679995615396,1175603748609261,2.4190502,3.07395,9.261001
1679995615397,1175603751111415,2.4070501,3.045,9.201
1679995615399,1175603753613338,2.46195,3.0550501,9.261001
1679995615401,1175603756115526,2.38995,3.045,9.237
1679995615403,1175603758617680,2.42595,3.1020002,9.213
1679995615405,1175603761119756,2.46705,3.0310502,9.346951
1679995615410,1175603763621910,2.46195,3.03795,9.25905
1679995615413,1175603766123858,2.43105,3.081,9.24195
1679995615415,1175603768626012,2.4049501,2.98305,9.37395
1679995615416,1175603771128166,2.43405,3.141,9.295051
1679995615419,1175603773630243,2.328,3.0690002,9.38595
1679995615420,1175603776132387,2.3470502,3.0900002,9.225
1679995615423,1175603778634541,2.352,2.97495,9.337951
1679995615425,1175603781136464,2.3430002,3.1000502,9.283051
1679995615429,1175603783638541,2.3430002,3.0949502,9.196951
1679995615432,1175603786140666,2.3380501,3.07095,9.25905
1679995615434,1175603788642819,2.3400002,3.1360502,9.217951
1679995615435,1175603791144973,2.331,3.10995,9.228001
1679995615439,1175603793646896,2.4070501,3.0690002,9.160951
1679995615441,1175603796149050,2.3689501,3.0550501,9.24405
1679995615443,1175603798651132,2.424,3.0259502,9.29205
1679995615446,1175603801153286,2.4190502,3.00705,9.196951
1679995615449,1175603803655440,2.3860502,3.0280502,9.328051
1679995615451,1175603806157363,2.3779502,3.081,9.201
1679995615453,1175603808659488,2.3089502,3.07095,9.09795
1679995615455,1175603811161565,2.30205,3.07605,9.204
1679995615458,1175603813663719,2.3710501,3.04695,9.189
1679995615460,1175603816165642,2.3449502,3.0859501,9.237
1679995615463,1175603818667762,2.4019501,3.0280502,9.217951
1679995615465,1175603821169916,2.4019501,3.04695,9.177
1679995615470,1175603823671993,2.364,3.14805,9.217951
1679995615472,1175603826174147,2.364,3.0979502,9.196951
1679995615473,1175603828676334,2.42595,3.045,9.09795
1679995615476,1175603831178257,2.43105,3.04695,9.23505
1679995615480,1175603833680334,2.4100502,3.21,9.11295
1679995615482,1175603836182488,2.364,3.14805,9.252001
1679995615483,1175603838684719,2.4070501,3.07605,9.141001
1679995615485,1175603841186786,2.35395,3.0880501,9.181951
1679995615489,1175603843688709,2.4480002,3.1360502,9.148951
1679995615491,1175603846190862,2.4019501,3.07395,9.156
1679995615493,1175603848692939,2.3860502,3.1240501,9.14595
1679995615496,1175603851194858,2.4,3.0619502,9.175051
1679995615499,1175603853697243,2.36205,3.14295,9.220051
1679995615501,1175603856199397,2.3760002,3.0880501,9.261001
1679995615503,1175603858701320,2.3160002,3.1380002,9.163051
1679995615507,1175603861203401,2.3830502,3.1339502,9.153001
1679995615509,1175603863705555,2.42595,3.1360502,9.237
1679995615512,1175603866207478,2.4120002,3.07395,9.205951
1679995615513,1175603868709632,2.3740501,3.1339502,9.21105
1679995615515,1175603871211786,2.4,3.1740003,9.252001
1679995615518,1175603873713935,2.4499502,3.18405,9.22305
1679995615521,1175603876216012,2.4100502,3.14595,9.26595
1679995615523,1175603878717935,2.3500502,3.114,9.21105
1679995615525,1175603881220089,2.4120002,3.1620002,9.177
1679995615529,1175603883722238,2.3860502,3.14295,9.23505
1679995615531,1175603886224315,2.4499502,3.1980002,9.175051
1679995615533,1175603888726469,2.39805,3.153,9.340051
1679995615536,1175603891228623,2.43405,3.0589502,9.25395
1679995615539,1175603893730546,2.35395,3.2080503,9.204
1679995615541,1175603896232700,2.3860502,3.1339502,9.25905
1679995615544,1175603898734777,2.42595,3.08295,9.297001
1679995615546,1175603901236931,2.4769502,3.153,9.249001
1679995615551,1175603903739084,2.3860502,3.1600502,9.35505
1679995615552,1175603906241017,2.39295,3.081,9.261001
1679995615553,1175603908743171,2.36205,3.081,9.199051
1679995615556,1175603911245248,2.29695,3.11205,9.24705
1679995615559,1175603913747479,2.36595,3.1050003,9.24405
1679995615561,1175603916249551,2.33295,3.14805,9.26805
1679995615566,1175603918751474,2.3400002,3.1909502,9.22305
1679995615566,1175603921253628,2.328,3.1690502,9.05805
1679995615569,1175603923755705,2.352,3.1600502,9.21105
1679995615571,1175603926257859,2.4,3.14295,9.28005
1679995615573,1175603928759782,2.4,3.1339502,9.196951
1679995615575,1175603931262166,2.4190502,3.1600502,9.252001
1679995615579,1175603933764089,2.38995,3.1240501,9.184951
1679995615582,1175603936266121,2.4190502,3.2029502,9.120001
1679995615584,1175603938768275,2.4100502,3.2220001,9.23505
1679995615585,1175603941270429,2.3449502,3.114,9.273001
1679995615589,1175603943772352,2.32305,3.114,9.28995
1679995615591,1175603946274429,2.4070501,3.1669502,9.187051
1679995615593,1175603948776661,2.4169502,3.2050502,9.165
1679995615596,1175603951278738,2.3089502,3.17895,9.295051
1679995615600,1175603953780892,2.4840002,3.1579502,9.108001
1679995615601,1175603956282815,2.42205,3.18105,9.220051
1679995615603,1175603958784969,2.4720001,3.1240501,9.25605
1679995615606,1175603961287055,2.3689501,3.1740003,9.288
1679995615609,1175603963789285,2.29905,3.14295,9.249001
1679995615612,1175603966291362,2.4480002,3.14595,9.283051
1679995615614,1175603968793516,2.29005,3.2029502,9.25605
1679995615616,1175603971295439,2.3760002,3.2050502,9.23505
1679995615620,1175603973797516,2.4430501,3.21705,9.24195
1679995615622,1175603976299670,2.388,3.177,9.37605
1679995615624,1175603978801593,2.52195,3.1309502,9.28005
1679995615626,1175603981303978,2.4019501,3.1740003,9.27795
1679995615629,1175603983805901,2.39805,3.1549501,9.232051
1679995615631,1175603986308055,2.4070501,3.2440503,9.34305
1679995615633,1175603988810132,2.50095,3.2749503,9.24405
1679995615635,1175603991312309,2.505,3.2220001,9.27105
1679995615639,1175603993814232,2.4480002,3.22005,9.205951
1679995615641,1175603996316309,2.3830502,3.1189501,9.24405
1679995615643,1175603998818540,2.4120002,3.21705,9.23505
1679995615646,1175604001320694,2.4790502,3.1650002,9.21105
1679995615649,1175604003822781,2.505,3.1669502,9.28005
1679995615651,1175604006324704,2.42595,3.1020002,9.42195
1679995615653,1175604008826858,2.32095,3.1909502,9.225
1679995615659,1175604011329002,2.46495,3.1360502,9.220051
1679995615661,1175604013831156,2.48895,3.2629502,9.288
1679995615662,1175604016333233,2.39295,3.18105,9.208051
1679995615663,1175604018835386,2.35905,3.1980002,9.144
1679995615665,1175604021337309,2.4019501,3.18105,9.252001
1679995615669,1175604023839396,2.3689501,3.2029502,9.316051
1679995615671,1175604026341550,2.3470502,3.153,9.25905
1679995615673,1175604028843704,2.42895,3.213,9.228001
1679995615677,1175604031345858,2.4169502,3.2029502,9.23505
1679995615680,1175604033847795,2.39295,3.31095,9.38595
1679995615681,1175604036349949,2.4070501,3.22005,9.26595
1679995615684,1175604038852026,2.39805,3.2410502,9.252001
1679995615686,1175604041353949,2.39295,3.2080503,9.193951
1679995615689,1175604043856103,2.36205,3.10995,9.37905
1679995615691,1175604046358487,2.38995,3.2220001,9.24195
1679995615697,1175604048860410,2.4120002,3.2410502,9.181951
1679995615698,1175604051362487,2.4499502,3.2440503,9.12495
1679995615700,1175604053864670,2.3710501,3.2389503,9.229951
1679995615702,1175604056366824,2.3860502,3.213,9.28005
1679995615703,1175604058868747,2.4070501,3.2370002,9.283051
1679995615705,1175604061370824,2.4190502,3.1579502,9.297001
1679995615709,1175604063873045,2.424,3.2719502,9.240001
1679995615711,1175604066375122,2.50095,3.1980002,9.394951
1679995615713,1175604068877276,2.4480002,3.186,9.307051
1679995615715,1175604071379199,2.4120002,3.177,9.405001
1679995615718,1175604073881353,2.46495,3.2010002,9.33495
1679995615721,1175604076383429,2.42895,3.0619502,9.25905
1679995615723,1175604078885353,2.4550502,3.2370002,9.316051
1679995615725,1175604081387737,2.39295,3.22005,9.184951
1679995615729,1175604083889650,2.4100502,3.0670502,9.187051
1679995615732,1175604086391804,2.4790502,3.2320502,9.172951
1679995615734,1175604088893881,2.43405,3.0900002,9.261001
1679995615736,1175604091396035,2.4070501,3.1050003,9.26805
1679995615739,1175604093897958,2.46195,3.1909502,9.184951
1679995615741,1175604096400314,2.4070501,3.1669502,9.181951
1679995615743,1175604098902237,2.43405,3.1600502,9.163051
1679995615746,1175604101404391,2.4480002,3.1690502,9.285001
1679995615749,1175604103906467,2.424,3.14595,9.237
1679995615751,1175604106408641,2.4769502,3.07605,9.309
1679995615754,1175604108910564,2.4049501,3.14595,9.24705
1679995615755,1175604111412718,2.43405,3.18105,9.208051
1679995615759,1175604113914872,2.39505,3.10695,9.15795
1679995615761,1175604116417021,2.3830502,3.15,9.261001
1679995615763,1175604118919098,2.46495,3.18105,9.172951
1679995615766,1175604121421021,2.4859502,3.1740003,9.129001
1679995615770,1175604123923175,2.364,3.1690502,9.10995
1679995615772,1175604126425271,2.5170002,3.1219501,9.199051
1679995615773,1175604128927425,2.4070501,3.1600502,9.273001
1679995615775,1175604131429578,2.39505,3.1360502,9.27795
1679995615779,1175604133931502,2.35695,3.1219501,9.288
1679995615781,1175604136433664,2.32305,3.15,9.208051
1679995615783,1175604138935741,2.32095,3.1020002,9.220051
1679995615786,1175604141437895,2.4049501,3.1930501,9.232051
1679995615789,1175604143940049,2.4379501,3.21705,9.193951
1679995615791,1175604146442203,2.38995,3.1240501,9.261001
1679995615793,1175604148944131,2.436,3.177,9.25395
1679995615796,1175604151446208,2.36205,3.186,9.205951
1679995615799,1175604153948362,2.352,3.2290502,9.22305
1679995615801,1175604156450516,2.32605,3.0640502,9.148951
1679995615803,1175604158952679,2.3380501,3.1240501,9.216001
1679995615807,1175604161454603,2.3449502,3.2029502,9.30405
1679995615809,1175604163956756,2.25195,3.2389503,9.220051
1679995615812,1175604166458838,2.32305,3.1650002,9.25905
1679995615813,1175604168960992,2.3110502,3.1720502,9.3
1679995615816,1175604171462915,2.3140502,3.1720502,9.18
1679995615819,1175604173965300,2.292,3.153,9.30405
1679995615821,1175604176467223,2.3089502,3.1240501,9.229951
1679995615825,1175604178969401,2.3400002,3.045,9.181951
1679995615826,1175604181471478,2.3110502,3.18405,9.213
1679995615829,1175604183973401,2.283,3.05205,9.1369505
1679995615831,1175604186475555,2.388,3.10695,9.232051
1679995615834,1175604188977646,2.36595,3.1339502,9.273001
1679995615836,1175604191479876,2.2800002,3.2029502,9.229951
1679995615839,1175604193981953,2.3160002,3.10995,9.10305
1679995615841,1175604196484107,2.364,3.0619502,9.148951
1679995615846,1175604198986030,2.38995,3.14295,9.264001
1679995615847,1175604201488107,2.4019501,3.1360502,9.346951
1679995615849,1175604203990261,2.4049501,3.078,9.232051
1679995615851,1175604206492492,2.35395,3.1620002,9.297001
1679995615853,1175604208994569,2.4409502,3.0949502,9.33495
1679995615856,1175604211496482,2.3779502,3.07395,9.172951
1679995615859,1175604213998636,2.4409502,3.0880501,9.316051
1679995615861,1175604216500713,2.3430002,3.07095,9.187051
1679995615863,1175604219002636,2.33295,3.07095,9.333
1679995615865,1175604221504771,2.36595,3.0880501,9.319051
1679995615869,1175604224007155,2.32605,3.1579502,9.337951
1679995615871,1175604226509078,2.319,3.0880501,9.316051
1679995615873,1175604229011155,2.331,3.0979502,9.288
1679995615876,1175604231513314,2.3089502,3.177,9.309
1679995615879,1175604234015468,2.328,3.081,9.25605
1679995615882,1175604236517391,2.35395,3.186,9.153001
1679995615884,1175604239019468,2.3110502,3.114,9.252001
1679995615887,1175604241521699,2.3160002,3.0900002,9.15795
1679995615890,1175604244023776,2.3400002,3.2010002,9.261001
1679995615891,1175604246525699,2.2470002,3.1360502,9.25605
1679995615893,1175604249028083,2.3779502,3.186,9.225
1679995615896,1175604251530006,2.3470502,3.1290002,9.168
1679995615899,1175604254032088,2.4049501,3.0499501,9.208051
1679995615901,1175604256534242,2.3809502,3.153,9.27105
1679995615904,1175604259036396,2.29695,3.2029502,9.172951
1679995615906,1175604261538319,2.29695,3.141,9.232051
1679995615909,1175604264040482,2.35395,3.2370002,9.325951
1679995615913,1175604266542559,2.36595,3.1740003,9.21105
1679995615915,1175604269044713,2.38995,3.1669502,9.172951
1679995615916,1175604271546636,2.4019501,3.2029502,9.175051
1679995615920,1175604274049036,2.3470502,3.22005,9.240001
1679995615923,1175604276550960,2.4100502,3.0589502,9.297001
1679995615925,1175604279053113,2.43405,3.14595,9.153001
1679995615926,1175604281555190,2.4120002,3.2340002,9.261001
1679995615929,1175604284057344,2.4120002,3.1669502,9.252001
1679995615931,1175604286559266,2.3830502,3.21,9.23505
1679995615935,1175604289061420,2.388,3.21495,9.240001
1679995615936,1175604291563574,2.4,3.1980002,9.30195
1679995615939,1175604294065651,2.4070501,3.1219501,9.25605
1679995615941,1175604296567815,2.45295,3.1339502,9.196951
1679995615944,1175604299069738,2.4,3.1360502,9.264001
1679995615946,1175604301571892,2.45295,3.1290002,9.261001
1679995615949,1175604304073969,2.46705,3.0670502,9.213
1679995615951,1175604306576127,2.4379501,3.08295,9.288
1679995615954,1175604309078281,2.4769502,3.1669502,9.187051
1679995615958,1175604311580435,2.4430501,3.0640502,9.220051
1679995615961,1175604314082358,2.3449502,3.00705,9.24195
1679995615962,1175604316584430,2.4100502,3.03795,9.232051
1679995615964,1175604319086584,2.50305,3.141,9.22305
1679995615966,1175604321588507,2.42205,3.0280502,9.283051
1679995615969,1175604324090892,2.4810002,3.07395,9.192
1679995615971,1175604326592815,2.424,3.0640502,9.187051
1679995615974,1175604329094945,2.4480002,3.00705,9.261001
1679995615980,1175604331597022,2.5080001,3.0690002,9.229951
1679995615980,1175604334098945,2.49105,3.0190501,9.24195
1679995615981,1175604336601098,2.5200002,2.9850001,9.3
1679995615983,1175604339103483,2.4790502,3.0979502,9.30405
1679995615986,1175604341605391,2.42895,3.0349503,9.297001
1679995615989,1175604344107468,2.3470502,3.0640502,9.361951
1679995615991,1175604346609622,2.43405,3.045,9.297001
1679995615996,1175604349111526,2.424,2.9950502,9.153001
1679995615996,1175604351613680,2.3040001,3.15,9.28005
1679995615999,1175604354115757,2.424,3.1000502,9.27795
1679995616001,1175604356617911,2.29905,3.117,9.25605
1679995616003,1175604359120065,2.3809502,3.1309502,9.172951
1679995616006,1175604361621959,2.3430002,3.07605,9.28995
1679995616009,1175604364124036,2.32605,3.1219501,9.361951
1679995616011,1175604366626266,2.3400002,3.0979502,9.24195
1679995616013,1175604369128343,2.33295,3.0859501,9.285001
1679995616016,1175604371630512,2.28705,3.1290002,9.24405
1679995616019,1175604374132435,2.28705,3.14295,9.24405
1679995616021,1175604376634589,2.4049501,3.1000502,9.27795
1679995616023,1175604379136666,2.259,3.0690002,9.192
1679995616026,1175604381638613,2.3400002,3.1380002,9.328051
1679995616029,1175604384140998,2.3430002,3.17895,9.321
1679995616032,1175604386643152,2.33295,3.1260002,9.288
1679995616034,1175604389145075,2.46195,3.07395,9.213
1679995616036,1175604391647152,2.4139502,3.14295,9.213
1679995616039,1175604394149300,2.50305,3.15,9.240001
1679995616041,1175604396651223,2.52195,3.0280502,9.349951
1679995616046,1175604399153608,2.493,3.21,9.340051
1679995616047,1175604401655531,2.469,3.078,9.25395
1679995616049,1175604404157685,2.529,3.2370002,9.37605
1679995616051,1175604406659762,2.46195,3.1380002,9.357
1679995616053,1175604409161916,2.48895,3.07095,9.24195
1679995616056,1175604411663839,2.5200002,3.08295,9.22305
1679995616059,1175604414166003,2.3860502,3.1260002,9.283051
1679995616061,1175604416668157,2.3830502,3.17895,9.26595
1679995616063,1175604419170234,2.4120002,3.07395,9.273001
1679995616066,1175604421672387,2.4430501,3.22005,9.193951
1679995616070,1175604424174319,2.33295,3.07605,9.261001
1679995616072,1175604426676473,2.3830502,3.0550501,9.40005
1679995616073,1175604429178550,2.4139502,3.1020002,9.38805
1679995616076,1175604431680704,2.4480002,3.1380002,9.27105
1679995616079,1175604434182868,2.4409502,3.1740003,9.319051
1679995616081,1175604436685022,2.424,3.0979502,9.37395
1679995616083,1175604439186945,2.457,3.1930501,9.426001
1679995616086,1175604441689022,2.3689501,3.1930501,9.453
1679995616090,1175604444191165,2.457,3.1740003,9.37605
1679995616091,1175604446693319,2.3779502,3.2680502,9.501
1679995616094,1175604449195472,2.38995,3.2370002,9.51
1679995616097,1175604451697395,2.42205,3.2320502,9.36705
1679995616099,1175604454199549,2.36205,3.2320502,9.534
1679995616101,1175604456701641,2.4190502,3.22005,9.61305
1679995616104,1175604459203795,2.436,3.18105,9.5130005
1679995616109,1175604461705718,2.364,3.2410502,9.56295
1679995616112,1175604464207871,2.3710501,3.17895,9.54405
1679995616113,1175604466710025,2.36595,3.2220001,9.46695
1679995616114,1175604469212102,2.4450002,3.1650002,9.43395
1679995616116,1175604471714256,2.5099502,3.213,9.505051
1679995616120,1175604474216179,2.505,3.1050003,9.51
1679995616122,1175604476718333,2.52495,2.973,9.537001
1679995616124,1175604479220410,2.532,3.04695,9.57705
1679995616126,1175604481722563,2.6590502,3.00705,9.51
1679995616129,1175604484224717,2.7520502,3.04695,9.42405
1679995616131,1175604486726896,2.79795,3.0690002,9.40005
1679995616133,1175604489228819,2.70195,2.9659503,9.40695
1679995616136,1175604491730973,2.8980002,3.1189501,9.4140005
1679995616139,1175604494233050,2.56005,3.1380002,9.24705
1679995616141,1175604496735204,2.7229502,3.21,9.193951
1679995616145,1175604499237372,2.84505,3.045,9.228001
1679995616146,1175604501739295,3.0010502,3.081,9.340051
1679995616149,1175604504241449,3.039,2.9970002,9.21105
1679995616151,1175604506743526,2.9959502,3.00195,9.163051
1679995616153,1175604509245684,2.9509501,2.9989502,9.1390505
1679995616156,1175604511747607,2.87895,3.045,9.1369505
1679995616159,1175604514249684,2.86905,3.07395,9.1699505
1679995616163,1175604516751915,2.6850002,3.153,9.06495
1679995616164,1175604519254083,2.60805,3.0499501,9.07005
1679995616166,1175604521756160,2.5530002,3.1669502,9.1390505
1679995616169,1175604524258083,2.4499502,3.10695,9.189
1679995616171,1175604526760237,2.3500502,3.1579502,9.117001
1679995616174,1175604529262319,2.2440002,3.1360502,9.30405
1679995616176,1175604531764550,2.18895,3.1960502,9.08895
1679995616179,1175604534266627,2.046,3.1380002,9.085951
1679995616183,1175604536768780,1.9759501,3.1050003,9.21105
1679995616184,1175604539270679,1.9230001,3.0690002,9.18
1679995616186,1175604541772833,1.8780001,3.0670502,9.09795
1679995616189,1175604544274910,1.7820001,3.0330002,9.132
1679995616191,1175604546776833,1.7890501,3.1600502,9.148951
1679995616194,1175604549279218,1.7080501,3.0690002,9.15795
1679995616196,1175604551781372,1.6650001,3.14595,9.144
1679995616199,1175604554283295,1.725,3.0949502,9.261001
1679995616201,1175604556785372,1.6500001,3.153,9.187051
1679995616203,1175604559287526,1.7200501,3.117,9.3
1679995616206,1175604561789430,1.60695,3.0880501,9.38595
1679995616209,1175604564291507,1.72695,3.0670502,9.240001
1679995616211,1175604566793737,1.6890001,3.1650002,9.276
1679995616214,1175604569295814,1.6500001,3.0670502,9.393001
1679995616216,1175604571797968,1.66005,3.153,9.295051
1679995616221,1175604574299910,1.8420001,3.2959502,9.328051
1679995616223,1175604576802064,1.79595,3.246,9.462001
1679995616225,1175604579304218,1.8870001,3.2719502,9.42405
1679995616226,1175604581806372,1.899,3.25305,9.402
1679995616229,1175604584308434,1.8870001,3.3370502,9.55305
1679995616231,1175604586810357,1.899,3.3400502,9.55305
1679995616233,1175604589312511,1.9620001,3.35205,9.490951
1679995616236,1175604591814588,2.0400002,3.4140003,9.582001
1679995616240,1175604594316799,2.0020502,3.31095,9.616051
1679995616243,1175604596818876,2.091,3.3630002,9.56805
1679995616245,1175604599321030,2.127,3.35595,9.667951
1679995616247,1175604601822953,2.1460502,3.3709502,9.606001
1679995616250,1175604604325107,2.11995,3.3780003,9.661051
1679995616251,1175604606827184,2.1700501,3.3630002,9.783
1679995616254,1175604609329415,2.1409502,3.213,9.549001
1679995616258,1175604611831463,2.23005,3.3060002,9.604051
1679995616260,1175604614333617,2.2080002,3.28005,9.59895
1679995616262,1175604616835540,2.19195,3.18405,9.606001
1679995616264,1175604619337617,2.1990001,3.17895,9.56805
1679995616266,1175604621839770,2.22,3.25605,9.457951
1679995616269,1175604624341694,2.3040001,3.18105,9.61095
1679995616271,1175604626844078,2.32305,3.10695,9.537001
1679995616273,1175604629346001,2.3040001,3.0979502,9.59595
1679995616276,1175604631848155,2.292,2.9950502,9.53205
1679995616279,1175604634350198,2.331,3.0310502,9.56805
1679995616281,1175604636852121,2.29905,2.98305,9.573001
1679995616284,1175604639354275,2.36205,3.0210001,9.41895
1679995616286,1175604641856660,2.38995,2.9989502,9.481951
1679995616289,1175604644358569,2.4070501,3.01605,9.43605
1679995616291,1175604646860646,2.2800002,2.9869502,9.361951
1679995616297,1175604649362799,2.38995,3.0190501,9.45495
1679995616298,1175604651864723,2.283,2.94,9.35505
1679995616301,1175604654366799,2.2470002,3.0930002,9.37605
1679995616302,1175604656868953,2.22495,3.0190501,9.264001
1679995616304,1175604659371184,2.187,3.00195,9.26595
1679995616306,1175604661873261,2.26095,3.07395,9.28005
1679995616309,1175604664375415,2.17995,3.01605,9.249001
1679995616312,1175604666877338,2.187,2.8920002,9.321
1679995616314,1175604669379415,2.22495,2.9539502,9.276
1679995616316,1175604671881569,2.2110002,2.8530002,9.333
1679995616318,1175604674383492,2.26305,2.94,9.225
1679995616321,1175604676885861,2.259,2.8990502,9.33495
1679995616324,1175604679387785,2.2080002,2.9520001,9.205951
1679995616326,1175604681889861,2.3110502,2.9920502,9.12495
1679995616329,1175604684392015,2.26095,2.8510501,9.321
1679995616333,1175604686894141,2.33295,2.91105,9.313951
1679995616334,1175604689396064,2.39805,2.9350502,9.1369505
1679995616337,1175604691898218,2.4100502,2.9160001,9.23505
1679995616339,1175604694400372,2.3779502,2.90595,9.23505
1679995616341,1175604696902449,2.39805,2.9850001,9.208051
1679995616344,1175604699404617,2.45295,2.877,9.196951
1679995616346,1175604701906540,2.33505,2.9230502,9.213
1679995616349,1175604704408694,2.5099502,2.9230502,9.10095
1679995616351,1175604706910771,2.4480002,2.9230502,9.225
1679995616355,1175604709413001,2.4499502,2.9179502,9.13395
1679995616358,1175604711915083,2.388,2.87505,9.220051
1679995616360,1175604714417237,2.3779502,2.9560502,9.208051
1679995616363,1175604716919160,2.319,2.8939502,9.18
1679995616364,1175604719421237,2.32095,3.0259502,9.11505
1679995616366,1175604721923381,2.30205,2.87295,9.23505
1679995616371,1175604724425304,2.2750502,2.94,9.358951
1679995616372,1175604726927689,2.1990001,2.9230502,9.30195
1679995616374,1175604729429612,2.22495,2.94195,9.319051
1679995616380,1175604731931785,2.1990001,2.904,9.3
1679995616381,1175604734433862,2.18895,2.8939502,9.345
1679995616382,1175604736936015,2.1720002,2.9179502,9.249001
1679995616384,1175604739437939,2.1100502,2.88,9.382951
1679995616386,1175604741940078,2.16,2.901,9.364051
1679995616389,1175604744442232,2.1679502,3.04695,9.216001
1679995616391,1175604746944309,2.16,2.94705,9.213
1679995616394,1175604749446463,2.1319501,2.8960502,9.232051
1679995616396,1175604751948612,2.1370502,2.97495,9.331051
1679995616399,1175604754450535,2.08395,3.01095,9.349951
1679995616401,1175604756952612,2.15295,2.97795,9.441
1679995616404,1175604759454766,2.0670002,2.9899502,9.3810005
1679995616409,1175604761956906,2.0740502,3.0550501,9.45495
1679995616410,1175604764458829,2.11995,3.009,9.40005
1679995616413,1175604766960983,2.0740502,2.9989502,9.345
1679995616414,1175604769463059,2.1340501,3.0900002,9.39795
1679995616416,1175604771965213,2.1700501,2.9280002,9.4459505
1679995616420,1175604774467347,2.256,2.9520001,9.43395
1679995616421,1175604776969501,2.14905,2.9179502,9.345
1679995616424,1175604779471424,2.05995,2.90595,9.38595
1679995616426,1175604781973578,2.12205,2.9539502,9.40695
1679995616429,1175604784475695,2.08395,2.9320502,9.474
1679995616431,1175604786977849,2.11305,2.9250002,9.477
1679995616434,1175604789479772,2.08905,2.90805,9.4140005
1679995616436,1175604791981926,2.0400002,2.9560502,9.441
1679995616439,1175604794484003,2.1010501,2.94,9.42405
1679995616441,1175604796986161,2.115,2.9850001,9.46695
1679995616445,1175604799488085,2.1409502,2.87505,9.41205
1679995616447,1175604801990469,2.184,2.8650002,9.429001
1679995616449,1175604804492425,2.2060502,2.7960002,9.441
1679995616451,1175604806994502,2.3809502,2.7499502,9.307051
1679995616454,1175604809496656,2.3500502,2.7600002,9.405001
1679995616456,1175604811998810,2.4019501,2.844,9.29205
1679995616459,1175604814500733,2.4049501,2.76705,9.358951
1679995616461,1175604817002825,2.3400002,2.8890002,9.28995
1679995616464,1175604819505056,2.4120002,2.77395,9.25395
1679995616466,1175604822007133,2.36205,2.76705,9.364051
1679995616469,1175604824509286,2.436,2.8219502,9.457951
1679995616471,1175604827011200,2.30205,2.7529502,9.4140005
1679995616474,1175604829513353,2.3160002,2.80095,9.24405
1679995616476,1175604832015430,2.4070501,2.832,9.352051
1679995616479,1175604834517584,2.319,2.83905,9.240001
1679995616483,1175604837019733,2.3740501,2.74305,9.361951
1679995616485,1175604839521887,2.32095,2.7600002,9.27105
1679995616487,1175604842023810,2.331,2.77905,9.187051
1679995616491,1175604844525887,2.35395,2.736,9.181951
1679995616492,1175604847028041,2.364,2.74305,9.264001
1679995616494,1175604849529979,2.3500502,2.5729501,9.26805
1679995616496,1175604852032363,2.33295,2.70705,9.24405
1679995616500,1175604854534286,2.3470502,2.76195,9.06495
1679995616501,1175604857036363,2.2750502,2.74305,9.252001
1679995616504,1175604859538545,2.3110502,2.6500502,9.276
1679995616506,1175604862040699,2.259,2.7220502,9.24705
1679995616509,1175604864542622,2.22495,2.7,9.273001
1679995616512,1175604867044699,2.30205,2.7120001,9.25905
1679995616514,1175604869546906,2.25195,2.7460501,9.331051
1679995616521,1175604872049060,2.2680001,2.7190502,9.132
1679995616522,1175604874551137,2.22495,2.66895,9.3810005
1679995616524,1175604877053060,2.2369502,2.7480001,9.264001
1679995616525,1175604879643834,2.23005,2.6830502,9.313951
1679995616527,1175604882057296,2.2399502,2.6809502,9.24405
1679995616530,1175604884559526,2.23005,2.7889502,9.316051
1679995616532,1175604887061603,2.21295,2.6190002,9.193951
1679995616534,1175604889563757,2.2470002,2.7190502,9.285001
1679995616537,1175604892065675,2.2060502,2.7,9.151051
1679995616540,1175604894567752,2.2750502,2.6830502,9.357
1679995616541,1175604897069906,2.2780502,2.7240002,9.26805
1679995616546,1175604899571829,2.232,2.73105,9.216001
1679995616547,1175604902073979,2.24895,2.664,9.285001
1679995616549,1175604904576133,2.2470002,2.6899502,9.30405
1679995616552,1175604907078287,2.19405,2.6160002,9.38595
1679995616554,1175604909580364,2.26605,2.631,9.261001
1679995616558,1175604912082291,2.2350001,2.6430001,9.307051
1679995616561,1175604914584444,2.2729502,2.71005,9.30405
1679995616563,1175604917086521,2.295,2.6190002,9.35505
1679995616564,1175604919588752,2.295,2.5519502,9.37605
1679995616567,1175604922090906,2.24895,2.7139502,9.41205
1679995616569,1175604924592993,2.29695,2.6209502,9.28995
1679995616571,1175604927094916,2.3470502,2.7,9.24405
1679995616575,1175604929597070,2.352,2.7139502,9.261001
1679995616576,1175604932099147,2.295,2.628,9.36705
1679995616579,1175604934601407,2.3160002,2.63805,9.405001
1679995616581,1175604937103484,2.4169502,2.63805,9.346951
1679995616584,1175604939605637,2.2750502,2.69805,9.3
1679995616587,1175604942107560,2.2440002,2.7220502,9.43605
1679995616590,1175604944609704,2.21595,2.71005,9.225
1679995616592,1175604947111781,2.2080002,2.6110501,9.3
1679995616595,1175604949613935,2.22795,2.6830502,9.35505
1679995616597,1175604952116089,2.24895,2.7139502,9.35505
1679995616600,1175604954617992,2.1679502,2.72895,9.3
1679995616605,1175604957120146,2.21595,2.7460501,9.37605
1679995616605,1175604959622223,2.2710001,2.6860502,9.340051
1679995616606,1175604962124146,2.2080002,2.74305,9.328051
1679995616609,1175604964626309,2.19405,2.6790001,9.26805
1679995616612,1175604967128463,2.2039502,2.59905,9.38805
1679995616614,1175604969630616,2.19405,2.592,9.3810005
1679995616616,1175604972132693,2.1460502,2.5759501,9.264001
1679995616619,1175604974634847,2.1679502,2.6520002,9.177
1679995616622,1175604977136742,2.2110002,2.592,9.181951
1679995616624,1175604979638819,2.18895,2.56095,9.153001
1679995616626,1175604982140973,2.21805,2.59905,9.1369505
1679995616629,1175604984643204,2.17995,2.6470501,9.175051
1679995616633,1175604987145276,2.364,2.5129502,9.205951
1679995616635,1175604989647430,2.24895,2.628,9.108001
1679995616637,1175604992149353,2.21805,2.66205,9.132
1679995616640,1175604994651430,2.364,2.6209502,9.192
1679995616642,1175604997153550,2.3760002,2.6160002,9.252001
1679995616645,1175604999655473,2.39805,2.6569502,9.18
1679995616647,1175605002157857,2.496,2.6520002,9.261001
1679995616649,1175605004659780,2.4499502,2.6500502,9.27105
1679995616652,1175605007161872,2.436,2.60205,9.204
1679995616654,1175605009664026,2.50305,2.66205,9.177
1679995616657,1175605012166180,2.53905,2.6209502,9.153001
1679995616660,1175605014668334,2.529,2.7,9.199051
1679995616663,1175605017170228,2.493,2.6140501,9.11295
1679995616664,1175605019672382,2.42895,2.6830502,9.205951
1679995616667,1175605022174459,2.4480002,2.67405,9.264001
1679995616673,1175605024676382,2.4409502,2.72895,9.204
1679995616674,1175605027178526,2.46,2.667,9.38595
1679995616675,1175605029680910,2.33295,2.8150501,9.25905
1679995616679,1175605032182833,2.457,2.7259502,9.345
1679995616680,1175605034684910,2.35395,2.667,9.349951
1679995616682,1175605037187064,2.3779502,2.736,9.43605
1679995616684,1175605039688982,2.319,2.6590502,9.364051
1679995616687,1175605042191059,2.35695,2.71005,9.477
1679995616690,1175605044693290,2.42205,2.7840002,9.37395
1679995616692,1175605047195444,2.33295,2.7139502,9.573001
1679995616694,1175605049697521,2.3470502,2.77005,9.441
1679995616696,1175605052199454,2.33505,2.772,9.472051
1679995616699,1175605054701608,2.424,2.6569502,9.526951
1679995616701,1175605057203685,2.259,2.805,9.44295
1679995616704,1175605059705838,2.3380501,2.83395,9.477
1679995616708,1175605062208006,2.33505,2.832,9.549001
1679995616712,1175605064710160,2.35395,2.73795,9.58005
1679995616712,1175605067212083,2.35695,2.7169502,9.44295
1679995616714,1175605069714160,2.3760002,2.77005,9.40695
1679995616716,1175605072216319,2.3160002,2.8150501,9.4459505
1679995616720,1175605074718473,2.3760002,2.559,9.490951
1679995616722,1175605077220396,2.29905,2.8249502,9.61305
1679995616724,1175605079722550,2.292,2.73105,9.469951
1679995616726,1175605082224689,2.2350001,2.7190502,9.402
1679995616729,1175605084726766,2.2369502,2.73405,9.56295
1679995616731,1175605087228919,2.295,2.71005,9.42405
1679995616734,1175605089730842,2.24895,2.7600002,9.55305
1679995616736,1175605092232996,2.24895,2.7769501,9.33495
1679995616739,1175605094735150,2.28495,2.7259502,9.41205
1679995616742,1175605097237304,2.2399502,2.74305,9.3810005
1679995616746,1175605099739381,2.2080002,2.7600002,9.41205
1679995616747,1175605102241309,2.2729502,2.736,9.498
1679995616750,1175605104743463,2.2680001,2.7220502,9.43395
1679995616752,1175605107245617,2.3040001,2.73405,9.37605
1679995616754,1175605109747694,2.2750502,2.6790001,9.514951
1679995616758,1175605112249866,2.187,2.70195,9.357
1679995616761,1175605114752020,2.22,2.77005,9.364051
1679995616763,1175605117253943,2.2060502,2.70705,9.34305
1679995616764,1175605119756020,2.2009501,2.74305,9.225
1679995616767,1175605122258174,2.23005,2.7499502,9.345
1679995616770,1175605124760344,2.3070002,2.736,9.37395
1679995616772,1175605127262498,2.36205,2.67405,9.307051
1679995616774,1175605129764421,2.4,2.736,9.27105
1679995616776,1175605132266575,2.3689501,2.66895,9.393001
1679995616779,1175605134768637,2.4190502,2.63805,9.313951
1679995616783,1175605137270791,2.457,2.7190502,9.370951
1679995616785,1175605139772944,2.4019501,2.76195,9.394951
1679995616787,1175605142274868,2.4859502,2.7,9.337951
1679995616789,1175605144777021,2.46195,2.77905,9.288
1679995616792,1175605147279103,2.3860502,2.8249502,9.364051
1679995616794,1175605149781257,2.46195,2.7550502,9.321
1679995616797,1175605152283411,2.4019501,2.77005,9.28995
1679995616799,1175605154785334,2.4,2.87505,9.38805
1679995616801,1175605157287406,2.33505,2.80095,9.3810005
1679995616806,1175605159789560,2.4139502,2.8560002,9.309
1679995616807,1175605162291714,2.38995,2.841,9.319051
1679995616809,1175605164793868,2.3740501,2.8510501,9.333
1679995616812,1175605167295815,2.4139502,2.832,9.369
1679995616814,1175605169797969,2.4019501,2.8290002,9.43605
1679995616817,1175605172300045,2.42205,2.77905,9.426001
1679995616821,1175605174802204,2.4019501,2.80995,9.364051
1679995616823,1175605177304358,2.50305,2.8630502,9.40695
1679995616825,1175605179806281,2.388,2.7960002,9.457951
1679995616829,1175605182308435,2.39505,2.7529502,9.462001
1679995616831,1175605184810512,2.496,2.736,9.417001
1679995616833,1175605187312695,2.46705,2.80995,9.38595
1679995616834,1175605189814618,2.49795,2.8840501,9.43395
1679995616837,1175605192316772,2.49105,2.8270502,9.405001
1679995616839,1175605194818926,2.4840002,2.7859502,9.38805
1679995616842,1175605197321080,2.52195,2.7529502,9.429001
1679995616844,1175605199823161,2.4499502,2.772,9.39795
1679995616847,1175605202325315,2.42205,2.8960502,9.462001
1679995616849,1175605204827238,2.52195,2.8219502,9.39105
1679995616851,1175605207329315,2.436,2.79795,9.5130005
1679995616854,1175605209831477,2.4409502,2.8249502,9.405001
1679995616858,1175605212333631,2.39805,2.7769501,9.44295
1679995616860,1175605214835785,2.364,2.7889502,9.541051
1679995616862,1175605217337695,2.30205,2.8150501,9.36705
1679995616864,1175605219839849,2.295,2.79795,9.32295
1679995616867,1175605222341926,2.3040001,2.7930002,9.43395
1679995616869,1175605224844080,2.25405,2.8200002,9.370951
1679995616871,1175605227346003,2.26605,2.83695,9.405001
1679995616874,1175605229848142,2.2399502,2.83905,9.43605
1679995616877,1175605232350218,2.2009501,2.841,9.340051
1679995616879,1175605234852372,2.2369502,2.8530002,9.36705
1679995616882,1175605237354526,2.19405,2.7220502,9.316051
1679995616884,1175605239856695,2.2399502,2.7550502,9.34305
1679995616887,1175605242358618,2.295,2.76195,9.32295
1679995616889,1175605244860695,2.2680001,2.7810001,9.361951
1679995616891,1175605247362849,2.26095,2.7499502,9.297001
1679995616897,1175605249865003,2.26095,2.7529502,9.316051
1679995616899,1175605252366926,2.1700501,2.76495,9.25395
1679995616902,1175605254869080,2.2039502,2.7,9.264001
1679995616903,1175605257371234,2.21595,2.8290002,9.3
1679995616905,1175605259873310,2.26305,2.69295,9.319051
1679995616907,1175605262375464,2.187,2.76195,9.33495
1679995616910,1175605264877387,2.33295,2.71005,9.25605
1679995616912,1175605267379541,2.259,2.77905,9.1699505
1679995616914,1175605269881618,2.259,2.7499502,9.28005
1679995616917,1175605272383829,2.25405,2.76705,9.25905
1679995616924,1175605274885906,2.29695,2.7889502,9.321
1679995616925,1175605277388060,2.223,2.8150501,9.37605
1679995616926,1175605279889983,2.3040001,2.8249502,9.42195
1679995616929,1175605282392055,2.2680001,2.7960002,9.40005
1679995616931,1175605284894209,2.36205,2.7889502,9.249001
1679995616933,1175605287396362,2.259,2.83695,9.4459505
1679995616935,1175605289898516,2.3470502,2.80995,9.394951
1679995616937,1175605292400646,2.24895,2.7930002,9.42195
1679995616940,1175605294902569,2.2369502,2.8960502,9.37395
1679995616942,1175605297404646,2.2399502,2.77905,9.453
1679995616945,1175605299906569,2.29005,2.8219502,9.4140005
1679995616947,1175605302408723,2.2009501,2.8459501,9.40695
1679995616949,1175605304910867,2.2800002,2.904,9.42405
1679995616951,1175605307413021,2.2369502,2.8270502,9.493951
1679995616954,1175605309915098,2.184,2.808,9.39105
1679995616957,1175605312417252,2.3110502,2.904,9.490951
1679995616959,1175605314919189,2.283,2.8960502,9.441
1679995616965,1175605317421343,2.2800002,2.8960502,9.417001
1679995616966,1175605319923419,2.3830502,2.88,9.382951
1679995616967,1175605322425650,2.3689501,2.8510501,9.382951
1679995616972,1175605324927737,2.22495,2.9520001,9.472051
1679995616974,1175605327429891,2.3160002,2.868,9.465
1679995616975,1175605329931814,2.39505,2.9539502,9.38805
1679995616977,1175605332433891,2.328,2.87295,9.38595
1679995616979,1175605334936054,2.2780502,2.94,9.32295
1679995616982,1175605337438208,2.36205,2.9179502,9.32295
1679995616984,1175605339940362,2.36595,2.8939502,9.429001
1679995616987,1175605342442285,2.33505,2.91105,9.51
1679995616989,1175605344944430,2.29005,2.844,9.39795
1679995616992,1175605347446506,2.25405,2.8510501,9.417001
1679995616994,1175605349948430,2.32095,2.8489501,9.27795
1679995616997,1175605352450583,2.3400002,2.7840002,9.37395
1679995616999,1175605354952977,2.29005,2.77905,9.345
1679995617003,1175605357454900,2.2800002,2.8579502,9.42405
1679995617005,1175605359956977,2.2800002,2.9539502,9.393001
1679995617009,1175605362459127,2.259,2.805,9.501
1679995617012,1175605364961050,2.3400002,2.8650002,9.41205
1679995617013,1175605367463204,2.4120002,2.7259502,9.349951
1679995617015,1175605369965358,2.319,2.90595,9.4140005
1679995617017,1175605372467512,2.32095,2.8170002,9.460051
1679995617019,1175605374969583,2.388,2.83395,9.285001
1679995617022,1175605377471737,2.3500502,2.80995,9.394951
1679995617024,1175605379973660,2.352,2.772,9.39105
1679995617027,1175605382475737,2.2800002,2.83395,9.364051
1679995617030,1175605384977872,2.283,2.8890002,9.35505
1679995617032,1175605387480026,2.364,2.7529502,9.34305
1679995617034,1175605389982180,2.295,2.77905,9.261001
1679995617037,1175605392484103,2.3110502,2.7960002,9.316051
1679995617039,1175605394986180,2.30205,2.7810001,9.31095
1679995617042,1175605397488334,2.22,2.6830502,9.38595
1679995617046,1175605399990257,2.3380501,2.79795,9.346951
1679995617048,1175605402492411,2.2750502,2.8150501,9.505051
1679995617050,1175605404994565,2.3400002,2.79795,9.369
1679995617052,1175605407496718,2.3070002,2.71005,9.357
1679995617054,1175605409998795,2.33295,2.7190502,9.382951
1679995617057,1175605412500949,2.30205,2.76705,9.393001
1679995617059,1175605415002872,2.33295,2.7550502,9.297001
1679995617062,1175605417505040,2.2800002,2.7910502,9.394951
1679995617064,1175605420007194,2.33295,2.69805,9.474
1679995617067,1175605422509348,2.2680001,2.71005,9.39105
1679995617070,1175605425011425,2.3430002,2.69295,9.40695
1679995617072,1175605427513358,2.2369502,2.76195,9.328051
1679995617074,1175605430015512,2.2009501,2.7240002,9.309
1679995617077,1175605432517665,2.2420502,2.7910502,9.33495
1679995617080,1175605435019742,2.295,2.7930002,9.37605
1679995617083,1175605437521900,2.25195,2.7460501,9.345
1679995617086,1175605440024054,2.3110502,2.80095,9.45495
1679995617088,1175605442525977,2.32305,2.7550502,9.501
1679995617090,1175605445028054,2.3089502,2.6809502,9.39795
1679995617092,1175605447530285,2.33295,2.7840002,9.40005
1679995617096,1175605450032372,2.2420502,2.67405,9.505051
1679995617097,1175605452534526,2.1990001,2.7499502,9.45495
1679995617099,1175605455036449,2.46495,2.8249502,9.472051
1679995617102,1175605457538603,2.3160002,2.8510501,9.465
1679995617105,1175605460040680,2.3689501,2.8819501,9.490951
1679995617107,1175605462542608,2.33295,2.8219502,9.486
1679995617110,1175605465044992,2.328,2.7810001,9.490951
1679995617113,1175605467546915,2.29005,2.8249502,9.525001
1679995617115,1175605470049069,2.2440002,2.80305,9.4789505
1679995617117,1175605472551136,2.2440002,2.8530002,9.541051
1679995617122,1175605475053290,2.187,2.8270502,9.45495
1679995617125,1175605477555213,2.2350001,2.86995,9.453
1679995617126,1175605480057357,2.19195,2.8609502,9.472051
1679995617128,1175605482559511,2.25195,2.7960002,9.417001
1679995617130,1175605485061665,2.2470002,2.8489501,9.41205
1679995617132,1175605487563742,2.26605,2.844,9.53205
1679995617134,1175605490065665,2.2470002,2.841,9.526951
1679995617137,1175605492567813,2.29005,2.8630502,9.55305
1679995617140,1175605495069890,2.3160002,2.8489501,9.5460005
1679995617143,1175605497572121,2.4409502,2.7889502,9.541051
1679995617146,1175605500074198,2.36205,2.844,9.42195
1679995617147,1175605502576357,2.3089502,2.7169502,9.508051
1679995617150,1175605505078280,2.3070002,2.7859502,9.460051
1679995617152,1175605507580434,2.3740501,2.8510501,9.361951
1679995617155,1175605510082511,2.3430002,2.94405,9.417001
1679995617160,1175605512584675,2.3070002,2.9230502,9.4459505
1679995617163,1175605515086829,2.3380501,2.79795,9.40695
1679995617164,1175605517588752,2.3089502,2.8920002,9.517051
1679995617165,1175605520090905,2.29695,2.8150501,9.426001
1679995617167,1175605522592972,2.2369502,2.841,9.42195
1679995617169,1175605525094895,2.29005,2.868,9.34305
1679995617172,1175605527597280,2.26605,2.77005,9.394951
1679995617174,1175605530099434,2.2369502,2.7910502,9.349951
1679995617177,1175605532601372,2.2750502,2.73405,9.4140005
1679995617179,1175605535103449,2.3089502,2.76195,9.538951
1679995617182,1175605537605603,2.29695,2.808,9.42405
1679995617184,1175605540107526,2.25195,2.73105,9.405001
1679995617187,1175605542609680,2.256,2.7840002,9.426001
1679995617189,1175605545111757,2.3470502,2.808,9.438001
1679995617192,1175605547613987,2.3160002,2.7,9.472051
1679995617196,1175605550116064,2.29695,2.805,9.465
1679995617198,1175605552617996,2.3430002,2.7259502,9.43605
1679995617200,1175605555120150,2.388,2.7460501,9.39795
1679995617202,1175605557622304,2.3140502,2.70705,9.37605
1679995617204,1175605560124381,2.32605,2.6860502,9.30405
1679995617207,1175605562626304,2.25195,2.8150501,9.364051
1679995617210,1175605565128694,2.30205,2.71005,9.42405
1679995617216,1175605567630617,2.23005,2.80095,9.393001
1679995617216,1175605570132771,2.22795,2.7,9.337951
1679995617219,1175605572634848,2.328,2.6470501,9.37605
1679995617221,1175605575137002,2.3760002,2.7259502,9.361951
1679995617223,1175605577638925,2.3500502,2.69295,9.441
1679995617225,1175605580141309,2.4049501,2.7190502,9.288
1679995617231,1175605582643232,2.3689501,2.7460501,9.441
1679995617231,1175605585145309,2.295,2.67105,9.402
1679995617233,1175605587647463,2.32605,2.7139502,9.307051
1679995617235,1175605590149617,2.39505,2.7550502,9.331051
1679995617237,1175605592651540,2.4120002,2.7550502,9.27795
1679995617241,1175605595153612,2.36595,2.77005,9.370951
1679995617242,1175605597655843,2.39295,2.6550002,9.309
1679995617246,1175605600157920,2.35395,2.70495,9.42195
1679995617247,1175605602659843,2.4100502,2.6860502,9.526951
1679995617250,1175605605161997,2.43405,2.5540502,9.393001
1679995617252,1175605607664179,2.32305,2.59695,9.486
1679995617255,1175605610166256,2.29905,2.664,9.505051
1679995617257,1175605612668410,2.3400002,2.736,9.40695
1679995617260,1175605615170564,2.26095,2.6809502,9.405001
1679995617263,1175605617672477,2.4430501,2.74305,9.46695
1679995617264,1175605620174554,2.32095,2.6899502,9.37905
1679995617267,1175605622676785,2.388,2.6430001,9.429001
1679995617271,1175605625178881,2.328,2.67405,9.319051
1679995617273,1175605627680804,2.3380501,2.70195,9.417001
1679995617274,1175605630182958,2.2750502,2.7220502,9.469951
1679995617277,1175605632685112,2.28705,2.70195,9.40695
1679995617279,1175605635187265,2.223,2.6500502,9.42195
1679995617282,1175605637689376,2.25195,2.5830002,9.394951
1679995617284,1175605640191299,2.256,2.6550002,9.453
1679995617287,1175605642693453,2.2470002,2.63295,9.43395
1679995617290,1175605645195530,2.15295,2.6430001,9.352051
1679995617292,1175605647697761,2.2440002,2.63505,9.273001
1679995617296,1175605650199838,2.19195,2.66895,9.42405
1679995617298,1175605652701992,2.22795,2.631,9.441
1679995617300,1175605655203915,2.25195,2.76495,9.549001
1679995617302,1175605657705992,2.2470002,2.6569502,9.364051
1679995617305,1175605660208146,2.3689501,2.67105,9.522
1679995617308,1175605662710300,2.3110502,2.70495,9.43395
1679995617313,1175605665212223,2.35395,2.6899502,9.402
1679995617313,1175605667714371,2.3760002,2.73795,9.36705
1679995617315,1175605670216448,2.3779502,2.736,9.469951
1679995617317,1175605672718602,2.39295,2.72895,9.32295
1679995617320,1175605675220756,2.4769502,2.74305,9.484051
1679995617322,1175605677722679,2.3689501,2.63805,9.41205
1679995617325,1175605680224819,2.4480002,2.7930002,9.345
1679995617327,1175605682726896,2.39295,2.69295,9.345
1679995617330,1175605685229050,2.46495,2.7240002,9.319051
1679995617332,1175605687730973,2.43105,2.736,9.325951
1679995617335,1175605690233337,2.4,2.71005,9.33495
1679995617337,1175605692735261,2.39295,2.7930002,9.394951
1679995617340,1175605695237414,2.4840002,2.74305,9.364051
1679995617342,1175605697739491,2.4499502,2.66205,9.39795
1679995617346,1175605700241646,2.35395,2.7190502,9.31095
1679995617348,1175605702743569,2.35395,2.6500502,9.35505
1679995617350,1175605705245723,2.4049501,2.7550502,9.40695
1679995617352,1175605707747877,2.46,2.7,9.40695
1679995617357,1175605710250031,2.4480002,2.6809502,9.43095
1679995617358,1175605712752117,2.4409502,2.74305,9.526951
1679995617360,1175605715254271,2.4120002,2.69295,9.405001
1679995617363,1175605717756194,2.4120002,2.628,9.369
1679995617365,1175605720258271,2.4480002,2.7169502,9.369
1679995617367,1175605722760501,2.3710501,2.6569502,9.345
1679995617370,1175605725262592,2.352,2.6110501,9.35505
1679995617372,1175605727764515,2.3689501,2.6809502,9.28995
1679995617375,1175605730266669,2.29005,2.7220502,9.273001
1679995617377,1175605732768823,2.3380501,2.66205,9.288
1679995617380,1175605735270891,2.3110502,2.59905,9.237
1679995617383,1175605737772814,2.29695,2.5780501,9.288
1679995617385,1175605740275199,2.3380501,2.67105,9.165
1679995617387,1175605742777122,2.328,2.5560002,9.225
1679995617390,1175605745279199,2.32095,2.6110501,9.288
1679995617396,1175605747781353,2.3500502,2.7259502,9.22305
1679995617397,1175605750283506,2.3140502,2.71005,9.24195
1679995617399,1175605752785430,2.33505,2.6470501,9.297001
1679995617400,1175605755287583,2.32095,2.667,9.295051
1679995617402,1175605757789737,2.3500502,2.63295,9.361951
1679995617405,1175605760291814,2.3140502,2.67405,9.229951
1679995617409,1175605762793944,2.3860502,2.7529502,9.24405
1679995617412,1175605765295867,2.32605,2.631,9.29205
1679995617413,1175605767798021,2.3760002,2.6089501,9.42405
1679995617415,1175605770300098,2.30205,2.7460501,9.349951
1679995617417,1175605772802329,2.32605,2.5800002,9.28005
1679995617423,1175605775304402,2.223,2.5780501,9.352051
1679995617424,1175605777806555,2.33295,2.571,9.4140005
1679995617425,1175605780308479,2.25195,2.60205,9.40995
1679995617429,1175605782810555,2.3449502,2.59905,9.44295
1679995617431,1175605785312709,2.26095,2.5849502,9.394951
1679995617432,1175605787814632,2.24895,2.592,9.43605
1679995617434,1175605790317017,2.2800002,2.5200002,9.352051
1679995617437,1175605792818940,2.29005,2.6449502,9.469951
1679995617440,1175605795321093,2.2710001,2.607,9.51
1679995617442,1175605797823170,2.19405,2.5540502,9.541051
1679995617446,1175605800325324,2.26305,2.50095,9.382951
1679995617447,1175605802827247,2.2350001,2.60205,9.37605
1679995617450,1175605805329373,2.26605,2.5849502,9.394951
1679995617452,1175605807831527,2.319,2.67405,9.450001
1679995617456,1175605810333680,2.32605,2.595,9.41895
1679995617459,1175605812835757,2.3160002,2.6590502,9.438001
1679995617462,1175605815337921,2.3089502,2.6160002,9.42195
1679995617463,1175605817839844,2.3689501,2.568,9.40995
1679995617465,1175605820341921,2.35905,2.6470501,9.352051
1679995617467,1175605822844152,2.331,2.5870502,9.313951
1679995617470,1175605825346229,2.4190502,2.63805,9.394951
1679995617473,1175605827848401,2.436,2.67105,9.27795
1679995617475,1175605830350324,2.45295,2.6470501,9.333
1679995617477,1175605832852478,2.4169502,2.559,9.394951
1679995617480,1175605835354555,2.4120002,2.6899502,9.426001
1679995617482,1175605837856474,2.4840002,2.664,9.295051
1679995617484,1175605840358628,2.50095,2.71005,9.39105
1679995617487,1175605842861012,2.52495,2.6899502,9.39795
1679995617489,1175605845362935,2.60595,2.7,9.357
1679995617492,1175605847865021,2.6470501,2.59695,9.41205
1679995617496,1175605850366944,2.63505,2.6500502,9.472051
1679995617498,1175605852869098,2.6950502,2.571,9.429001
1679995617501,1175605855371483,2.6419501,2.47005,9.41205
1679995617502,1175605857873415,2.6110501,2.6590502,9.328051
1679995617505,1175605860375569,2.59605,2.523,9.441
1679995617507,1175605862877646,2.6490002,2.664,9.340051
1679995617510,1175605865379569,2.73495,2.5759501,9.441
1679995617513,1175605867881705,2.73795,2.6209502,9.43605
1679995617515,1175605870383781,2.66295,2.6260502,9.393001
1679995617518,1175605872885935,2.6539502,2.6790001,9.220051
1679995617520,1175605875388089,2.7280502,2.6790001,9.346951
1679995617522,1175605877890233,2.50095,2.70195,9.534
1679995617525,1175605880392156,2.532,2.5560002,9.357
1679995617527,1175605882894310,2.63505,2.56395,9.24705
1679995617530,1175605885396464,2.5819502,2.5780501,9.240001
1679995617534,1175605887898555,2.57505,2.6569502,9.40995
1679995617535,1175605890400709,2.57505,2.6209502,9.36705
1679995617537,1175605892902632,2.4550502,2.5159502,9.249001
1679995617540,1175605895404709,2.5080001,2.70195,9.333
1679995617544,1175605897906862,2.33295,2.5800002,9.31095
1679995617547,1175605900409020,2.39505,2.6140501,9.28995
1679995617548,1175605902911174,2.223,2.64,9.340051
1679995617550,1175605905413097,2.1649501,2.568,9.394951
1679995617552,1175605907915251,2.091,2.6470501,9.36705
1679995617555,1175605910417310,1.9950001,2.5830002,9.364051
1679995617557,1175605912919464,2.046,2.5519502,9.37905
1679995617560,1175605915421387,1.9350001,2.5200002,9.4140005
1679995617562,1175605917923541,1.96905,2.535,9.486
1679995617565,1175605920425695,1.9279501,2.5870502,9.41895
1679995617568,1175605922927849,1.9279501,2.45595,9.45495
1679995617573,1175605925429925,1.794,2.3790002,9.43605
1679995617574,1175605927931849,1.8079501,2.46105,9.441
1679995617575,1175605930433925,1.8540001,2.50605,9.453
1679995617577,1175605932936387,1.9570501,2.50395,9.469951
1679995617580,1175605935438310,1.8870001,2.4870002,9.474
1679995617582,1175605937940387,2.02605,2.5519502,9.486
1679995617585,1175605940442310,2.06205,2.5759501,9.474
1679995617588,1175605942944435,2.05305,2.52495,9.394951
1679995617589,1175605945446512,2.163,2.631,9.40995
1679995617592,1175605947948666,2.1649501,2.664,9.352051
1679995617596,1175605950450896,2.18895,2.50395,9.465
1679995617597,1175605952952978,2.196,2.5440001,9.40995
1679995617600,1175605955454902,2.33295,2.5399501,9.40695
1679995617602,1175605957957055,2.26605,2.5399501,9.44295
1679995617605,1175605960459132,2.295,2.5180502,9.42195
1679995617608,1175605962961271,2.25195,2.60205,9.441
1679995617612,1175605965463425,2.21595,2.5729501,9.393001
1679995617613,1175605967965579,2.32305,2.523,9.346951
1679995617615,1175605970467502,2.3830502,2.607,9.498
1679995617618,1175605972969656,2.36595,2.5519502,9.370951
1679995617620,1175605975471723,2.4190502,2.5800002,9.316051
1679995617623,1175605977973646,2.4100502,2.5900502,9.345
1679995617625,1175605980475800,2.3710501,2.6449502,9.331051
1679995617629,1175605982977953,2.53695,2.628,9.27795
1679995617630,1175605985480107,2.48895,2.5849502,9.43095
1679995617632,1175605987982179,2.53905,2.6449502,9.460051
1679995617635,1175605990484333,2.4550502,2.67105,9.40005
1679995617637,1175605992986256,2.6130002,2.70195,9.364051
1679995617640,1175605995488410,2.5459502,2.6209502,9.41205
1679995617643,1175605997990458,2.53695,2.568,9.328051
1679995617647,1175606000492612,2.59905,2.64,9.28005
1679995617649,1175606002994766,2.55795,2.5800002,9.40695
1679995617651,1175606005496689,2.52495,2.5800002,9.340051
1679995617653,1175606007998853,2.5840502,2.628,9.441
1679995617655,1175606010500930,2.6250002,2.592,9.309
1679995617657,1175606013003083,2.5530002,2.5420501,9.38595
1679995617660,1175606015505237,2.4139502,2.6140501,9.43395
1679995617662,1175606018007160,2.52495,2.6500502,9.382951
1679995617665,1175606020509300,2.4120002,2.631,9.28005
1679995617668,1175606023011377,2.3830502,2.559,9.297001
1679995617670,1175606025513531,2.43105,2.667,9.261001
1679995617673,1175606028015454,2.42595,2.6110501,9.328051
1679995617675,1175606030517617,2.292,2.63505,9.37905
1679995617678,1175606033019771,2.3040001,2.5900502,9.382951
1679995617680,1175606035521925,2.3400002,2.5780501,9.405001
1679995617684,1175606038024007,2.25195,2.56095,9.44295
1679995617686,1175606040526160,2.24895,2.60205,9.490951
1679995617688,1175606043028083,2.22495,2.5780501,9.307051
1679995617691,1175606045530160,2.1340501,2.6809502,9.38805
1679995617692,1175606048032314,2.05995,2.664,9.450001
1679995617695,1175606050534487,2.11305,2.70495,9.549001
1679995617697,1175606053036641,2.1409502,2.66895,9.55305
1679995617700,1175606055538564,2.05305,2.6089501,9.558001
1679995617702,1175606058040718,2.0299501,2.7460501,9.604051
1679995617705,1175606060542776,2.2110002,2.631,9.582001
1679995617707,1175606063044930,2.1700501,2.7259502,9.498
1679995617710,1175606065547084,2.1409502,2.6809502,9.529051
1679995617712,1175606068049007,2.17995,2.6860502,9.441
1679995617715,1175606070551160,2.14905,2.6899502,9.604051
1679995617718,1175606073053309,2.21805,2.808,9.585
1679995617721,1175606075555386,2.2800002,2.664,9.53205
1679995617723,1175606078057309,2.19195,2.7,9.58695
1679995617725,1175606080559463,2.163,2.76705,9.64395
1679995617728,1175606083061641,2.2369502,2.6500502,9.59895
1679995617730,1175606085563718,2.2680001,2.73105,9.498
1679995617732,1175606088065872,2.29005,2.6260502,9.54405
1679995617735,1175606090568026,2.2369502,2.6209502,9.634951
1679995617737,1175606093069935,2.3689501,2.70495,9.606001
1679995617740,1175606095572012,2.3830502,2.6470501,9.52005
1679995617743,1175606098074242,2.35695,2.592,9.4459505
1679995617745,1175606100576319,2.52495,2.628,9.490951
1679995617748,1175606103078256,2.4790502,2.6860502,9.484051
1679995617750,1175606105580410,2.52495,2.69295,9.585
1679995617752,1175606108082487,2.6179502,2.60205,9.517051
1679995617755,1175606110584718,2.604,2.6550002,9.55305
1679995617759,1175606113086824,2.6490002,2.595,9.44295
1679995617762,1175606115588747,2.66295,2.6550002,9.45495
1679995617763,1175606118090901,2.70705,2.5870502,9.498
1679995617765,1175606120593055,2.63895,2.5080001,9.490951
1679995617768,1175606123095132,2.63505,2.52495,9.38805
1679995617770,1175606125597300,2.62995,2.49405,9.340051
1679995617772,1175606128099453,2.63505,2.56095,9.43395
1679995617775,1175606130601376,2.568,2.535,9.346951
1679995617778,1175606133103530,2.637,2.56605,9.346951
1679995617780,1175606135605623,2.59905,2.5519502,9.276
1679995617782,1175606138107777,2.5510502,2.4870002,9.283051
1679995617785,1175606140609700,2.5099502,2.592,9.23505
1679995617788,1175606143111854,2.4,2.4870002,9.13395
1679995617790,1175606145614008,2.493,2.568,9.177
1679995617793,1175606148116170,2.436,2.6209502,9.156
1679995617796,1175606150618247,2.2680001,2.52495,9.340051
1679995617799,1175606153120170,2.4,2.5470002,9.225
1679995617801,1175606155622339,2.4409502,2.6089501,9.358951
1679995617803,1175606158124416,2.32605,2.69805,9.361951
1679995617805,1175606160626569,2.42895,2.7120001,9.30405
1679995617808,1175606163128723,2.3110502,2.6230502,9.288
1679995617810,1175606165630877,2.3070002,2.6860502,9.297001
1679995617813,1175606168132809,2.3500502,2.7,9.27795
1679995617815,1175606170634886,2.30205,2.6520002,9.369
1679995617817,1175606173137040,2.30205,2.67105,9.328051
1679995617820,1175606175639194,2.295,2.736,9.35505
1679995617823,1175606178141324,2.35695,2.7139502,9.441
1679995617825,1175606180643247,2.38995,2.676,9.481951
1679995617828,1175606183145401,2.331,2.667,9.526951
1679995617831,1175606185647478,2.4430501,2.736,9.42195
1679995617834,1175606188149650,2.38995,2.63505,9.585
1679995617836,1175606190651573,2.4409502,2.6860502,9.58005
1679995617837,1175606193153958,2.493,2.73105,9.51
1679995617840,1175606195655881,2.36595,2.5800002,9.649051
1679995617842,1175606198158035,2.388,2.664,9.64395
1679995617845,1175606200660108,2.388,2.676,9.65205
1679995617848,1175606203162031,2.4430501,2.6830502,9.778951
1679995617850,1175606205664185,2.29005,2.604,9.58905
1679995617856,1175606208166339,2.3760002,2.66205,9.606001
1679995617856,1175606210668507,2.2710001,2.63505,9.654
1679995617857,1175606213170584,2.319,2.74305,9.549001
1679995617860,1175606215672737,2.331,2.6140501,9.670951
1679995617862,1175606218174660,2.29905,2.664,9.55095
1679995617865,1175606220676718,2.2420502,2.69295,9.64395
1679995617867,1175606223178872,2.223,2.631,9.573001
1679995617872,1175606225681103,2.2750502,2.664,9.72795
1679995617873,1175606228183180,2.2800002,2.47305,9.711
1679995617875,1175606230685103,2.2440002,2.5440001,9.679951
1679995617878,1175606233187262,2.1990001,2.5800002,9.570001
1679995617880,1175606235689339,2.21805,2.5420501,9.723001
1679995617883,1175606238191262,2.2060502,2.52495,9.55605
1679995617885,1175606240693416,2.08905,2.4870002,9.72795
1679995617887,1175606243195790,2.1049502,2.5470002,9.673051
1679995617890,1175606245697713,2.1720002,2.47005,9.70905
1679995617892,1175606248199790,2.14395,2.4820502,9.549001
1679995617895,1175606250701944,2.1390002,2.52795,9.69495
1679995617897,1175606253203853,2.1340501,2.4439502,9.667951
1679995617900,1175606255706007,2.19195,2.5420501,9.56805
1679995617902,1175606258208161,2.15595,2.47305,9.654
1679995617905,1175606260710315,2.21295,2.4409502,9.625051
1679995617908,1175606263212397,2.2110002,2.45805,9.558001
1679995617911,1175606265714320,2.2420502,2.6230502,9.570001
1679995617913,1175606268216474,2.319,2.5849502,9.490951
1679995617915,1175606270718551,2.2369502,2.59695,9.4140005
1679995617917,1175606273220722,2.36595,2.5440001,9.529051
1679995617920,1175606275722953,2.3380501,2.604,9.417001
1679995617922,1175606278225030,2.36595,2.6550002,9.337951
1679995617925,1175606280726953,2.35395,2.6500502,9.537001
1679995617928,1175606283229084,2.4499502,2.667,9.42405
1679995617931,1175606285731161,2.4769502,2.631,9.44295
1679995617932,1175606288233315,2.42205,2.676,9.40005
1679995617935,1175606290735238,2.4430501,2.664,9.438001
1679995617938,1175606293237609,2.4499502,2.736,9.525001
1679995617940,1175606295739532,2.469,2.6190002,9.417001
1679995617942,1175606298241686,2.5200002,2.6809502,9.484051
1679995617946,1175606300743762,2.4450002,2.664,9.41895
1679995617949,1175606303245916,2.43405,2.6550002,9.340051
1679995617951,1175606305747839,2.3860502,2.6209502,9.297001
1679995617953,1175606308249993,2.4769502,2.70705,9.382951
1679995617957,1175606310752147,2.5200002,2.7190502,9.249001
1679995617959,1175606313254219,2.49105,2.6809502,9.457951
1679995617961,1175606315756373,2.52705,2.7580502,9.382951
1679995617962,1175606318258527,2.4840002,2.7529502,9.417001
1679995617965,1175606320760450,2.56995,2.6899502,9.25905
1679995617969,1175606323262580,2.4840002,2.7220502,9.357
1679995617970,1175606325764657,2.50095,2.7480001,9.23505
1679995617973,1175606328266810,2.6179502,2.7910502,9.358951
1679995617975,1175606330768734,2.6110501,2.8249502,9.213
1679995617979,1175606333270887,2.48895,2.8270502,9.288
1679995617982,1175606335773036,2.5440001,2.76195,9.316051
1679995617984,1175606338275113,2.5510502,2.80095,9.39795
1679995617985,1175606340777267,2.532,2.7889502,9.309
1679995617991,1175606343279200,2.50305,2.7930002,9.33495
1679995617992,1175606345781354,2.469,2.8530002,9.369
1679995617993,1175606348283431,2.532,2.77005,9.453
1679995617996,1175606350785585,2.505,2.832,9.216001
1679995617998,1175606353287739,2.53395,2.8249502,9.273001
1679995618001,1175606355789868,2.4720001,2.841,9.297001
1679995618003,1175606358291792,2.436,2.8630502,9.38595
1679995618005,1175606360793868,2.35905,2.7910502,9.429001
1679995618009,1175606363296022,2.4070501,2.8630502,9.417001
1679995618010,1175606365797940,2.4019501,2.8510501,9.469951
1679995618012,1175606368300325,2.33295,2.8459501,9.35505
1679995618015,1175606370802248,2.32305,2.79795,9.264001
1679995618018,1175606373304402,2.25405,2.8249502,9.46695
1679995618021,1175606375806460,2.3160002,2.80995,9.37605
1679995618023,1175606378308614,2.30205,2.73405,9.346951
1679995618025,1175606380810537,2.26605,2.86995,9.22305
1679995618030,1175606383312691,2.223,2.77905,9.393001
1679995618031,1175606385814845,2.292,2.7889502,9.27795
1679995618033,1175606388316930,2.19195,2.8530002,9.369
1679995618035,1175606390819084,2.2780502,2.808,9.36705
1679995618039,1175606393321238,2.2399502,2.79795,9.501
1679995618041,1175606395823161,2.187,2.7240002,9.24195
1679995618043,1175606398325219,2.09295,2.83905,9.29205
1679995618046,1175606400827373,2.0670002,2.6830502,9.25395
1679995618049,1175606403329527,2.14905,2.631,9.42405
1679995618051,1175606405831450,2.11305,2.6209502,9.382951
1679995618053,1175606408333623,2.12205,2.5399501,9.32295
1679995618055,1175606410835777,2.11995,2.5759501,9.405001
1679995618060,1175606413337854,2.0770502,2.5540502,9.36705
1679995618063,1175606415839777,2.1079502,2.47005,9.3
1679995618065,1175606418342151,2.0380502,2.5519502,9.3
1679995618067,1175606420844074,2.1100502,2.46795,9.357
1679995618070,1175606423346228,2.0959501,2.50395,9.273001
1679995618071,1175606425848305,2.14905,2.45805,9.26805
1679995618073,1175606428350459,2.1700501,2.47305,9.249001
1679995618076,1175606430852378,2.12895,2.53695,9.22305
1679995618079,1175606433354455,2.127,2.496,9.283051
1679995618081,1175606435856686,2.1700501,2.50605,9.27795
1679995618083,1175606438358840,2.1649501,2.631,9.283051
1679995618085,1175606440860917,2.1679502,2.6550002,9.25605
1679995618089,1175606443362825,2.18895,2.5780501,9.29205
1679995618092,1175606445864979,2.2440002,2.6449502,9.33495
1679995618093,1175606448367055,2.19195,2.6470501,9.325951
1679995618097,1175606450869291,2.2369502,2.70705,9.357
1679995618099,1175606453371368,2.2440002,2.7139502,9.27105
1679995618101,1175606455873522,2.232,2.70495,9.28995
1679995618103,1175606458375445,2.30205,2.628,9.27105
1679995618105,1175606460877599,2.256,2.7769501,9.321
1679995618109,1175606463379695,2.2440002,2.70705,9.345
1679995618112,1175606465881618,2.33295,2.73105,9.307051
1679995618113,1175606468384003,2.3140502,2.6500502,9.345
1679995618115,1175606470886156,2.3070002,2.7220502,9.18
1679995618118,1175606473388080,2.32095,2.6569502,9.181951
1679995618121,1175606475890141,2.364,2.628,9.285001
1679995618123,1175606478392295,2.436,2.607,9.24705
1679995618125,1175606480894218,2.35395,2.67405,9.15795
1679995618129,1175606483396372,2.26605,2.69295,9.316051
1679995618132,1175606485898535,2.23005,2.7,9.156
1679995618134,1175606488400689,2.2750502,2.6470501,9.168
1679995618136,1175606490902766,2.259,2.667,9.199051
1679995618139,1175606493404689,2.2009501,2.6500502,9.217951
1679995618141,1175606495906829,2.11305,2.67405,9.10995
1679995618143,1175606498408983,2.058,2.7190502,9.168
1679995618146,1175606500911137,2.046,2.7120001,9.151051
1679995618149,1175606503413213,1.9279501,2.6830502,9.10305
1679995618152,1175606505915372,1.89495,2.76195,9.153001
1679995618153,1175606508417295,1.8370501,2.7220502,9.29205
1679995618155,1175606510919372,1.7010001,2.772,9.249001
1679995618159,1175606513421526,1.7509501,2.8170002,9.26595
1679995618165,1175606515923680,1.7839501,2.7910502,9.237
1679995618167,1175606518425853,1.6500001,2.76495,9.349951
1679995618169,1175606520927776,1.55505,2.83905,9.307051
1679995618171,1175606523429930,1.61205,2.9320502,9.441
1679995618173,1175606525932007,1.6789501,2.913,9.46695
1679995618175,1175606528434161,1.64295,2.868,9.4480505
1679995618176,1175606530936084,1.6360501,2.8249502,9.522
1679995618179,1175606533438238,1.57095,3.0040503,9.462001
1679995618181,1175606535940391,1.677,2.9590502,9.60105
1679995618183,1175606538442468,1.64295,2.904,9.55305
1679995618185,1175606540944391,1.7340001,2.877,9.558001
1679995618188,1175606543446545,1.69095,2.8150501,9.53205
1679995618191,1175606545948930,1.7629501,2.87295,9.667951
1679995618193,1175606548450867,1.7340001,2.8579502,9.618
1679995618196,1175606550952944,1.7680501,2.772,9.66405
1679995618199,1175606553455098,1.79595,2.8249502,9.498
1679995618202,1175606555957021,1.9450501,2.7810001,9.56295
1679995618203,1175606558459103,1.8400501,2.72895,9.60105
1679995618205,1175606560961333,1.8919501,2.70195,9.522
1679995618215,1175606563463487,1.9710001,2.7840002,9.5460005
1679995618216,1175606565965593,2.0359502,2.70705,9.481951
1679995618217,1175606568467516,2.06205,2.736,9.486
1679995618218,1175606570969670,2.1700501,2.76705,9.37605
1679995618220,1175606573471747,2.1319501,2.7139502,9.594001
1679995618222,1175606575973901,2.1649501,2.6830502,9.4459505
1679995618224,1175606578476055,2.22,2.7120001,9.514951
1679995618225,1175606580978194,2.15595,2.6260502,9.55305
1679995618231,1175606583480117,2.29695,2.71005,9.43605
1679995618232,1175606585982194,2.2080002,2.6860502,9.54405
1679995618235,1175606588484348,2.223,2.67105,9.393001
1679995618236,1175606590986521,2.21595,2.59905,9.490951
1679995618239,1175606593488444,2.2080002,2.607,9.594001
1679995618242,1175606595990598,2.2110002,2.6950502,9.58905
1679995618244,1175606598492752,2.23005,2.6209502,9.582001
1679995618247,1175606600994843,2.1649501,2.63505,9.529051
1679995618250,1175606603496997,2.12505,2.6520002,9.5130005
1679995618252,1175606605998920,2.12505,2.5800002,9.561001
1679995618253,1175606608500997,2.1100502,2.67105,9.501
1679995618255,1175606611003228,2.14395,2.6209502,9.38595
1679995618259,1175606613505392,2.02605,2.76195,9.4789505
1679995618262,1175606616007469,2.01705,2.64,9.46695
1679995618264,1175606618509392,1.9810501,2.6550002,9.42405
1679995618267,1175606621011545,1.8900001,2.7769501,9.37395
1679995618270,1175606623513703,1.899,2.72895,9.394951
1679995618273,1175606626015780,1.8610501,2.76195,9.340051
1679995618275,1175606628517934,1.84695,2.73405,9.481951
1679995618276,1175606631020088,1.8400501,2.72895,9.38595
1679995618279,1175606633522011,1.84905,2.80095,9.502951
1679995618283,1175606636024165,1.89495,2.7550502,9.465
1679995618284,1175606638526242,1.8610501,2.76195,9.441
1679995618286,1175606641028396,1.93095,2.79795,9.41895
1679995618289,1175606643530319,1.9399501,2.7840002,9.502951
1679995618290,1175606646032493,1.9590001,2.7810001,9.469951
1679995618293,1175606648534646,1.99995,2.8170002,9.481951
1679995618296,1175606651036723,2.1340501,2.7480001,9.53205
1679995618298,1175606653538877,2.0380502,2.7769501,9.558001
1679995618300,1175606656040805,2.079,2.664,9.59595
1679995618303,1175606658542959,2.163,2.736,9.489
1679995618307,1175606661045113,2.30205,2.69295,9.54405
1679995618309,1175606663547190,2.2420502,2.74095,9.534
1679995618311,1175606666049378,2.196,2.772,9.469951
1679995618313,1175606668551532,2.29905,2.74305,9.37905
1679995618315,1175606671053455,2.2440002,2.7960002,9.505051
1679995618318,1175606673555532,2.4120002,2.6569502,9.493951
1679995618322,1175606676057691,2.4190502,2.70705,9.462001
1679995618324,1175606678559844,2.3779502,2.74305,9.57495
1679995618326,1175606681061998,2.4049501,2.6520002,9.489
1679995618329,1175606683563921,2.4070501,2.67105,9.486
1679995618331,1175606686066075,2.52495,2.70705,9.55305
1679995618333,1175606688568128,2.52495,2.736,9.53205
1679995618335,1175606691070282,2.4499502,2.67405,9.460051
1679995618340,1175606693572436,2.45295,2.69295,9.549001
1679995618341,1175606696074359,2.39805,2.7240002,9.450001
1679995618343,1175606698576546,2.3809502,2.67405,9.538951
1679995618346,1175606701078623,2.42895,2.73795,9.4789505
1679995618349,1175606703580777,2.3500502,2.6520002,9.51
1679995618351,1175606706082700,2.3380501,2.79795,9.472051
1679995618353,1175606708584867,2.3689501,2.7,9.541051
1679995618356,1175606711087021,2.35695,2.7480001,9.462001
1679995618360,1175606713589098,2.21295,2.77395,9.325951
1679995618363,1175606716091252,2.15295,2.74305,9.40005
1679995618364,1175606718593420,2.1390002,2.7550502,9.393001
1679995618366,1175606721095343,2.08095,2.676,9.37605
1679995618370,1175606723597497,1.9930501,2.7139502,9.453
1679995618371,1175606726099574,1.9810501,2.7859502,9.370951
1679995618374,1175606728601728,1.9549501,2.9299502,9.42195
1679995618376,1175606731103646,1.9399501,2.70705,9.4140005
1679995618379,1175606733606030,1.93095,2.8170002,9.526951
1679995618381,1175606736107953,1.9039501,2.844,9.43095
1679995618383,1175606738610030,1.9660501,2.7460501,9.42195
1679995618386,1175606741111944,1.9350001,2.805,9.38595
1679995618389,1175606743614329,2.02305,2.7220502,9.4789505
1679995618391,1175606746116252,2.0380502,2.76495,9.481951
1679995618393,1175606748618406,1.99995,2.841,9.4789505
1679995618397,1175606751120492,2.0380502,2.83395,9.489
1679995618400,1175606753622646,2.0070002,2.7889502,9.465
1679995618402,1175606756124800,2.11305,2.7460501,9.58005
1679995618403,1175606758626723,2.1100502,2.904,9.474
1679995618405,1175606761128877,1.99995,2.8290002,9.55605
1679995618409,1175606763630964,2.1409502,2.832,9.4140005
1679995618411,1175606766132887,2.091,2.83395,9.496051
1679995618413,1175606768635040,2.12505,2.87505,9.508051
1679995618416,1175606771137425,2.115,2.72895,9.56295
1679995618419,1175606773639353,2.1100502,2.83695,9.472051
1679995618420,1175606776141430,2.019,2.8609502,9.469951
1679995618423,1175606778643584,2.0400002,2.8510501,9.34305
1679995618426,1175606781145738,2.058,2.8890002,9.502951
1679995618430,1175606783647656,2.0740502,2.8630502,9.35505
1679995618431,1175606786149733,2.09805,2.79795,9.39795
1679995618434,1175606788651964,2.1390002,2.7840002,9.44295
1679995618436,1175606791154041,2.11305,2.87295,9.33495
1679995618439,1175606793656194,2.079,2.8270502,9.40005
1679995618440,1175606796158112,2.09805,2.77905,9.37395
1679995618443,1175606798660266,2.15805,2.9560502,9.34305
1679995618446,1175606801162343,2.163,2.79795,9.42405
1679995618449,1175606803664497,2.15805,2.8129501,9.4140005
1679995618451,1175606806166632,2.187,2.91105,9.405001
1679995618453,1175606808668555,2.17995,2.832,9.35505
1679995618456,1175606811170709,2.2039502,2.94705,9.37605
1679995618459,1175606813672786,2.1990001,2.77395,9.28005
1679995618461,1175606816174950,2.14905,2.805,9.316051
1679995618463,1175606818676873,2.223,2.8219502,9.40695
1679995618465,1175606821179027,2.187,2.8150501,9.337951
1679995618469,1175606823681180,2.1649501,2.80305,9.30405
1679995618473,1175606826183257,2.2060502,2.80995,9.43605
1679995618474,1175606828685411,2.1750002,2.8150501,9.288
1679995618475,1175606831187334,2.184,2.7810001,9.35505
1679995618484,1175606833689488,2.11305,2.805,9.42195
1679995618484,1175606836191565,2.11695,2.91105,9.297001
1679995618484,1175606838693782,2.184,2.8270502,9.345
1679995618486,1175606841195859,2.163,2.8510501,9.31095
1679995618489,1175606843698013,2.1340501,2.7810001,9.40995
1679995618491,1175606846199936,2.1100502,2.8170002,9.3810005
1679995618493,1175606848702090,2.1390002,2.86995,9.457951
1679995618496,1175606851204161,2.1720002,2.79795,9.346951
1679995618499,1175606853706315,2.06205,2.8920002,9.316051
1679995618502,1175606856208469,2.2039502,2.8530002,9.28995
1679995618503,1175606858710392,2.0770502,2.8579502,9.364051
1679995618505,1175606861212546,2.1370502,2.79795,9.364051
1679995618510,1175606863714637,2.19405,2.913,9.4459505
1679995618513,1175606866216791,2.11995,2.94,9.453
1679995618513,1175606868718714,2.0670002,2.8990502,9.394951
1679995618516,1175606871220839,2.1100502,2.8819501,9.490951
1679995618518,1175606873722993,2.046,2.832,9.462001
1679995618521,1175606876225147,2.1409502,2.8609502,9.481951
1679995618523,1175606878727223,2.09805,2.9490001,9.56295
1679995618526,1175606881229147,2.1649501,2.8290002,9.514951
1679995618529,1175606883731305,2.09295,3.00195,9.514951
1679995618531,1175606886233382,2.0959501,2.868,9.57495
1679995618533,1175606888735613,2.05995,2.8609502,9.5460005
1679995618536,1175606891237690,2.0770502,2.8890002,9.394951
1679995618539,1175606893739820,2.0770502,2.868,9.501
1679995618541,1175606896241743,2.1409502,2.91105,9.56295
1679995618545,1175606898743820,2.05305,2.8489501,9.38595
1679995618547,1175606901245969,2.11305,2.76495,9.40005
1679995618550,1175606903748200,2.1750002,2.772,9.438001
1679995618551,1175606906250276,2.163,2.7480001,9.453
1679995618553,1175606908752200,2.2710001,2.7550502,9.457951
1679995618558,1175606911254315,2.1649501,2.6809502,9.38595
1679995618559,1175606913756392,2.14395,2.7139502,9.474
1679995618563,1175606916258315,2.2009501,2.805,9.429001
1679995618564,1175606918760469,2.1990001,2.73795,9.42405
1679995618566,1175606921262854,2.23005,2.86995,9.25605
1679995618569,1175606923764781,2.2470002,2.868,9.337951
1679995618571,1175606926266858,2.18895,2.7580502,9.31095
1679995618573,1175606928769012,2.22,2.7910502,9.40695
1679995618575,1175606931270935,2.19195,2.8270502,9.40695
1679995618579,1175606933773075,2.30205,2.8530002,9.4459505
1679995618581,1175606936275229,2.26305,2.832,9.38805
1679995618585,1175606938777382,2.2710001,2.832,9.276
1679995618587,1175606941279459,2.3470502,2.805,9.402
1679995618589,1175606943781598,2.259,2.77395,9.38595
1679995618591,1175606946283521,2.2800002,2.8489501,9.37605
1679995618593,1175606948785598,2.2440002,2.8530002,9.4459505
1679995618596,1175606951287752,2.223,2.7529502,9.28005
1679995618599,1175606953789983,2.2729502,2.88,9.352051
1679995618601,1175606956292060,2.28705,2.805,9.39795
1679995618603,1175606958793983,2.30205,2.79795,9.382951
1679995618605,1175606961296137,2.24895,2.80095,9.32295
1679995618609,1175606963798234,2.26305,2.8530002,9.345
1679995618611,1175606966300157,2.21805,2.8630502,9.333
1679995618613,1175606968802311,2.2009501,2.8990502,9.325951
1679995618616,1175606971304695,2.2060502,2.86995,9.358951
1679995618619,1175606973806574,2.223,2.94405,9.3810005
1679995618622,1175606976308651,2.19405,2.86995,9.352051
1679995618624,1175606978810574,2.23005,2.9320502,9.472051
1679995618626,1175606981312959,2.21595,2.937,9.462001
1679995618629,1175606983814873,2.2750502,2.8510501,9.30195
1679995618631,1175606986317027,2.259,2.8890002,9.35505
1679995618633,1175606988819104,2.223,2.87505,9.358951
1679995618636,1175606991321258,2.2729502,2.9250002,9.213
1679995618639,1175606993823181,2.19195,2.94,9.33495
1679995618641,1175606996325253,2.17995,2.9250002,9.32295
1679995618643,1175606998827483,2.223,2.91105,9.369
1679995618646,1175607001329637,2.1340501,2.94,9.39105
1679995618649,1175607003831714,2.2680001,2.9640002,9.490951
1679995618651,1175607006333632,2.232,2.9560502,9.4459505
1679995618653,1175607008835786,2.28495,2.9610002,9.43395
1679995618656,1175607011337863,2.259,2.8960502,9.52005
1679995618660,1175607013840099,2.2399502,2.9250002,9.537001
1679995618663,1175607016342176,2.256,2.9539502,9.43095
1679995618664,1175607018844330,2.2080002,2.94195,9.43605
1679995618666,1175607021346253,2.1720002,2.9850001,9.661051
1679995618669,1175607023848330,2.17995,2.9280002,9.501
1679995618672,1175607026350463,2.15295,3.01095,9.43395
1679995618674,1175607028852387,2.091,2.98005,9.490951
1679995618676,1175607031354540,2.12895,3.078,9.472051
1679995618679,1175607033856694,2.1649501,2.9659503,9.534
1679995618681,1175607036358848,2.11305,2.973,9.508051
1679995618684,1175607038860926,2.12895,2.9200501,9.450001
1679995618686,1175607041362849,2.0299501,3.01095,9.5460005
1679995618689,1175607043865003,2.115,2.87505,9.517051
1679995618691,1175607046367157,2.1649501,2.9560502,9.496051
1679995618693,1175607048869301,2.0770502,2.8920002,9.39105
1679995618697,1175607051371378,2.08395,2.94195,9.457951
1679995618700,1175607053873531,2.2009501,2.8560002,9.41895
1679995618701,1175607056375455,2.2039502,2.832,9.43395
1679995618703,1175607058877613,2.05995,2.9539502,9.325951
1679995618706,1175607061379690,2.18895,2.8939502,9.325951
1679995618711,1175607063881921,2.08605,2.844,9.405001
1679995618713,1175607066383998,2.2350001,2.664,9.40695
1679995618715,1175607068886152,2.26095,2.8510501,9.345
1679995618716,1175607071388075,2.18895,2.808,9.333
1679995618718,1175607073890152,2.21595,2.808,9.34305
1679995618721,1175607076392306,2.28705,2.8489501,9.37605
1679995618723,1175607078894267,2.25405,2.7480001,9.4140005
1679995618725,1175607081396651,2.2080002,2.8249502,9.264001
1679995618729,1175607083898575,2.29005,2.7580502,9.264001
1679995618731,1175607086400728,2.2470002,2.841,9.30195
1679995618734,1175607088902791,2.259,2.80305,9.37605
1679995618736,1175607091404714,2.3140502,2.7810001,9.357
1679995618739,1175607093906868,2.184,2.7480001,9.39795
1679995618741,1175607096409022,2.2440002,2.9179502,9.313951
1679995618743,1175607098911176,2.2750502,2.8650002,9.40005
1679995618746,1175607101413243,2.2440002,2.8920002,9.295051
1679995618749,1175607103915397,2.26305,2.904,9.297001
1679995618751,1175607106417320,2.2369502,2.86995,9.358951
1679995618753,1175607108919397,2.22795,2.77395,9.313951
1679995618756,1175607111421551,2.2009501,2.8890002,9.42195
1679995618759,1175607113923791,2.196,2.8459501,9.325951
1679995618761,1175607116425868,2.2009501,2.7859502,9.316051
1679995618763,1175607118927791,2.283,2.844,9.37605
1679995618766,1175607121429945,2.1319501,2.94195,9.321
1679995618769,1175607123932022,2.163,2.8200002,9.349951
1679995618772,1175607126434176,2.17995,2.841,9.33495
1679995618774,1175607128936099,2.11995,2.9350502,9.349951
1679995618776,1175607131438484,2.151,2.88,9.307051
1679995618779,1175607133940392,2.2800002,2.9539502,9.37605
1679995618781,1175607136442469,2.2080002,2.844,9.27795
1679995618784,1175607138944623,2.15805,2.83395,9.325951
1679995618786,1175607141446546,2.184,2.76195,9.232051
