system_ts_ms, sensor_ts_ns, accX, accY, accZ
1680013190818,1193179167410720,1.3990501,3.55695,9.276
1680013190819,1193179169912566,1.45605,3.45705,9.192
1680013190819,1193179172414720,1.60695,3.555,9.252001
1680013190819,1193179174916796,1.50195,3.519,9.204
1680013190821,1193179177418945,1.437,3.522,9.24705
1680013190824,1193179179920868,1.4779501,3.5310001,9.319051
1680013190833,1193179182422945,1.4080501,3.49305,9.24705
1680013190834,1193179184925099,1.3369501,3.5500503,9.24405
1680013190835,1193179187427022,1.3800001,3.627,9.345
1680013190835,1193179189929099,1.2930001,3.522,9.307051
1680013190838,1193179192431022,1.30095,3.591,9.27795
1680013190840,1193179194933176,1.22595,3.5479503,9.3
1680013190843,1193179197435249,1.21695,3.6169503,9.225
1680013190845,1193179199937172,1.092,3.6409502,9.18
1680013190847,1193179202439249,1.092,3.696,9.12705
1680013190850,1193179204941403,1.0639501,3.6529503,9.24195
1680013190852,1193179207443326,0.95595,3.7350001,9.04605
1680013190855,1193179209945499,0.87495005,3.6010501,9.163051
1680013190856,1193179212447576,0.93900007,3.6990001,9.208051
1680013190863,1193179214949499,0.90795004,3.65805,9.12195
1680013190863,1193179217451576,0.915,3.5650501,9.08205
1680013190864,1193179219953504,0.96105003,3.5689502,9.108001
1680013190868,1193179222455658,0.91695005,3.519,9.022051
1680013190869,1193179224957812,0.9289501,3.4950001,9.07905
1680013190872,1193179227459889,0.94395006,3.3970501,9.08895
1680013190878,1193179229961826,0.93195003,3.4279501,9.09405
1680013190879,1193179232463903,0.9580501,3.4330502,9.12705
1680013190880,1193179234965826,0.90195006,3.39,9.153001
1680013190882,1193179237467903,0.82995003,3.3439503,9.1369505
1680013190884,1193179239970056,0.87105006,3.4660501,9.108001
1680013190887,1193179242472191,0.78000003,3.4639502,9.163051
1680013190890,1193179244974114,0.79605,3.5479503,9.132
1680013190894,1193179247476191,0.70995003,3.5460002,9.048
1680013190895,1193179249978114,0.71505004,3.5650501,9.120001
1680013190897,1193179252480191,0.717,3.5839503,9.12705
1680013190899,1193179254982330,0.74100006,3.5770502,9.1369505
1680013190902,1193179257484253,0.837,3.6679502,9.108001
1680013190904,1193179259986407,0.837,3.6409502,9.172951
1680013190907,1193179262488484,0.88695,3.7159503,9.201
1680013190911,1193179264990383,0.96795005,3.6130502,9.153001
1680013190914,1193179267492460,1.023,3.62895,9.184951
1680013190915,1193179269994383,0.98700005,3.6720002,9.07695
1680013190918,1193179272496523,1.09695,3.65595,9.10095
1680013190921,1193179274998600,1.11405,3.62895,9.12495
1680013190923,1193179277500754,1.143,3.68895,9.201
1680013190929,1193179280002677,1.1880001,3.55995,9.177
1680013190929,1193179282504754,1.1910001,3.6100502,9.340051
1680013190930,1193179285006682,1.1880001,3.6169503,9.307051
1680013190933,1193179287508759,1.11405,3.6700501,9.23505
1680013190935,1193179290010913,1.2240001,3.6409502,9.319051
1680013190937,1193179292513066,1.18095,3.6169503,9.117001
1680013190939,1193179295014990,1.1880001,3.5650501,9.187051
1680013190945,1193179297517056,1.18095,3.5740502,9.3
1680013190946,1193179300018980,1.107,3.663,9.35505
1680013190947,1193179302521056,1.18305,3.69195,9.204
1680013190951,1193179305022985,1.164,3.6720002,9.309
1680013190953,1193179307525138,1.15005,3.7159503,9.325951
1680013190955,1193179310027292,1.1910001,3.7180502,9.228001
1680013190957,1193179312529138,1.16205,3.6220503,9.175051
1680013190962,1193179315031292,1.2019501,3.6990001,9.28995
1680013190962,1193179317533383,1.2220501,3.6700501,9.27105
1680013190964,1193179320035306,1.19295,3.6649501,9.249001
1680013190967,1193179322537460,1.18605,3.6480002,9.313951
1680013190970,1193179325039537,1.1590501,3.76605,9.333
1680013190973,1193179327541479,1.24995,3.6439502,9.24195
1680013190979,1193179330043633,1.2529501,3.7009501,9.240001
1680013190979,1193179332545710,1.2720001,3.7230003,9.29205
1680013190980,1193179335047633,1.18095,3.696,9.228001
1680013190982,1193179337549787,1.3099501,3.6700501,9.321
1680013190984,1193179340051864,1.3290001,3.6340501,9.295051
1680013190988,1193179342553787,1.22595,3.62505,9.168
1680013190991,1193179345055864,1.28205,3.6649501,9.283051
1680013190994,1193179347558009,1.2910501,3.7080002,9.27105
1680013190995,1193179350059932,1.32,3.6439502,9.232051
1680013190997,1193179352562009,1.2790501,3.65805,9.240001
1680013190999,1193179355064163,1.248,3.7110002,9.316051
1680013191002,1193179357566086,1.24995,3.6529503,9.33495
1680013191004,1193179360068148,1.284,3.696,9.319051
1680013191007,1193179362570071,1.212,3.7399502,9.36705
1680013191011,1193179365072455,1.26195,3.7399502,9.220051
1680013191013,1193179367574301,1.18305,3.6460502,9.264001
1680013191014,1193179370076441,1.1710501,3.663,9.316051
1680013191018,1193179372578364,1.1190001,3.6700501,9.220051
1680013191019,1193179375080441,1.0879501,3.6480002,9.1390505
1680013191022,1193179377582364,1.08,3.696,9.307051
1680013191027,1193179380084484,1.10895,3.7420502,9.196951
1680013191028,1193179382586638,1.1590501,3.6820502,9.240001
1680013191029,1193179385088484,1.1910001,3.7489502,9.3
1680013191032,1193179387590561,1.21695,3.732,9.297001
1680013191034,1193179390092715,1.1380501,3.6460502,9.23505
1680013191037,1193179392594663,1.1329501,3.65595,9.204
1680013191039,1193179395096740,1.1209501,3.6319501,9.295051
1680013191044,1193179397598894,1.0849501,3.6679502,9.237
1680013191045,1193179400100817,1.0639501,3.6529503,9.232051
1680013191047,1193179402602971,1.1190001,3.7489502,9.319051
1680013191051,1193179405104822,1.09695,3.6370502,9.189
1680013191053,1193179407606976,1.0879501,3.7110002,9.25605
1680013191055,1193179410109053,1.1190001,3.7369502,9.313951
1680013191057,1193179412611207,1.1380501,3.7200003,9.331051
1680013191061,1193179415113130,1.09905,3.66,9.331051
1680013191064,1193179417615207,1.095,3.7060502,9.273001
1680013191065,1193179420117360,1.0900501,3.6529503,9.25605
1680013191067,1193179422619202,1.1190001,3.6679502,9.340051
1680013191070,1193179425121355,1.1380501,3.759,9.237
1680013191072,1193179427623279,1.06605,3.7369502,9.273001
1680013191075,1193179430125432,1.11405,3.76605,9.34305
1680013191079,1193179432627509,1.0350001,3.7440002,9.232051
1680013191079,1193179435129460,1.0849501,3.72495,9.25905
1680013191082,1193179437631537,1.11405,3.7009501,9.30405
1680013191085,1193179440133691,1.143,3.62505,9.283051
1680013191087,1193179442635537,1.1520001,3.6990001,9.34305
1680013191090,1193179445137754,1.128,3.7230003,9.33495
1680013191094,1193179447639831,1.07295,3.7510502,9.204
1680013191095,1193179450141754,1.2049501,3.7200003,9.192
1680013191097,1193179452643831,1.23405,3.7510502,9.30405
1680013191101,1193179455145711,1.14495,3.7060502,9.205951
1680013191103,1193179457647865,1.13505,3.6799502,9.24195
1680013191106,1193179460150019,1.248,3.6990001,9.193951
1680013191107,1193179462652096,1.18305,3.591,9.28995
1680013191110,1193179465154019,1.23105,3.6100502,9.13395
1680013191112,1193179467656101,1.2,3.6010501,9.168
1680013191114,1193179470158024,1.2240001,3.7180502,9.204
1680013191117,1193179472660101,1.2580501,3.663,9.213
1680013191119,1193179475162255,1.21395,3.6169503,9.232051
1680013191123,1193179477664409,1.212,3.6840003,9.132
1680013191124,1193179480166255,1.248,3.6030002,9.196951
1680013191128,1193179482668409,1.21905,3.6870003,9.237
1680013191130,1193179485170332,1.1520001,3.5410502,9.27105
1680013191133,1193179487672418,1.143,3.6720002,9.12705
1680013191135,1193179490174341,1.16205,3.6319501,9.297001
1680013191138,1193179492676494,1.11105,3.6409502,9.1699505
1680013191141,1193179495178648,1.11405,3.6150002,9.163051
1680013191146,1193179497680701,1.1910001,3.6340501,9.14595
1680013191147,1193179500182624,1.1710501,3.6529503,9.276
1680013191148,1193179502684701,1.14495,3.5740502,9.175051
1680013191150,1193179505186624,1.15005,3.62895,9.160951
1680013191152,1193179507688778,1.1040001,3.61995,9.216001
1680013191154,1193179510190846,1.0320001,3.6079502,9.228001
1680013191157,1193179512693000,1.02795,3.62505,9.1699505
1680013191161,1193179515194923,0.9889501,3.6169503,9.23505
1680013191163,1193179517697000,1.06605,3.5140502,9.151051
1680013191164,1193179520198947,1.0159501,3.62505,9.084001
1680013191167,1193179522701024,1.04205,3.6390002,9.187051
1680013191170,1193179525203178,1.0519501,3.66,9.187051
1680013191172,1193179527705332,1.0900501,3.663,9.168
1680013191177,1193179530207192,1.0680001,3.6840003,9.240001
1680013191178,1193179532709346,1.056,3.6370502,9.249001
1680013191179,1193179535211269,1.1209501,3.6870003,9.319051
1680013191182,1193179537713346,1.047,3.6010501,9.27795
1680013191185,1193179540215500,1.1020501,3.66,9.24195
1680013191187,1193179542717428,1.0159501,3.6409502,9.26595
1680013191189,1193179545219582,1.0879501,3.6439502,9.273001
1680013191194,1193179547721428,1.1380501,3.7159503,9.3
1680013191195,1193179550223582,1.059,3.68895,9.24195
1680013191197,1193179552725658,1.12605,3.6079502,9.217951
1680013191199,1193179555227826,1.056,3.6169503,9.28005
1680013191202,1193179557729672,1.06605,3.6100502,9.205951
1680013191205,1193179560231826,1.0320001,3.66,9.29205
1680013191207,1193179562733749,1.15695,3.69195,9.189
1680013191211,1193179565235806,1.095,3.6649501,9.1390505
1680013191215,1193179567737960,1.059,3.65805,9.096001
1680013191216,1193179570239883,1.0639501,3.6409502,9.175051
1680013191218,1193179572742022,1.02795,3.62895,9.1390505
1680013191220,1193179575244099,1.095,3.62505,9.163051
1680013191223,1193179577746022,1.09905,3.59295,9.220051
1680013191225,1193179580248099,1.092,3.5839503,9.27105
1680013191227,1193179582750253,1.116,3.6079502,9.181951
1680013191230,1193179585252205,1.164,3.6460502,9.151051
1680013191232,1193179587754282,1.1590501,3.5170503,9.204
1680013191235,1193179590256205,1.08,3.61995,9.09795
1680013191237,1193179592758359,1.116,3.6030002,9.225
1680013191239,1193179595260239,1.0639501,3.6150002,9.160951
1680013191242,1193179597762393,1.0710001,3.5809503,9.181951
1680013191244,1193179600264547,1.0519501,3.5650501,9.201
1680013191247,1193179602766624,1.00605,3.6150002,9.12495
1680013191252,1193179605268528,1.131,3.7009501,9.225
1680013191255,1193179610270605,1.1230501,3.5809503,9.163051
1680013191256,1193179610430066,1.128,3.7039502,9.11505
1680013191258,1193179612774682,1.0489501,3.6460502,9.148951
1680013191260,1193179615276835,1.11105,3.6100502,9.172951
1680013191263,1193179617778916,1.07295,3.6439502,9.229951
1680013191265,1193179620280839,1.19295,3.6769502,9.12495
1680013191268,1193179622782916,1.07595,3.663,9.23505
1680013191270,1193179625284839,1.1740501,3.6439502,9.21105
1680013191272,1193179627786916,1.167,3.5809503,9.184951
1680013191275,1193179630289090,1.131,3.6150002,9.21105
1680013191277,1193179632791244,1.1209501,3.6460502,9.10995
1680013191280,1193179635293167,1.164,3.56205,9.13395
1680013191282,1193179637795244,1.11405,3.59295,9.204
1680013191285,1193179640297171,1.14495,3.5380502,9.163051
1680013191289,1193179642799325,1.167,3.522,9.229951
1680013191292,1193179645301171,1.095,3.5340002,9.201
1680013191295,1193179647803556,1.18095,3.48795,9.1369505
1680013191296,1193179650348171,1.107,3.52605,9.204
1680013191298,1193179652807556,1.1380501,3.522,9.199051
1680013191300,1193179655309479,1.164,3.5119503,9.1390505
1680013191302,1193179657811556,1.1590501,3.61995,9.273001
1680013191304,1193179660313479,1.1740501,3.6030002,9.25605
1680013191307,1193179662815609,1.0830001,3.5770502,9.217951
1680013191310,1193179665317763,1.0710001,3.5650501,9.25605
1680013191312,1193179667819840,1.19505,3.6529503,9.163051
1680013191315,1193179670321763,1.1230501,3.5670002,9.249001
1680013191318,1193179672823855,1.2580501,3.6370502,9.24705
1680013191321,1193179675325778,1.2049501,3.5740502,9.144
1680013191323,1193179677827855,1.11405,3.6409502,9.14595
1680013191326,1193179680330075,1.1190001,3.4690502,9.216001
1680013191328,1193179682831922,1.1590501,3.5839503,9.18
1680013191331,1193179685334075,1.131,3.48795,9.163051
1680013191333,1193179687836152,1.2,3.6799502,9.249001
1680013191335,1193179690338075,1.06095,3.6750002,9.09795
1680013191337,1193179692840133,1.107,3.5689502,9.204
1680013191340,1193179695342287,1.143,3.61995,9.187051
1680013191343,1193179697844441,1.1020501,3.5740502,9.14595
1680013191345,1193179700346287,1.092,3.6390002,9.08895
1680013191347,1193179702848436,1.2019501,3.591,9.228001
1680013191350,1193179705350359,1.092,3.5530503,9.204
1680013191353,1193179707852436,1.128,3.5839503,9.108001
1680013191354,1193179710354359,1.0830001,3.5809503,9.184951
1680013191357,1193179712856508,1.059,3.4759502,9.249001
1680013191360,1193179715358585,1.0639501,3.5380502,9.213
1680013191364,1193179717860739,1.092,3.4759502,9.132
1680013191366,1193179720362585,1.0639501,3.5380502,9.10305
1680013191368,1193179722864758,1.11405,3.6010501,9.1369505
1680013191371,1193179725366681,1.0830001,3.52395,9.15795
1680013191373,1193179727868835,1.0489501,3.4830003,9.175051
1680013191375,1193179730370912,1.11405,3.5410502,9.181951
1680013191377,1193179732872835,1.14705,3.5860503,9.276
1680013191380,1193179735374994,1.131,3.5740502,9.229951
1680013191383,1193179737877071,1.1590501,3.5839503,9.189
1680013191385,1193179740378994,1.1740501,3.5860503,9.237
1680013191388,1193179742881147,1.14495,3.5359502,9.240001
1680013191390,1193179745383258,1.2,3.5670002,9.237
1680013191392,1193179747885181,1.167,3.6319501,9.229951
1680013191395,1193179750387258,1.15005,3.61995,9.249001
1680013191397,1193179752889412,1.18305,3.5959501,9.213
1680013191401,1193179755391320,1.179,3.6390002,9.163051
1680013191404,1193179757893397,1.107,3.627,9.201
1680013191406,1193179760395551,1.18095,3.52905,9.193951
1680013191408,1193179762897474,1.1910001,3.5530503,9.18
1680013191411,1193179765399551,1.19805,3.5740502,9.28005
1680013191413,1193179767901455,1.1880001,3.5689502,9.181951
1680013191415,1193179770403609,1.0879501,3.5809503,9.184951
1680013191417,1193179772905686,1.1380501,3.6439502,9.153001
1680013191420,1193179775407609,1.09695,3.5479503,9.168
1680013191423,1193179777909777,1.1590501,3.4660501,9.148951
1680013191425,1193179780411854,1.07805,3.6010501,9.24705
1680013191427,1193179782913777,1.1550001,3.5479503,9.34305
1680013191430,1193179785415931,1.18095,3.5839503,9.10995
1680013191432,1193179787918008,1.095,3.522,9.175051
1680013191435,1193179790419936,1.107,3.6010501,9.27105
1680013191444,1193179792922013,1.07295,3.5410502,9.165
1680013191445,1193179795424167,1.0879501,3.5119503,9.13395
1680013191445,1193179797926109,1.059,3.6390002,9.309
1680013191445,1193179800428186,1.11105,3.5359502,9.25395
1680013191447,1193179802930339,1.18095,3.59805,9.213
1680013191451,1193179805432263,1.2240001,3.591,9.220051
1680013191453,1193179807934339,1.15005,3.6480002,9.3
1680013191455,1193179810436249,1.18605,3.5839503,9.232051
1680013191457,1193179812938325,1.2240001,3.5479503,9.232051
1680013191460,1193179815440479,1.092,3.62895,9.23505
1680013191463,1193179817942633,1.2,3.5500503,9.163051
1680013191465,1193179820444556,1.23105,3.6169503,9.319051
1680013191468,1193179822946633,1.15005,3.5359502,9.25905
1680013191470,1193179825448556,1.176,3.6390002,9.316051
1680013191472,1193179827950710,1.16205,3.5650501,9.283051
1680013191476,1193179830452565,1.2529501,3.6010501,9.237
1680013191478,1193179832954719,1.248,3.5460002,9.220051
1680013191480,1193179835456873,1.248,3.6169503,9.25395
1680013191484,1193179837958950,1.26495,3.62505,9.273001
1680013191485,1193179840460873,1.2720001,3.5670002,9.319051
1680013191487,1193179842962950,1.22895,3.555,9.285001
1680013191491,1193179845464873,1.2379501,3.55695,9.28995
1680013191493,1193179847967027,1.116,3.5650501,9.26805
1680013191495,1193179850469181,1.2100501,3.6150002,9.24405
1680013191497,1193179852971258,1.2550501,3.5430002,9.144
1680013191500,1193179855473210,1.23405,3.5770502,9.189
1680013191503,1193179857975287,1.3579501,3.6319501,9.25905
1680013191505,1193179860477210,1.23105,3.6100502,9.229951
1680013191508,1193179862979278,1.22595,3.6100502,9.189
1680013191511,1193179865481508,1.1689501,3.5460002,9.172951
1680013191515,1193179867983355,1.164,3.6720002,9.10095
1680013191519,1193179870485508,1.2100501,3.55695,9.225
1680013191519,1193179872987570,1.19295,3.6720002,9.295051
1680013191521,1193179875489493,1.19295,3.6460502,9.220051
1680013191523,1193179877991570,1.24605,3.5650501,9.3
1680013191525,1193179880493493,1.26195,3.6079502,9.192
1680013191527,1193179882995878,1.21905,3.6460502,9.201
1680013191531,1193179885497791,1.1689501,3.486,9.163051
1680013191533,1193179887999637,1.19505,3.58905,9.148951
1680013191535,1193179890501791,1.2049501,3.5719502,9.340051
1680013191537,1193179893003868,1.26705,3.5340002,9.22305
1680013191540,1193179895505791,1.10895,3.5670002,9.285001
1680013191542,1193179898007941,1.095,3.5500503,9.24705
1680013191545,1193179900510018,1.14705,3.5650501,9.283051
1680013191548,1193179903012172,1.09905,3.6079502,9.22305
1680013191554,1193179905514115,1.0639501,3.59295,9.18
1680013191555,1193179908016192,0.9990001,3.6769502,9.204
1680013191556,1193179910518115,1.047,3.5500503,9.177
1680013191558,1193179913020192,1.0849501,3.6319501,9.252001
1680013191561,1193179915522346,1.095,3.5740502,9.24195
1680013191563,1193179918024269,1.092,3.5719502,9.12705
1680013191565,1193179920526399,1.09695,3.5809503,9.201
1680013191567,1193179923028476,1.1209501,3.6030002,9.23505
1680013191571,1193179925530399,1.059,3.5460002,9.144
1680013191573,1193179928032481,1.1380501,3.6049502,9.144
1680013191575,1193179930534634,1.1590501,3.6049502,9.172951
1680013191577,1193179933036558,1.12605,3.627,9.108001
1680013191581,1193179935538634,1.2049501,3.59805,9.204
1680013191583,1193179938040558,1.2019501,3.6480002,9.184951
1680013191585,1193179940542720,1.15005,3.627,9.18
1680013191589,1193179943044797,1.2,3.5770502,9.25605
1680013191592,1193179945546720,1.128,3.5860503,9.26805
1680013191594,1193179948048874,1.1400001,3.59805,9.156
1680013191596,1193179950550937,1.07295,3.5340002,9.181951
1680013191597,1193179953052860,1.1520001,3.59805,9.151051
1680013191601,1193179955554937,1.14705,3.5770502,9.276
1680013191603,1193179958057091,1.164,3.61995,9.192
1680013191605,1193179960559014,1.1190001,3.5790002,9.27105
1680013191608,1193179963061182,1.1040001,3.5860503,9.163051
1680013191610,1193179965563028,1.14495,3.5359502,9.184951
1680013191613,1193179968065182,1.1710501,3.5530503,9.168
1680013191615,1193179970567259,1.16205,3.6390002,9.12495
1680013191618,1193179973069394,1.1880001,3.6370502,9.12495
1680013191621,1193179975571317,1.1740501,3.7060502,9.25605
1680013191623,1193179978073394,1.19295,3.5719502,9.26805
1680013191626,1193179980575317,1.19505,3.68895,9.1060505
1680013191628,1193179983077384,1.1380501,3.6390002,9.232051
1680013191631,1193179985579538,1.10895,3.5310001,9.237
1680013191634,1193179988081691,1.1520001,3.5719502,9.201
1680013191635,1193179990583615,1.1380501,3.6769502,9.204
1680013191637,1193179993085692,1.116,3.6769502,9.160951
1680013191641,1193179995587601,1.1550001,3.591,9.3
1680013191643,1193179998089678,1.131,3.591,9.35505
1680013191645,1193180000591831,1.2100501,3.6700501,9.11295
1680013191649,1193180003093678,1.15005,3.5959501,9.232051
1680013191651,1193180005595908,1.128,3.5670002,9.12705
1680013191653,1193180008097990,1.095,3.6529503,9.168
1680013191655,1193180010599913,1.1230501,3.55995,9.177
1680013191658,1193180013101990,1.1520001,3.5650501,9.205951
1680013191661,1193180015603913,1.09695,3.55995,9.220051
1680013191664,1193180018106057,1.14495,3.6010501,9.189
1680013191666,1193180020608211,1.11405,3.6700501,9.168
1680013191668,1193180023110288,1.15005,3.5770502,9.1369505
1680013191671,1193180025612211,1.12605,3.6319501,9.187051
1680013191673,1193180028114264,1.15695,3.5380502,9.199051
1680013191675,1193180030616187,1.2240001,3.591,9.165
1680013191678,1193180033118264,1.1710501,3.58905,9.160951
1680013191681,1193180035620187,1.1380501,3.6840003,9.18
1680013191684,1193180038122572,1.107,3.62505,9.295051
1680013191685,1193180040624418,1.1520001,3.6720002,9.12195
1680013191688,1193180043126572,1.2360001,3.5670002,9.172951
1680013191692,1193180045628495,1.2240001,3.696,9.14595
1680013191693,1193180048130591,1.212,3.6220503,9.24705
1680013191695,1193180050632514,1.2019501,3.5770502,9.132
1680013191698,1193180053134668,1.2100501,3.5359502,9.26805
1680013191703,1193180055636822,1.21905,3.6529503,9.205951
1680013191704,1193180058138917,1.23105,3.732,9.165
1680013191707,1193180060640841,1.167,3.6169503,9.225
1680013191708,1193180063142917,1.13505,3.66,9.22305
1680013191711,1193180065644841,1.2430501,3.6390002,9.205951
1680013191713,1193180068146917,1.19295,3.6439502,9.141001
1680013191715,1193180070649047,1.21695,3.6529503,9.232051
1680013191718,1193180073150970,1.14705,3.591,9.192
1680013191722,1193180075653124,1.18305,3.732,9.240001
1680013191724,1193180078155201,1.164,3.6799502,9.252001
1680013191726,1193180080657094,1.1710501,3.663,9.217951
1680013191728,1193180083159171,1.18095,3.6130502,9.27795
1680013191731,1193180085661325,1.1190001,3.6870003,9.204
1680013191734,1193180088163248,1.1910001,3.627,9.220051
1680013191736,1193180090665325,1.18305,3.6390002,9.187051
1680013191739,1193180093167499,1.07805,3.6100502,9.184951
1680013191742,1193180095669422,1.1689501,3.58905,9.25605
1680013191744,1193180098171499,1.2100501,3.6079502,9.189
1680013191745,1193180100673653,1.1190001,3.6460502,9.196951
1680013191747,1193180103175576,1.14705,3.7180502,9.1369505
1680013191751,1193180105677648,1.11105,3.56205,9.13395
1680013191753,1193180108179571,1.1710501,3.62505,9.15795
1680013191755,1193180110681648,1.2360001,3.5670002,9.163051
1680013191757,1193180113183802,1.31505,3.6340501,9.172951
1680013191760,1193180115685720,1.18095,3.62895,9.15795
1680013191763,1193180118187874,1.22595,3.5770502,9.24705
1680013191765,1193180120689951,1.30095,3.66,9.12495
1680013191769,1193180123191874,1.2409501,3.555,9.297001
1680013191771,1193180125694027,1.248,3.5839503,9.204
1680013191773,1193180128196109,1.21905,3.5410502,9.21105
1680013191776,1193180130698263,1.19505,3.5500503,9.204
1680013191779,1193180133200109,1.1020501,3.5740502,9.261001
1680013191782,1193180135702253,1.16205,3.6079502,9.151051
1680013191784,1193180138204176,1.1740501,3.591,9.288
1680013191786,1193180140706253,1.1329501,3.6150002,9.18
1680013191788,1193180143208407,1.1380501,3.5310001,9.153001
1680013191791,1193180145710330,1.2240001,3.5839503,9.288
1680013191792,1193180148212503,1.19505,3.6510003,9.33495
1680013191796,1193180150714349,1.1550001,3.6169503,9.187051
1680013191798,1193180153216503,1.1910001,3.5839503,9.26595
1680013191801,1193180155718580,1.19505,3.61995,9.193951
1680013191803,1193180158220513,1.11405,3.6079502,9.3
1680013191805,1193180160722667,1.23405,3.591,9.175051
1680013191809,1193180163224744,1.212,3.62895,9.240001
1680013191811,1193180165726667,1.14495,3.5809503,9.25605
1680013191815,1193180168228821,1.212,3.6340501,9.25905
1680013191816,1193180170730898,1.18095,3.6169503,9.316051
1680013191818,1193180173232821,1.14495,3.627,9.229951
1680013191821,1193180175734975,1.143,3.5839503,9.199051
1680013191823,1193180178237052,1.116,3.6529503,9.201
1680013191825,1193180180738970,1.2240001,3.6100502,9.28005
1680013191828,1193180183241047,1.164,3.68895,9.163051
1680013191831,1193180185743200,1.23405,3.6340501,9.204
1680013191833,1193180188245047,1.2430501,3.6370502,9.22305
1680013191835,1193180190747277,1.2070501,3.62505,9.276
1680013191838,1193180193249354,1.2019501,3.6370502,9.27105
1680013191841,1193180195751277,1.2019501,3.5689502,9.148951
1680013191843,1193180198253354,1.2790501,3.62895,9.208051
1680013191845,1193180200755277,1.18095,3.5430002,9.192
1680013191848,1193180203257368,1.1550001,3.5340002,9.24705
1680013191853,1193180205759522,1.164,3.7110002,9.337951
1680013191854,1193180208261676,1.143,3.6720002,9.28005
1680013191856,1193180210763633,1.21395,3.7129502,9.28005
1680013191859,1193180213265710,1.19295,3.6510003,9.27105
1680013191861,1193180215767633,1.26705,3.7060502,9.30195
1680013191863,1193180218269710,1.1190001,3.7399502,9.156
1680013191865,1193180220771633,1.21695,3.627,9.205951
1680013191868,1193180223274004,1.1689501,3.6460502,9.199051
1680013191871,1193180225775927,1.2220501,3.68895,9.240001
1680013191873,1193180228278004,1.2100501,3.7180502,9.148951
1680013191875,1193180230779927,1.2379501,3.6169503,9.187051
1680013191878,1193180233282013,1.14495,3.7080002,9.28005
1680013191881,1193180235783936,1.1689501,3.5460002,9.192
1680013191883,1193180238286013,1.07295,3.6649501,9.177
1680013191885,1193180240788167,1.167,3.6840003,9.096001
1680013191890,1193180243290330,1.23405,3.5719502,9.108001
1680013191893,1193180248292254,1.23105,3.591,9.175051
1680013191895,1193180248654946,1.2600001,3.522,9.165
1680013191897,1193180250796254,1.2100501,3.55695,9.14595
1680013191898,1193180253298331,1.14705,3.7159503,9.199051
1680013191902,1193180255800499,1.24605,3.6679502,9.175051
1680013191903,1193180258302422,1.2529501,3.7039502,9.1699505
1680013191905,1193180260804576,1.131,3.6100502,9.12495
1680013191908,1193180263306653,1.2019501,3.69405,9.028951
1680013191911,1193180265808576,1.22595,3.7470002,9.08895
1680013191913,1193180268310658,1.128,3.7420502,9.175051
1680013191915,1193180270812581,1.2019501,3.6990001,9.13395
1680013191918,1193180273314735,1.23405,3.7710001,9.132
1680013191921,1193180275816812,1.21905,3.7180502,9.08895
1680013191923,1193180278318952,1.128,3.7420502,9.175051
1680013191927,1193180280820875,1.1880001,3.7560003,9.129001
1680013191930,1193180283322952,1.18095,3.696,9.11505
1680013191932,1193180285824870,1.179,3.72495,9.189
1680013191934,1193180288327024,1.1190001,3.65595,9.10995
1680013191936,1193180290829101,1.0519501,3.7180502,9.132
1680013191938,1193180293331255,1.1329501,3.6510003,9.07905
1680013191942,1193180295833101,1.09905,3.65595,9.09795
1680013191943,1193180298335250,1.04205,3.72495,9.153001
1680013191945,1193180300837173,1.15695,3.6679502,9.0720005
1680013191948,1193180303339327,1.00605,3.7510502,9.1390505
1680013191951,1193180305841404,1.09695,3.72495,9.085951
1680013191953,1193180308343337,1.0680001,3.732,9.09795
1680013191956,1193180310845490,1.08,3.7510502,9.09795
1680013191959,1193180313347337,1.1020501,3.6840003,9.055051
1680013191961,1193180315849491,1.0639501,3.7870502,9.049951
1680013191965,1193180318351562,1.1230501,3.7920003,9.004951
1680013191968,1193180320853716,1.0830001,3.7159503,9.049951
1680013191970,1193180323355562,1.07595,3.66,9.156
1680013191972,1193180325857716,1.1190001,3.7110002,9.228001
1680013191974,1193180328359639,1.10895,3.8140502,9.040951
1680013191976,1193180330861798,0.99705005,3.72795,9.117001
1680013191978,1193180333363875,1.0180501,3.7420502,9.181951
1680013191981,1193180335865798,1.0129501,3.696,9.1060505
1680013191983,1193180338367875,0.93900007,3.6529503,9.108001
1680013191985,1193180340870029,0.98205006,3.6720002,9.016951
1680013191988,1193180343371870,1.0639501,3.6460502,9.184951
1680013191991,1193180345874101,1.0030501,3.6720002,9.153001
1680013191993,1193180348376178,1.1020501,3.55695,9.13395
1680013191995,1193180350878101,1.011,3.5839503,9.163051
1680013191998,1193180353380182,0.9990001,3.6370502,9.184951
1680013192003,1193180355882105,1.0129501,3.5020502,9.165
1680013192004,1193180358384259,1.0519501,3.59805,9.132
1680013192006,1193180360886105,0.96795005,3.55995,9.177
1680013192009,1193180363388510,0.99195004,3.62505,9.144
1680013192012,1193180365890433,0.9889501,3.5310001,9.156
1680013192013,1193180368392510,1.0030501,3.519,9.144
1680013192016,1193180370894433,1.023,3.591,9.22305
1680013192018,1193180373396510,0.98505,3.5050502,9.156
1680013192021,1193180375898413,1.02495,3.5050502,9.175051
1680013192023,1193180378400797,1.0129501,3.58905,9.199051
1680013192025,1193180380902720,1.1400001,3.59295,9.06705
1680013192028,1193180383404797,1.0320001,3.6010501,9.153001
1680013192031,1193180385906706,1.11105,3.5670002,9.148951
1680013192033,1193180388408783,1.107,3.6340501,9.193951
1680013192036,1193180390910706,0.975,3.72495,9.06705
1680013192040,1193180393412783,1.10895,3.6700501,9.153001
1680013192042,1193180395915033,1.07805,3.6820502,9.036
1680013192044,1193180398417110,1.131,3.6799502,9.193951
1680013192046,1193180400919033,1.0639501,3.7350001,9.175051
1680013192049,1193180403421110,1.1209501,3.6390002,9.120001
1680013192052,1193180405923009,1.1329501,3.6750002,9.1369505
1680013192054,1193180408425086,1.107,3.6799502,9.201
1680013192055,1193180410927240,1.167,3.6220503,9.184951
1680013192058,1193180413429163,1.1380501,3.7710001,9.213
1680013192061,1193180415931317,1.1710501,3.7470002,9.30195
1680013192069,1193180418433403,1.0519501,3.6840003,9.129001
1680013192069,1193180420935326,1.1520001,3.65595,9.12495
1680013192069,1193180423437403,1.143,3.69405,9.24405
1680013192071,1193180425939557,1.1590501,3.6990001,9.213
1680013192072,1193180428441480,1.1550001,3.66,9.163051
1680013192076,1193180430943572,1.128,3.6750002,9.168
1680013192078,1193180433445726,1.18605,3.7180502,9.141001
1680013192081,1193180435947649,1.19505,3.6720002,9.252001
1680013192083,1193180438449726,1.1590501,3.6720002,9.192
1680013192086,1193180440951610,1.23405,3.6150002,9.261001
1680013192088,1193180443453764,1.1590501,3.6460502,9.273001
1680013192091,1193180445955917,1.23405,3.6480002,9.192
1680013192093,1193180448457764,1.131,3.65595,9.237
1680013192095,1193180450959927,1.11405,3.62505,9.165
1680013192098,1193180453462004,1.2019501,3.6100502,9.160951
1680013192102,1193180455963927,1.23105,3.55995,9.153001
1680013192103,1193180458466081,1.09905,3.663,9.199051
1680013192105,1193180460968158,1.12605,3.6820502,9.175051
1680013192108,1193180463470081,1.19505,3.6990001,9.199051
1680013192111,1193180465972158,1.14495,3.65805,9.24705
1680013192115,1193180468474081,1.2100501,3.6030002,9.172951
1680013192118,1193180470976235,1.2070501,3.69195,9.201
1680013192119,1193180473478312,1.19505,3.6409502,9.229951
1680013192122,1193180475980466,1.131,3.6840003,9.1390505
1680013192124,1193180478482389,1.1550001,3.5860503,9.175051
1680013192126,1193180480984466,1.107,3.732,9.09105
1680013192128,1193180483486605,1.1710501,3.6390002,9.07005
1680013192131,1193180485988451,1.1590501,3.66,9.184951
1680013192133,1193180488490605,1.19295,3.66,9.031051
1680013192135,1193180490992759,1.18605,3.6679502,9.043051
1680013192138,1193180493494673,1.2070501,3.61995,9.06495
1680013192141,1193180495996750,1.11105,3.6319501,9.1699505
1680013192143,1193180498498673,1.1689501,3.6319501,9.096001
1680013192145,1193180501000750,1.0900501,3.6079502,9.085951
1680013192148,1193180503502903,1.19505,3.5670002,9.132
1680013192152,1193180506004817,1.10895,3.6169503,9.189
1680013192154,1193180508506970,1.1230501,3.6460502,9.216001
1680013192156,1193180511009047,1.092,3.6750002,9.148951
1680013192158,1193180513510980,1.1329501,3.6870003,9.010051
1680013192161,1193180516013057,1.0849501,3.65805,9.084001
1680013192163,1193180518515211,1.14495,3.66,9.232051
1680013192165,1193180521017134,1.11405,3.732,9.153001
1680013192168,1193180523519211,1.1910001,3.5650501,9.1390505
1680013192171,1193180526021365,1.11105,3.5860503,9.09405
1680013192173,1193180528523211,1.0680001,3.7159503,9.06
1680013192175,1193180531025365,1.131,3.7039502,9.07905
1680013192178,1193180533527519,1.179,3.6720002,9.192
1680013192181,1193180536029432,1.107,3.6529503,9.14595
1680013192183,1193180538531509,1.15695,3.6529503,9.163051
1680013192186,1193180541033432,1.164,3.6370502,9.187051
1680013192190,1193180543535509,1.1040001,3.6220503,9.205951
1680013192192,1193180546037659,1.1520001,3.5740502,9.129001
1680013192194,1193180548539813,1.1020501,3.6870003,9.061951
1680013192196,1193180551041736,1.0849501,3.6750002,9.165
1680013192198,1193180553543813,1.22895,3.72495,9.129001
1680013192201,1193180556045740,1.1590501,3.62505,9.229951
1680013192203,1193180558547817,1.1520001,3.68895,9.12495
1680013192205,1193180561049740,1.1590501,3.7420502,9.181951
1680013192209,1193180563551894,1.14495,3.7159503,9.187051
1680013192212,1193180566054057,1.13505,3.6820502,9.196951
1680013192213,1193180568556134,1.1740501,3.7230003,9.10305
1680013192215,1193180571058058,1.1380501,3.759,9.168
1680013192218,1193180573560134,1.1740501,3.6649501,9.189
1680013192221,1193180576062058,1.1040001,3.7680001,9.1060505
1680013192223,1193180578564129,1.16205,3.7080002,9.153001
1680013192227,1193180581066360,1.1520001,3.732,9.08205
1680013192229,1193180583568437,1.18095,3.6990001,9.10995
1680013192231,1193180586070360,1.2600001,3.6679502,9.192
1680013192234,1193180588572418,1.1740501,3.69195,9.129001
1680013192236,1193180591074341,1.2859501,3.66,9.184951
1680013192238,1193180593576418,1.24605,3.7399502,9.163051
1680013192241,1193180596078341,1.21905,3.6409502,9.189
1680013192243,1193180598580480,1.3050001,3.7159503,9.06705
1680013192245,1193180601082634,1.2379501,3.8070002,9.204
1680013192248,1193180603584711,1.31295,3.7750502,9.12195
1680013192251,1193180606086634,1.27695,3.7440002,9.192
1680013192253,1193180608588735,1.296,3.7560003,9.07005
1680013192256,1193180611090658,1.248,3.8230503,9.153001
1680013192258,1193180613593043,1.2720001,3.8140502,9.153001
1680013192261,1193180616094889,1.2379501,3.8040001,9.13395
1680013192265,1193180618597043,1.31295,3.8089502,9.06705
1680013192268,1193180621098966,1.3270501,3.83505,9.24405
1680013192269,1193180623601043,1.38705,3.8230503,9.229951
1680013192271,1193180626102966,1.2910501,3.7920003,9.1369505
1680013192274,1193180628605125,1.32,3.7399502,9.14595
1680013192276,1193180631107201,1.3579501,3.8400002,9.181951
1680013192278,1193180633609125,1.26195,3.759,9.240001
1680013192281,1193180636111202,1.3440001,3.76605,9.232051
1680013192284,1193180638613355,1.3219501,3.72495,9.14595
1680013192285,1193180641115278,1.4130001,3.80205,9.163051
1680013192289,1193180643617355,1.365,3.7510502,9.232051
1680013192291,1193180646119509,1.3290001,3.8140502,9.1390505
1680013192293,1193180648621432,1.4760001,3.7470002,9.208051
1680013192295,1193180651123600,1.3939501,3.7159503,9.148951
1680013192298,1193180653625446,1.4490001,3.79695,9.23505
1680013192303,1193180656127600,1.44,3.7849503,9.177
1680013192305,1193180658629677,1.3920001,3.7369502,9.22305
1680013192306,1193180661131831,1.437,3.8419502,9.193951
1680013192308,1193180663633754,1.4680501,3.8470502,9.213
1680013192311,1193180666135831,1.38705,3.9139502,9.12705
1680013192313,1193180668637754,1.3729501,3.8470502,9.189
1680013192316,1193180671139899,1.5190501,3.8209503,9.168
1680013192318,1193180673641745,1.4110501,3.8830502,9.175051
1680013192321,1193180676143899,1.4280001,3.7830002,9.252001
1680013192323,1193180678646053,1.4280001,3.8500502,9.187051
1680013192325,1193180681148130,1.389,3.759,9.26805
1680013192328,1193180683650062,1.3219501,3.795,9.153001
1680013192332,1193180686152139,1.3369501,3.8230503,9.184951
1680013192334,1193180688654293,1.3990501,3.80205,9.189
1680013192336,1193180691156139,1.27695,3.7849503,9.14595
1680013192340,1193180693658355,1.389,3.795,9.237
1680013192342,1193180696160432,1.33395,3.80205,9.204
1680013192344,1193180698662355,1.26195,3.76305,9.05805
1680013192346,1193180701164451,1.3099501,3.7800002,9.151051
1680013192348,1193180703666375,1.332,3.76095,9.232051
1680013192351,1193180706168528,1.4059501,3.76305,9.187051
1680013192353,1193180708670605,1.3920001,3.8740501,9.09795
1680013192356,1193180711172528,1.2910501,3.8500502,9.181951
1680013192358,1193180713674624,1.33395,3.76605,9.129001
1680013192361,1193180716176778,1.2070501,3.7009501,9.232051
1680013192363,1193180718678701,1.2790501,3.7489502,9.153001
1680013192366,1193180721180855,1.28205,3.795,9.156
1680013192369,1193180723682927,1.3410001,3.79695,9.201
1680013192371,1193180726184850,1.27005,3.795,9.12195
1680013192373,1193180728686927,1.24995,3.7680001,9.156
1680013192377,1193180731188850,1.2550501,3.7159503,9.1390505
1680013192379,1193180733690908,1.3369501,3.6439502,9.213
1680013192382,1193180736193139,1.30305,3.72495,9.1369505
1680013192384,1193180738695216,1.26195,3.8209503,9.220051
1680013192386,1193180741197139,1.22595,3.7780502,9.153001
1680013192388,1193180743699216,1.2100501,3.7560003,9.228001
1680013192391,1193180746201139,1.2720001,3.7399502,9.276
1680013192393,1193180748703216,1.26705,3.795,9.201
1680013192396,1193180751205370,1.3050001,3.7350001,9.144
1680013192398,1193180753707523,1.24605,3.7780502,9.24405
1680013192402,1193180756209466,1.2859501,3.76605,9.1369505
1680013192403,1193180758711542,1.3219501,3.759,9.285001
1680013192406,1193180761213466,1.2910501,3.7350001,9.295051
1680013192409,1193180763715543,1.34895,3.7489502,9.361951
1680013192411,1193180766217466,1.30305,3.7350001,9.240001
1680013192415,1193180768719619,1.284,3.72495,9.13395
1680013192416,1193180771221696,1.353,3.7750502,9.151051
1680013192418,1193180773723850,1.3050001,3.8089502,9.27105
1680013192421,1193180776225764,1.4250001,3.9,9.27105
1680013192423,1193180778727841,1.404,3.8539503,9.168
1680013192426,1193180781229764,1.42305,3.7560003,9.328051
1680013192428,1193180783731918,1.48695,3.8230503,9.160951
1680013192431,1193180786234057,1.3609501,3.8860502,9.28005
1680013192434,1193180788735903,1.4130001,3.7920003,9.228001
1680013192436,1193180791238057,1.43505,3.80205,9.24705
1680013192438,1193180793740134,1.47105,3.8400002,9.337951
1680013192441,1193180796242057,1.3410001,3.8190002,9.205951
1680013192443,1193180798744129,1.35105,3.86595,9.24405
1680013192446,1193180801246283,1.5090001,3.86595,9.205951
1680013192449,1193180803748206,1.38705,3.7849503,9.25395
1680013192453,1193180806250279,1.4989501,3.83505,9.232051
1680013192455,1193180808752202,1.4130001,3.7080002,9.141001
1680013192456,1193180811254356,1.42005,3.7440002,9.23505
1680013192458,1193180813756433,1.52295,3.7540503,9.220051
1680013192462,1193180816258587,1.3579501,3.8520002,9.184951
1680013192463,1193180818760514,1.3939501,3.7420502,9.132
1680013192466,1193180821262591,1.4800501,3.7750502,9.172951
1680013192468,1193180823764744,1.4250001,3.6990001,9.196951
1680013192472,1193180826266591,1.4760001,3.6750002,9.181951
1680013192474,1193180828768754,1.45395,3.66,9.232051
1680013192476,1193180831270678,1.3990501,3.6439502,9.160951
1680013192478,1193180833772831,1.43505,3.7680001,9.175051
1680013192481,1193180836274908,1.4320501,3.7039502,9.144
1680013192483,1193180838776831,1.4250001,3.7800002,9.144
1680013192486,1193180841278922,1.4320501,3.7350001,9.172951
1680013192491,1193180843780845,1.452,3.696,9.10995
1680013192494,1193180846281865,1.3750501,3.7159503,9.14595
1680013192494,1193180848782904,1.32,3.6820502,9.18
1680013192496,1193180851287211,1.4130001,3.6510003,9.160951
1680013192499,1193180853789134,1.416,3.73005,9.229951
1680013192501,1193180856291211,1.296,3.7710001,9.084001
1680013192503,1193180858793134,1.3920001,3.7200003,9.07695
1680013192506,1193180861295283,1.33905,3.76095,9.132
1680013192508,1193180863797360,1.2889501,3.65595,9.07005
1680013192512,1193180866299514,1.3770001,3.7540503,8.9740505
1680013192514,1193180868801437,1.42305,3.7830002,9.24195
1680013192516,1193180871303500,1.3770001,3.8070002,9.168
1680013192519,1193180873805423,1.3800001,3.83295,9.1369505
1680013192522,1193180876307500,1.3369501,3.9169502,9.181951
1680013192524,1193180878809423,1.3990501,3.8740501,9.096001
1680013192527,1193180881311792,1.3219501,3.8160002,9.132
1680013192530,1193180883813639,1.33395,3.7849503,9.153001
1680013192532,1193180886315792,1.33395,3.7729502,9.148951
1680013192534,1193180888817716,1.41795,3.8470502,9.11295
1680013192536,1193180891319792,1.2739501,3.7440002,9.165
1680013192538,1193180893821687,1.3440001,3.7729502,9.153001
1680013192542,1193180896323840,1.3729501,3.8470502,9.12495
1680013192543,1193180898825994,1.3729501,3.8070002,9.25905
1680013192546,1193180901327840,1.3219501,3.7369502,9.08205
1680013192548,1193180903829999,1.45605,3.7420502,9.193951
1680013192551,1193180906332076,1.4640001,3.7489502,9.156
1680013192553,1193180908834230,1.38705,3.696,9.25605
1680013192556,1193180911336153,1.4490001,3.7830002,9.06
1680013192559,1193180913838249,1.4610001,3.72795,9.168
1680013192561,1193180916340172,1.3960501,3.7780502,9.165
1680013192565,1193180918842249,1.5499501,3.65805,9.1699505
1680013192567,1193180921344172,1.5109501,3.72795,9.15795
1680013192569,1193180923846567,1.5190501,3.7780502,9.156
1680013192572,1193180926348490,1.5160501,3.7039502,9.160951
1680013192573,1193180928850567,1.5450001,3.7080002,9.12195
1680013192576,1193180931352490,1.6000501,3.7510502,9.181951
1680013192579,1193180933854567,1.45905,3.7230003,9.0720005
1680013192582,1193180936356500,1.55505,3.68895,9.05805
1680013192584,1193180938858654,1.62195,3.7560003,9.199051
1680013192586,1193180941360808,1.4950501,3.7489502,9.10995
1680013192588,1193180943862885,1.4970001,3.6529503,9.15795
1680013192592,1193180946364803,1.4800501,3.7009501,9.153001
1680013192593,1193180948866880,1.5640501,3.7350001,9.084001
1680013192596,1193180951368803,1.4899501,3.8040001,9.153001
1680013192598,1193180953870956,1.557,3.7039502,9.196951
1680013192603,1193180956373018,1.5259501,3.6750002,9.153001
1680013192605,1193180958874942,1.4490001,3.7200003,8.9740505
1680013192606,1193180961377095,1.49205,3.8089502,8.98305
1680013192609,1193180963879172,1.45905,3.7489502,9.193951
1680013192612,1193180966381095,1.50195,3.7830002,9.307051
1680013192613,1193180968883177,1.521,3.7399502,9.06495
1680013192616,1193180971385331,1.5109501,3.7350001,9.08895
1680013192618,1193180973887254,1.49205,3.69405,9.163051
1680013192621,1193180976389331,1.4970001,3.8110502,9.120001
1680013192623,1193180978891485,1.4680501,3.7009501,9.1369505
1680013192626,1193180981393418,1.5619501,3.69195,9.205951
1680013192629,1193180983895495,1.4989501,3.8040001,9.295051
1680013192632,1193180986397649,1.4970001,3.6990001,9.216001
1680013192635,1193180988899572,1.50405,3.7159503,9.252001
1680013192636,1193180991401654,1.5090001,3.7350001,9.283051
1680013192640,1193180993903577,1.4320501,3.7830002,9.14595
1680013192643,1193180996405731,1.416,3.7129502,9.217951
1680013192644,1193180998907817,1.4440501,3.72495,9.232051
1680013192647,1193181001409740,1.4250001,3.7009501,9.217951
1680013192651,1193181003911894,1.404,3.6750002,9.21105
1680013192652,1193181006413971,1.45605,3.72495,9.12195
1680013192654,1193181008915894,1.4280001,3.7470002,9.177
1680013192656,1193181011417957,1.4680501,3.6679502,9.18
1680013192658,1193181013919880,1.47105,3.76605,9.10995
1680013192661,1193181016422034,1.4779501,3.7780502,9.156
1680013192663,1193181018924187,1.4320501,3.76095,9.108001
1680013192666,1193181021426278,1.46595,3.8590503,9.1060505
1680013192668,1193181023928201,1.4830501,3.7350001,9.201
1680013192671,1193181026430278,1.46595,3.7009501,9.11505
1680013192673,1193181028932432,1.4779501,3.8110502,9.261001
1680013192677,1193181031434278,1.3800001,3.7849503,9.153001
1680013192679,1193181033936432,1.4490001,3.76305,9.175051
1680013192682,1193181036438586,1.38705,3.7849503,9.163051
1680013192684,1193181038940509,1.44,3.79695,9.177
1680013192686,1193181041442586,1.45605,3.8160002,9.028951
1680013192694,1193181043944524,1.4779501,3.7200003,9.085951
1680013192694,1193181046446601,1.42005,3.7780502,9.168
1680013192695,1193181048948755,1.47105,3.8449502,9.1369505
1680013192696,1193181051450678,1.44,3.8419502,9.199051
1680013192698,1193181053952832,1.4680501,3.7750502,9.204
1680013192701,1193181056454933,1.4490001,3.79695,9.10095
1680013192703,1193181058956856,1.54005,3.7489502,9.129001
1680013192706,1193181061458933,1.4130001,3.831,9.181951
1680013192708,1193181063960856,1.42305,3.7800002,9.1390505
1680013192711,1193181066463269,1.4320501,3.76095,9.14595
1680013192715,1193181068965115,1.3630501,3.7159503,9.208051
1680013192717,1193181071467269,1.50195,3.6720002,9.163051
1680013192720,1193181073969192,1.3939501,3.6130502,9.208051
1680013192724,1193181076470231,1.4899501,3.7510502,9.156
1680013192724,1193181078971270,1.34895,3.6679502,9.184951
1680013192726,1193181081475269,1.317,3.759,9.11505
1680013192729,1193181083977422,1.42005,3.7350001,9.12495
1680013192732,1193181086479562,1.3800001,3.7540503,9.192
1680013192734,1193181088981408,1.3800001,3.7009501,9.10305
1680013192736,1193181091483332,1.4080501,3.62895,9.199051
1680013192739,1193181093985716,1.33395,3.69195,9.129001
1680013192742,1193181096487639,1.416,3.7080002,9.181951
1680013192743,1193181098989461,1.36995,3.68895,9.201
1680013192746,1193181101491615,1.368,3.6480002,9.06705
1680013192748,1193181103993692,1.3939501,3.732,9.10095
1680013192753,1193181106495615,1.52295,3.65595,9.07695
1680013192754,1193181108997748,1.3920001,3.68895,9.14595
1680013192756,1193181111499825,1.41795,3.65805,9.06705
1680013192758,1193181114001979,1.4490001,3.72495,9.181951
1680013192761,1193181116503902,1.4800501,3.6840003,9.177
1680013192763,1193181119005979,1.4080501,3.7399502,9.09105
1680013192766,1193181121507931,1.416,3.7200003,9.15795
1680013192770,1193181124010008,1.4250001,3.7440002,9.004951
1680013192772,1193181126512162,1.3990501,3.68895,9.187051
1680013192774,1193181129014124,1.48695,3.7110002,9.108001
1680013192776,1193181131516278,1.42005,3.7369502,9.055051
1680013192780,1193181134018355,1.4680501,3.732,9.096001
1680013192783,1193181136520278,1.4610001,3.7230003,9.07695
1680013192784,1193181139022355,1.4800501,3.79695,9.022051
1680013192786,1193181141524488,1.50195,3.7080002,9.156
1680013192790,1193181144026412,1.473,3.7510502,9.07005
1680013192792,1193181146528488,1.4899501,3.8230503,9.117001
1680013192795,1193181149030408,1.4419501,3.65595,9.07695
1680013192796,1193181151532561,1.5109501,3.6799502,9.08205
1680013192798,1193181154034638,1.50195,3.7510502,9.08205
1680013192801,1193181156536561,1.416,3.732,9.07905
1680013192804,1193181159038715,1.3990501,3.69195,9.07005
1680013192806,1193181161540758,1.4080501,3.6700501,9.141001
1680013192809,1193181164042912,1.3560001,3.696,8.991
1680013192812,1193181166544758,1.4760001,3.7159503,9.165
1680013192814,1193181169046912,1.401,3.7009501,8.97105
1680013192817,1193181171548821,1.3410001,3.7080002,9.108001
1680013192818,1193181174050975,1.3990501,3.7729502,9.0720005
1680013192822,1193181176553052,1.44,3.7849503,9.193951
1680013192823,1193181179054975,1.42305,3.8140502,9.09795
1680013192827,1193181181557066,1.46595,3.7399502,9.120001
1680013192829,1193181184058989,1.4640001,3.7060502,9.043051
1680013192832,1193181186561066,1.485,3.79695,9.096001
1680013192834,1193181189063297,1.4970001,3.8419502,9.1369505
1680013192836,1193181191565374,1.43505,3.7510502,9.12495
1680013192838,1193181194067302,1.4320501,3.7369502,9.18
1680013192841,1193181196569379,1.4130001,3.76095,8.95695
1680013192844,1193181199071302,1.44,3.6649501,9.05805
1680013192846,1193181201573456,1.42005,3.7399502,9.0
1680013192849,1193181204075307,1.3770001,3.7540503,9.05805
1680013192852,1193181206577691,1.42005,3.6679502,9.07905
1680013192853,1193181209079614,1.45395,3.759,8.952001
1680013192856,1193181211581691,1.45905,3.7350001,9.096001
1680013192858,1193181214083614,1.45605,3.7009501,8.98305
1680013192861,1193181216585667,1.46595,3.663,9.028951
1680013192865,1193181219087591,1.45905,3.76095,9.040951
1680013192867,1193181221589975,1.4760001,3.7129502,9.004951
1680013192869,1193181224091898,1.4490001,3.76305,9.003
1680013192872,1193181226593984,1.45605,3.7830002,9.06705
1680013192873,1193181229095907,1.4320501,3.7750502,9.084001
1680013192876,1193181231597984,1.4830501,3.8380501,8.98305
1680013192879,1193181234099907,1.34895,3.7710001,9.120001
1680013192881,1193181236601984,1.401,3.8590503,9.0070505
1680013192884,1193181239104215,1.3270501,3.8449502,9.049951
1680013192886,1193181241606061,1.4989501,3.76095,8.976001
1680013192889,1193181244108215,1.4680501,3.8380501,8.988001
1680013192892,1193181246610278,1.4830501,3.76605,8.916
1680013192894,1193181249112201,1.5090001,3.7440002,8.892
1680013192896,1193181251614278,1.44,3.759,8.96895
1680013192898,1193181254116432,1.452,3.8089502,8.896951
1680013192903,1193181256618374,1.4950501,3.7800002,8.93805
1680013192904,1193181259120528,1.34895,3.7849503,8.847
1680013192906,1193181261622605,1.4779501,3.83295,8.931001
1680013192909,1193181264124528,1.4440501,3.7849503,8.923051
1680013192911,1193181266626605,1.437,3.7399502,9.012
1680013192914,1193181269128777,1.4470501,3.7510502,8.93505
1680013192916,1193181271630701,1.3369501,3.7369502,8.9740505
1680013192919,1193181274132777,1.38195,3.795,9.09105
1680013192922,1193181276634931,1.38495,3.76095,8.859
1680013192924,1193181279136859,1.3369501,3.7750502,9.06495
1680013192926,1193181281638936,1.4320501,3.6769502,8.866051
1680013192929,1193181284141090,1.2859501,3.864,8.89995
1680013192932,1193181286643013,1.3050001,3.8380501,9.061951
1680013192934,1193181289145090,1.3410001,3.7870502,8.890051
1680013192936,1193181291647004,1.2889501,3.7540503,8.94705
1680013192940,1193181294149081,1.36995,3.828,8.988001
1680013192943,1193181296651235,1.4680501,3.8929503,8.887951
1680013192944,1193181299153134,1.401,3.83295,8.856
1680013192946,1193181301655288,1.416,3.8860502,8.81805
1680013192948,1193181304157365,1.4470501,3.80205,8.851951
1680013192951,1193181306659288,1.4280001,3.8470502,8.863951
1680013192954,1193181309161365,1.3960501,3.8400002,8.923051
1680013192956,1193181311663547,1.4950501,3.8760002,8.97105
1680013192958,1193181314165470,1.3770001,3.8089502,8.81805
1680013192962,1193181316667547,1.45905,3.8040001,8.919001
1680013192963,1193181319169701,1.437,3.83295,8.923051
1680013192966,1193181321671643,1.3579501,3.7710001,8.952001
1680013192970,1193181324173720,1.34895,3.7780502,8.884951
1680013192972,1193181326675643,1.35105,3.8539503,8.931001
1680013192974,1193181329177797,1.36995,3.7920003,8.875951
1680013192978,1193181331679950,1.4250001,3.831,8.91405
1680013192980,1193181334181797,1.3369501,3.8230503,8.6980505
1680013192982,1193181336683950,1.34895,3.759,8.856
1680013192984,1193181339186027,1.4130001,3.7510502,8.920951
1680013192986,1193181341687950,1.3729501,3.86595,8.86095
1680013192989,1193181344190100,1.4610001,3.92895,8.847
1680013192992,1193181346692177,1.332,3.89805,8.91405
1680013192993,1193181349194100,1.34595,3.9240003,8.752951
1680013192996,1193181351696177,1.3410001,3.9220502,8.851951
1680013192998,1193181354198100,1.4320501,3.9019501,8.752951
1680013193002,1193181356700234,1.45905,3.9310503,8.78895
1680013193003,1193181359202311,1.4989501,3.9930003,8.706
1680013193006,1193181361704465,1.4779501,4.017,8.799001
1680013193009,1193181364206369,1.49205,3.8830502,8.78895
1680013193012,1193181366708446,1.5160501,4.005,8.75595
1680013193015,1193181369210600,1.5109501,3.8860502,8.943001
1680013193017,1193181371712446,1.46595,3.9139502,8.81595
1680013193019,1193181374214600,1.4680501,3.8830502,8.872951
1680013193022,1193181376716754,1.45395,3.8230503,8.775001
1680013193023,1193181379218677,1.485,3.8760002,8.863951
1680013193026,1193181381720754,1.42005,3.8230503,8.80605
1680013193029,1193181384222677,1.4130001,3.8260503,8.835
1680013193031,1193181386724778,1.45905,3.795,8.77995
1680013193034,1193181389226701,1.45905,3.7729502,8.77305
1680013193037,1193181391729085,1.46595,3.9240003,8.73705
1680013193039,1193181394231009,1.38705,3.86595,8.764951
1680013193041,1193181396733070,1.365,3.8860502,8.79195
1680013193043,1193181399234994,1.3990501,3.9529502,8.764951
1680013193046,1193181401737070,1.3770001,3.9120002,8.67405
1680013193052,1193181404238994,1.2930001,3.7900503,8.713051
1680013193054,1193181406741142,1.32,3.9840002,8.887951
1680013193055,1193181409243219,1.3579501,4.005,8.77995
1680013193057,1193181411745373,1.33905,4.02105,8.73705
1680013193059,1193181414247296,1.30305,3.9310503,8.703
1680013193061,1193181416749373,1.3410001,3.99795,8.682
1680013193063,1193181419251311,1.3099501,4.00995,8.64105
1680013193066,1193181421753388,1.2930001,4.0009503,8.751
1680013193068,1193181424255619,1.332,4.116,8.701051
1680013193072,1193181426757696,1.401,4.02105,8.80095
1680013193073,1193181429259527,1.3630501,4.1059504,8.62905
1680013193076,1193181431761681,1.27005,4.0080004,8.6650505
1680013193080,1193181434263604,1.365,4.12305,8.655001
1680013193085,1193181436765658,1.365,4.15905,8.63595
1680013193086,1193181439267581,1.47105,4.209,8.682
1680013193087,1193181441769735,1.473,4.22295,8.61495
1680013193091,1193181444271889,1.4320501,4.18995,8.59305
1680013193093,1193181446773735,1.45605,4.1389503,8.62905
1680013193095,1193181449454879,1.44,4.15605,8.67195
1680013193097,1193181451777956,1.43505,4.1130004,8.72505
1680013193099,1193181454279879,1.416,4.23,8.7289505
1680013193102,1193181456782033,1.45395,4.1350503,8.722051
1680013193104,1193181459284110,1.42305,4.2109504,8.775001
1680013193106,1193181461786033,1.4320501,4.1200504,8.884951
1680013193109,1193181464288186,1.32,4.065,8.7630005
1680013193111,1193181466790263,1.3249501,4.19205,8.77305
1680013193113,1193181469292186,1.36995,4.209,8.694
1680013193118,1193181471794282,1.2910501,4.3170004,8.6650505
1680013193119,1193181474296436,1.26495,4.26195,8.65995
1680013193122,1193181476798359,1.248,4.24695,8.7630005
1680013193124,1193181479300436,1.26705,4.34805,8.68605
1680013193128,1193181481802344,1.2550501,4.27605,8.77005
1680013193130,1193181484304498,1.21905,4.4220004,8.667001
1680013193134,1193181486806575,1.24605,4.341,8.547
1680013193135,1193181489308498,1.26495,4.353,8.61705
1680013193137,1193181491810652,1.18605,4.42005,8.607
1680013193138,1193181494312710,1.21395,4.4170504,8.59305
1680013193142,1193181496814633,1.2,4.3980002,8.50905
1680013193143,1193181499316787,1.21905,4.46505,8.49495
1680013193146,1193181501818864,1.131,4.45305,8.59095
1680013193148,1193181504321018,1.2910501,4.386,8.562
1680013193152,1193181506822888,1.22595,4.3170004,8.557051
1680013193154,1193181509325042,1.22895,4.39095,8.533051
1680013193156,1193181511826965,1.12605,4.3000503,8.478001
1680013193159,1193181514329119,1.21695,4.4220004,8.47305
1680013193161,1193181516831196,1.24605,4.46805,8.559
1680013193166,1193181519333119,1.15695,4.39095,8.574
1680013193167,1193181521835196,1.2529501,4.50105,8.524051
1680013193170,1193181524337110,1.19295,4.446,8.53995
1680013193173,1193181526839264,1.15005,4.4869504,8.62905
1680013193174,1193181529341340,1.14495,4.5990005,8.49495
1680013193176,1193181531843494,1.1209501,4.5270004,8.667001
1680013193179,1193181534345417,1.116,4.6860003,8.59305
1680013193181,1193181536847513,1.04205,4.55595,8.514
1680013193184,1193181539349436,1.0009501,4.6590004,8.547
1680013193187,1193181541851590,0.99705005,4.6399503,8.44695
1680013193189,1193181544353436,1.03695,4.6470003,8.43
1680013193191,1193181546855821,0.9889501,4.7839503,8.554951
1680013193194,1193181549357744,0.98700005,4.74795,8.55195
1680013193196,1193181551859821,0.9580501,4.7070003,8.46405
1680013193199,1193181554361744,0.9889501,4.7410502,8.43
1680013193203,1193181556863802,0.90795004,4.76205,8.47995
1680013193204,1193181559365956,0.873,4.8,8.49195
1680013193207,1193181561867802,0.873,4.7719502,8.455951
1680013193210,1193181564370033,0.90795004,4.7569504,8.3890505
1680013193213,1193181566872105,0.88500005,4.78905,8.334001
1680013193214,1193181569374028,0.84900004,4.85295,8.34195
1680013193218,1193181571876105,0.804,4.8510003,8.35095
1680013193219,1193181574378028,0.78705,4.899,8.418
1680013193221,1193181576880105,0.82500005,4.81995,8.37705
1680013193224,1193181579382341,0.84900004,4.875,8.301001
1680013193226,1193181581884187,0.86100006,4.887,8.358001
1680013193229,1193181584386341,0.75795,4.86495,8.409
1680013193231,1193181586888418,0.78195006,4.8460503,8.227051
1680013193234,1193181589390341,0.73905003,4.85295,8.170051
1680013193236,1193181591892418,0.72,4.9350004,8.257951
1680013193240,1193181594394341,0.74100006,4.92495,8.19795
1680013193243,1193181596896725,0.684,5.0020504,8.370001
1680013193245,1193181599398638,0.73605,4.992,8.298
1680013193247,1193181601900715,0.82005006,5.0880003,8.18595
1680013193250,1193181604402638,0.78900003,5.157,8.13
1680013193252,1193181606904715,0.72705,5.0950503,8.215051
1680013193254,1193181609406638,0.669,5.08995,8.19495
1680013193256,1193181611908797,0.67695004,5.076,8.109
1680013193259,1193181614410874,0.80805004,5.241,8.097
1680013193261,1193181616913028,0.768,5.11905,8.205
1680013193263,1193181619414951,0.75795,5.2720504,8.23095
1680013193266,1193181621917058,0.87495005,5.33895,8.254951
1680013193268,1193181624418981,0.753,5.3710504,8.24295
1680013193271,1193181626921135,0.82995003,5.3920503,8.17905
1680013193274,1193181629423212,0.91695005,5.47095,8.19795
1680013193278,1193181631925130,0.82500005,5.517,8.34195
1680013193279,1193181634427284,0.88695,5.51205,8.20995
1680013193282,1193181636929361,0.85905004,5.565,8.254951
1680013193284,1193181639431284,0.85905004,5.4970503,8.20005
1680013193287,1193181641933361,0.90195006,5.6239505,8.071051
1680013193290,1193181644435500,1.00605,5.58795,8.133
1680013193292,1193181646937423,0.9289501,5.68695,8.104051
1680013193294,1193181649439500,1.0180501,5.61495,8.064
1680013193296,1193181651941423,1.09695,5.6719503,8.18595
1680013193299,1193181654443577,1.0639501,5.598,8.193001
1680013193302,1193181656945672,1.06095,5.5530005,8.217
1680013193304,1193181659447826,1.02795,5.6460004,8.175
1680013193306,1193181661949749,1.0830001,5.5620003,8.076
1680013193309,1193181664451826,1.14705,5.5909505,8.19495
1680013193312,1193181666953985,1.2930001,5.5260005,8.302951
1680013193319,1193181669455908,1.4800501,5.58795,8.236051
1680013193319,1193181671957985,1.48695,5.5620003,8.245951
1680013193320,1193181674459908,1.4970001,5.48295,8.191051
1680013193323,1193181676962067,1.43505,5.53305,8.089951
1680013193325,1193181679464144,1.5160501,5.4139504,8.253
1680013193327,1193181681966067,1.60695,5.5189505,8.175
1680013193330,1193181684468144,1.6000501,5.4900002,8.262
1680013193332,1193181686970298,1.794,5.493,8.17395
1680013193334,1193181689472466,1.59,5.50005,8.217
1680013193336,1193181691974312,1.5790501,5.53305,8.17905
1680013193339,1193181694476466,1.557,5.48505,8.3869505
1680013193342,1193181696978389,1.521,5.538,8.47605
1680013193344,1193181699480466,1.57605,5.5600505,8.514
1680013193347,1193181701982635,1.4800501,5.5740004,8.48505
1680013193349,1193181704484558,1.5160501,5.5260005,8.406
1680013193353,1193181706986635,1.57095,5.64405,8.53995
1680013193355,1193181709488789,1.6459501,5.6670003,8.433001
1680013193357,1193181711990635,1.6459501,5.6530504,8.466001
1680013193359,1193181714492789,1.6720501,5.7229505,8.514
1680013193362,1193181716994942,1.59,5.67495,8.368051
1680013193364,1193181719496865,1.6189501,5.5909505,8.349
1680013193367,1193181721998951,1.5619501,5.802,8.245951
1680013193370,1193181724500874,1.7010001,5.6650505,8.3560505
1680013193372,1193181727003028,1.8319501,5.826,8.35095
1680013193374,1193181729504874,1.9069501,5.73705,8.434951
1680013193376,1193181732007028,1.7680501,5.7850504,8.30805
1680013193379,1193181734509187,1.794,5.7630005,8.361
1680013193382,1193181737011264,2.0380502,5.703,8.433001
1680013193387,1193181739513187,1.9590001,5.6530504,8.42805
1680013193388,1193181742015255,1.8589501,5.61705,8.437051
1680013193390,1193181744517178,2.0299501,5.74695,8.47305
1680013193393,1193181747019332,1.9980001,5.6389503,8.48295
1680013193395,1193181749521409,1.9230001,5.682,8.42805
1680013193397,1193181752023562,1.983,5.7300005,8.397
1680013193399,1193181754525485,1.9810501,5.7660003,8.34195
1680013193402,1193181757027562,1.9950001,5.74905,8.36505
1680013193404,1193181759529485,2.05995,5.7229505,8.406
1680013193407,1193181762031562,1.9810501,5.7850504,8.36505
1680013193410,1193181764533712,1.983,5.7850504,8.398951
1680013193412,1193181767035635,1.9900501,5.7439504,8.34405
1680013193415,1193181769537789,2.1079502,5.7630005,8.47305
1680013193417,1193181772039866,2.0400002,5.74905,8.337001
1680013193419,1193181774541789,2.127,5.8039503,8.302951
1680013193422,1193181777043885,2.043,5.77005,8.313001
1680013193424,1193181779545808,2.046,5.6790004,8.455951
1680013193429,1193181782048192,1.9780501,5.8300505,8.358001
1680013193430,1193181784550115,2.1100502,5.73705,8.346001
1680013193432,1193181787051971,2.0959501,5.8330503,8.43
1680013193435,1193181789554124,2.223,5.9209504,8.34405
1680013193436,1193181792056201,2.2420502,5.802,8.422951
1680013193439,1193181794558124,2.2800002,5.8279505,8.215051
1680013193442,1193181797060192,2.184,5.8780503,8.313001
1680013193444,1193181799562346,2.2470002,5.79195,8.337001
1680013193447,1193181802064500,2.223,5.7300005,8.404051
1680013193451,1193181804566423,2.35695,5.6670003,8.36505
1680013193452,1193181807068500,2.352,5.70795,8.41605
1680013193455,1193181809570423,2.32095,5.6790004,8.46405
1680013193456,1193181812072500,2.3500502,5.74905,8.533051
1680013193459,1193181814574654,2.3380501,5.682,8.41605
1680013193462,1193181817076577,2.3380501,5.6410503,8.358001
1680013193466,1193181819578663,2.223,5.6080503,8.380051
1680013193468,1193181822080817,2.19195,5.622,8.3869505
1680013193470,1193181824582740,2.2420502,5.6340003,8.406
1680013193472,1193181827084817,2.29695,5.7109504,8.422951
1680013193474,1193181829586971,2.4,5.7130504,8.46405
1680013193477,1193181832088875,2.39295,5.68905,8.677051
1680013193479,1193181834590952,2.36595,5.66295,8.566951
1680013193485,1193181837092875,2.259,5.6269503,8.562
1680013193488,1193181839595039,2.16,5.67495,8.643001
1680013193488,1193181842097116,2.232,5.7300005,8.61705
1680013193490,1193181844599039,2.3089502,5.67495,8.77995
1680013193493,1193181847101192,2.0719502,5.76105,8.706
1680013193494,1193181849603269,2.12505,5.8350005,8.535001
1680013193497,1193181852105192,2.1100502,5.715,8.598001
1680013193499,1193181854607254,2.0959501,5.8639503,8.55
1680013193503,1193181857109408,2.1720002,5.7660003,8.50395
1680013193505,1193181859611331,2.1319501,5.85195,8.557051
1680013193507,1193181862113485,2.2470002,5.7660003,8.574
1680013193509,1193181864615326,2.1390002,5.75895,8.406
1680013193512,1193181867117480,2.28495,5.80905,8.530951
1680013193514,1193181869619557,2.29695,5.787,8.41605
1680013193517,1193181872121711,2.364,5.6940002,8.45895
1680013193519,1193181874623663,2.352,5.64795,8.49495
1680013193522,1193181877125740,2.46705,5.6200504,8.48805
1680013193524,1193181879627663,2.38995,5.5999503,8.45205
1680013193526,1193181882129817,2.5459502,5.7390003,8.48295
1680013193530,1193181884631677,2.5099502,5.6080503,8.392051
1680013193533,1193181887133831,2.496,5.68905,8.46405
1680013193534,1193181889635985,2.5510502,5.61705,8.46405
1680013193537,1193181892138062,2.6130002,5.61,8.46405
1680013193541,1193181894639976,2.6130002,5.517,8.48295
1680013193543,1193181897142053,2.529,5.466,8.454
1680013193545,1193181899644207,2.496,5.445,8.406
1680013193547,1193181902146053,2.493,5.4540005,8.50395
1680013193549,1193181904648284,2.39805,5.42805,8.3869505
1680013193551,1193181907150360,2.4,5.48295,8.398951
1680013193554,1193181909652284,2.33505,5.43795,8.48505
1680013193557,1193181912154360,2.364,5.4619503,8.49495
1680013193559,1193181914656284,2.3070002,5.4040504,8.380051
1680013193562,1193181917158369,2.2009501,5.3920503,8.373
1680013193564,1193181919660523,2.29695,5.47305,8.385
1680013193567,1193181922162446,2.2369502,5.3920503,8.274
1680013193570,1193181924664600,2.187,5.433,8.227051
1680013193573,1193181927166668,2.14395,5.42805,8.215051
1680013193575,1193181929668591,2.2110002,5.373,8.245951
1680013193581,1193181932170668,2.11305,5.4570003,8.20995
1680013193582,1193181934672591,2.12895,5.406,8.257951
1680013193583,1193181937174995,2.259,5.4349504,8.28195
1680013193585,1193181939676918,2.127,5.45895,8.21205
1680013193587,1193181942178995,2.11305,5.42805,8.20995
1680013193589,1193181944680918,2.12205,5.3970003,8.253
1680013193592,1193181947182995,2.2060502,5.4970503,8.16705
1680013193594,1193181949684918,2.187,5.565,8.158951
1680013193597,1193181952187072,2.019,5.5090504,8.217
1680013193601,1193181954689149,2.18205,5.5620003,8.262
1680013193602,1193181957191303,2.11995,5.48505,8.2890005
1680013193604,1193181959693226,2.1370502,5.61,8.262
1680013193607,1193181962195284,2.151,5.5530005,8.14005
1680013193610,1193181964697207,2.24895,5.4880505,8.191051
1680013193613,1193181967199284,2.0770502,5.5189505,8.203051
1680013193618,1193181969701413,2.0719502,5.5189505,8.1
1680013193619,1193181972203336,2.12205,5.5860004,8.05605
1680013193621,1193181974705489,2.2080002,5.5140004,8.112
1680013193624,1193181977207566,2.12895,5.6080503,8.109
1680013193625,1193181979709489,2.0959501,5.6410503,8.016001
1680013193627,1193181982211561,2.2060502,5.67495,8.02095
1680013193629,1193181984713715,2.2110002,5.58795,8.06805
1680013193632,1193181987215638,2.22495,5.6509504,7.9579506
1680013193635,1193181989717715,2.2009501,5.7510004,7.8619504
1680013193637,1193181992219638,2.14905,5.7510004,7.9339504
1680013193639,1193181994721792,2.2039502,5.8060503,7.89795
1680013193642,1193181997223869,2.2800002,5.8350005,7.8360004
1680013193644,1193181999725792,2.32305,5.8180504,7.8480005
1680013193647,1193182002227946,2.2680001,5.7630005,7.9009504
1680013193651,1193182004730013,2.24895,5.8060503,7.9729505
1680013193654,1193182007231936,2.23005,5.8350005,7.8859506
1680013193656,1193182009734013,2.16,5.742,7.9890003
1680013193658,1193182012236167,2.1649501,5.8330503,7.965
1680013193659,1193182014738090,2.08395,5.67495,8.104051
1680013193662,1193182017240235,2.14905,5.7439504,8.06595
1680013193665,1193182019742312,2.08605,5.7559505,8.001
1680013193666,1193182022244235,1.9980001,5.6389503,8.023951
1680013193669,1193182024746312,2.01405,5.703,8.089951
1680013193672,1193182027248235,2.01,5.66295,7.99695
1680013193674,1193182029750312,1.9810501,5.79405,8.13
1680013193677,1193182032252543,1.9810501,5.73495,8.00895
1680013193680,1193182034754619,1.8829501,5.7559505,8.017051
1680013193682,1193182037256547,1.9660501,5.7439504,7.9200006
1680013193685,1193182039758623,2.0050502,5.8759503,7.9249506
1680013193687,1193182042260547,1.9660501,5.85405,7.9870505
1680013193692,1193182044762700,1.899,5.787,8.028001
1680013193695,1193182047263579,1.99995,5.8780503,8.023951
1680013193695,1193182049764504,1.9260001,5.83995,7.965
1680013193697,1193182052268811,1.9429501,5.8969502,7.9129505
1680013193699,1193182054770888,1.9810501,6.02895,8.005051
1680013193702,1193182057272811,1.9620001,5.8350005,8.01
1680013193704,1193182059774936,1.9710001,5.9430003,7.9630504
1680013193707,1193182062277013,1.9620001,5.91405,8.005051
1680013193709,1193182064778936,1.9279501,5.8830004,8.0119505
1680013193712,1193182067281013,1.9930501,5.94105,7.9080005
1680013193715,1193182069782927,2.0299501,5.9290504,7.9219503
1680013193718,1193182072285081,2.022,5.9599504,7.9180503
1680013193722,1193182074787235,2.11305,5.8999505,8.182051
1680013193724,1193182077289312,2.058,5.8900504,8.128051
1680013193725,1193182079791249,2.18205,5.8690505,7.9540505
1680013193729,1193182082293326,2.1460502,5.8450503,8.06595
1680013193732,1193182084795249,2.1079502,5.8969502,8.023951
1680013193734,1193182087297403,2.1319501,5.91195,8.121
1680013193736,1193182089799254,2.043,5.98605,8.19795
1680013193738,1193182092301639,2.04795,5.9359503,8.154
1680013193740,1193182094803562,2.0359502,5.9929504,8.085
1680013193743,1193182097305639,2.0380502,5.9880004,8.158951
1680013193744,1193182099807562,2.055,6.0150003,8.03295
1680013193747,1193182102309620,1.9660501,6.04605,8.155951
1680013193749,1193182104811543,1.93095,5.979,8.116051
1680013193752,1193182107313696,1.9210501,6.1009502,8.17905
1680013193755,1193182109815850,1.9090501,6.11805,8.227051
1680013193757,1193182112317927,1.8079501,6.096,8.34195
1680013193759,1193182114819835,1.7700001,6.096,8.155951
1680013193762,1193182117321912,1.725,6.216,8.215051
1680013193766,1193182119823835,1.7320501,6.1990504,8.155951
1680013193768,1193182122325912,1.7530501,6.2059503,8.215051
1680013193771,1193182124828143,1.674,6.1780505,8.182051
1680013193773,1193182127329989,1.6530001,6.168,8.137051
1680013193775,1193182129832143,1.5790501,6.111,8.19495
1680013193777,1193182132334220,1.7029501,6.1660504,8.313001
1680013193780,1193182134836162,1.64295,6.09105,8.29395
1680013193782,1193182137338239,1.641,6.0990005,8.17905
1680013193785,1193182139840393,1.7080501,6.1080003,8.23095
1680013193787,1193182142342316,1.5640501,6.0870004,8.239051
1680013193789,1193182144844470,1.6480501,6.0820503,8.245951
1680013193792,1193182147346582,1.605,6.0649505,8.248051
1680013193795,1193182149848505,1.6000501,6.063,8.137051
1680013193797,1193182152350582,1.674,6.02895,8.11905
1680013193800,1193182154852736,1.6480501,6.0049505,8.076
1680013193804,1193182157354668,1.77495,5.9550004,8.113951
1680013193805,1193182159856745,1.7050501,6.0649505,8.04705
1680013193807,1193182162358898,1.69605,6.0649505,7.8769503
1680013193810,1193182164860745,1.6789501,6.13005,7.9609504
1680013193813,1193182167362898,1.725,6.0000005,7.89795
1680013193815,1193182169864822,1.6840501,6.0550504,7.872
1680013193817,1193182172366975,1.761,6.02895,7.86495
1680013193820,1193182174869052,1.7220001,6.063,7.8310504
1680013193823,1193182177370990,1.674,6.0220504,7.9030504
1680013193824,1193182179873067,1.761,6.084,7.8430505
1680013193827,1193182182375221,1.76505,6.13005,7.728
1680013193829,1193182184877067,1.7389501,6.0820503,7.668
1680013193832,1193182187379279,1.7149501,6.0049505,7.6849504
1680013193835,1193182189881356,1.69305,6.0220504,7.6330504
1680013193837,1193182192383279,1.6650001,6.0360003,7.563
1680013193841,1193182194885356,1.641,6.01695,7.68795
1680013193843,1193182197387278,1.7010001,6.0409503,7.5850506
1680013193845,1193182199889432,1.60695,6.084,7.635
1680013193847,1193182202391509,1.6720501,6.0030003,7.6780505
1680013193852,1193182204893663,1.57395,6.0340505,7.563
1680013193853,1193182207395577,1.5259501,6.05805,7.39305
1680013193855,1193182209897654,1.4490001,6.0820503,7.458
1680013193857,1193182212399577,1.44,6.0480003,7.431
1680013193860,1193182214901654,1.38495,6.1080003,7.4290504
1680013193862,1193182217403577,1.3729501,6.1369505,7.5010505
1680013193864,1193182219905986,1.284,6.1699505,7.3830004
1680013193867,1193182222407832,1.3410001,6.20205,7.3690505
1680013193870,1193182224909986,1.23105,6.261,7.2709503
1680013193873,1193182227411909,1.11405,6.2850003,7.3330503
1680013193875,1193182229914005,1.0350001,6.1699505,7.34805
1680013193879,1193182232415928,1.056,6.3090005,7.3690505
1680013193880,1193182234918005,0.9799501,6.1849504,7.326
1680013193884,1193182237420235,0.96495,6.288,7.39095
1680013193885,1193182239922345,0.91995007,6.26595,7.431
1680013193887,1193182242424268,0.89205,6.1990504,7.3450503
1680013193891,1193182244926345,0.86295,6.261,7.2829504
1680013193893,1193182247428268,0.86595005,6.261,7.2690005
1680013193895,1193182249930408,0.82995003,6.3289504,7.3240504
1680013193897,1193182252432485,0.80805004,6.288,7.4029503
1680013193900,1193182254934408,0.74805003,6.261,7.3740005
1680013193902,1193182257436485,0.768,6.3019505,7.2780004
1680013193904,1193182259938408,0.75795,6.29295,7.314
1680013193908,1193182262440571,0.82005006,6.35505,7.2450004
1680013193909,1193182264942648,0.717,6.29505,7.2330003
1680013193912,1193182267444802,0.78000003,6.2710505,7.2400503
1680013193917,1193182269946725,0.70305,6.29505,7.2250504
1680013193919,1193182272448831,0.78900003,6.2760005,7.209
1680013193921,1193182274950754,0.73395,6.34005,7.2370505
1680013193923,1193182277452908,0.76995003,6.3240004,7.1340003
1680013193925,1193182279954985,0.768,6.2260504,7.14405
1680013193927,1193182282456908,0.76005006,6.2089505,7.1340003
1680013193930,1193182284959062,0.82305,6.2640004,7.0630503
1680013193934,1193182287461139,0.86100006,6.2899504,7.1250005
1680013193934,1193182289963062,0.915,6.2059503,7.017
1680013193937,1193182292465139,0.94095004,6.2640004,7.0669503
1680013193944,1193182294967292,0.93195003,6.2710505,7.08195
1680013193945,1193182297469226,0.91305006,6.2590504,7.0669503
1680013193945,1193182299971302,0.93195003,6.288,7.0750504
1680013193947,1193182302473226,0.80805004,6.30495,7.03905
1680013193950,1193182304975379,0.80100006,6.3090005,7.1269503
1680013193954,1193182307477461,0.86100006,6.2380505,7.0459504
1680013193955,1193182309979615,0.82695,6.33795,6.9360003
1680013193957,1193182312481538,0.84900004,6.29505,7.05495
1680013193959,1193182314983615,0.68100005,6.42705,6.9619503
1680013193963,1193182317485769,0.693,6.4030504,6.9619503
1680013193965,1193182319987614,0.58995,6.36705,6.8899503
1680013193969,1193182322489768,0.64095,6.4669504,6.8809505
1680013193970,1193182324991691,0.45900002,6.4960504,6.84495
1680013193973,1193182327493845,0.54495,6.39795,6.9139504
1680013193975,1193182329995922,0.54495,6.5659504,6.7900505
1680013193977,1193182332497845,0.48495004,6.4840503,6.86595
1680013193980,1193182334999922,0.38700002,6.50295,6.9139504
1680013193983,1193182337501845,0.40095,6.5869503,6.852
1680013193984,1193182340003922,0.32205,6.5940003,6.77505
1680013193987,1193182342506173,0.35595003,6.66405,6.6889505
1680013193991,1193182345008250,0.35295,6.6060004,6.7540503
1680013193994,1193182347510173,0.39900002,6.63705,6.7369504
1680013193996,1193182350012245,0.37500003,6.70695,6.73005
1680013193998,1193182352514168,0.37005,6.597,6.7510505
1680013194001,1193182355016322,0.38700002,6.7450504,6.7060504
1680013194003,1193182357518168,0.32505003,6.7380004,6.78
1680013194004,1193182360020552,0.30795002,6.67605,6.6510005
1680013194007,1193182362522489,0.35295,6.7519503,6.74205
1680013194011,1193182365024566,0.39600003,6.7500005,6.6889505
1680013194013,1193182367526489,0.35805002,6.8239503,6.6049504
1680013194015,1193182370028566,0.36,6.8239503,6.67005
1680013194018,1193182372530489,0.39900002,6.8149505,6.5070004
1680013194020,1193182375032629,0.303,6.8430004,6.5620503
1680013194022,1193182377534706,0.31695002,6.80805,6.6150002
1680013194025,1193182380036860,0.432,6.8220005,6.6190505
1680013194029,1193182382538807,0.53295004,6.879,6.60795
1680013194032,1193182385040884,0.45105,6.9679503,6.53595
1680013194033,1193182387542807,0.45105,6.8700004,6.7099504
1680013194035,1193182390044961,0.55200005,6.9079504,6.53805
1680013194037,1193182392547115,0.52305,6.88395,6.64305
1680013194040,1193182395048976,0.56205004,6.9559503,6.6940503
1680013194042,1193182397551130,0.55695003,6.9030004,6.77295
1680013194045,1193182400053207,0.69795,6.9660006,6.77505
1680013194047,1193182402555130,0.56595004,6.9300003,6.8419504
1680013194051,1193182405057202,0.60195005,6.91305,6.7699504
1680013194053,1193182407559356,0.62595004,6.9750004,6.5719504
1680013194054,1193182410061279,0.58305,6.9660006,6.8370004
1680013194057,1193182412563433,0.51600003,6.9300003,6.603
1680013194060,1193182415065279,0.53805,6.9540005,6.7920003
1680013194063,1193182417567438,0.48705003,6.9700503,6.6150002
1680013194067,1193182420069515,0.49695003,7.01805,6.6720004
1680013194068,1193182422571668,0.43005002,7.0609503,6.6550503
1680013194070,1193182425073592,0.48705003,7.0420504,6.68205
1680013194073,1193182427575663,0.38700002,7.1140504,6.5790005
1680013194074,1193182430077587,0.38205,7.1790004,6.71505
1680013194077,1193182432579740,0.38700002,7.25505,6.5599504
1680013194080,1193182435081817,0.19305001,7.2510004,6.49695
1680013194083,1193182437583730,0.26205,7.3099504,6.47805
1680013194085,1193182440085884,0.20700002,7.3339505,6.52605
1680013194087,1193182442587961,0.03195,7.4010005,6.4830003
1680013194090,1193182445089884,-0.0010500001,7.4329505,6.43305
1680013194093,1193182447591956,-0.049050003,7.3489504,6.3559504
1680013194095,1193182450094110,-0.07095,7.4449506,6.4609504
1680013194097,1193182452596033,-0.15405001,7.4779506,6.2839503
1680013194099,1193182455098187,-0.14295001,7.4209504,6.3180003
1680013194104,1193182457600033,-0.246,7.4370003,6.3850503
1680013194106,1193182460102187,-0.291,7.4760003,6.4759502
1680013194107,1193182462604264,-0.30795002,7.3780503,6.4140005
1680013194110,1193182465106418,-0.33705002,7.38,6.40605
1680013194112,1193182467608341,-0.34800002,7.38,6.3900003
1680013194115,1193182470110404,-0.372,7.4350505,6.4849505
1680013194118,1193182472612558,-0.49005002,7.38705,6.3460503
1680013194121,1193182475114481,-0.45900002,7.4089503,6.3780003
1680013194123,1193182477616327,-0.38205,7.4209504,6.4350004
1680013194124,1193182480118712,-0.36,7.5070505,6.4159503
1680013194128,1193182482620635,-0.50895,7.4880004,6.45195
1680013194131,1193182485122712,-0.32700002,7.5480003,6.42105
1680013194133,1193182487624635,-0.36495003,7.56405,6.3700504
1680013194135,1193182490126696,-0.351,7.5520506,6.366
1680013194137,1193182492628849,-0.35805002,7.59495,6.366
1680013194141,1193182495130696,-0.38700002,7.629,6.3559504
1680013194143,1193182497632926,-0.39405003,7.60305,6.2749505
1680013194146,1193182500135008,-0.28605002,7.6150503,6.40395
1680013194147,1193182502636931,-0.31500003,7.6099505,6.46605
1680013194150,1193182505139008,-0.31500003,7.557,6.30105
1680013194152,1193182507640931,-0.19995001,7.6050005,6.3850503
1680013194156,1193182510143008,-0.29805002,7.7100005,6.366
1680013194157,1193182512645197,-0.23805001,7.701,6.5119505
1680013194160,1193182515147043,-0.16605,7.6309505,6.4420505
1680013194162,1193182517649197,-0.066,7.6819506,6.4230003
1680013194165,1193182520151274,-0.087000005,7.6459503,6.45195
1680013194168,1193182522653202,-0.058950003,7.761,6.47805
1680013194171,1193182525155279,-0.006,7.7320504,6.531
1680013194173,1193182527657202,0.054,7.7440505,6.636
1680013194175,1193182530159587,0.102000006,7.7869506,6.5670004
1680013194179,1193182532661418,0.10395,7.6860003,6.6270003
1680013194182,1193182535163572,0.075,7.7149506,6.5839505
1680013194185,1193182537665495,0.10395,7.806,6.4830003
1680013194185,1193182540167572,0.24300002,7.6819506,6.543
1680013194188,1193182542669495,0.279,7.629,6.5719504
1680013194190,1193182545171663,0.231,7.5259504,6.5479503
1680013194192,1193182547673740,0.28095,7.5120006,6.5860505
1680013194195,1193182550175893,0.35805002,7.5739503,6.62895
1680013194197,1193182552677740,0.34095,7.5550504,6.59595
1680013194200,1193182555179893,0.35595003,7.5090003,6.5860505
1680013194203,1193182557681803,0.44400004,7.42995,6.8419504
1680013194205,1193182560183879,0.47100002,7.3030505,6.636
1680013194207,1193182562686033,0.43905002,7.4419503,6.6529503
1680013194211,1193182565187946,0.51000005,7.3729506,6.5929503
1680013194213,1193182567690100,0.58305,7.4130006,6.6169505
1680013194216,1193182570192177,0.65505004,7.4010005,6.56895
1680013194218,1193182572694023,0.62595004,7.425,6.6340504
1680013194221,1193182575196168,0.69600004,7.38495,6.60795
1680013194224,1193182577698322,0.57600003,7.4419503,6.3679504
1680013194225,1193182580200245,0.684,7.39905,6.603
1680013194227,1193182582702322,0.71295005,7.524,6.5599504
1680013194230,1193182585204245,0.66195005,7.5210004,6.56895
1680013194233,1193182587706375,0.79200006,7.497,6.49305
1680013194235,1193182590208452,0.70500004,7.5019503,6.6000004
1680013194237,1193182592710606,0.61695004,7.5520506,6.49305
1680013194240,1193182595212529,0.65505004,7.4830503,6.4690504
1680013194243,1193182597714611,0.528,7.5139503,6.5400004
1680013194245,1193182600216534,0.39900002,7.54995,6.4020004
1680013194248,1193182602718611,0.40095,7.5670505,6.3900003
1680013194253,1193182605220510,0.49500003,7.5670505,6.5809503
1680013194256,1193182607722664,0.46305,7.6150503,6.4879503
1680013194257,1193182610224818,0.53505003,7.7730002,6.459
1680013194259,1193182612726895,0.44895002,7.6819506,6.5119505
1680013194262,1193182615228818,0.45105,7.7509503,6.543
1680013194263,1193182617730880,0.41295,7.7800503,6.49695
1680013194265,1193182620232803,0.37695003,7.76595,6.531
1680013194267,1193182622734880,0.45405003,7.87095,6.39405
1680013194270,1193182625237110,0.34095,7.7800503,6.5020504
1680013194272,1193182627739192,0.29295,7.8520503,6.4159503
1680013194275,1193182630241115,0.30105,7.7580004,6.43695
1680013194277,1193182632742961,0.30495003,7.79895,6.4279504
1680013194280,1193182635245346,0.28905,7.794,6.366
1680013194283,1193182637747269,0.27195,7.7419505,6.387
1680013194285,1193182640249351,0.29295,7.8760505,6.4350004
1680013194287,1193182642751274,0.32205,7.7920504,6.5160003
1680013194293,1193182645253351,0.37500003,7.7509503,6.49305
1680013194295,1193182650255269,0.41295,7.866,6.471
1680013194297,1193182650352808,0.47100002,7.8970504,6.3799505
1680013194298,1193182652759577,0.39600003,7.84005,6.4300504
1680013194301,1193182655261654,0.42705002,7.9189506,6.3079505
1680013194303,1193182657763577,0.47100002,7.9500003,6.4180503
1680013194305,1193182660265654,0.41805002,7.97205,6.3700504
1680013194308,1193182662767577,0.45105,7.9120502,6.3700504
1680013194310,1193182665269654,0.40395,7.9450502,6.3439503
1680013194313,1193182667771808,0.432,7.9159503,6.5140505
1680013194315,1193182670273726,0.384,8.017051,6.4759502
1680013194319,1193182672775880,0.40605003,7.9690504,6.5119505
1680013194320,1193182675277957,0.38700002,7.9210505,6.61005
1680013194323,1193182677779923,0.46605003,8.019,6.53805
1680013194325,1193182680282000,0.45105,8.014951,6.4999504
1680013194329,1193182682783923,0.39195,7.998,6.53805
1680013194334,1193182685286077,0.48000002,8.005051,6.4900503
1680013194335,1193182687788153,0.39195,7.9810505,6.543
1680013194337,1193182690290077,0.38895002,8.071051,6.4729505
1680013194338,1193182692792230,0.44895002,8.019,6.471
1680013194340,1193182695294307,0.47805002,8.055,6.5209503
1680013194343,1193182697796230,0.33405003,8.047951,6.6550503
1680013194345,1193182700298403,0.35805002,8.076,6.4140005
1680013194348,1193182702800480,0.37695003,8.067,6.56895
1680013194352,1193182705302634,0.44895002,8.094001,6.5400004
1680013194353,1193182707804480,0.44700003,8.076,6.4300504
1680013194355,1193182710306615,0.39405003,8.062051,6.4140005
1680013194358,1193182712808538,0.44205,8.064,6.5280004
1680013194360,1193182715310692,0.53505003,8.121,6.42105
1680013194363,1193182717812769,0.528,8.038051,6.50895
1680013194367,1193182720314678,0.49500003,8.043,6.5929503
1680013194368,1193182722816755,0.53805,7.9669504,6.5479503
1680013194371,1193182725318678,0.48000002,8.097,6.6550503
1680013194374,1193182727820755,0.54705,8.071051,6.56895
1680013194375,1193182730322909,0.57600003,8.022,6.5620503
1680013194377,1193182732825048,0.61005,8.05305,6.59595
1680013194380,1193182735326971,0.70305,7.9669504,6.6390004
1680013194385,1193182737829048,0.65505004,8.017051,6.5620503
1680013194386,1193182740330971,0.70305,7.8490505,6.6220503
1680013194388,1193182742833072,0.66195005,7.9690504,6.6169505
1680013194390,1193182745334995,0.67200005,7.9480505,6.7180505
1680013194393,1193182747837379,0.693,8.007,6.5880003
1680013194395,1193182750339302,0.648,8.026951,6.6460505
1680013194397,1193182752841379,0.68895006,7.9740005,6.6550503
1680013194400,1193182755343326,0.708,8.01,6.675
1680013194404,1193182757845403,0.79395,7.9930506,6.55695
1680013194406,1193182760347326,0.72195005,7.9500003,6.6340504
1680013194408,1193182762849403,0.82305,7.9120502,6.5160003
1680013194411,1193182765351533,0.74805003,7.9240503,6.5550003
1680013194413,1193182767853687,0.74805003,7.9240503,6.6049504
1680013194415,1193182770355610,0.79905003,7.8300004,6.62895
1680013194418,1193182772857721,0.70500004,7.7890506,6.6910505
1680013194420,1193182775359644,0.80805004,7.7029505,6.6990004
1680013194423,1193182777861721,0.82305,7.63605,6.7249503
1680013194426,1193182780363875,0.81105006,7.6789503,6.7540503
1680013194428,1193182782865798,0.75795,7.689,6.6840005
1680013194431,1193182785367889,0.82995003,7.5040503,6.7630506
1680013194433,1193182787870043,0.83505005,7.62195,6.70305
1680013194435,1193182790371966,0.78405005,7.5859504,6.6910505
1680013194437,1193182792874043,0.72900003,7.5280504,6.8040004
1680013194442,1193182795376192,0.77205,7.53105,6.7579503
1680013194444,1193182797878115,0.78705,7.4779506,6.9160504
1680013194446,1193182800380269,0.79395,7.4280005,6.77295
1680013194448,1193182802882115,0.73605,7.5400505,6.7819505
1680013194452,1193182805384255,0.82995003,7.5120006,6.8110504
1680013194454,1193182807886332,0.80100006,7.41795,6.885
1680013194456,1193182810388255,0.78195006,7.5330005,6.7990503
1680013194458,1193182812890409,0.78000003,7.48995,6.7630506
1680013194460,1193182815392485,0.74100006,7.6600504,6.8569503
1680013194463,1193182817894394,0.76005006,7.5160503,6.7060504
1680013194466,1193182820396470,0.804,7.5450006,6.813
1680013194467,1193182822898394,0.79200006,7.48995,6.8539505
1680013194470,1193182825400547,0.753,7.59495,6.84705
1680013194473,1193182827902701,0.80805004,7.63605,6.7699504
1680013194475,1193182830404788,0.77505004,7.6410003,6.8040004
1680013194479,1193182832906711,0.744,7.6270504,6.78
1680013194481,1193182835408788,0.76500005,7.6099505,6.74595
1680013194484,1193182837910956,0.80595005,7.6069503,6.84
1680013194485,1193182840412879,0.82500005,7.5859504,6.7990503
1680013194488,1193182842915033,0.82695,7.5880504,6.8569503
1680013194491,1193182845416879,0.84405005,7.6189504,6.9280505
1680013194494,1193182847919014,0.837,7.5690002,6.9259505
1680013194495,1193182850421091,0.84405005,7.6000504,6.78
1680013194498,1193182852923014,0.93705004,7.5810003,6.9139504
1680013194500,1193182855425168,0.82995003,7.5739503,6.9
1680013194503,1193182857927245,0.88305,7.63395,6.95205
1680013194505,1193182860429182,0.85095006,7.6459503,6.9090004
1680013194508,1193182862931336,0.98505,7.452,6.9550505
1680013194510,1193182865433182,0.95100003,7.4779506,6.8880005
1680013194513,1193182867935336,1.008,7.5120006,7.0480504
1680013194517,1193182870437486,1.008,7.4539504,6.852
1680013194518,1193182872939563,1.008,7.3780503,7.0339503
1680013194522,1193182875441486,0.9799501,7.38495,6.984
1680013194524,1193182877943563,1.16205,7.3219504,7.0069504
1680013194526,1193182880445716,1.11105,7.3440003,6.9810004
1680013194528,1193182882947572,1.11405,7.3320003,6.852
1680013194531,1193182885449725,1.14495,7.3099504,6.9690003
1680013194534,1193182887951879,1.1590501,7.1520004,6.972
1680013194535,1193182890453802,1.1550001,7.2750006,7.05495
1680013194538,1193182892955894,1.15695,7.1929502,7.0480504
1680013194540,1193182895457817,1.1689501,7.1599503,7.0939503
1680013194543,1193182897959894,1.2240001,7.155,7.1130004
1680013194545,1193182900462048,1.1520001,7.1260505,7.1389503
1680013194548,1193182902963990,1.23405,7.155,7.01205
1680013194550,1193182905466144,1.18095,7.03695,7.0270505
1680013194555,1193182907968221,1.1689501,7.0470004,7.1130004
1680013194556,1193182910470144,1.18095,7.0210505,7.1460004
1680013194558,1193182912972206,1.1329501,7.0129504,7.05105
1680013194560,1193182915474129,1.21695,7.0350003,7.0189505
1680013194563,1193182917976514,1.176,7.0300503,6.9810004
1680013194572,1193182920478360,1.1590501,7.0249505,6.9760504
1680013194572,1193182922980514,1.18305,7.0690503,6.9600005
1680013194572,1193182925482409,1.27695,6.9559503,7.0339503
1680013194574,1193182927984486,1.21695,7.0090504,7.0630503
1680013194576,1193182930486409,1.26495,6.9030004,7.02405
1680013194578,1193182932988486,1.29795,6.951,7.00995
1680013194580,1193182935490664,1.24605,6.93195,7.0960503
1680013194583,1193182937992817,1.2580501,6.918,7.077
1680013194585,1193182940494741,1.22595,6.91305,7.0600505
1680013194587,1193182942996817,1.2240001,6.939,7.0410004
1680013194592,1193182945498731,1.3050001,6.7309504,7.0189505
1680013194594,1193182948000807,1.19505,6.81195,6.9619503
1680013194596,1193182950502961,1.2379501,6.8190002,7.0000505
1680013194598,1193182953004884,1.32,6.7549505,6.9739504
1680013194601,1193182955507043,1.33395,6.8050504,7.0870504
1680013194603,1193182958009120,1.2859501,6.79995,6.9760504
1680013194605,1193182960511043,1.284,6.6829505,6.9859505
1680013194607,1193182963013120,1.2889501,6.7720504,6.94005
1680013194611,1193182965515028,1.3410001,6.7260003,6.9600005
1680013194613,1193182968017182,1.3440001,6.6829505,7.0459504
1680013194615,1193182970519259,1.3750501,6.63,6.912
1680013194617,1193182973021182,1.32,6.7000504,6.9090004
1680013194620,1193182975523336,1.36995,6.54405,6.91905
1680013194623,1193182978025413,1.3369501,6.6610503,6.8830504
1680013194625,1193182980527336,1.3290001,6.54405,6.8710504
1680013194629,1193182983029490,1.296,6.4750504,6.94995
1680013194632,1193182985531567,1.27695,6.558,6.9310503
1680013194635,1193182988033495,1.3800001,6.5560503,6.9430504
1680013194636,1193182990535572,1.32,6.54195,6.9090004
1680013194637,1193182993037726,1.34895,6.4630504,6.885
1680013194641,1193182995539649,1.2910501,6.4410005,6.9210005
1680013194643,1193182998041726,1.2930001,6.4840503,7.0339503
1680013194645,1193183000543870,1.35105,6.5179505,6.9640503
1680013194648,1193183003045793,1.3800001,6.4630504,6.9600005
1680013194652,1193183005547870,1.3750501,6.4099503,6.9570003
1680013194654,1193183008049793,1.353,6.453,6.9550505
1680013194656,1193183010551827,1.42005,6.4099503,7.0410004
1680013194658,1193183013053980,1.296,6.4549503,7.00995
1680013194661,1193183015556134,1.21395,6.4549503,6.93795
1680013194663,1193183018057980,1.26705,6.3960004,6.94995
1680013194668,1193183020559893,1.2739501,6.477,6.94995
1680013194668,1193183023062047,1.3440001,6.4080005,6.94005
1680013194670,1193183025564201,1.2910501,6.3840003,6.9739504
1680013194673,1193183028066278,1.3050001,6.4429502,7.0789504
1680013194675,1193183030568201,1.317,6.3690004,7.08195
1680013194678,1193183033070245,1.24605,6.32595,7.0270505
1680013194681,1193183035572399,1.2930001,6.372,7.017
1680013194684,1193183038074245,1.3219501,6.33795,7.08405
1680013194685,1193183040576476,1.3410001,6.372,7.05105
1680013194688,1193183043078548,1.21695,6.3019505,7.0630503
1680013194691,1193183045580471,1.3219501,6.3760505,7.0720506
1680013194693,1193183048082548,1.5160501,6.3310504,7.0720506
1680013194695,1193183050584471,1.473,6.3760505,7.2450004
1680013194698,1193183053086548,1.3920001,6.4099503,7.1389503
1680013194701,1193183055588476,1.485,6.3019505,7.2400503
1680013194704,1193183058090861,1.4470501,6.28095,7.1800504
1680013194706,1193183060592784,1.4130001,6.3499503,7.1920505
1680013194708,1193183063094861,1.437,6.3310504,7.1580005
1680013194711,1193183065596784,1.5139501,6.29505,7.182
1680013194713,1193183068098870,1.5190501,6.321,7.2570004
1680013194715,1193183070600793,1.4800501,6.2449503,7.17495
1680013194718,1193183073103177,1.50405,6.26595,7.209
1680013194722,1193183075605033,1.5619501,6.2760005,7.18905
1680013194723,1193183078107187,1.53495,6.261,7.3120503
1680013194725,1193183080609110,1.5310501,6.33795,7.2730503
1680013194728,1193183083111187,1.6020001,6.3480005,7.1800504
1680013194731,1193183085613110,1.5450001,6.3120003,7.34805
1680013194733,1193183088115187,1.5979501,6.42,7.1580005
1680013194735,1193183090617418,1.5330001,6.4410005,7.24905
1680013194738,1193183093119264,1.5619501,6.4080005,7.31895
1680013194744,1193183095621403,1.53795,6.4099503,7.3120503
1680013194745,1193183098123480,1.6140001,6.4170003,7.3810506
1680013194746,1193183100625403,1.5670501,6.4750504,7.3120503
1680013194749,1193183103127480,1.5979501,6.3840003,7.2109504
1680013194751,1193183105629634,1.6650001,6.4939504,7.2690005
1680013194753,1193183108131557,1.5790501,6.3690004,7.2349505
1680013194755,1193183110633673,1.5640501,6.4549503,7.2690005
1680013194758,1193183113135519,1.6020001,6.4819503,7.2709503
1680013194762,1193183115637673,1.6650001,6.5130005,7.2730503
1680013194764,1193183118139750,1.6290001,6.4750504,7.326
1680013194765,1193183120641673,1.6890001,6.558,7.17495
1680013194769,1193183123143836,1.6860001,6.4939504,7.326
1680013194771,1193183125645913,1.69095,6.49095,7.2780004
1680013194773,1193183128148067,1.6339501,6.46995,7.3020005
1680013194775,1193183130649990,1.6380001,6.4960504,7.31895
1680013194781,1193183133152053,1.6339501,6.5080504,7.314
1680013194782,1193183135653976,1.746,6.4290004,7.3740005
1680013194784,1193183138156129,1.7340001,6.46995,7.3069506
1680013194786,1193183140658211,1.761,6.4669504,7.2010503
1680013194788,1193183143160134,1.6860001,6.5149503,7.2130504
1680013194791,1193183145662211,1.7220001,6.525,7.2349505
1680013194793,1193183148164365,1.7680501,6.4360504,7.2180004
1680013194795,1193183150666211,1.71,6.5010004,7.29195
1680013194798,1193183153168442,1.7869501,6.4890003,7.2349505
1680013194802,1193183155670519,1.7490001,6.5779505,7.2229505
1680013194803,1193183158172442,1.7010001,6.56295,7.2970505
1680013194805,1193183160674519,1.7580001,6.4890003,7.24695
1680013194808,1193183163176418,1.7530501,6.453,7.1730003
1680013194811,1193183165678495,1.6980001,6.5610003,7.3039503
1680013194813,1193183168180649,1.7370001,6.4819503,7.14195
1680013194817,1193183170682803,1.725,6.6210003,7.2370505
1680013194818,1193183173184726,1.8040501,6.5269504,7.2780004
1680013194821,1193183175686807,1.761,6.5680504,7.17495
1680013194823,1193183178188730,1.6140001,6.5610003,7.1920505
1680013194825,1193183180690807,1.7010001,6.5610003,7.182
1680013194828,1193183183192730,1.69605,6.477,7.182
1680013194831,1193183185695144,1.71,6.63,7.1659503
1680013194833,1193183188197067,1.7580001,6.58995,7.1700006
1680013194835,1193183190699144,1.6890001,6.5659504,7.1179504
1680013194838,1193183193201067,1.6890001,6.5940003,7.1509504
1680013194841,1193183195703159,1.6530001,6.609,7.122
1680013194843,1193183198205082,1.71,6.6829505,7.04295
1680013194845,1193183200707159,1.725,6.73995,7.149
1680013194849,1193183203209389,1.6860001,6.7450504,7.1629505
1680013194850,1193183205711466,1.62195,6.6450005,7.11495
1680013194855,1193183208213408,1.746,6.7120504,7.0579505
1680013194856,1193183210715485,1.7029501,6.7240505,7.0960503
1680013194859,1193183213217639,1.7010001,6.64905,7.0789504
1680013194861,1193183215719586,1.71,6.78105,7.1389503
1680013194864,1193183218221663,1.6500001,6.73605,7.0750504
1680013194865,1193183220723586,1.69095,6.7170005,7.1320505
1680013194868,1193183223225663,1.6000501,6.76905,7.2300005
1680013194871,1193183225727586,1.7370001,6.83895,7.11495
1680013194874,1193183228229976,1.6669501,6.7260003,7.1580005
1680013194875,1193183230731899,1.6699501,6.762,7.06995
1680013194878,1193183233233976,1.60695,6.8290505,7.0789504
1680013194881,1193183235735899,1.57605,6.8430004,7.1029506
1680013194884,1193183238237976,1.57395,6.8700004,7.06995
1680013194885,1193183240740130,1.6099501,6.80805,7.0939503
1680013194889,1193183243242053,1.674,6.91305,7.0750504
1680013194893,1193183245744183,1.6890001,6.8479505,6.97905
1680013194895,1193183248246260,1.65795,6.8940005,7.0630503
1680013194896,1193183250748183,1.6339501,6.8749504,7.01205
1680013194899,1193183253250260,1.6789501,6.834,7.149
1680013194902,1193183255752183,1.6500001,6.87195,7.02405
1680013194903,1193183258254250,1.64295,6.918,7.0410004
1680013194905,1193183260756404,1.52295,6.8890505,7.1610003
1680013194908,1193183263258327,1.55505,6.8239503,7.0630503
1680013194912,1193183265760480,1.5310501,6.7639503,7.0410004
1680013194913,1193183268262557,1.46595,6.8869505,6.9480004
1680013194915,1193183270764489,1.5310501,6.7840505,6.9949503
1680013194919,1193183273266566,1.5090001,6.774,6.9600005
1680013194922,1193183275768720,1.5310501,6.8770504,6.94995
1680013194923,1193183278270913,1.5139501,6.8959503,7.03905
1680013194925,1193183280772759,1.6720501,6.939,7.1010003
1680013194930,1193183283274913,1.5829501,6.8890505,7.0459504
1680013194932,1193183285776836,1.62195,6.9370503,6.9979506
1680013194934,1193183288350908,1.62195,6.93195,7.0909505
1680013194936,1193183290780831,1.47105,6.8959503,6.8880005
1680013194938,1193183293282985,1.54005,6.9559503,7.0480504
1680013194941,1193183295785062,1.5330001,6.9820504,6.9330006
1680013194943,1193183298286985,1.54305,6.9630003,6.93795
1680013194945,1193183300789076,1.557,7.0090504,6.84
1680013194948,1193183303291230,1.58595,6.906,6.9259505
1680013194951,1193183305793153,1.5330001,6.94605,6.8640003
1680013194953,1193183308295307,1.57395,6.97305,6.9979506
1680013194955,1193183310797375,1.57605,6.9420004,6.83505
1680013194958,1193183313299298,1.4800501,6.9580503,6.8490005
1680013194962,1193183315801452,1.521,6.9300003,6.87795
1680013194963,1193183318303298,1.4970001,6.9250503,6.885
1680013194967,1193183320805466,1.4950501,6.951,6.8160005
1680013194969,1193183323307543,1.49205,6.9990005,6.8640003
1680013194971,1193183325809696,1.52295,6.97305,6.8880005
1680013194973,1193183328311620,1.4830501,6.8940005,6.87795
1680013194975,1193183330813696,1.4610001,7.0090504,6.83505
1680013194978,1193183333315668,1.5160501,7.0470004,6.84495
1680013194981,1193183335817821,1.5280501,7.0020003,6.77505
1680013194983,1193183338319668,1.4760001,7.0399504,6.7780504
1680013194985,1193183340822052,1.3770001,6.9540005,6.7900505
1680013194988,1193183343323975,1.50195,7.0590005,6.7440004
1680013194992,1193183345826052,1.3770001,7.0330505,6.68205
1680013194993,1193183348327975,1.33395,7.0519505,6.708
1680013194996,1193183350830052,1.3440001,7.1280003,6.6940503
1680013194998,1193183353332206,1.26195,7.0639505,6.5880003
1680013195002,1193183355834360,1.31505,7.1449504,6.73005
1680013195005,1193183358336283,1.27005,7.0230002,6.5500503
1680013195006,1193183360838360,1.21395,7.0519505,6.53805
1680013195009,1193183363340288,1.27695,7.1239505,6.4950004
1680013195012,1193183365842365,1.131,7.09005,6.61005
1680013195014,1193183368344288,1.26705,7.07805,6.636
1680013195015,1193183370846365,1.2739501,7.215,6.56895
1680013195019,1193183373348596,1.27005,7.1929502,6.5400004
1680013195022,1193183375850452,1.3729501,7.2430506,6.636
1680013195023,1193183378352606,1.2739501,7.1929502,6.6120005
1680013195026,1193183380854683,1.27695,7.2390003,6.603
1680013195033,1193183383356591,1.3369501,7.2990003,6.5400004
1680013195035,1193183385858668,1.1910001,7.1860504,6.49305
1680013195036,1193183388360822,1.21905,7.2910504,6.5209503
1680013195036,1193183390862745,1.2430501,7.32705,6.5839505
1680013195038,1193183393364898,1.3249501,7.2840004,6.6120005
1680013195043,1193183395866961,1.2910501,7.3099504,6.6169505
1680013195044,1193183398368884,1.284,7.3060503,6.63105
1680013195046,1193183400870961,1.284,7.2649503,6.5520005
1680013195049,1193183403373115,1.19295,7.1640005,6.5929503
1680013195052,1193183405875038,1.1880001,7.2700505,6.4609504
1680013195053,1193183408377091,1.18605,7.1860504,6.5790005
1680013195056,1193183410879014,1.23105,7.2289505,6.5670004
1680013195059,1193183413381091,1.248,7.2840004,6.5209503
1680013195061,1193183415883245,1.19505,7.2430506,6.6529503
1680013195063,1193183418385399,1.18605,7.188,6.59805
1680013195066,1193183420887312,1.19505,7.227,6.576
1680013195068,1193183423389389,1.2240001,7.2240005,6.636
1680013195071,1193183425891312,1.19295,7.25505,6.6220503
1680013195073,1193183428393389,1.317,7.2769504,6.6529503
1680013195076,1193183430895553,1.2580501,7.3099504,6.6390004
1680013195080,1193183433397476,1.29795,7.2790504,6.7180505
1680013195084,1193183435899553,1.3939501,7.32705,6.7369504
1680013195085,1193183438401707,1.31295,7.3180504,6.663
1680013195087,1193183440903649,1.248,7.2960005,6.6510005
1680013195089,1193183443405726,1.3099501,7.31505,6.53595
1680013195092,1193183445907649,1.2430501,7.2750006,6.675
1680013195094,1193183448409803,1.2930001,7.34595,6.708
1680013195095,1193183450911880,1.32,7.39905,6.64095
1680013195098,1193183453413803,1.365,7.32495,6.696
1680013195102,1193183455915957,1.24995,7.2750006,6.61005
1680013195104,1193183458418033,1.176,7.3009505,6.71505
1680013195106,1193183460919957,1.3050001,7.3699503,6.6889505
1680013195108,1193183463422091,1.24995,7.3099504,6.78
1680013195111,1193183465924168,1.2910501,7.3680005,6.64305
1680013195113,1193183468426091,1.21395,7.3660502,6.636
1680013195117,1193183470928245,1.26705,7.4059505,6.80205
1680013195120,1193183473430091,1.2580501,7.4470506,6.8250003
1680013195122,1193183475932245,1.38195,7.4059505,6.78
1680013195124,1193183478434399,1.32,7.4160004,6.6769505
1680013195126,1193183480936476,1.212,7.3780503,6.7060504
1680013195129,1193183483438418,1.2930001,7.5210004,6.6990004
1680013195132,1193183485940495,1.2600001,7.4400005,6.7390504
1680013195134,1193183488442418,1.26495,7.4089503,6.6990004
1680013195136,1193183490944495,1.2580501,7.3560004,6.73005
1680013195138,1193183493446649,1.35105,7.41795,6.7180505
1680013195141,1193183495948798,1.4059501,7.3080006,6.77505
1680013195143,1193183498450721,1.2550501,7.2580504,6.68205
1680013195145,1193183500952798,1.5090001,7.4160004,6.8830504
1680013195148,1193183503454721,1.4950501,7.4490004,6.7699504
1680013195153,1193183505956755,1.5450001,7.3660502,6.83295
1680013195156,1193183508458909,1.6810501,7.4059505,6.7990503
1680013195157,1193183510960832,1.55505,7.48995,6.7939506
1680013195159,1193183513462986,1.6099501,7.4710503,6.8899503
1680013195161,1193183515965063,1.62195,7.4610004,6.8970003
1680013195164,1193183518466991,1.5979501,7.5120006,6.83505
1680013195166,1193183520969068,1.5949501,7.4280005,6.8160005
1680013195169,1193183523470991,1.42305,7.5280504,6.76095
1680013195172,1193183525973144,1.416,7.4209504,6.7870502
1680013195173,1193183528475221,1.3729501,7.53105,6.73005
1680013195175,1193183530977375,1.4080501,7.5330005,6.9240003
1680013195178,1193183533479298,1.3729501,7.5480003,6.7180505
1680013195181,1193183535981375,1.4680501,7.5670505,6.7390504
1680013195183,1193183538483293,1.3800001,7.65495,6.76095
1680013195186,1193183540985370,1.3750501,7.4689503,6.80595
1680013195188,1193183543487524,1.3080001,7.5450006,6.68205
1680013195197,1193183545989678,1.2720001,7.497,6.6790504
1680013195197,1193183548491500,1.212,7.5040503,6.603
1680013195197,1193183550993654,1.143,7.4209504,6.603
1680013195198,1193183553495577,1.008,7.4760003,6.696
1680013195201,1193183555997654,1.0849501,7.5670505,6.696
1680013195203,1193183558499803,1.128,7.5379505,6.7099504
1680013195205,1193183561001726,1.2409501,7.5330005,6.6990004
1680013195208,1193183563503880,1.21905,7.5379505,6.6670504
1680013195211,1193183566005957,1.2379501,7.5330005,6.59595
1680013195213,1193183568507817,1.07595,7.4419503,6.636
1680013195215,1193183571009971,1.21395,7.48995,6.5520005
1680013195218,1193183573511894,1.2100501,7.5670505,6.6220503
1680013195221,1193183576014048,1.2100501,7.6510506,6.7249503
1680013195223,1193183578516135,1.31295,7.60305,6.7560005
1680013195226,1193183581018058,1.2379501,7.6170006,6.70305
1680013195229,1193183583520212,1.1380501,7.51905,6.56895
1680013195232,1193183586022058,1.31295,7.6530004,6.6840005
1680013195237,1193183588524212,1.2409501,7.63395,6.62895
1680013195238,1193183591026365,1.1020501,7.5840006,6.5190005
1680013195239,1193183593528442,1.32,7.6530004,6.5280004
1680013195241,1193183596030365,1.26495,7.6099505,6.53595
1680013195243,1193183598532442,1.353,7.5360003,6.5400004
1680013195246,1193183601034600,1.3080001,7.59495,6.471
1680013195249,1193183603536523,1.3270501,7.5019503,6.5880003
1680013195252,1193183606038677,1.3630501,7.5840006,6.45195
1680013195253,1193183608540754,1.49205,7.4880004,6.576
1680013195255,1193183611042677,1.365,7.4539504,6.53805
1680013195260,1193183613544749,1.38705,7.4470506,6.5500503
1680013195262,1193183616046672,1.45605,7.4059505,6.5670004
1680013195264,1193183618548826,1.46595,7.42995,6.591
1680013195269,1193183621050884,1.416,7.2840004,6.4900503
1680013195269,1193183623552807,1.5190501,7.4110503,6.5880003
1680013195272,1193183626054961,1.4899501,7.32495,6.53805
1680013195273,1193183628557038,1.54005,7.31295,6.6550503
1680013195276,1193183631058961,1.4800501,7.4160004,6.5620503
1680013195278,1193183633561139,1.4779501,7.2910504,6.6580505
1680013195282,1193183636063216,1.38495,7.2840004,6.7660503
1680013195283,1193183638565139,1.4299501,7.35795,6.5790005
1680013195286,1193183641067216,1.53795,7.3180504,6.73005
1680013195289,1193183643569365,1.46595,7.3420506,6.6940503
1680013195291,1193183646071288,1.4250001,7.38495,6.663
1680013195293,1193183648573365,1.5109501,7.2990003,6.71505
1680013195297,1193183651075518,1.4899501,7.28205,6.6000004
1680013195299,1193183653577441,1.4610001,7.3099504,6.6910505
1680013195302,1193183656079528,1.47105,7.24095,6.6049504
1680013195305,1193183658581451,1.4440501,7.31295,6.663
1680013195307,1193183661083605,1.45395,7.2430506,6.59595
1680013195308,1193183663585682,1.57605,7.2289505,6.6270003
1680013195311,1193183666087836,1.45905,7.248,6.6870003
1680013195313,1193183668589759,1.5160501,7.1860504,6.6889505
1680013195316,1193183671091836,1.4470501,7.2120004,6.6169505
1680013195319,1193183673593759,1.5499501,7.24095,6.61005
1680013195322,1193183676095947,1.55505,7.2750006,6.5929503
1680013195324,1193183678597793,1.54005,7.2190504,6.5520005
1680013195326,1193183681100178,1.59,7.2000003,6.5190005
1680013195329,1193183683602101,1.6810501,7.3780503,6.603
1680013195332,1193183686104153,1.6980001,7.2390003,6.4570503
1680013195334,1193183688606076,1.7050501,7.227,6.6169505
1680013195336,1193183691108153,1.6480501,7.2769504,6.53805
1680013195340,1193183693610307,1.7700001,7.2720003,6.5280004
1680013195343,1193183696112133,1.7629501,7.215,6.5500503
1680013195345,1193183698614287,1.7080501,7.227,6.6000004
1680013195347,1193183701116441,1.7370001,7.1719503,6.60795
1680013195348,1193183703618364,1.8079501,7.1740503,6.543
1680013195352,1193183706120441,1.7629501,7.2030005,6.6790504
1680013195353,1193183708622350,1.7389501,7.15005,6.5329504
1680013195356,1193183711124427,1.7719501,7.1959505,6.5620503
1680013195359,1193183713626657,1.8679501,7.1599503,6.5479503
1680013195362,1193183716128504,1.84905,7.143,6.603
1680013195364,1193183718630666,1.7509501,7.2390003,6.53595
1680013195366,1193183721132743,1.7869501,7.1790004,6.5070004
1680013195369,1193183723634666,1.8709501,7.2390003,6.4609504
1680013195371,1193183726136743,1.86405,7.2120004,6.49305
1680013195373,1193183728638666,1.93095,7.2430506,6.4999504
1680013195375,1193183731141037,1.9069501,7.32,6.3780003
1680013195380,1193183733642960,1.83,7.3320003,6.4180503
1680013195385,1193183736145037,1.8780001,7.227,6.3559504
1680013195386,1193183738646960,1.72695,7.2030005,6.222
1680013195386,1193183741149037,1.7869501,7.2289505,6.32205
1680013195389,1193183743650960,1.8750001,7.18095,6.3439503
1680013195392,1193183746153114,1.9039501,7.1860504,6.2359505
1680013195393,1193183748655191,1.9159501,7.25295,6.2700005
1680013195396,1193183751157335,2.0959501,7.2510004,6.4810505
1680013195399,1193183753659181,2.1750002,7.2750006,6.40395
1680013195402,1193183756161335,2.1679502,7.2750006,6.4950004
1680013195403,1193183758663258,2.12205,7.1740503,6.5020504
1680013195406,1193183761165335,2.05995,7.2049503,6.39195
1680013195409,1193183763667499,2.1340501,7.22205,6.4300504
1680013195412,1193183766169422,2.184,7.188,6.50895
1680013195414,1193183768671576,2.0299501,7.143,6.4950004
1680013195418,1193183771173643,1.9740001,7.0660505,6.459
1680013195419,1193183773675566,1.9210501,7.0999503,6.3970504
1680013195421,1193183776177643,1.9780501,7.08795,6.4110003
1680013195423,1193183778679796,1.9590001,7.1400003,6.3630004
1680013195426,1193183781181719,1.88505,7.188,6.4300504
1680013195428,1193183783683806,1.8540001,7.1620502,6.2749505
1680013195431,1193183786185729,1.9710001,7.2720003,6.29895
1680013195434,1193183788687883,1.84905,7.1190004,6.3799505
1680013195436,1193183791189960,1.8589501,7.2289505,6.4450502
1680013195438,1193183793691869,1.8250501,7.15005,6.3850503
1680013195441,1193183796193946,1.8349501,7.188,6.459
1680013195443,1193183798696100,1.8750001,7.1380506,6.37305
1680013195446,1193183801198023,1.8370501,7.1689506,6.4180503
1680013195449,1193183803700181,1.8919501,7.176,6.366
1680013195452,1193183806202258,1.9519501,7.2630005,6.5020504
1680013195456,1193183808704181,1.9210501,7.2910504,6.49305
1680013195457,1193183811206258,1.9230001,7.2430506,6.50505
1680013195458,1193183813708181,1.9110001,7.176,6.4279504
1680013195462,1193183816210340,1.76505,7.28205,6.4900503
1680013195463,1193183818712417,1.8250501,7.3440003,6.59595
1680013195466,1193183821214571,1.8060001,7.3489504,6.3750005
1680013195469,1193183823716494,1.9210501,7.3630505,6.4420505
1680013195472,1193183826218557,1.9710001,7.4089503,6.5070004
1680013195473,1193183828720480,1.93095,7.4880004,6.5400004
1680013195476,1193183831222557,1.9399501,7.38,6.4999504
1680013195480,1193183833724711,1.8349501,7.4329505,6.543
1680013195482,1193183836226864,1.8679501,7.485,6.4399505
1680013195484,1193183838728788,1.746,7.3780503,6.4609504
1680013195486,1193183841230864,1.6810501,7.3969502,6.50895
1680013195489,1193183843732788,1.6099501,7.3369503,6.4540505
1680013195493,1193183846234845,1.746,7.425,6.5620503
1680013195494,1193183848736999,1.7389501,7.34595,6.5190005
1680013195497,1193183851238845,1.69305,7.39905,6.5020504
1680013195499,1193183853741076,1.6500001,7.3099504,6.4810505
1680013195501,1193183856243153,1.6000501,7.38,6.4690504
1680013195504,1193183858745076,1.6360501,7.2960005,6.4999504
1680013195506,1193183861247153,1.69305,7.3819504,6.4420505
1680013195508,1193183863749076,1.6890001,7.2840004,6.42495
1680013195511,1193183866251153,1.76505,7.2649503,6.4230003
1680013195513,1193183868753321,1.914,7.4110503,6.4020004
1680013195516,1193183871255475,1.9429501,7.3560004,6.53805
1680013195518,1193183873757398,1.8610501,7.2990003,6.4810505
1680013195521,1193183876259475,1.9590001,7.3660502,6.4900503
1680013195523,1193183878761427,1.746,7.3099504,6.4279504
1680013195526,1193183881263504,1.8870001,7.3300505,6.3820505
1680013195530,1193183883765427,1.8229501,7.3609505,6.4350004
1680013195533,1193183886267821,1.7530501,7.452,6.3559504
1680013195534,1193183888905128,1.64295,7.39905,6.33405
1680013195536,1193183891271821,1.7029501,7.4329505,6.4140005
1680013195539,1193183893773744,1.7629501,7.3939505,6.42105
1680013195542,1193183896275821,1.7530501,7.41795,6.2359505
1680013195544,1193183898777749,1.57605,7.3729506,6.33405
1680013195546,1193183901279903,1.54005,7.3780503,6.33405
1680013195548,1193183903782056,1.5619501,7.3609505,6.32205
1680013195551,1193183906283903,1.5690001,7.2649503,6.21495
1680013195554,1193183908786051,1.65495,7.3369503,6.2790003
1680013195556,1193183911288128,1.5790501,7.2910504,6.2790003
1680013195558,1193183913790051,1.62195,7.38,6.42105
1680013195561,1193183916292205,1.626,7.38705,6.2650504
1680013195563,1193183918794306,1.6170001,7.2750006,6.1740003
1680013195569,1193183921296229,1.6650001,7.34595,6.33195
1680013195570,1193183923798383,1.6099501,7.3390503,6.2359505
1680013195573,1193183926300460,1.57605,7.2750006,6.1930504
1680013195576,1193183928802393,1.71,7.29405,6.2700005
1680013195576,1193183931304470,1.5160501,7.3080006,6.1309505
1680013195579,1193183933806624,1.7490001,7.3420506,6.1399503
1680013195582,1193183936308547,1.746,7.3560004,6.2430005
1680013195584,1193183938810624,1.52295,7.2649503,6.1189504
1680013195586,1193183941312768,1.6480501,7.3440003,6.2430005
1680013195589,1193183943814691,1.5979501,7.3819504,6.1260004
1680013195592,1193183946316768,1.6699501,7.3750505,6.0930004
1680013195593,1193183948818922,1.641,7.4350505,6.078
1680013195596,1193183951320845,1.9279501,7.4610004,6.306
1680013195598,1193183953822994,1.8420001,7.4610004,6.15495
1680013195602,1193183956324840,1.7560501,7.392,6.15705
1680013195605,1193183958826994,1.6189501,7.3699503,6.1210504
1680013195607,1193183961329086,1.81095,7.3819504,6.1740003
1680013195610,1193183963831009,2.0329502,7.5210004,6.2050505
1680013195612,1193183966333163,2.1079502,7.5400505,6.2239504
1680013195614,1193183968835239,2.2369502,7.4880004,6.2629504
1680013195616,1193183971337163,2.1750002,7.4400005,6.18795
1680013195619,1193183973839229,2.14905,7.4040003,6.18795
1680013195622,1193183976341153,2.223,7.3729506,6.19995
1680013195624,1193183978843306,2.19195,7.41795,6.1309505
1680013195626,1193183981345460,2.1079502,7.3300505,6.1069503
1680013195628,1193183983847547,2.1340501,7.2910504,6.2050505
1680013195632,1193183986349470,2.2420502,7.3699503,6.102
1680013195633,1193183988851547,2.2080002,7.31295,6.2839503
1680013195636,1193183991353701,2.331,7.39905,6.327
1680013195639,1193183993855638,2.29695,7.3780503,6.2770505
1680013195644,1193183996357792,2.1409502,7.29405,6.3180003
1680013195645,1193183998859638,2.1390002,7.2390003,6.1810503
1680013195647,1193184001361792,2.11995,7.3609505,6.16695
1680013195651,1193184003863879,2.2710001,7.3750505,6.1909504
1680013195652,1193184006366033,2.16,7.3729506,6.09
1680013195654,1193184008867956,2.1720002,7.3300505,6.1189504
1680013195656,1193184011370033,2.3449502,7.4490004,6.16905
1680013195658,1193184013871956,2.256,7.4160004,6.1380005
1680013195662,1193184016374062,2.32605,7.4470506,6.09705
1680013195663,1193184018876216,2.295,7.4329505,6.1600504
1680013195666,1193184021378139,2.50305,7.5840006,6.19605
1680013195668,1193184023880293,2.5530002,7.524,6.078
1680013195672,1193184026382384,2.5800002,7.5760503,6.0370502
1680013195674,1193184028884307,2.57505,7.5160503,6.0040503
1680013195676,1193184031386384,2.436,7.5739503,5.99205
1680013195680,1193184033888537,2.5530002,7.49205,6.0330005
1680013195683,1193184036390394,2.4810002,7.4329505,6.01095
1680013195686,1193184038892624,2.4859502,7.5070505,5.9700003
1680013195687,1193184041394701,2.3040001,7.4449506,5.9749503
1680013195690,1193184043896624,2.4379501,7.4059505,6.0589504
1680013195692,1193184046398654,2.5150502,7.45695,6.045
1680013195694,1193184048900577,2.5459502,7.4880004,5.99205
1680013195696,1193184051402731,2.6160002,7.4809504,6.1000504
1680013195699,1193184053904808,2.6509502,7.5330005,6.0730505
1680013195702,1193184056406962,2.7190502,7.5280504,6.05205
1680013195704,1193184058908880,2.637,7.54995,6.12405
1680013195706,1193184061410957,2.70705,7.5450006,6.1860003
1680013195708,1193184063912880,2.59905,7.5400505,5.8170004
1680013195712,1193184066414957,2.6800501,7.557,6.09
1680013195714,1193184068917125,2.6850002,7.59495,5.9659505
1680013195720,1193184071419279,2.84805,7.56405,6.1069503
1680013195721,1193184073921202,2.9269502,7.5979505,6.0420003
1680013195724,1193184076423279,2.77095,7.5280504,5.9490004
1680013195726,1193184079012260,2.63895,7.6150503,6.0060005
1680013195727,1193184081427260,2.6179502,7.6000504,6.0760503
1680013195730,1193184083929183,2.7160501,7.4830503,6.0280504
1680013195733,1193184086431260,2.7280502,7.6510506,6.0139503
1680013195735,1193184088933481,2.877,7.62195,6.0090003
1680013195736,1193184091435557,2.769,7.5840006,6.057
1680013195739,1193184093937481,2.6110501,7.59495,6.13605
1680013195742,1193184096439557,2.7499502,7.5840006,6.0040503
1680013195744,1193184098941481,2.80995,7.6650004,6.02295
1680013195746,1193184101443634,2.79795,7.6069503,6.0040503
1680013195749,1193184103945711,2.742,7.7179503,5.9940004
1680013195751,1193184106447865,2.6440501,7.7299504,6.0610504
1680013195756,1193184108949788,2.7190502,7.6720505,6.08505
1680013195756,1193184111451880,2.6749501,7.7419505,5.92995
1680013195759,1193184113953803,2.6539502,7.5430503,6.0400505
1680013195762,1193184116455880,2.70405,7.66695,6.057
1680013195764,1193184118958111,2.83095,7.6120505,5.9490004
1680013195767,1193184121460188,2.7499502,7.7299504,5.98995
1680013195770,1193184123962101,2.80695,7.7370005,5.9230504
1680013195772,1193184126464178,2.8260002,7.8760505,5.9700003
1680013195774,1193184128966101,2.83605,7.87305,6.0420003
1680013195776,1193184131468178,2.766,7.93305,5.95095
1680013195779,1193184133970101,2.769,7.8229504,6.0709505
1680013195782,1193184136472289,2.766,8.007,5.8960505
1680013195784,1193184138974443,2.77395,8.029051,5.9989505
1680013195786,1193184141476520,2.83095,7.9879503,5.9700003
1680013195789,1193184143978443,2.77095,8.04105,5.90595
1680013195794,1193184146480520,2.8170002,7.9999504,5.93205
1680013195797,1193184148982443,2.8600502,8.029051,5.973
1680013195798,1193184151484597,2.79795,8.08605,5.9440503
1680013195800,1193184153986674,2.874,8.0449505,5.9370003
1680013195802,1193184156488807,2.8240502,8.017051,5.9350505
1680013195804,1193184158990730,2.73795,7.866,5.82
1680013195806,1193184161492807,2.63895,7.8640504,5.89095
1680013195809,1193184163994730,2.7810001,7.97205,5.7499504
1680013195812,1193184166496798,2.90295,7.87095,6.0709505
1680013195814,1193184168998952,2.8219502,7.9549503,5.86005
1680013195822,1193184171500875,2.9839501,7.8850503,5.9149504
1680013195822,1193184174002952,3.006,7.9999504,5.946
1680013195822,1193184176504870,3.0919502,8.019,5.89095
1680013195823,1193184179007255,3.1330502,7.9279504,5.9820004
1680013195826,1193184181509101,3.0180001,7.97205,5.9370003
1680013195830,1193184184011255,3.1300502,7.9159503,5.9370003
1680013195832,1193184186513159,3.0589502,7.96395,5.88705
1680013195835,1193184189015236,3.0559502,7.8610506,5.85795
1680013195836,1193184191517159,3.0370502,7.9669504,5.8390503
1680013195838,1193184194019313,3.04905,7.8490505,5.7259502
1680013195842,1193184196521390,2.91,7.93095,5.7840004
1680013195843,1193184199023327,2.8980002,7.9519506,5.793
1680013195846,1193184201525481,2.86695,7.90005,5.8050003
1680013195850,1193184204027558,2.8840501,7.8850503,5.81505
1680013195852,1193184206529481,2.9320502,7.9570503,5.8429503
1680013195854,1193184209031543,2.8890002,7.866,5.8170004
1680013195856,1193184211533697,2.901,7.8490505,5.8219504
1680013195860,1193184214035620,2.7450001,7.938,5.8939505
1680013195862,1193184216537774,2.8170002,7.8349504,5.8240504
1680013195865,1193184219039654,2.87205,7.9450502,5.985
1680013195870,1193184221541808,2.7930002,7.8640504,5.82705
1680013195871,1193184224043884,2.7829502,7.85895,5.8390503
1680013195873,1193184226546038,2.7450001,7.9860005,5.84805
1680013195875,1193184229047951,2.7210002,7.8850503,5.8549504
1680013195876,1193184231550028,2.7930002,7.8919506,5.90805
1680013195878,1193184234052182,2.709,7.8949504,5.77605
1680013195882,1193184236554105,2.733,7.8829503,5.7619505
1680013195884,1193184239056182,2.79795,7.9999504,5.808
1680013195888,1193184241558336,2.73495,7.9909506,5.78805
1680013195890,1193184244060259,2.7160501,8.059951,5.676
1680013195892,1193184246562336,2.7520502,8.076,5.8219504
1680013195895,1193184249064269,2.73495,8.064,5.8669505
1680013195896,1193184251566423,2.673,8.121,5.7840004
1680013195899,1193184254068500,2.69895,8.095051,5.8699503
1680013195902,1193184256570423,2.56005,8.175,5.82
1680013195905,1193184259072572,2.57205,8.2570505,5.70195
1680013195907,1193184261574649,2.62995,8.14605,5.6730003
1680013195908,1193184264076572,2.6830502,8.188951,5.7790504
1680013195912,1193184266578649,2.73795,8.22105,5.74305
1680013195913,1193184269080572,2.63505,8.21805,5.75505
1680013195916,1193184271582712,2.7229502,8.11995,5.5870504
1680013195919,1193184274084866,2.7499502,8.142,5.649
1680013195922,1193184276586942,2.7280502,8.14395,5.688
1680013195924,1193184279088866,2.742,8.097,5.5609503
1680013195926,1193184281590942,2.6899502,8.109,5.54895
1680013195929,1193184284093095,2.802,8.068951,5.62095
1680013195932,1193184286594942,2.7570002,8.121,5.6970005
1680013195934,1193184289097095,2.80005,8.079,5.5750504
1680013195936,1193184291599249,2.97,8.002951,5.59905
1680013195938,1193184294101163,2.8650002,8.068951,5.65395
1680013195943,1193184296603240,2.88105,8.026951,5.59695
1680013195945,1193184299105163,3.00795,8.083051,5.5420504
1680013195947,1193184301607297,2.901,7.9210505,5.6400003
1680013195949,1193184304109143,2.8840501,7.9189506,5.59905
1680013195952,1193184306611528,2.8189502,7.9909506,5.5470004
1680013195954,1193184309113451,2.94105,7.998,5.6400003
1680013195956,1193184311615528,2.9220002,7.8760505,5.6659503
1680013195960,1193184314117451,2.9340003,7.866,5.62995
1680013195963,1193184316619528,2.8960502,7.8570004,5.5849504
1680013195965,1193184319121451,2.7930002,7.8900003,5.688
1680013195969,1193184321623836,2.77095,7.938,5.769
1680013195970,1193184324125687,2.6920502,7.87305,5.664
1680013195972,1193184326627841,2.73105,7.9860005,5.7670503
1680013195974,1193184329129764,2.6560502,7.90005,5.6850004
1680013195976,1193184331631841,2.742,8.026951,5.78805
1680013195981,1193184334133750,2.69895,8.0119505,5.7840004
1680013195983,1193184336635827,2.57505,7.97205,5.67105
1680013195984,1193184339138057,2.63895,8.055,5.6970005
1680013195987,1193184341640134,2.604,7.9909506,5.7310505
1680013195989,1193184344142057,2.6179502,8.05305,5.6779504
1680013195992,1193184346644134,2.5800002,8.071051,5.6260505
1680013195996,1193184349146058,2.50305,8.056951,5.6970005
1680013195997,1193184351648134,2.49795,8.095051,5.5729504
1680013195999,1193184354150288,2.601,8.194051,5.6850004
1680013196002,1193184356652442,2.53695,8.167951,5.5540504
1680013196004,1193184359154365,2.4859502,8.17695,5.5870504
1680013196006,1193184361656442,2.4859502,8.283,5.6449504
1680013196009,1193184364158365,2.56305,8.211,5.4580503
1680013196012,1193184366660427,2.529,8.22795,5.53905
1680013196014,1193184369162581,2.568,8.199,5.46705
1680013196018,1193184371664504,2.60595,8.415,5.4580503
1680013196020,1193184374166581,2.6110501,8.51505,5.4079504
1680013196022,1193184376668504,2.66595,8.448,5.44605
1680013196024,1193184379170600,2.697,8.49405,5.5630503
1680013196026,1193184381672831,2.6539502,8.53005,5.484
1680013196029,1193184384174908,2.77095,8.54595,5.4889503
1680013196032,1193184386676831,2.8650002,8.644951,5.4289503
1680013196035,1193184389178918,2.8909502,8.637,5.3959503
1680013196036,1193184391680841,2.9290502,8.57295,5.46495
1680013196039,1193184394182995,2.9989502,8.601001,5.4559503
1680013196042,1193184396685072,2.9839501,8.532001,5.47905
1680013196045,1193184399187235,3.04695,8.46195,5.56605
