system_ts_ms, sensor_ts_ns, gyrX, gyrY, gyrZ
1680013190819,1193179167410720,-0.019524999,-0.1043625,-0.0056375
1680013190819,1193179169912566,-0.0155375,-0.091299996,-0.0026125
1680013190819,1193179172414720,-0.01265,-0.084425,-0.0056375
1680013190819,1193179174916796,-0.01155,-0.083325,-0.0075625
1680013190822,1193179177418945,-0.01155,-0.0873125,-0.009625
1680013190824,1193179179920868,-0.008525,-0.078375,-0.01265
1680013190833,1193179182422945,-0.0075625,-0.0653125,-0.015675
1680013190834,1193179184925099,-0.0045375,-0.05335,-0.014575
1680013190835,1193179187427022,-0.0026125,-0.0413875,-0.0105875
1680013190835,1193179189929099,0.0034375,-0.0253,-0.009625
1680013190838,1193179192431022,0.0064625,-0.0103124995,-0.0116875
1680013190841,1193179194933176,0.00935,0.0026125,-0.0166375
1680013190843,1193179197435249,0.012375,0.014575,-0.015675
1680013190845,1193179199937172,0.012375,0.0215875,-0.0105875
1680013190847,1193179202439249,0.013475,0.02365,-0.0066
1680013190850,1193179204941403,0.018424999,0.0286,-0.0026125
1680013190852,1193179207443326,0.023375,0.0297,-0.0026125
1680013190855,1193179209945499,0.02145,0.031625,4.125E-4
1680013190856,1193179212447576,0.02035,0.0336875,0.00935
1680013190863,1193179214949499,0.023375,0.0336875,0.0103124995
1680013190863,1193179217451576,0.024475,0.0356125,0.0133375
1680013190864,1193179219953504,0.0254375,0.0356125,0.012375
1680013190868,1193179222455658,0.02035,0.0325875,0.0114124995
1680013190869,1193179224957812,0.02145,0.0276375,0.007425
1680013190872,1193179227459889,0.02035,0.0226875,4.125E-4
1680013190879,1193179229961826,0.013475,0.01265,-0.003575
1680013190879,1193179232463903,0.01045,-4.125E-4,-0.0066
1680013190880,1193179234965826,0.00935,-0.0103124995,-0.004675
1680013190882,1193179237467903,0.007425,-0.0253,-0.0105875
1680013190885,1193179239970056,0.0034375,-0.04235,-0.009625
1680013190887,1193179242472191,0.0044,-0.050325,-0.01265
1680013190890,1193179244974114,0.002475,-0.062425,-0.0075625
1680013190894,1193179247476191,4.125E-4,-0.0774125,-0.0056375
1680013190895,1193179249978114,4.125E-4,-0.083325,-0.004675
1680013190897,1193179252480191,-0.0026125,-0.0963875,-0.0026125
1680013190900,1193179254982330,-0.00165,-0.1093125,0.006325
1680013190902,1193179257484253,0.001375,-0.11935,0.0103124995
1680013190904,1193179259986407,0.002475,-0.1313125,0.0144375
1680013190907,1193179262488484,0.0034375,-0.138325,0.0193875
1680013190911,1193179264990383,0.0044,-0.150425,0.0243375
1680013190914,1193179267492460,0.0064625,-0.155375,0.0264
1680013190916,1193179269994383,0.0064625,-0.1623875,0.029424999
1680013190918,1193179272496523,0.0053625,-0.1683,0.0303875
1680013190921,1193179274998600,0.0044,-0.17435,0.0273625
1680013190923,1193179277500754,0.0044,-0.1753125,0.0273625
1680013190929,1193179280002677,0.0044,-0.1753125,0.0273625
1680013190929,1193179282504754,0.0044,-0.171325,0.028324999
1680013190930,1193179285006682,0.0034375,-0.1703625,0.028324999
1680013190933,1193179287508759,0.0053625,-0.166375,0.0264
1680013190935,1193179290010913,0.0053625,-0.160325,0.0243375
1680013190937,1193179292513066,0.0044,-0.1584,0.028324999
1680013190939,1193179295014990,0.007425,-0.155375,0.0243375
1680013190945,1193179297517056,0.0064625,-0.1513875,0.0213125
1680013190946,1193179300018980,0.0083875,-0.14533749,0.023375
1680013190947,1193179302521056,0.0083875,-0.1403875,0.023375
1680013190951,1193179305022985,0.00935,-0.1343375,0.023375
1680013190953,1193179307525138,0.0083875,-0.1254,0.0254375
1680013190955,1193179310027292,0.0083875,-0.1153625,0.0264
1680013190957,1193179312529138,0.0144375,-0.1043625,0.0243375
1680013190962,1193179315031292,0.0114124995,-0.09735,0.0254375
1680013190963,1193179317533383,0.00935,-0.0933625,0.028324999
1680013190965,1193179320035306,0.0114124995,-0.0823625,0.0273625
1680013190967,1193179322537460,0.01045,-0.078375,0.029424999
1680013190970,1193179325039537,0.012375,-0.0704,0.0303875
1680013190973,1193179327541479,0.0154,-0.0664125,0.0323125
1680013190979,1193179330043633,0.0154,-0.0603625,0.0334125
1680013190979,1193179332545710,0.0154,-0.0523875,0.034375
1680013190980,1193179335047633,0.0144375,-0.0484,0.0364375
1680013190982,1193179337549787,0.013475,-0.0444125,0.0334125
1680013190985,1193179340051864,0.012375,-0.0463375,0.0323125
1680013190989,1193179342553787,0.00935,-0.0433125,0.0364375
1680013190991,1193179345055864,0.012375,-0.0374,0.0383625
1680013190995,1193179347558009,0.013475,-0.0323125,0.0383625
1680013190995,1193179350059932,0.0114124995,-0.0303875,0.0383625
1680013190997,1193179352562009,0.0114124995,-0.0273625,0.0383625
1680013191000,1193179355064163,0.013475,-0.0264,0.0383625
1680013191003,1193179357566086,0.0144375,-0.017324999,0.039325
1680013191004,1193179360068148,0.01045,-0.0103124995,0.0374
1680013191007,1193179362570071,0.0114124995,-0.006325,0.0374
1680013191011,1193179365072455,0.01045,-0.0053625,0.0374
1680013191013,1193179367574301,0.01045,-0.001375,0.0334125
1680013191015,1193179370076441,0.0114124995,-4.125E-4,0.0334125
1680013191018,1193179372578364,0.0114124995,0.0026125,0.034375
1680013191019,1193179375080441,0.012375,0.003575,0.034375
1680013191022,1193179377582364,0.0064625,0.0066,0.034375
1680013191028,1193179380084484,0.0053625,0.0066,0.0364375
1680013191028,1193179382586638,0.0064625,0.0066,0.0334125
1680013191029,1193179385088484,0.0044,0.003575,0.034375
1680013191032,1193179387590561,0.0053625,0.0056375,0.0323125
1680013191035,1193179390092715,0.001375,0.003575,0.0303875
1680013191037,1193179392594663,0.0044,6.875E-4,0.028324999
1680013191039,1193179395096740,0.0064625,6.875E-4,0.028324999
1680013191044,1193179397598894,0.0034375,-4.125E-4,0.0273625
1680013191045,1193179400100817,4.125E-4,-4.125E-4,0.0254375
1680013191047,1193179402602971,4.125E-4,-0.0033,0.0254375
1680013191051,1193179405104822,-0.00165,-0.0033,0.023375
1680013191054,1193179407606976,-0.003575,-0.001375,0.0243375
1680013191055,1193179410109053,-0.003575,-0.0023375,0.0243375
1680013191057,1193179412611207,-0.0045375,-0.0033,0.023375
1680013191061,1193179415113130,-0.0045375,-0.0053625,0.023375
1680013191064,1193179417615207,-0.0066,-0.0053625,0.0163625
1680013191066,1193179420117360,-0.0066,-0.007425,0.0193875
1680013191067,1193179422619202,-0.0075625,-0.0083875,0.0163625
1680013191070,1193179425121355,-0.008525,-0.00935,0.0154
1680013191072,1193179427623279,-0.008525,-0.007425,0.0154
1680013191075,1193179430125432,-0.0105875,-0.0033,0.0133375
1680013191079,1193179432627509,-0.013612499,-0.0053625,0.0154
1680013191080,1193179435129460,-0.01155,-0.0083875,0.0144375
1680013191082,1193179437631537,-0.008525,-0.00935,0.0133375
1680013191085,1193179440133691,-0.0105875,-0.0083875,0.012375
1680013191087,1193179442635523,-0.009625,-0.006325,0.0154
1680013191091,1193179445137754,-0.014575,-0.0044,0.0154
1680013191094,1193179447639831,-0.01265,-0.0044,0.0163625
1680013191095,1193179450141754,-0.014575,-0.0023375,0.0133375
1680013191097,1193179452643831,-0.014575,-0.001375,0.0163625
1680013191101,1193179455145711,-0.014575,-4.125E-4,0.0154
1680013191104,1193179457647865,-0.0155375,0.00165,0.017324999
1680013191106,1193179460150019,-0.0155375,0.0026125,0.0193875
1680013191107,1193179462652096,-0.0176,0.0066,0.02035
1680013191110,1193179465154019,-0.0185625,0.0066,0.017324999
1680013191112,1193179467656101,-0.020624999,0.009625,0.02035
1680013191115,1193179470158024,-0.0185625,0.0116875,0.0193875
1680013191117,1193179472660101,-0.0215875,0.015675,0.0193875
1680013191119,1193179475162255,-0.020624999,0.0187,0.0193875
1680013191123,1193179477664409,-0.0215875,0.0196625,0.0154
1680013191124,1193179480166255,-0.0215875,0.020624999,0.0144375
1680013191129,1193179482668409,-0.02255,0.020624999,0.0154
1680013191130,1193179485170332,-0.02255,0.0226875,0.0144375
1680013191133,1193179487672418,-0.02365,0.026675,0.0133375
1680013191135,1193179490174341,-0.0246125,0.026675,0.012375
1680013191138,1193179492676494,-0.0246125,0.0306625,0.0103124995
1680013191141,1193179495178648,-0.0246125,0.031625,0.007425
1680013191146,1193179497680701,-0.02255,0.0297,0.006325
1680013191147,1193179500182624,-0.0265375,0.031625,0.0053625
1680013191148,1193179502684701,-0.0265375,0.031625,0.006325
1680013191151,1193179505186624,-0.02365,0.036575,0.00935
1680013191152,1193179507688778,-0.0246125,0.0336875,0.00935
1680013191155,1193179510190846,-0.02365,0.034649998,0.00935
1680013191157,1193179512693000,-0.0246125,0.034649998,0.0083875
1680013191161,1193179515194923,-0.0246125,0.0306625,0.007425
1680013191163,1193179517697000,-0.02365,0.0306625,0.007425
1680013191165,1193179520198947,-0.0246125,0.0306625,0.006325
1680013191167,1193179522701024,-0.0246125,0.0286,0.0083875
1680013191170,1193179525203178,-0.0276375,0.031625,0.007425
1680013191173,1193179527705332,-0.0265375,0.02365,0.006325
1680013191177,1193179530207192,-0.0265375,0.0215875,0.006325
1680013191178,1193179532709346,-0.0276375,0.0246125,0.006325
1680013191179,1193179535211269,-0.0276375,0.02365,0.007425
1680013191182,1193179537713346,-0.0276375,0.0176,0.006325
1680013191185,1193179540215500,-0.0276375,0.0166375,0.0053625
1680013191187,1193179542717428,-0.0265375,0.015675,0.0034375
1680013191190,1193179545219582,-0.0265375,0.01265,0.006325
1680013191194,1193179547721428,-0.0276375,0.009625,0.007425
1680013191195,1193179550223582,-0.02365,0.0056375,0.007425
1680013191197,1193179552725672,-0.019524999,0.0026125,0.0053625
1680013191200,1193179555227826,-0.02255,-4.125E-4,0.0053625
1680013191203,1193179557729672,-0.02365,-0.0033,0.006325
1680013191205,1193179560231826,-0.02365,-0.0023375,0.0083875
1680013191207,1193179562733749,-0.0215875,-0.0053625,0.007425
1680013191211,1193179565235806,-0.02255,-0.0053625,0.007425
1680013191215,1193179567737960,-0.025575,-0.0083875,0.0053625
1680013191217,1193179570239883,-0.0265375,-0.006325,0.0083875
1680013191218,1193179572742022,-0.0286,-0.00935,0.0083875
1680013191221,1193179575244099,-0.0265375,-0.012375,0.007425
1680013191223,1193179577746022,-0.0295625,-0.0163625,0.006325
1680013191225,1193179580248099,-0.0295625,-0.0133375,0.006325
1680013191227,1193179582750253,-0.0295625,-0.0163625,0.0044
1680013191230,1193179585252205,-0.030524999,-0.017324999,0.001375
1680013191232,1193179587754282,-0.031625,-0.0213125,-6.875E-4
1680013191235,1193179590256205,-0.03355,-0.0243375,-6.875E-4
1680013191237,1193179592758359,-0.0356125,-0.0213125,4.125E-4
1680013191239,1193179595260239,-0.031625,-0.02035,-0.0026125
1680013191242,1193179597762393,-0.0276375,-0.0213125,-0.00165
1680013191245,1193179600264547,-0.030524999,-0.0193875,-6.875E-4
1680013191247,1193179602766624,-0.0356125,-0.0213125,-0.00165
1680013191252,1193179605268528,-0.03355,-0.0253,-6.875E-4
1680013191255,1193179610270605,-0.030524999,-0.0273625,-6.875E-4
1680013191256,1193179610430066,-0.031625,-0.028324999,4.125E-4
1680013191258,1193179612774682,-0.030524999,-0.03135,-6.875E-4
1680013191260,1193179615276835,-0.0276375,-0.028324999,0.0023375
1680013191263,1193179617778916,-0.0276375,-0.028324999,0.001375
1680013191265,1193179620280839,-0.0246125,-0.0323125,4.125E-4
1680013191268,1193179622782916,-0.02365,-0.0303875,4.125E-4
1680013191270,1193179625284839,-0.0246125,-0.029424999,0.0023375
1680013191272,1193179627786916,-0.020624999,-0.0323125,0.0034375
1680013191275,1193179630289090,-0.020624999,-0.0334125,4.125E-4
1680013191277,1193179632791244,-0.019524999,-0.0273625,0.0044
1680013191280,1193179635293167,-0.02255,-0.0273625,0.0044
1680013191283,1193179637795244,-0.02255,-0.0273625,0.0044
1680013191285,1193179640297171,-0.02365,-0.0264,0.001375
1680013191290,1193179642799325,-0.02365,-0.0243375,4.125E-4
1680013191292,1193179645301171,-0.0215875,-0.0224125,4.125E-4
1680013191295,1193179647803556,-0.020624999,-0.0213125,0.0034375
1680013191296,1193179650348171,-0.025575,-0.017324999,0.0023375
1680013191298,1193179652807556,-0.0215875,-0.0144375,-0.0026125
1680013191300,1193179655309479,-0.0246125,-0.00935,-0.003575
1680013191302,1193179657811556,-0.025575,-0.012375,-0.00165
1680013191305,1193179660313455,-0.02365,-0.012375,-6.875E-4
1680013191307,1193179662815609,-0.02365,-0.0114124995,0.001375
1680013191310,1193179665317763,-0.020624999,-0.006325,-6.875E-4
1680013191312,1193179667819840,-0.0215875,-0.0114124995,0.001375
1680013191315,1193179670321763,-0.0246125,-0.007425,0.001375
1680013191318,1193179672823855,-0.0246125,-0.0044,0.0034375
1680013191321,1193179675325778,-0.0226875,-0.0023375,0.0044
1680013191323,1193179677827855,-0.020624999,-0.0023375,0.001375
1680013191326,1193179680330075,-0.0166375,-0.006325,4.125E-4
1680013191328,1193179682831922,-0.0196625,-0.006325,0.0023375
1680013191331,1193179685334075,-0.0196625,-0.00935,0.0044
1680013191334,1193179687836152,-0.015675,-0.007425,0.0034375
1680013191335,1193179690338075,-0.0176,-0.007425,0.0044
1680013191337,1193179692840133,-0.015675,-0.0114124995,0.0034375
1680013191340,1193179695342287,-0.0196625,-0.0114124995,0.006325
1680013191343,1193179697844441,-0.0166375,-0.0103124995,0.007425
1680013191345,1193179700346287,-0.015675,-0.0114124995,0.0053625
1680013191348,1193179702848436,-0.0185625,-0.0133375,0.006325
1680013191350,1193179705350359,-0.0185625,-0.0103124995,0.007425
1680013191353,1193179707852436,-0.014575,-0.0133375,0.0083875
1680013191355,1193179710354359,-0.014575,-0.0103124995,0.0083875
1680013191357,1193179712856508,-0.0166375,-0.0133375,0.007425
1680013191360,1193179715358585,-0.015675,-0.0154,0.007425
1680013191364,1193179717860739,-0.0176,-0.017324999,0.00935
1680013191366,1193179720362585,-0.0196625,-0.0163625,0.0053625
1680013191368,1193179722864758,-0.0196625,-0.0144375,0.0083875
1680013191371,1193179725366681,-0.0176,-0.0144375,0.006325
1680013191374,1193179727868835,-0.0166375,-0.0144375,0.006325
1680013191376,1193179730370912,-0.015675,-0.0144375,0.006325
1680013191377,1193179732872835,-0.014575,-0.0133375,0.007425
1680013191380,1193179735374994,-0.014575,-0.0154,0.006325
1680013191383,1193179737877071,-0.01265,-0.017324999,0.006325
1680013191385,1193179740378994,-0.0116875,-0.0154,0.006325
1680013191388,1193179742881147,-0.01265,-0.0193875,0.00935
1680013191390,1193179745383258,-0.0116875,-0.0193875,0.007425
1680013191392,1193179747885181,-0.0066,-0.018424999,0.0053625
1680013191395,1193179750387258,-0.0056375,-0.0154,0.007425
1680013191398,1193179752889412,-0.0075625,-0.0193875,0.0083875
1680013191402,1193179755391320,-0.0066,-0.0193875,0.006325
1680013191405,1193179757893397,-0.003575,-0.017324999,0.0053625
1680013191406,1193179760395551,-0.003575,-0.0154,0.0034375
1680013191408,1193179762897474,-0.004675,-0.018424999,0.006325
1680013191411,1193179765399551,-0.0026125,-0.017324999,0.0044
1680013191413,1193179767901455,-0.00165,-0.0154,0.001375
1680013191415,1193179770403609,4.125E-4,-0.0154,-6.875E-4
1680013191417,1193179772905686,4.125E-4,-0.0144375,-6.875E-4
1680013191420,1193179775407609,0.0044,-0.0133375,4.125E-4
1680013191423,1193179777909777,0.0053625,-0.00935,0.001375
1680013191425,1193179780411854,0.0083875,-0.00935,-0.00165
1680013191427,1193179782913777,0.006325,-0.0083875,-0.0026125
1680013191430,1193179785415931,0.006325,-0.007425,-0.003575
1680013191432,1193179787918008,0.007425,-0.006325,-0.004675
1680013191437,1193179790419936,0.0114124995,-0.007425,-0.0056375
1680013191444,1193179792922013,0.0083875,-0.0044,-0.0056375
1680013191445,1193179795424167,0.007425,-0.006325,-0.003575
1680013191445,1193179797926109,0.007425,-0.006325,-0.0056375
1680013191445,1193179800428186,0.0083875,-0.0034375,-0.004675
1680013191447,1193179802930339,0.0083875,-0.0053625,-0.0056375
1680013191451,1193179805432263,0.00935,-0.0083875,-0.0056375
1680013191453,1193179807934339,0.0083875,-0.0114124995,-0.0026125
1680013191455,1193179810436249,0.006325,-0.00935,-0.003575
1680013191457,1193179812938325,0.0044,-0.0083875,-6.875E-4
1680013191460,1193179815440479,0.0044,-0.007425,-6.875E-4
1680013191463,1193179817942633,0.006325,-0.0103124995,-6.875E-4
1680013191465,1193179820444556,0.0053625,-0.00935,4.125E-4
1680013191468,1193179822946633,0.0083875,-0.0083875,4.125E-4
1680013191470,1193179825448556,0.006325,-0.0083875,-0.00165
1680013191472,1193179827950710,0.007425,-0.0083875,0.001375
1680013191477,1193179830452565,0.006325,-0.006325,0.0023375
1680013191478,1193179832954719,0.006325,-0.007425,0.0044
1680013191480,1193179835456873,0.006325,-0.0053625,4.125E-4
1680013191484,1193179837958950,0.006325,-0.001375,0.0023375
1680013191485,1193179840460873,0.0034375,6.875E-4,0.0034375
1680013191488,1193179842962950,0.0034375,-4.125E-4,0.001375
1680013191491,1193179845464873,0.0023375,0.0066,0.0023375
1680013191494,1193179847967027,0.0044,0.0066,0.0034375
1680013191496,1193179850469181,0.0044,0.0056375,0.0034375
1680013191498,1193179852971287,0.007425,0.009625,0.001375
1680013191500,1193179855473210,0.0034375,0.015675,0.0023375
1680013191503,1193179857975287,-0.00165,0.0166375,4.125E-4
1680013191505,1193179860477210,4.125E-4,0.0176,0.0023375
1680013191508,1193179862979278,0.0034375,0.0185625,0.001375
1680013191512,1193179865481508,0.006325,0.0185625,0.0034375
1680013191515,1193179867983355,0.007425,0.0226875,0.0034375
1680013191519,1193179870485508,0.0044,0.0226875,0.0023375
1680013191519,1193179872987570,0.0034375,0.02365,0.0044
1680013191521,1193179875489493,0.006325,0.0215875,0.0044
1680013191524,1193179877991570,0.0053625,0.0185625,0.0044
1680013191525,1193179880493493,0.0044,0.0215875,0.0023375
1680013191527,1193179882995878,0.0044,0.0196625,0.0044
1680013191531,1193179885497791,0.0053625,0.0226875,0.0034375
1680013191534,1193179887999637,0.0053625,0.0215875,0.0023375
1680013191535,1193179890501791,0.0053625,0.0215875,0.001375
1680013191538,1193179893003868,0.006325,0.0226875,-6.875E-4
1680013191540,1193179895505791,0.0083875,0.0246125,0.001375
1680013191542,1193179898007941,0.0053625,0.02365,0.0023375
1680013191545,1193179900510018,0.0034375,0.0185625,0.0034375
1680013191549,1193179903012172,0.006325,0.0185625,0.0023375
1680013191554,1193179905514115,0.006325,0.0166375,0.001375
1680013191556,1193179908016192,0.007425,0.01265,0.0044
1680013191556,1193179910518115,0.0053625,0.0116875,0.006325
1680013191558,1193179913020192,0.0034375,0.009625,0.0034375
1680013191561,1193179915522346,0.0034375,0.0066,0.0044
1680013191564,1193179918024245,4.125E-4,0.003575,0.006325
1680013191566,1193179920526399,0.0034375,-4.125E-4,0.007425
1680013191567,1193179923028476,0.006325,-0.006325,0.007425
1680013191572,1193179925530399,0.0044,-0.0053625,0.007425
1680013191574,1193179928032481,0.0023375,-0.0114124995,0.007425
1680013191575,1193179930534634,0.0044,-0.012375,0.006325
1680013191578,1193179933036558,4.125E-4,-0.0144375,0.007425
1680013191581,1193179935538634,-0.00165,-0.018424999,0.0053625
1680013191583,1193179938040558,4.125E-4,-0.017324999,0.0044
1680013191585,1193179940542720,-0.00165,-0.018424999,0.0044
1680013191590,1193179943044797,-0.00165,-0.0193875,0.0034375
1680013191592,1193179945546720,-0.003575,-0.0154,0.001375
1680013191594,1193179948048874,4.125E-4,-0.0133375,-0.00165
1680013191596,1193179950550937,0.001375,-0.017324999,0.0044
1680013191597,1193179953052860,4.125E-4,-0.012375,0.0044
1680013191601,1193179955554937,-0.00165,-0.012375,4.125E-4
1680013191603,1193179958057091,0.001375,-0.0144375,0.0034375
1680013191605,1193179960559028,0.001375,-0.0133375,0.0034375
1680013191608,1193179963061182,4.125E-4,-0.012375,0.0023375
1680013191610,1193179965563028,0.0034375,-0.0144375,0.0023375
1680013191613,1193179968065182,0.0023375,-0.0154,0.0083875
1680013191615,1193179970567259,-0.00165,-0.0133375,0.0053625
1680013191618,1193179973069394,-0.00165,-0.0114124995,0.007425
1680013191621,1193179975571317,-0.0026125,-0.00935,0.0083875
1680013191623,1193179978073394,0.001375,-0.0114124995,0.0083875
1680013191626,1193179980575317,0.001375,-0.012375,0.00935
1680013191628,1193179983077384,0.001375,-0.0114124995,0.007425
1680013191631,1193179985579538,4.125E-4,-0.012375,0.007425
1680013191634,1193179988081691,0.0034375,-0.0114124995,0.00935
1680013191635,1193179990583615,0.0044,-0.0144375,0.0103124995
1680013191637,1193179993085692,0.001375,-0.012375,0.0114124995
1680013191641,1193179995587601,0.0023375,-0.0103124995,0.007425
1680013191643,1193179998089678,0.0034375,-0.0133375,0.00935
1680013191645,1193180000591831,0.0053625,-0.00935,0.0114124995
1680013191649,1193180003093678,0.0034375,-0.0114124995,0.0133375
1680013191651,1193180005595908,0.001375,-0.0133375,0.017324999
1680013191653,1193180008097990,0.0023375,-0.0103124995,0.0163625
1680013191655,1193180010599913,0.001375,-0.012375,0.0163625
1680013191658,1193180013101990,0.0023375,-0.0163625,0.0163625
1680013191661,1193180015603903,0.001375,-0.0144375,0.017324999
1680013191664,1193180018106057,0.0023375,-0.0154,0.0163625
1680013191666,1193180020608211,0.0044,-0.0154,0.0163625
1680013191668,1193180023110288,0.0034375,-0.012375,0.0163625
1680013191671,1193180025612211,0.0034375,-0.0144375,0.017324999
1680013191673,1193180028114264,0.001375,-0.017324999,0.0163625
1680013191675,1193180030616187,0.0023375,-0.017324999,0.017324999
1680013191678,1193180033118264,4.125E-4,-0.017324999,0.0163625
1680013191681,1193180035620187,0.0044,-0.018424999,0.0133375
1680013191685,1193180038122572,0.0034375,-0.0193875,0.0154
1680013191685,1193180040624418,0.001375,-0.0224125,0.0154
1680013191688,1193180043126572,0.001375,-0.02035,0.012375
1680013191692,1193180045628495,-0.0026125,-0.0254375,0.012375
1680013191693,1193180048130591,4.125E-4,-0.0254375,0.0133375
1680013191695,1193180050632514,4.125E-4,-0.0264,0.012375
1680013191698,1193180053134668,0.001375,-0.0193875,0.0103124995
1680013191703,1193180055636822,0.001375,-0.0193875,0.0114124995
1680013191704,1193180058138917,0.001375,-0.0193875,0.0083875
1680013191707,1193180060640841,4.125E-4,-0.0163625,0.0133375
1680013191708,1193180063142917,-0.00165,-0.012375,0.00935
1680013191711,1193180065644841,-0.003575,-0.0133375,0.006325
1680013191713,1193180068146917,-0.0026125,-0.012375,0.0083875
1680013191715,1193180070649047,0.0023375,-0.0133375,0.007425
1680013191719,1193180073150970,-0.003575,-0.0103124995,0.0114124995
1680013191722,1193180075653124,-0.0056375,-0.0053625,0.0083875
1680013191724,1193180078155201,-0.00165,-0.0053625,0.007425
1680013191726,1193180080657094,0.0044,-0.0023375,0.0114124995
1680013191729,1193180083159171,-0.00165,-0.0034375,0.012375
1680013191732,1193180085661325,0.0023375,-4.125E-4,0.0114124995
1680013191735,1193180088163248,0.0034375,6.875E-4,0.0114124995
1680013191736,1193180090665325,0.0044,0.00165,0.0133375
1680013191739,1193180093167499,0.0044,0.004675,0.0154
1680013191742,1193180095669422,0.0053625,0.00165,0.0144375
1680013191744,1193180098171499,0.0044,0.0056375,0.017324999
1680013191746,1193180100673653,0.0053625,0.003575,0.0163625
1680013191747,1193180103175576,0.0044,0.00165,0.017324999
1680013191751,1193180105677648,0.0053625,6.875E-4,0.0193875
1680013191753,1193180108179571,0.0053625,0.004675,0.017324999
1680013191755,1193180110681648,0.0083875,0.003575,0.02035
1680013191758,1193180113183802,0.0083875,0.003575,0.02035
1680013191761,1193180115685720,0.00935,6.875E-4,0.0163625
1680013191763,1193180118187874,0.0103124995,0.003575,0.0144375
1680013191765,1193180120689951,0.00935,0.003575,0.0154
1680013191769,1193180123191874,0.0114124995,0.00165,0.0144375
1680013191771,1193180125694032,0.012375,0.003575,0.0144375
1680013191773,1193180128196109,0.0103124995,0.00165,0.012375
1680013191776,1193180130698263,0.0103124995,0.00165,0.0103124995
1680013191779,1193180133200109,0.0114124995,0.004675,0.007425
1680013191782,1193180135702253,0.012375,0.00165,0.007425
1680013191784,1193180138204176,0.0154,0.00165,0.006325
1680013191786,1193180140706253,0.0133375,0.00165,0.0034375
1680013191788,1193180143208407,0.0133375,0.00165,0.0044
1680013191791,1193180145710330,0.0144375,0.003575,0.001375
1680013191792,1193180148212503,0.012375,0.004675,0.0053625
1680013191796,1193180150714349,0.0114124995,0.0056375,0.0044
1680013191798,1193180153216503,0.0154,0.0037125,0.001375
1680013191801,1193180155718580,0.0154,0.0056375,0.001375
1680013191803,1193180158220513,0.013475,0.0026125,4.125E-4
1680013191805,1193180160722667,0.013475,0.004675,-0.00165
1680013191809,1193180163224744,0.0144375,0.0037125,0.0023375
1680013191811,1193180165726667,0.013475,0.0026125,-6.875E-4
1680013191815,1193180168228821,0.0154,0.00165,-6.875E-4
1680013191816,1193180170730898,0.0174625,0.0026125,-6.875E-4
1680013191818,1193180173232821,0.0144375,6.875E-4,-0.0056375
1680013191821,1193180175734975,0.0144375,-0.001375,-0.0056375
1680013191824,1193180178237052,0.0114124995,0.00165,-0.0056375
1680013191825,1193180180738970,0.0114124995,-0.001375,-0.0056375
1680013191828,1193180183241047,0.0094875,-0.0044,-0.0066
1680013191831,1193180185743200,0.007425,-0.0033,-0.0086624995
1680013191834,1193180188245047,0.0083875,-0.006325,-0.0075625
1680013191835,1193180190747277,0.0094875,-0.0083875,-0.0105875
1680013191838,1193180193249354,0.012375,-0.006325,-0.0086624995
1680013191841,1193180195751277,0.0094875,-0.0072875,-0.0086624995
1680013191843,1193180198253354,0.0094875,-0.0053625,-0.0086624995
1680013191845,1193180200755277,0.01045,-0.0083875,-0.0075625
1680013191848,1193180203257368,0.007425,-0.0083875,-0.0086624995
1680013191853,1193180205759522,0.0083875,-0.0033,-0.0086624995
1680013191854,1193180208261676,0.0094875,-0.0083875,-0.0075625
1680013191856,1193180210763633,0.01045,-0.0053625,-0.009625
1680013191859,1193180213265710,0.0114124995,-0.0053625,-0.0086624995
1680013191861,1193180215767633,0.0114124995,-0.0053625,-0.009625
1680013191863,1193180218269710,0.0114124995,-0.0033,-0.0075625
1680013191865,1193180220771633,0.0114124995,-0.0033,-0.0075625
1680013191868,1193180223274004,0.0083875,-0.001375,-0.0075625
1680013191872,1193180225775927,0.0083875,-0.001375,-0.0086624995
1680013191873,1193180228278004,0.01045,-0.0033,-0.0066
1680013191876,1193180230779927,0.0114124995,-4.125E-4,-0.0066
1680013191878,1193180233282013,0.0114124995,-0.001375,-0.0086624995
1680013191882,1193180235783936,0.0114124995,0.0026125,-0.0066
1680013191884,1193180238286013,0.0114124995,0.00165,-0.0056375
1680013191886,1193180240788167,0.0094875,0.0056375,-0.003575
1680013191891,1193180243290330,0.0144375,0.004675,-0.00165
1680013191893,1193180248292254,0.01045,0.0026125,-6.875E-4
1680013191895,1193180248654946,0.0083875,0.004675,-0.00165
1680013191897,1193180250796254,0.0094875,0.004675,-0.00165
1680013191898,1193180253298331,0.01045,0.0037125,4.125E-4
1680013191902,1193180255800499,0.0064625,0.0056375,-0.004675
1680013191903,1193180258302422,0.0064625,0.004675,-0.003575
1680013191905,1193180260804576,0.0064625,0.0077,-0.00165
1680013191908,1193180263306653,0.0044,0.0056375,-0.003575
1680013191912,1193180265808581,0.001375,0.00165,-0.00165
1680013191913,1193180268310658,4.125E-4,0.0056375,-0.00165
1680013191916,1193180270812581,0.0034375,0.0026125,-0.0056375
1680013191918,1193180273314735,0.002475,0.0066,-0.0066
1680013191922,1193180275816812,0.002475,0.0077,-0.0056375
1680013191923,1193180278318952,0.001375,0.004675,-0.003575
1680013191927,1193180280820875,0.001375,0.00165,-0.003575
1680013191930,1193180283322952,0.001375,0.0056375,-0.0056375
1680013191932,1193180285824870,-0.0015125,0.01265,-0.004675
1680013191934,1193180288327024,0.001375,0.009625,-0.004675
1680013191936,1193180290829101,0.001375,0.0066,-0.003575
1680013191938,1193180293331255,-0.0015125,0.0056375,-0.0026125
1680013191942,1193180295833101,4.125E-4,0.0056375,-6.875E-4
1680013191943,1193180298335250,4.125E-4,0.0037125,-0.0026125
1680013191945,1193180300837173,0.001375,-0.0033,-6.875E-4
1680013191948,1193180303339327,4.125E-4,-0.0023375,0.001375
1680013191951,1193180305841404,-0.0026125,-4.125E-4,0.0023375
1680013191953,1193180308343337,0.002475,-4.125E-4,0.0034375
1680013191956,1193180310845490,-0.0015125,-4.125E-4,0.0044
1680013191959,1193180313347337,0.0044,-0.0044,0.0044
1680013191962,1193180315849491,4.125E-4,-0.00935,0.0034375
1680013191965,1193180318351562,-0.003575,-0.012375,0.0044
1680013191969,1193180320853716,-0.0026125,-0.0103124995,0.0044
1680013191970,1193180323355562,0.001375,-0.0114124995,0.0023375
1680013191973,1193180325857716,-0.003575,-0.0114124995,0.0034375
1680013191975,1193180328359639,-0.0045375,-0.012375,0.0044
1680013191976,1193180330861798,-0.003575,-0.017324999,0.0023375
1680013191978,1193180333363875,-0.0066,-0.012375,0.0034375
1680013191981,1193180335865798,-0.003575,-0.0143,0.0034375
1680013191983,1193180338367875,4.125E-4,-0.0193875,0.0044
1680013191985,1193180340870029,-0.0015125,-0.0163625,0.0053625
1680013191988,1193180343371870,-0.003575,-0.0154,0.0044
1680013191992,1193180345874101,4.125E-4,-0.0143,0.0053625
1680013191993,1193180348376178,4.125E-4,-0.0114124995,0.007425
1680013191995,1193180350878101,4.125E-4,-0.0163625,0.00935
1680013191998,1193180353380182,-0.0026125,-0.017324999,0.007425
1680013192003,1193180355882105,0.002475,-0.0182875,0.0053625
1680013192004,1193180358384259,0.001375,-0.0224125,0.0044
1680013192006,1193180360886105,-0.0015125,-0.02035,0.0044
1680013192009,1193180363388510,-0.0026125,-0.0213125,0.0044
1680013192012,1193180365890433,4.125E-4,-0.0224125,0.0044
1680013192013,1193180368392510,-0.0026125,-0.0243375,0.0034375
1680013192016,1193180370894433,0.001375,-0.0292875,0.001375
1680013192018,1193180373396510,0.001375,-0.0303875,0.0044
1680013192021,1193180375898413,-0.0026125,-0.0323125,0.0044
1680013192023,1193180378400797,-0.0026125,-0.034375,0.001375
1680013192025,1193180380902720,-0.0026125,-0.034375,0.0034375
1680013192028,1193180383404797,-0.0045375,-0.0374,0.001375
1680013192031,1193180385906706,-0.0045375,-0.0383625,4.125E-4
1680013192033,1193180388408783,-0.0015125,-0.039325,0.0023375
1680013192037,1193180390910706,-0.003575,-0.0413875,-0.00165
1680013192040,1193180393412783,-0.003575,-0.0444125,-0.00165
1680013192042,1193180395915033,-0.0026125,-0.0484,-0.00165
1680013192044,1193180398417110,-0.0026125,-0.0473,-6.875E-4
1680013192047,1193180400919033,-0.0026125,-0.045375,0.0023375
1680013192049,1193180403421110,0.001375,-0.0473,0.0044
1680013192052,1193180405923009,0.0034375,-0.0484,0.0034375
1680013192054,1193180408425086,0.0053625,-0.0493625,0.0023375
1680013192055,1193180410927240,0.0083875,-0.0512875,0.0034375
1680013192058,1193180413429163,0.01045,-0.0512875,0.0034375
1680013192063,1193180415931317,0.0083875,-0.0523875,0.007425
1680013192069,1193180418433403,0.01045,-0.0473,0.0083875
1680013192069,1193180420935326,0.0174625,-0.0512875,0.007425
1680013192069,1193180423437403,0.0154,-0.0493625,0.006325
1680013192071,1193180425939557,0.0204875,-0.0473,0.0083875
1680013192073,1193180428441495,0.0193875,-0.0493625,0.0044
1680013192076,1193180430943572,0.0193875,-0.045375,0.0023375
1680013192078,1193180433445726,0.0144375,-0.0463375,0.006325
1680013192082,1193180435947649,0.0154,-0.0463375,0.006325
1680013192083,1193180438449726,0.024475,-0.04235,0.0053625
1680013192086,1193180440951610,0.0193875,-0.0433125,0.0053625
1680013192089,1193180443453764,0.0204875,-0.0444125,0.0023375
1680013192092,1193180445955917,0.018424999,-0.04235,0.001375
1680013192093,1193180448457764,0.018424999,-0.0383625,0.001375
1680013192095,1193180450959927,0.018424999,-0.0383625,0.0023375
1680013192098,1193180453462004,0.0193875,-0.04235,0.0023375
1680013192102,1193180455963927,0.0204875,-0.0433125,-0.00165
1680013192103,1193180458466081,0.018424999,-0.04235,-6.875E-4
1680013192105,1193180460968158,0.0193875,-0.0413875,-6.875E-4
1680013192108,1193180463470081,0.0204875,-0.0433125,-0.00165
1680013192111,1193180465972158,0.023375,-0.039325,-6.875E-4
1680013192115,1193180468474081,0.0193875,-0.0363,-0.0056375
1680013192118,1193180470976235,0.02145,-0.039325,-0.003575
1680013192120,1193180473478312,0.0224125,-0.039325,-0.004675
1680013192122,1193180475980466,0.023375,-0.0374,-0.004675
1680013192124,1193180478482389,0.0204875,-0.034375,-0.003575
1680013192126,1193180480984466,0.0193875,-0.0353375,-0.004675
1680013192128,1193180483486605,0.0204875,-0.0323125,-0.0066
1680013192132,1193180485988451,0.0174625,-0.0323125,-0.0075625
1680013192134,1193180488490605,0.0174625,-0.03135,-0.0075625
1680013192136,1193180490992759,0.018424999,-0.0303875,-0.0066
1680013192138,1193180493494673,0.018424999,-0.0334125,-0.0066
1680013192141,1193180495996750,0.0193875,-0.03135,-0.0105875
1680013192143,1193180498498673,0.0174625,-0.0303875,-0.0066
1680013192145,1193180501000750,0.0174625,-0.0334125,-0.0116875
1680013192148,1193180503502903,0.0193875,-0.0323125,-0.0116875
1680013192153,1193180506004817,0.0204875,-0.034375,-0.009625
1680013192154,1193180508506970,0.0193875,-0.0413875,-0.0116875
1680013192156,1193180511009047,0.0193875,-0.0363,-0.0116875
1680013192158,1193180513510980,0.018424999,-0.0323125,-0.0075625
1680013192161,1193180516013057,0.02145,-0.03135,-0.0086624995
1680013192163,1193180518515211,0.024475,-0.0383625,-0.009625
1680013192165,1193180521017134,0.023375,-0.0413875,-0.0086624995
1680013192169,1193180523519211,0.024475,-0.0374,-0.0105875
1680013192171,1193180526021365,0.0264,-0.04235,-0.009625
1680013192173,1193180528523211,0.0284625,-0.0433125,-0.0075625
1680013192175,1193180531025365,0.0284625,-0.0484,-0.0086624995
1680013192178,1193180533527519,0.0264,-0.0473,-0.0086624995
1680013192181,1193180536029432,0.0314875,-0.0512875,-0.009625
1680013192183,1193180538531509,0.034375,-0.0573375,-0.0116875
1680013192186,1193180541033432,0.035475,-0.0633875,-0.0105875
1680013192190,1193180543535509,0.035475,-0.061325,-0.0116875
1680013192192,1193180546037659,0.0314875,-0.06435,-0.01265
1680013192194,1193180548539813,0.034375,-0.07535,-0.0166375
1680013192196,1193180551041736,0.0314875,-0.07535,-0.0166375
1680013192198,1193180553543813,0.0303875,-0.0743875,-0.015675
1680013192201,1193180556045740,0.029424999,-0.0814,-0.014575
1680013192204,1193180558547817,0.0303875,-0.0842875,-0.015675
1680013192206,1193180561049740,0.0314875,-0.08635,-0.014575
1680013192209,1193180563551894,0.0314875,-0.091299996,-0.014575
1680013192212,1193180566054057,0.0303875,-0.0933625,-0.0176
1680013192213,1193180568556134,0.0334125,-0.0952875,-0.014575
1680013192215,1193180571058058,0.0303875,-0.0994125,-0.015675
1680013192218,1193180573560134,0.0273625,-0.0994125,-0.014575
1680013192222,1193180576062053,0.0303875,-0.1043625,-0.015675
1680013192223,1193180578564129,0.0284625,-0.1093125,-0.0176
1680013192227,1193180581066360,0.024475,-0.1093125,-0.015675
1680013192229,1193180583568437,0.023375,-0.1073875,-0.0166375
1680013192232,1193180586070341,0.024475,-0.116325,-0.020624999
1680013192234,1193180588572418,0.0264,-0.116325,-0.0196625
1680013192236,1193180591074341,0.0273625,-0.116325,-0.020624999
1680013192238,1193180593576418,0.024475,-0.1214125,-0.0215875
1680013192241,1193180596078341,0.02145,-0.11935,-0.0226875
1680013192243,1193180598580480,0.0224125,-0.1214125,-0.0246125
1680013192246,1193180601082634,0.023375,-0.11935,-0.025575
1680013192249,1193180603584711,0.0224125,-0.116325,-0.02365
1680013192252,1193180606086634,0.0264,-0.116325,-0.0246125
1680013192253,1193180608588735,0.023375,-0.1144,-0.0276375
1680013192256,1193180611090658,0.02145,-0.1093125,-0.026675
1680013192258,1193180613593043,0.023375,-0.10835,-0.026675
1680013192261,1193180616094889,0.0254375,-0.111375,-0.0286
1680013192266,1193180618597043,0.0264,-0.1104125,-0.026675
1680013192268,1193180621098966,0.023375,-0.1043625,-0.026675
1680013192269,1193180623601043,0.024475,-0.1034,-0.025575
1680013192271,1193180626102966,0.023375,-0.1034,-0.025575
1680013192274,1193180628605125,0.0254375,-0.0983125,-0.0246125
1680013192276,1193180631107201,0.0264,-0.091299996,-0.025575
1680013192278,1193180633609125,0.023375,-0.091299996,-0.025575
1680013192281,1193180636111202,0.0254375,-0.0903375,-0.025575
1680013192284,1193180638613355,0.0224125,-0.0873125,-0.025575
1680013192285,1193180641115278,0.023375,-0.0842875,-0.02365
1680013192289,1193180643617355,0.023375,-0.0842875,-0.02365
1680013192291,1193180646119509,0.0224125,-0.0823625,-0.0226875
1680013192293,1193180648621432,0.023375,-0.0763125,-0.0215875
1680013192296,1193180651123600,0.02145,-0.072325,-0.025575
1680013192299,1193180653625446,0.0204875,-0.0704,-0.02365
1680013192303,1193180656127600,0.0193875,-0.0743875,-0.02365
1680013192305,1193180658629677,0.0193875,-0.067375,-0.0246125
1680013192306,1193180661131831,0.02145,-0.0603625,-0.0246125
1680013192308,1193180663633754,0.0224125,-0.0603625,-0.025575
1680013192311,1193180666135831,0.0224125,-0.0583,-0.02365
1680013192313,1193180668637754,0.023375,-0.05335,-0.0226875
1680013192316,1193180671139899,0.0224125,-0.0463375,-0.02365
1680013192319,1193180673641745,0.0204875,-0.045375,-0.0215875
1680013192322,1193180676143899,0.018424999,-0.0433125,-0.0185625
1680013192323,1193180678646053,0.0174625,-0.0353375,-0.0196625
1680013192326,1193180681148139,0.018424999,-0.0303875,-0.0196625
1680013192329,1193180683650062,0.018424999,-0.0273625,-0.0185625
1680013192332,1193180686152139,0.0174625,-0.0264,-0.0166375
1680013192335,1193180688654293,0.0154,-0.0193875,-0.0176
1680013192336,1193180691156125,0.0174625,-0.0213125,-0.0166375
1680013192340,1193180693658355,0.0193875,-0.0193875,-0.015675
1680013192342,1193180696160432,0.018424999,-0.0154,-0.015675
1680013192345,1193180698662355,0.018424999,-0.0163625,-0.014575
1680013192346,1193180701164451,0.018424999,-0.0154,-0.0166375
1680013192348,1193180703666375,0.018424999,-0.012375,-0.0166375
1680013192351,1193180706168528,0.0144375,-0.0143,-0.0166375
1680013192354,1193180708670605,0.013475,-0.02035,-0.015675
1680013192356,1193180711172528,0.0154,-0.0213125,-0.015675
1680013192359,1193180713674624,0.0144375,-0.0253,-0.014575
1680013192361,1193180716176778,0.0144375,-0.0243375,-0.015675
1680013192363,1193180718678701,0.0144375,-0.0303875,-0.0185625
1680013192366,1193180721180855,0.013475,-0.03135,-0.0176
1680013192369,1193180723682927,0.0144375,-0.034375,-0.0166375
1680013192372,1193180726184850,0.013475,-0.039325,-0.020624999
1680013192373,1193180728686927,0.0114124995,-0.04235,-0.020624999
1680013192377,1193180731188850,0.0094875,-0.0484,-0.020624999
1680013192379,1193180733690908,0.0083875,-0.0493625,-0.020624999
1680013192382,1193180736193139,0.0094875,-0.050325,-0.026675
1680013192384,1193180738695216,0.0053625,-0.0543125,-0.0276375
1680013192386,1193180741197139,0.0034375,-0.0622875,-0.025575
1680013192388,1193180743699216,0.0064625,-0.0622875,-0.0276375
1680013192392,1193180746201139,0.0034375,-0.0633875,-0.0286
1680013192393,1193180748703216,-0.0015125,-0.0633875,-0.0295625
1680013192396,1193180751205370,-0.0015125,-0.067375,-0.031625
1680013192398,1193180753707523,0.002475,-0.0683375,-0.0325875
1680013192402,1193180756209466,4.125E-4,-0.069299996,-0.0356125
1680013192404,1193180758711542,-0.0056375,-0.069299996,-0.0336875
1680013192406,1193180761213466,-0.0066,-0.0713625,-0.031625
1680013192409,1193180763715543,-0.0045375,-0.0704,-0.0295625
1680013192411,1193180766217466,-0.0045375,-0.0704,-0.0325875
1680013192415,1193180768719619,-0.0045375,-0.0713625,-0.034649998
1680013192416,1193180771221696,-0.0075625,-0.0704,-0.034649998
1680013192418,1193180773723850,-0.008525,-0.0763125,-0.034649998
1680013192421,1193180776225764,-0.0075625,-0.0743875,-0.0356125
1680013192423,1193180778727841,-0.008525,-0.0743875,-0.034649998
1680013192426,1193180781229764,-0.0075625,-0.0704,-0.0356125
1680013192429,1193180783731918,-0.0066,-0.0704,-0.036575
1680013192432,1193180786234057,-0.0045375,-0.0683375,-0.036575
1680013192435,1193180788735903,-0.0075625,-0.069299996,-0.034649998
1680013192436,1193180791238057,-0.0066,-0.0664125,-0.0356125
1680013192438,1193180793740134,-0.0075625,-0.0653125,-0.036575
1680013192441,1193180796242057,-0.0105875,-0.06435,-0.0336875
1680013192443,1193180798744129,-0.008525,-0.0622875,-0.034649998
1680013192446,1193180801246283,-0.0066,-0.0633875,-0.031625
1680013192449,1193180803748206,-0.0066,-0.0622875,-0.026675
1680013192454,1193180806250279,-0.008525,-0.0594,-0.0286
1680013192455,1193180808752202,-0.0045375,-0.0583,-0.0325875
1680013192457,1193180811254356,-0.0056375,-0.0543125,-0.031625
1680013192459,1193180813756433,-0.0045375,-0.0523875,-0.026675
1680013192462,1193180816258587,-0.003575,-0.0523875,-0.031625
1680013192464,1193180818760514,-0.0056375,-0.0493625,-0.0276375
1680013192466,1193180821262591,-0.0045375,-0.0523875,-0.0276375
1680013192468,1193180823764744,-0.003575,-0.0573375,-0.0276375
1680013192472,1193180826266591,-0.0045375,-0.05335,-0.026675
1680013192474,1193180828768754,-0.0075625,-0.0523875,-0.026675
1680013192476,1193180831270678,-0.0056375,-0.0554125,-0.0295625
1680013192479,1193180833772831,-0.0056375,-0.0554125,-0.0286
1680013192482,1193180836274908,-0.0056375,-0.0512875,-0.0276375
1680013192484,1193180838776831,-0.0045375,-0.0573375,-0.0295625
1680013192486,1193180841278922,-0.0075625,-0.0543125,-0.0276375
1680013192491,1193180843780845,-0.003575,-0.05335,-0.031625
1680013192494,1193180846281865,-0.0056375,-0.0493625,-0.0325875
1680013192495,1193180848782904,-0.008525,-0.050325,-0.031625
1680013192496,1193180851287211,-0.0075625,-0.05335,-0.0356125
1680013192499,1193180853789134,-0.0075625,-0.0543125,-0.031625
1680013192502,1193180856291211,-0.0066,-0.0543125,-0.0336875
1680013192504,1193180858793134,-0.0075625,-0.0573375,-0.0356125
1680013192506,1193180861295283,-0.008525,-0.0594,-0.0325875
1680013192508,1193180863797360,-0.008525,-0.0603625,-0.0295625
1680013192512,1193180866299514,-0.008525,-0.06435,-0.0295625
1680013192514,1193180868801437,-0.0066,-0.0713625,-0.031625
1680013192516,1193180871303500,-0.0105875,-0.0713625,-0.0295625
1680013192519,1193180873805423,-0.0075625,-0.0683375,-0.0336875
1680013192523,1193180876307500,-0.009625,-0.0713625,-0.0295625
1680013192524,1193180878809423,-0.01155,-0.0774125,-0.0286
1680013192527,1193180881311792,-0.013612499,-0.0803,-0.031625
1680013192530,1193180883813639,-0.01155,-0.0814,-0.0286
1680013192533,1193180886315792,-0.008525,-0.0823625,-0.0276375
1680013192534,1193180888817716,-0.01155,-0.0823625,-0.0246125
1680013192536,1193180891319792,-0.0105875,-0.0853875,-0.0246125
1680013192539,1193180893821687,-0.009625,-0.0853875,-0.02365
1680013192542,1193180896323840,-0.01155,-0.0884125,-0.0226875
1680013192543,1193180898825994,-0.01155,-0.0853875,-0.020624999
1680013192546,1193180901327840,-0.0105875,-0.0853875,-0.0226875
1680013192548,1193180903829999,-0.009625,-0.0903375,-0.025575
1680013192552,1193180906332076,-0.008525,-0.0903375,-0.020624999
1680013192553,1193180908834230,-0.0105875,-0.0903375,-0.020624999
1680013192556,1193180911336153,-0.013612499,-0.0903375,-0.020624999
1680013192559,1193180913838249,-0.009625,-0.091299996,-0.0215875
1680013192561,1193180916340172,-0.013612499,-0.091299996,-0.02365
1680013192565,1193180918842249,-0.0125124995,-0.094325,-0.02365
1680013192568,1193180921344172,-0.0105875,-0.0924,-0.02365
1680013192569,1193180923846567,-0.013612499,-0.0842875,-0.0215875
1680013192572,1193180926348490,-0.0125124995,-0.083325,-0.02365
1680013192573,1193180928850567,-0.01155,-0.0823625,-0.02365
1680013192576,1193180931352490,-0.0125124995,-0.0823625,-0.02365
1680013192579,1193180933854567,-0.0155375,-0.0803,-0.025575
1680013192582,1193180936356500,-0.0176,-0.0763125,-0.0286
1680013192584,1193180938858654,-0.0166375,-0.0713625,-0.031625
1680013192586,1193180941360808,-0.0155375,-0.0704,-0.0325875
1680013192588,1193180943862885,-0.013612499,-0.0664125,-0.0325875
1680013192592,1193180946364803,-0.014575,-0.0622875,-0.0325875
1680013192593,1193180948866880,-0.014575,-0.0554125,-0.034649998
1680013192596,1193180951368803,-0.0166375,-0.0493625,-0.034649998
1680013192598,1193180953870956,-0.0166375,-0.045375,-0.0325875
1680013192603,1193180956373018,-0.0166375,-0.0413875,-0.0295625
1680013192605,1193180958874942,-0.014575,-0.0353375,-0.0295625
1680013192607,1193180961377095,-0.014575,-0.03135,-0.0295625
1680013192609,1193180963879172,-0.014575,-0.0273625,-0.0325875
1680013192612,1193180966381095,-0.0105875,-0.0213125,-0.0295625
1680013192614,1193180968883177,-0.01155,-0.0182875,-0.0276375
1680013192616,1193180971385331,-0.0105875,-0.0182875,-0.025575
1680013192618,1193180973887254,-0.009625,-0.0143,-0.025575
1680013192622,1193180976389331,-0.0075625,-0.0103124995,-0.025575
1680013192623,1193180978891485,-0.0075625,-0.012375,-0.025575
1680013192626,1193180981393418,-0.0066,-0.0163625,-0.02365
1680013192629,1193180983895495,-0.0045375,-0.0143,-0.025575
1680013192632,1193180986397649,-0.0075625,-0.0114124995,-0.025575
1680013192635,1193180988899572,-0.003575,-0.0133375,-0.0246125
1680013192636,1193180991401654,-0.0056375,-0.012375,-0.025575
1680013192640,1193180993903577,-0.0015125,-0.012375,-0.026675
1680013192643,1193180996405731,0.0044,-0.0114124995,-0.025575
1680013192644,1193180998907817,0.0053625,-0.0143,-0.025575
1680013192647,1193181001409740,0.002475,-0.0143,-0.02365
1680013192651,1193181003911894,0.0034375,-0.012375,-0.0226875
1680013192652,1193181006413971,0.0034375,-0.0103124995,-0.0246125
1680013192654,1193181008915894,0.001375,-0.0143,-0.0215875
1680013192657,1193181011417957,4.125E-4,-0.0163625,-0.0215875
1680013192659,1193181013919880,0.002475,-0.017324999,-0.0185625
1680013192662,1193181016422034,4.125E-4,-0.017324999,-0.0176
1680013192664,1193181018924187,0.001375,-0.02035,-0.0185625
1680013192666,1193181021426278,0.002475,-0.0163625,-0.0176
1680013192669,1193181023928201,0.001375,-0.017324999,-0.015675
1680013192672,1193181026430278,4.125E-4,-0.0193875,-0.0166375
1680013192674,1193181028932432,0.0034375,-0.0182875,-0.014575
1680013192677,1193181031434278,0.002475,-0.0182875,-0.015675
1680013192679,1193181033936432,4.125E-4,-0.0163625,-0.015675
1680013192682,1193181036438586,0.002475,-0.0193875,-0.0116875
1680013192685,1193181038940509,0.007425,-0.0193875,-0.009625
1680013192687,1193181041442586,0.0034375,-0.017324999,-0.009625
1680013192694,1193181043944524,0.0064625,-0.017324999,-0.0105875
1680013192694,1193181046446601,0.0094875,-0.0143,-0.009625
1680013192695,1193181048948755,0.0064625,-0.0133375,-0.009625
1680013192696,1193181051450678,0.0044,-0.0103124995,-0.0086624995
1680013192699,1193181053952832,0.0064625,-0.0133375,-0.0105875
1680013192702,1193181056454933,0.0044,-0.0143,-0.0066
1680013192703,1193181058956856,0.0053625,-0.0114124995,-0.0066
1680013192706,1193181061458933,0.0064625,-0.012375,-0.009625
1680013192708,1193181063960856,0.007425,-0.0083875,-0.0116875
1680013192711,1193181066463269,0.0064625,-0.0044,-0.014575
1680013192715,1193181068965115,0.0034375,-0.0083875,-0.0116875
1680013192717,1193181071467269,0.0053625,-0.0083875,-0.01265
1680013192720,1193181073969192,0.007425,-0.006325,-0.015675
1680013192724,1193181076470231,0.0083875,-0.0033,-0.014575
1680013192724,1193181078971270,0.0094875,-0.0083875,-0.015675
1680013192726,1193181081475269,0.0094875,-0.0053625,-0.0196625
1680013192730,1193181083977422,0.0083875,-0.0083875,-0.0196625
1680013192732,1193181086479562,0.007425,-0.0114124995,-0.0215875
1680013192734,1193181088981408,0.0064625,-0.0143,-0.0226875
1680013192736,1193181091483332,0.007425,-0.012375,-0.02365
1680013192739,1193181093985716,0.0114124995,-0.0083875,-0.02365
1680013192742,1193181096487639,0.0144375,-0.0072875,-0.02365
1680013192743,1193181098989461,0.013475,-0.0114124995,-0.0246125
1680013192746,1193181101491615,0.01045,-0.006325,-0.0325875
1680013192748,1193181103993692,0.01045,-0.0053625,-0.031625
1680013192753,1193181106495615,0.01045,-0.00935,-0.031625
1680013192754,1193181108997748,0.0064625,-0.0083875,-0.0336875
1680013192756,1193181111499825,0.0053625,-0.0044,-0.0336875
1680013192759,1193181114001979,0.0053625,-0.0114124995,-0.036575
1680013192762,1193181116503902,0.0044,-0.0114124995,-0.0356125
1680013192763,1193181119005979,0.0053625,-0.0083875,-0.036575
1680013192767,1193181121507931,0.007425,-0.006325,-0.0356125
1680013192770,1193181124010008,0.0053625,-0.00935,-0.0325875
1680013192772,1193181126512162,0.007425,-0.0143,-0.031625
1680013192774,1193181129014124,0.0064625,-0.0182875,-0.0325875
1680013192776,1193181131516278,0.0114124995,-0.0163625,-0.0325875
1680013192780,1193181134018355,0.0114124995,-0.0154,-0.0276375
1680013192783,1193181136520278,0.012375,-0.017324999,-0.0276375
1680013192784,1193181139022355,0.0114124995,-0.0163625,-0.0276375
1680013192786,1193181141524488,0.0144375,-0.02035,-0.026675
1680013192790,1193181144026412,0.0154,-0.0154,-0.026675
1680013192792,1193181146528488,0.0154,-0.0154,-0.025575
1680013192795,1193181149030408,0.0174625,-0.02035,-0.026675
1680013192796,1193181151532561,0.0154,-0.0163625,-0.025575
1680013192799,1193181154034638,0.0144375,-0.0182875,-0.0215875
1680013192802,1193181156536561,0.0154,-0.0163625,-0.0226875
1680013192804,1193181159038715,0.0174625,-0.0143,-0.0215875
1680013192807,1193181161540758,0.0144375,-0.0163625,-0.0215875
1680013192809,1193181164042912,0.013475,-0.02035,-0.0185625
1680013192812,1193181166544758,0.0154,-0.0182875,-0.0215875
1680013192814,1193181169046912,0.018424999,-0.02035,-0.0196625
1680013192817,1193181171548821,0.018424999,-0.0213125,-0.0196625
1680013192819,1193181174050975,0.0174625,-0.0224125,-0.0196625
1680013192822,1193181176553052,0.0174625,-0.0264,-0.0196625
1680013192824,1193181179054975,0.0193875,-0.0253,-0.0176
1680013192827,1193181181557066,0.0224125,-0.03135,-0.0185625
1680013192829,1193181184058989,0.023375,-0.0334125,-0.0196625
1680013192832,1193181186561066,0.02145,-0.0334125,-0.0176
1680013192834,1193181189063297,0.024475,-0.0353375,-0.015675
1680013192836,1193181191565374,0.0254375,-0.0374,-0.014575
1680013192838,1193181194067302,0.0264,-0.04235,-0.0166375
1680013192842,1193181196569379,0.0264,-0.0413875,-0.014575
1680013192845,1193181199071302,0.0224125,-0.039325,-0.01265
1680013192846,1193181201573456,0.024475,-0.0433125,-0.0116875
1680013192850,1193181204075307,0.0254375,-0.0473,-0.0166375
1680013192852,1193181206577691,0.024475,-0.0473,-0.0166375
1680013192853,1193181209079614,0.0254375,-0.0463375,-0.015675
1680013192856,1193181211581691,0.0264,-0.045375,-0.0166375
1680013192858,1193181214083614,0.0254375,-0.0484,-0.01265
1680013192861,1193181216585667,0.023375,-0.050325,-0.0105875
1680013192866,1193181219087591,0.024475,-0.0473,-0.0086624995
1680013192867,1193181221589975,0.0284625,-0.045375,-0.0105875
1680013192869,1193181224091898,0.0284625,-0.0463375,-0.0086624995
1680013192872,1193181226593984,0.0334125,-0.0484,-0.0075625
1680013192873,1193181229095907,0.035475,-0.0463375,-0.0075625
1680013192876,1193181231597984,0.0385,-0.0444125,-0.0056375
1680013192879,1193181234099907,0.0413875,-0.045375,-0.004675
1680013192881,1193181236601984,0.0444125,-0.0444125,-0.00165
1680013192884,1193181239104215,0.043449998,-0.0444125,-0.00165
1680013192886,1193181241606061,0.0504625,-0.039325,-0.00165
1680013192890,1193181244108215,0.0523875,-0.045375,-0.0026125
1680013192892,1193181246610278,0.0534875,-0.0463375,-0.0026125
1680013192894,1193181249112201,0.0523875,-0.045375,-0.003575
1680013192896,1193181251614278,0.056375,-0.0493625,-0.0066
1680013192898,1193181254116432,0.0584375,-0.050325,-0.0075625
1680013192903,1193181256618374,0.0584375,-0.05335,-0.0086624995
1680013192904,1193181259120528,0.062425,-0.0523875,-0.009625
1680013192906,1193181261622605,0.062425,-0.05335,-0.0105875
1680013192909,1193181264124528,0.067375,-0.0603625,-0.014575
1680013192911,1193181266626605,0.0704,-0.06435,-0.0166375
1680013192914,1193181269128777,0.0724625,-0.0603625,-0.014575
1680013192916,1193181271630701,0.0754875,-0.06435,-0.014575
1680013192919,1193181274132777,0.07645,-0.06435,-0.015675
1680013192923,1193181276634931,0.079475,-0.0622875,-0.015675
1680013192924,1193181279136859,0.0834625,-0.0622875,-0.015675
1680013192926,1193181281638936,0.084425,-0.06435,-0.015675
1680013192930,1193181284141090,0.08745,-0.067375,-0.014575
1680013192932,1193181286643013,0.0924,-0.0664125,-0.014575
1680013192934,1193181289145090,0.095425,-0.0664125,-0.0116875
1680013192936,1193181291647004,0.0974875,-0.069299996,-0.0105875
1680013192940,1193181294149081,0.101475,-0.069299996,-0.01265
1680013192943,1193181296651235,0.104499996,-0.0683375,-0.0105875
1680013192945,1193181299153134,0.1084875,-0.069299996,-0.0105875
1680013192946,1193181301655288,0.1104125,-0.072325,-0.014575
1680013192949,1193181304157365,0.112475,-0.072325,-0.0116875
1680013192951,1193181306659288,0.1194875,-0.072325,-0.0116875
1680013192954,1193181309161365,0.122375,-0.07535,-0.0166375
1680013192956,1193181311663547,0.1214125,-0.0774125,-0.015675
1680013192959,1193181314165470,0.1254,-0.06435,-0.0166375
1680013192962,1193181316667547,0.1304875,-0.0653125,-0.0185625
1680013192964,1193181319169701,0.1375,-0.0763125,-0.0215875
1680013192967,1193181321671643,0.1434125,-0.0814,-0.0215875
1680013192970,1193181324173720,0.1464375,-0.083325,-0.0215875
1680013192972,1193181326675643,0.1544125,-0.083325,-0.0226875
1680013192974,1193181329177797,0.1584,-0.0814,-0.020624999
1680013192978,1193181331679950,0.1623875,-0.0823625,-0.020624999
1680013192980,1193181334181797,0.16445,-0.0853875,-0.02365
1680013192982,1193181336683950,0.1714625,-0.0823625,-0.025575
1680013192984,1193181339186027,0.172425,-0.08635,-0.025575
1680013192986,1193181341687950,0.17545,-0.0884125,-0.025575
1680013192989,1193181344190100,0.1824625,-0.0903375,-0.025575
1680013192992,1193181346692177,0.19139999,-0.0952875,-0.025575
1680013192994,1193181349194100,0.189475,-0.094325,-0.025575
1680013192996,1193181351696177,0.194425,-0.09735,-0.025575
1680013192999,1193181354198080,0.19745,-0.100375,-0.0286
1680013193002,1193181356700234,0.2024,-0.1023,-0.0325875
1680013193004,1193181359202311,0.205425,-0.10835,-0.0356125
1680013193006,1193181361704465,0.2063875,-0.1123375,-0.0386375
1680013193009,1193181364206369,0.211475,-0.113299996,-0.0446875
1680013193012,1193181366708446,0.2173875,-0.1172875,-0.0506
1680013193016,1193181369210600,0.2204125,-0.1203125,-0.0515625
1680013193018,1193181371712446,0.2244,-0.11935,-0.0556875
1680013193019,1193181374214600,0.2264625,-0.1172875,-0.059675
1680013193022,1193181376716754,0.23045,-0.113299996,-0.064625
1680013193023,1193181379218677,0.238425,-0.1093125,-0.0686125
1680013193026,1193181381720754,0.2424125,-0.111375,-0.069575
1680013193029,1193181384222677,0.24447499,-0.10835,-0.075625
1680013193032,1193181386724778,0.2503875,-0.1043625,-0.080575
1680013193035,1193181389226701,0.25245,-0.0963875,-0.0826375
1680013193037,1193181391729085,0.2574,-0.094325,-0.0845625
1680013193039,1193181394231009,0.2594625,-0.0983125,-0.0856625
1680013193041,1193181396733070,0.2594625,-0.09735,-0.092675
1680013193044,1193181399234994,0.266475,-0.0963875,-0.093637496
1680013193046,1193181401737070,0.2684,-0.0924,-0.097625
1680013193052,1193181404238994,0.2734875,-0.094325,-0.1016125
1680013193054,1193181406741142,0.27445,-0.0933625,-0.103675
1680013193055,1193181409243219,0.277475,-0.09735,-0.1065625
1680013193057,1193181411745373,0.2784375,-0.094325,-0.108625
1680013193059,1193181414247296,0.282425,-0.0963875,-0.1106875
1680013193062,1193181416749373,0.287375,-0.09735,-0.1106875
1680013193063,1193181419251311,0.287375,-0.0983125,-0.11165
1680013193067,1193181421753388,0.287375,-0.1013375,-0.114675
1680013193069,1193181424255619,0.2943875,-0.1034,-0.1126125
1680013193072,1193181426757696,0.29645,-0.105325,-0.1126125
1680013193073,1193181429259527,0.29947498,-0.113299996,-0.115637496
1680013193076,1193181431761681,0.3025,-0.1144,-0.114675
1680013193080,1193181434263604,0.3053875,-0.116325,-0.1205875
1680013193085,1193181436765658,0.309375,-0.1203125,-0.1266375
1680013193086,1193181439267581,0.310475,-0.127325,-0.1266375
1680013193087,1193181441769735,0.31239998,-0.1282875,-0.1285625
1680013193092,1193181444271889,0.3174875,-0.1254,-0.1326875
1680013193094,1193181446773735,0.320375,-0.1263625,-0.135575
1680013193095,1193181449454879,0.3224375,-0.1214125,-0.1395625
1680013193097,1193181451777956,0.3254625,-0.1183875,-0.1436875
1680013193099,1193181454279879,0.332475,-0.1214125,-0.1486375
1680013193102,1193181456782033,0.3364625,-0.1214125,-0.15565
1680013193104,1193181459284110,0.3383875,-0.1203125,-0.1596375
1680013193106,1193181461786033,0.342375,-0.1144,-0.1656875
1680013193109,1193181464288186,0.3454,-0.1104125,-0.1716
1680013193111,1193181466790263,0.348425,-0.111375,-0.1736625
1680013193114,1193181469292186,0.353375,-0.111375,-0.1766875
1680013193118,1193181471794282,0.3603875,-0.10835,-0.180675
1680013193119,1193181474296436,0.365475,-0.1073875,-0.18259999
1680013193122,1193181476798359,0.3634125,-0.105325,-0.1876875
1680013193124,1193181479300436,0.3674,-0.1073875,-0.1975875
1680013193128,1193181481802344,0.3685,-0.1093125,-0.1975875
1680013193130,1193181484304498,0.37345,-0.10835,-0.1945625
1680013193134,1193181486806575,0.3713875,-0.1144,-0.2055625
1680013193135,1193181489308498,0.3724875,-0.1153625,-0.2085875
1680013193137,1193181491810652,0.3713875,-0.1183875,-0.21065
1680013193139,1193181494312710,0.3694625,-0.127325,-0.2176625
1680013193142,1193181496814633,0.3694625,-0.133375,-0.22165
1680013193144,1193181499316787,0.370425,-0.14135,-0.2256375
1680013193146,1193181501818864,0.3724875,-0.14739999,-0.2305875
1680013193149,1193181504321042,0.370425,-0.1533125,-0.23265
1680013193153,1193181506822888,0.3713875,-0.1533125,-0.2376
1680013193154,1193181509325042,0.37345,-0.15235,-0.24365
1680013193156,1193181511826965,0.375375,-0.1593625,-0.2476375
1680013193159,1193181514329119,0.381425,-0.1694,-0.2556125
1680013193162,1193181516831196,0.3774375,-0.1764125,-0.2616625
1680013193166,1193181519333119,0.376475,-0.1764125,-0.2696375
1680013193167,1193181521835196,0.3795,-0.1753125,-0.2776125
1680013193170,1193181524337110,0.38445,-0.177375,-0.2866875
1680013193173,1193181526839264,0.3884375,-0.1783375,-0.2935625
1680013193175,1193181529341340,0.3933875,-0.1843875,-0.301675
1680013193176,1193181531843494,0.3964125,-0.1832875,-0.306625
1680013193179,1193181534345417,0.4024625,-0.18535,-0.3146
1680013193182,1193181536847513,0.40645,-0.188375,-0.322575
1680013193184,1193181539349436,0.4153875,-0.1923625,-0.3306875
1680013193187,1193181541851590,0.4214375,-0.188375,-0.339625
1680013193189,1193181544353436,0.4235,-0.1942875,-0.34265
1680013193191,1193181546855821,0.43147498,-0.2013,-0.350625
1680013193194,1193181549357744,0.4345,-0.21133749,-0.356675
1680013193196,1193181551859821,0.4384875,-0.2173875,-0.3625875
1680013193199,1193181554361744,0.4444,-0.21835,-0.3696
1680013193203,1193181556863802,0.4494875,-0.22935,-0.37565
1680013193205,1193181559365956,0.452375,-0.2413125,-0.3796375
1680013193207,1193181561867802,0.4565,-0.2464,-0.38665
1680013193210,1193181564370033,0.458425,-0.26235,-0.3925625
1680013193214,1193181566872105,0.4624125,-0.26633748,-0.4026
1680013193214,1193181569374028,0.4675,-0.2754125,-0.4126375
1680013193218,1193181571876105,0.4684625,-0.2893,-0.4175875
1680013193219,1193181574378028,0.4714875,-0.3014,-0.4255625
1680013193221,1193181576880105,0.4764375,-0.3223,-0.4346375
1680013193224,1193181579382341,0.4774,-0.3344,-0.4426125
1680013193226,1193181581884187,0.4813875,-0.35035,-0.45168748
1680013193229,1193181584386341,0.4824875,-0.3702875,-0.460625
1680013193232,1193181586888418,0.486475,-0.38334998,-0.4686
1680013193234,1193181589390341,0.4904625,-0.402325,-0.4786375
1680013193236,1193181591892418,0.4895,-0.41635,-0.487575
1680013193240,1193181594394341,0.4934875,-0.430375,-0.4976125
1680013193243,1193181596896725,0.497475,-0.4472875,-0.5066875
1680013193245,1193181599398638,0.4994,-0.4613125,-0.5165875
1680013193247,1193181601900715,0.5005,-0.474375,-0.5245625
1680013193250,1193181604402638,0.5044875,-0.485375,-0.5346
1680013193252,1193181606904715,0.508475,-0.496375,-0.5495875
1680013193254,1193181609406638,0.5124625,-0.507375,-0.55962497
1680013193256,1193181611908797,0.5115,-0.5143875,-0.570625
1680013193259,1193181614410874,0.519475,-0.5273125,-0.5806625
1680013193262,1193181616913028,0.5214,-0.5352875,-0.58959997
1680013193264,1193181619414951,0.5225,-0.540375,-0.603625
1680013193266,1193181621917058,0.5253875,-0.551375,-0.6155875
1680013193269,1193181624418981,0.5324,-0.5583875,-0.6246625
1680013193271,1193181626921135,0.53845,-0.5603125,-0.6345625
1680013193274,1193181629423212,0.540375,-0.567325,-0.6406125
1680013193278,1193181631925130,0.540375,-0.5743375,-0.6485875
1680013193280,1193181634427284,0.541475,-0.578325,-0.6546375
1680013193283,1193181636929361,0.5394125,-0.5803875,-0.6606875
1680013193284,1193181639431284,0.540375,-0.589325,-0.663575
1680013193287,1193181641933361,0.53845,-0.5902875,-0.6666
1680013193290,1193181644435500,0.541475,-0.595375,-0.6686625
1680013193292,1193181646937423,0.53845,-0.600325,-0.669625
1680013193294,1193181649439500,0.5363875,-0.600325,-0.669625
1680013193297,1193181651941423,0.5314375,-0.606375,-0.6675625
1680013193299,1193181654443577,0.530475,-0.6094,-0.6705875
1680013193302,1193181656945672,0.5284125,-0.6122875,-0.6666
1680013193304,1193181659447826,0.52442497,-0.6193,-0.6626125
1680013193307,1193181661949749,0.5223625,-0.6263125,-0.6626125
1680013193309,1193181664451826,0.518375,-0.62535,-0.6576625
1680013193314,1193181666953985,0.5124625,-0.6193,-0.652575
1680013193319,1193181669455908,0.5113625,-0.6193,-0.6516125
1680013193319,1193181671957985,0.5143875,-0.62535,-0.6546375
1680013193320,1193181674459908,0.5113625,-0.62535,-0.6546375
1680013193323,1193181676962067,0.50545,-0.6232875,-0.6546375
1680013193325,1193181679464144,0.5014625,-0.6193,-0.6565625
1680013193327,1193181681966067,0.49445,-0.617375,-0.6606875
1680013193330,1193181684468144,0.4904625,-0.61435,-0.663575
1680013193332,1193181686970298,0.4874375,-0.61036247,-0.6675625
1680013193334,1193181689472466,0.4874375,-0.600325,-0.6736125
1680013193336,1193181691974312,0.48235,-0.59235,-0.680625
1680013193339,1193181694476466,0.4813875,-0.58341247,-0.68365
1680013193342,1193181696978389,0.4813875,-0.5753,-0.685575
1680013193344,1193181699480466,0.474375,-0.55935,-0.686675
1680013193347,1193181701982635,0.4794625,-0.55233747,-0.6906625
1680013193349,1193181704484558,0.4813875,-0.540375,-0.691625
1680013193353,1193181706986635,0.4774,-0.5324,-0.69465
1680013193355,1193181709488789,0.4783625,-0.52635,-0.6956125
1680013193357,1193181711990635,0.4783625,-0.518375,-0.7016625
1680013193359,1193181714492789,0.47547498,-0.5113625,-0.702625
1680013193362,1193181716994942,0.47134998,-0.507375,-0.7046875
1680013193364,1193181719496865,0.4703875,-0.4994,-0.70867497
1680013193367,1193181721998951,0.46145,-0.4943125,-0.70661247
1680013193370,1193181724500874,0.4563625,-0.48633748,-0.7046875
1680013193373,1193181727003028,0.4514125,-0.485375,-0.702625
1680013193374,1193181729504874,0.4514125,-0.4833125,-0.7035875
1680013193376,1193181732007033,0.4453625,-0.4802875,-0.707575
1680013193379,1193181734509187,0.4444,-0.4763,-0.7106
1680013193382,1193181737011264,0.4373875,-0.4664,-0.70661247
1680013193387,1193181739513187,0.43147498,-0.4624125,-0.7046875
1680013193388,1193181742015255,0.42845,-0.4563625,-0.702625
1680013193391,1193181744517178,0.425425,-0.4503125,-0.7046875
1680013193393,1193181747019332,0.4244625,-0.4404125,-0.7046875
1680013193395,1193181749521409,0.4224,-0.4323,-0.7035875
1680013193397,1193181752023562,0.4184125,-0.4252875,-0.7046875
1680013193399,1193181754525485,0.408375,-0.4103,-0.7046875
1680013193402,1193181757027562,0.40645,-0.40535,-0.7005625
1680013193404,1193181759529485,0.4024625,-0.39435,-0.696575
1680013193407,1193181762031562,0.3964125,-0.38334998,-0.691625
1680013193410,1193181764533712,0.3894,-0.3773,-0.6906625
1680013193413,1193181767035635,0.38445,-0.3683625,-0.6886
1680013193415,1193181769537789,0.381425,-0.3603875,-0.686675
1680013193417,1193181772039866,0.376475,-0.3564,-0.6815875
1680013193419,1193181774541789,0.37345,-0.3513125,-0.680625
1680013193422,1193181777043885,0.3683625,-0.3463625,-0.675675
1680013193424,1193181779545808,0.36135,-0.33935,-0.67265
1680013193429,1193181782048192,0.3603875,-0.3323375,-0.6675625
1680013193430,1193181784550115,0.3554375,-0.3234,-0.658625
1680013193432,1193181787051971,0.35035,-0.320375,-0.653675
1680013193435,1193181789554124,0.348425,-0.3183125,-0.6516125
1680013193436,1193181792056201,0.3463625,-0.3194125,-0.65065
1680013193439,1193181794558124,0.3444375,-0.3183125,-0.64762497
1680013193442,1193181797060192,0.3364625,-0.3152875,-0.6466625
1680013193444,1193181799562346,0.32945,-0.3073125,-0.6406125
1680013193447,1193181802064500,0.3254625,-0.303325,-0.6356625
1680013193451,1193181804566423,0.3224375,-0.3042875,-0.6326375
1680013193452,1193181807068500,0.31735,-0.303325,-0.6276875
1680013193455,1193181809570423,0.310475,-0.298375,-0.62865
1680013193456,1193181812072500,0.30745,-0.29535,-0.6246625
1680013193459,1193181814574654,0.3084125,-0.29535,-0.6235625
1680013193462,1193181817076577,0.3014,-0.2904,-0.62067497
1680013193466,1193181819578663,0.29645,-0.2904,-0.62067497
1680013193468,1193181822080817,0.2943875,-0.2833875,-0.6166875
1680013193470,1193181824582740,0.2894375,-0.2743125,-0.6155875
1680013193472,1193181827084817,0.287375,-0.2693625,-0.6155875
1680013193474,1193181829586971,0.288475,-0.26235,-0.6155875
1680013193477,1193181832088875,0.287375,-0.2563,-0.6166875
1680013193479,1193181834590952,0.28435,-0.254375,-0.61765
1680013193485,1193181837092875,0.288475,-0.243375,-0.62067497
1680013193488,1193181839595039,0.28435,-0.2382875,-0.62067497
1680013193488,1193181842097116,0.28435,-0.232375,-0.619575
1680013193490,1193181844599039,0.2803625,-0.2253625,-0.62067497
1680013193493,1193181847101192,0.277475,-0.2193125,-0.61765
1680013193494,1193181849603269,0.27335,-0.215325,-0.6155875
1680013193497,1193181852105192,0.2693625,-0.20735,-0.609675
1680013193499,1193181854607254,0.2674375,-0.20735,-0.603625
1680013193503,1193181857109408,0.2613875,-0.2083125,-0.6015625
1680013193506,1193181859611331,0.2594625,-0.2024,-0.5946875
1680013193507,1193181862113485,0.254375,-0.2063875,-0.58465
1680013193509,1193181864615326,0.2464,-0.20735,-0.5786
1680013193512,1193181867117480,0.24447499,-0.20735,-0.57365
1680013193515,1193181869619557,0.2424125,-0.2123,-0.565675
1680013193517,1193181872121711,0.2363625,-0.2143625,-0.5575625
1680013193520,1193181874623663,0.233475,-0.2173875,-0.55165
1680013193522,1193181877125740,0.2363625,-0.2143625,-0.542575
1680013193524,1193181879627663,0.2344375,-0.21133749,-0.537625
1680013193526,1193181882129817,0.22935,-0.2083125,-0.5355625
1680013193530,1193181884631677,0.227425,-0.2063875,-0.5286875
1680013193533,1193181887133831,0.22247499,-0.2003375,-0.5245625
1680013193535,1193181889635985,0.22247499,-0.1973125,-0.5226375
1680013193537,1193181892138062,0.221375,-0.1863125,-0.520575
1680013193541,1193181894639976,0.2134,-0.1804,-0.51865
1680013193543,1193181897142053,0.2124375,-0.171325,-0.515625
1680013193546,1193181899644207,0.20845,-0.16335,-0.509575
1680013193547,1193181902146053,0.20845,-0.155375,-0.50765
1680013193550,1193181904648284,0.2024,-0.1502875,-0.504625
1680013193552,1193181907150360,0.1953875,-0.1403875,-0.504625
1680013193554,1193181909652284,0.1934625,-0.1293875,-0.5016
1680013193557,1193181912154360,0.189475,-0.116325,-0.499675
1680013193559,1193181914656284,0.1874125,-0.0994125,-0.49568748
1680013193563,1193181917158369,0.183425,-0.0963875,-0.4896375
1680013193564,1193181919660523,0.177375,-0.0853875,-0.488675
1680013193568,1193181922162446,0.17545,-0.0774125,-0.4846875
1680013193571,1193181924664600,0.172425,-0.069299996,-0.4805625
1680013193573,1193181927166668,0.1684375,-0.067375,-0.4805625
1680013193575,1193181929668591,0.16335,-0.06435,-0.4736875
1680013193581,1193181932170668,0.1623875,-0.0594,-0.4695625
1680013193582,1193181934672591,0.1584,-0.0512875,-0.4676375
1680013193584,1193181937174995,0.1574375,-0.050325,-0.465575
1680013193585,1193181939676918,0.1544125,-0.0484,-0.4596625
1680013193587,1193181942178995,0.1544125,-0.0463375,-0.4566375
1680013193589,1193181944680918,0.1513875,-0.04235,-0.4566375
1680013193592,1193181947182995,0.1513875,-0.0374,-0.4536125
1680013193594,1193181949684918,0.1494625,-0.0363,-0.4505875
1680013193597,1193181952187072,0.1494625,-0.0292875,-0.4456375
1680013193601,1193181954689149,0.150425,-0.028324999,-0.443575
1680013193602,1193181957191303,0.14739999,-0.0292875,-0.4466
1680013193604,1193181959693207,0.144375,-0.0273625,-0.4395875
1680013193607,1193181962195284,0.144375,-0.0213125,-0.4365625
1680013193610,1193181964697207,0.145475,-0.0182875,-0.43559998
1680013193613,1193181967199284,0.1464375,-0.0243375,-0.4316125
1680013193618,1193181969701413,0.1494625,-0.0193875,-0.4266625
1680013193619,1193181972203336,0.1494625,-0.0182875,-0.4246
1680013193621,1193181974705489,0.14739999,-0.0253,-0.4186875
1680013193624,1193181977207566,0.1513875,-0.028324999,-0.416625
1680013193625,1193181979709489,0.155375,-0.028324999,-0.410575
1680013193627,1193181982211561,0.1544125,-0.02035,-0.405625
1680013193629,1193181984713715,0.15345,-0.02035,-0.4035625
1680013193632,1193181987215638,0.155375,-0.0273625,-0.400675
1680013193635,1193181989717715,0.155375,-0.0264,-0.3925625
1680013193637,1193181992219638,0.155375,-0.0224125,-0.3856875
1680013193639,1193181994721792,0.1574375,-0.0253,-0.3845875
1680013193642,1193181997223869,0.1574375,-0.0243375,-0.3806
1680013193644,1193181999725792,0.1574375,-0.0243375,-0.3746875
1680013193647,1193182002227946,0.1584,-0.0253,-0.367675
1680013193651,1193182004730013,0.1574375,-0.0273625,-0.3606625
1680013193654,1193182007231936,0.1544125,-0.0292875,-0.356675
1680013193656,1193182009734013,0.1544125,-0.0292875,-0.350625
1680013193658,1193182012236167,0.156475,-0.028324999,-0.34265
1680013193659,1193182014738090,0.1584,-0.0273625,-0.3375625
1680013193662,1193182017240235,0.1544125,-0.028324999,-0.33261248
1680013193665,1193182019742312,0.155375,-0.0273625,-0.3216125
1680013193667,1193182022244235,0.1544125,-0.0224125,-0.3106125
1680013193669,1193182024746312,0.155375,-0.0213125,-0.3045625
1680013193672,1193182027248235,0.1584,-0.0213125,-0.2976875
1680013193674,1193182029750312,0.156475,-0.0224125,-0.29067498
1680013193677,1193182032252543,0.155375,-0.0213125,-0.2836625
1680013193680,1193182034754619,0.15235,-0.02035,-0.2745875
1680013193683,1193182037256547,0.15235,-0.0253,-0.2726625
1680013193685,1193182039758623,0.15345,-0.0253,-0.2646875
1680013193687,1193182042260547,0.1494625,-0.0264,-0.2556125
1680013193692,1193182044762700,0.1464375,-0.028324999,-0.2506625
1680013193696,1193182047263579,0.145475,-0.0323125,-0.24365
1680013193696,1193182049764504,0.145475,-0.0323125,-0.2385625
1680013193697,1193182052268811,0.1434125,-0.034375,-0.2336125
1680013193699,1193182054770888,0.1384625,-0.0383625,-0.2286625
1680013193702,1193182057272782,0.1373625,-0.039325,-0.2206875
1680013193705,1193182059774936,0.1364,-0.0413875,-0.2176625
1680013193707,1193182062277013,0.1364,-0.04235,-0.2085875
1680013193709,1193182064778936,0.1354375,-0.0493625,-0.201575
1680013193712,1193182067281013,0.1293875,-0.0473,-0.1986875
1680013193715,1193182069782927,0.1293875,-0.050325,-0.1936
1680013193719,1193182072285081,0.1274625,-0.0493625,-0.19167499
1680013193722,1193182074787235,0.134475,-0.0484,-0.1865875
1680013193724,1193182077289312,0.1293875,-0.0463375,-0.1846625
1680013193725,1193182079791249,0.1254,-0.0484,-0.185625
1680013193729,1193182082293326,0.128425,-0.045375,-0.1816375
1680013193732,1193182084795249,0.1274625,-0.039325,-0.1786125
1680013193734,1193182087297403,0.128425,-0.0353375,-0.1766875
1680013193736,1193182089799254,0.1254,-0.0353375,-0.1766875
1680013193738,1193182092301639,0.1263625,-0.03135,-0.1755875
1680013193740,1193182094803562,0.128425,-0.0273625,-0.1736625
1680013193743,1193182097305639,0.13035,-0.0273625,-0.1755875
1680013193744,1193182099807562,0.13145,-0.0224125,-0.1725625
1680013193747,1193182102309620,0.128425,-0.0213125,-0.1716
1680013193750,1193182104811543,0.1293875,-0.0253,-0.1716
1680013193753,1193182107313696,0.1274625,-0.0224125,-0.1706375
1680013193755,1193182109815850,0.1274625,-0.017324999,-0.1676125
1680013193757,1193182112317912,0.1214125,-0.0253,-0.16665
1680013193760,1193182114819835,0.123475,-0.0224125,-0.1606
1680013193763,1193182117321912,0.123475,-0.0182875,-0.1566125
1680013193766,1193182119823835,0.122375,-0.0163625,-0.1546875
1680013193768,1193182122325912,0.1214125,-0.017324999,-0.1496
1680013193771,1193182124828143,0.122375,-0.0143,-0.1425875
1680013193773,1193182127329989,0.1214125,-0.0114124995,-0.1376375
1680013193775,1193182129832143,0.1183875,-0.0114124995,-0.1326875
1680013193777,1193182132334220,0.11935,-0.0072875,-0.1276
1680013193780,1193182134836162,0.117425,-0.0033,-0.1236125
1680013193782,1193182137338239,0.113437496,0.0037125,-0.1186625
1680013193785,1193182139840393,0.111375,0.004675,-0.115637496
1680013193787,1193182142342316,0.1144,0.0077,-0.1126125
1680013193789,1193182144844470,0.117425,0.015675,-0.1076625
1680013193792,1193182147346582,0.1144,0.020624999,-0.103675
1680013193795,1193182149848505,0.113437496,0.0286,-0.103675
1680013193797,1193182152350582,0.113437496,0.0325875,-0.0996875
1680013193800,1193182154852736,0.10945,0.036575,-0.0955625
1680013193804,1193182157354668,0.111375,0.042625,-0.0955625
1680013193805,1193182159856745,0.1123375,0.0506,-0.092675
1680013193807,1193182162358898,0.1104125,0.0517,-0.093637496
1680013193810,1193182164860745,0.1073875,0.056649998,-0.093637496
1680013193813,1193182167362898,0.1104125,0.0616,-0.093637496
1680013193815,1193182169864822,0.1144,0.0716375,-0.0955625
1680013193817,1193182172366975,0.1144,0.081675,-0.097625
1680013193820,1193182174869052,0.111375,0.0856625,-0.0946
1680013193823,1193182177370990,0.111375,0.0946,-0.097625
1680013193824,1193182179873067,0.11935,0.102575,-0.0996875
1680013193827,1193182182375221,0.1164625,0.115637496,-0.1016125
1680013193830,1193182184877067,0.1164625,0.1236125,-0.1056
1680013193832,1193182187379279,0.1183875,0.13859999,-0.1065625
1680013193835,1193182189881356,0.113437496,0.146575,-0.108625
1680013193837,1193182192383279,0.113437496,0.15565,-0.11165
1680013193841,1193182194885356,0.1164625,0.16665,-0.1126125
1680013193844,1193182197387278,0.11935,0.1755875,-0.1126125
1680013193846,1193182199889432,0.1214125,0.1876875,-0.1166
1680013193847,1193182202391509,0.122375,0.196625,-0.12265
1680013193853,1193182204893663,0.1263625,0.2046,-0.1236125
1680013193853,1193182207395577,0.1293875,0.2156,-0.1266375
1680013193855,1193182209897654,0.13145,0.2226125,-0.124575
1680013193857,1193182212399577,0.1343375,0.2277,-0.1236125
1680013193860,1193182214901654,0.1373625,0.2316875,-0.12265
1680013193862,1193182217403577,0.14135,0.2366375,-0.1205875
1680013193864,1193182219905986,0.14245,0.23567499,-0.124575
1680013193868,1193182222407832,0.14533749,0.2376,-0.1236125
1680013193870,1193182224909986,0.1464375,0.2396625,-0.1186625
1680013193873,1193182227411909,0.1494625,0.2387,-0.1166
1680013193875,1193182229914005,0.155375,0.234575,-0.11165
1680013193879,1193182232415928,0.1574375,0.23567499,-0.1095875
1680013193881,1193182234918005,0.1593625,0.23567499,-0.103675
1680013193884,1193182237420235,0.16335,0.23265,-0.0985875
1680013193885,1193182239922345,0.16733749,0.223575,-0.0946
1680013193888,1193182242424268,0.1733875,0.22165,-0.092675
1680013193891,1193182244926345,0.1783375,0.2195875,-0.086625
1680013193893,1193182247428268,0.1843875,0.212575,-0.0845625
1680013193895,1193182249930408,0.188375,0.201575,-0.0845625
1680013193897,1193182252432485,0.1934625,0.1926375,-0.081675
1680013193900,1193182254934408,0.19635,0.1837,-0.07865
1680013193903,1193182257436485,0.2033625,0.1755875,-0.07865
1680013193905,1193182259938408,0.210375,0.16665,-0.0826375
1680013193909,1193182262440571,0.2124375,0.1596375,-0.07865
1680013193910,1193182264942648,0.21835,0.1496,-0.080575
1680013193913,1193182267444802,0.2244,0.1406625,-0.0845625
1680013193918,1193182269946754,0.2283875,0.1406625,-0.0856625
1680013193919,1193182272448831,0.2344375,0.1315875,-0.086625
1680013193921,1193182274950754,0.2374625,0.12265,-0.0906125
1680013193924,1193182277452908,0.2424125,0.1166,-0.092675
1680013193925,1193182279954985,0.249425,0.1106875,-0.097625
1680013193927,1193182282456908,0.254375,0.11165,-0.102575
1680013193930,1193182284959062,0.2574,0.104637496,-0.1095875
1680013193934,1193182287461139,0.26235,0.103675,-0.115637496
1680013193935,1193182289963062,0.2674375,0.103675,-0.119625
1680013193938,1193182292465139,0.2704625,0.1016125,-0.1266375
1680013193944,1193182294967292,0.276375,0.1056,-0.13365
1680013193945,1193182297469226,0.2784375,0.1056,-0.141625
1680013193945,1193182299971302,0.2864125,0.1076625,-0.1496
1680013193947,1193182302473226,0.2913625,0.114675,-0.1546875
1680013193950,1193182304975379,0.29645,0.119625,-0.1606
1680013193954,1193182307477461,0.3014,0.1236125,-0.1656875
1680013193956,1193182309979615,0.3084125,0.1296625,-0.169675
1680013193957,1193182312481538,0.3114375,0.130625,-0.1766875
1680013193959,1193182314983615,0.3194125,0.13859999,-0.174625
1680013193963,1193182317485769,0.3213375,0.1397,-0.1736625
1680013193965,1193182319987614,0.326425,0.13859999,-0.1755875
1680013193969,1193182322489768,0.32835,0.1425875,-0.1755875
1680013193970,1193182324991691,0.32945,0.1456125,-0.1725625
1680013193973,1193182327493845,0.32945,0.146575,-0.169675
1680013193975,1193182329995922,0.3344,0.1436875,-0.1645875
1680013193978,1193182332497845,0.34045,0.1436875,-0.1596375
1680013193980,1193182334999922,0.3433375,0.14465,-0.1566125
1680013193983,1193182337501845,0.342375,0.1397,-0.1535875
1680013193984,1193182340003922,0.3463625,0.1406625,-0.1456125
1680013193987,1193182342506173,0.3493875,0.1456125,-0.1406625
1680013193991,1193182345008250,0.3493875,0.13859999,-0.135575
1680013193994,1193182347510173,0.35035,0.135575,-0.1315875
1680013193996,1193182350012245,0.35035,0.1326875,-0.1285625
1680013193998,1193182352514168,0.353375,0.130625,-0.124575
1680013194001,1193182355016322,0.3524125,0.125675,-0.1216875
1680013194003,1193182357518168,0.35433748,0.119625,-0.1205875
1680013194004,1193182360020552,0.3524125,0.1106875,-0.1166
1680013194007,1193182362522489,0.3524125,0.1016125,-0.115637496
1680013194012,1193182365024566,0.35433748,0.095699996,-0.1166
1680013194013,1193182367526489,0.3573625,0.086625,-0.1126125
1680013194015,1193182370028566,0.3554375,0.080575,-0.11165
1680013194018,1193182372530475,0.3524125,0.0726,-0.1106875
1680013194020,1193182375032629,0.35433748,0.064625,-0.1106875
1680013194023,1193182377534706,0.353375,0.0616,-0.1126125
1680013194025,1193182380036860,0.35433748,0.0545875,-0.11165
1680013194031,1193182382538807,0.359425,0.045649998,-0.115637496
1680013194032,1193182385040884,0.3584625,0.0396,-0.115637496
1680013194033,1193182387542807,0.353375,0.0407,-0.1186625
1680013194035,1193182390044961,0.3554375,0.0407,-0.1205875
1680013194038,1193182392547115,0.3584625,0.0407,-0.1236125
1680013194040,1193182395048976,0.3584625,0.0396,-0.124575
1680013194043,1193182397551130,0.3564,0.0407,-0.1315875
1680013194045,1193182400053207,0.3564,0.0446875,-0.1326875
1680013194047,1193182402555130,0.35433748,0.0506,-0.136675
1680013194051,1193182405057202,0.35433748,0.0545875,-0.1406625
1680013194053,1193182407559356,0.3554375,0.0616,-0.1456125
1680013194054,1193182410061279,0.3564,0.06765,-0.147675
1680013194057,1193182412563433,0.3564,0.0716375,-0.147675
1680013194060,1193182415065279,0.35433748,0.075625,-0.1505625
1680013194063,1193182417567438,0.3524125,0.0796125,-0.1516625
1680013194067,1193182420069515,0.3493875,0.0856625,-0.1546875
1680013194068,1193182422571668,0.3524125,0.0906125,-0.157575
1680013194070,1193182425073592,0.3524125,0.097625,-0.1606
1680013194073,1193182427575663,0.35035,0.1016125,-0.1596375
1680013194074,1193182430077587,0.3463625,0.103675,-0.158675
1680013194077,1193182432579740,0.348425,0.1076625,-0.158675
1680013194080,1193182435081817,0.3454,0.1106875,-0.1615625
1680013194084,1193182437583730,0.3444375,0.113575,-0.1656875
1680013194085,1193182440085884,0.3454,0.114675,-0.163625
1680013194088,1193182442587961,0.348425,0.113575,-0.16665
1680013194090,1193182445089884,0.3454,0.113575,-0.1656875
1680013194093,1193182447591956,0.3433375,0.11165,-0.1676125
1680013194095,1193182450094110,0.33935,0.114675,-0.169675
1680013194097,1193182452596033,0.337425,0.114675,-0.16665
1680013194101,1193182455098187,0.3364625,0.1126125,-0.1615625
1680013194104,1193182457600033,0.3323375,0.1076625,-0.1645875
1680013194106,1193182460102187,0.3273875,0.0985875,-0.1615625
1680013194108,1193182462604264,0.32835,0.0875875,-0.163625
1680013194110,1193182465106418,0.3304125,0.080575,-0.1606
1680013194112,1193182467608341,0.3304125,0.069575,-0.1546875
1680013194115,1193182470110404,0.32835,0.0576125,-0.1546875
1680013194119,1193182472612558,0.32835,0.0526625,-0.1535875
1680013194121,1193182475114481,0.3304125,0.0386375,-0.1516625
1680013194123,1193182477616327,0.3304125,0.0196625,-0.1486375
1680013194124,1193182480118712,0.3304125,0.0105875,-0.1456125
1680013194128,1193182482620635,0.3304125,-0.0044,-0.1456125
1680013194131,1193182485122712,0.326425,-0.0224125,-0.13859999
1680013194133,1193182487624635,0.3243625,-0.03135,-0.1346125
1680013194135,1193182490126696,0.3234,-0.0484,-0.1285625
1680013194137,1193182492628849,0.3213375,-0.069299996,-0.124575
1680013194141,1193182495130696,0.3133625,-0.08635,-0.1166
1680013194144,1193182497632926,0.3114375,-0.100375,-0.1065625
1680013194146,1193182500135008,0.31033748,-0.1183875,-0.1016125
1680013194147,1193182502636931,0.3014,-0.1343375,-0.0955625
1680013194150,1193182505139008,0.293425,-0.1483625,-0.086625
1680013194153,1193182507640931,0.2904,-0.1643125,-0.0776875
1680013194156,1193182510142966,0.2833875,-0.1793,-0.069575
1680013194157,1193182512645197,0.2794,-0.194425,-0.0616
1680013194160,1193182515147043,0.27335,-0.210375,-0.053625
1680013194163,1193182517649197,0.265375,-0.21835,-0.0446875
1680013194165,1193182520151274,0.260425,-0.2363625,-0.0396
1680013194168,1193182522653202,0.254375,-0.2473625,-0.0276375
1680013194171,1193182525155279,0.2534125,-0.2574,-0.0176
1680013194174,1193182527657202,0.2454375,-0.265375,-0.01265
1680013194175,1193182530159587,0.24145,-0.271425,-0.0075625
1680013194179,1193182532661418,0.23539999,-0.276375,-0.003575
1680013194182,1193182535163572,0.227425,-0.2893,0.001375
1680013194185,1193182537665495,0.2223375,-0.292325,0.006325
1680013194185,1193182540167572,0.21945,-0.2893,0.0133375
1680013194188,1193182542669495,0.2134,-0.293425,0.0133375
1680013194190,1193182545171663,0.2063875,-0.29741248,0.0154
1680013194193,1193182547673740,0.2014375,-0.2943875,0.0224125
1680013194195,1193182550175893,0.19635,-0.2943875,0.0254375
1680013194197,1193182552677740,0.1934625,-0.292325,0.0273625
1680013194200,1193182555179893,0.18933749,-0.28435,0.028324999
1680013194203,1193182557681803,0.1874125,-0.2833875,0.03135
1680013194205,1193182560183879,0.183425,-0.2754125,0.029424999
1680013194207,1193182562686033,0.1824625,-0.2684,0.0303875
1680013194211,1193182565187946,0.1794375,-0.259325,0.0303875
1680013194213,1193182567690100,0.177375,-0.2443375,0.029424999
1680013194217,1193182570192177,0.1783375,-0.2363625,0.029424999
1680013194218,1193182572694023,0.17545,-0.2244,0.0273625
1680013194221,1193182575196168,0.172425,-0.2143625,0.0254375
1680013194224,1193182577698322,0.1733875,-0.2003375,0.0243375
1680013194225,1193182580200245,0.1703625,-0.188375,0.023375
1680013194227,1193182582702322,0.16335,-0.1753125,0.0213125
1680013194231,1193182585204245,0.16733749,-0.160325,0.0154
1680013194233,1193182587706375,0.161425,-0.1483625,0.0163625
1680013194235,1193182590208452,0.1574375,-0.1353,0.0144375
1680013194237,1193182592710606,0.1563375,-0.1214125,0.0154
1680013194240,1193182595212529,0.1574375,-0.1073875,0.0133375
1680013194243,1193182597714611,0.15345,-0.094325,0.0133375
1680013194245,1193182600216534,0.150425,-0.0793375,0.0144375
1680013194248,1193182602718611,0.1494625,-0.0633875,0.017324999
1680013194255,1193182605220510,0.14533749,-0.050325,0.0243375
1680013194256,1193182607722664,0.14533749,-0.04235,0.0273625
1680013194257,1193182610224818,0.150425,-0.0334125,0.03135
1680013194259,1193182612726895,0.150425,-0.0264,0.0334125
1680013194262,1193182615228818,0.14739999,-0.0143,0.0374
1680013194263,1193182617730880,0.1494625,-0.0133375,0.0413875
1680013194265,1193182620232803,0.15235,-0.0053625,0.0463375
1680013194267,1193182622734880,0.1513875,-0.0023375,0.0493625
1680013194270,1193182625237110,0.150425,0.0026125,0.0543125
1680013194272,1193182627739192,0.15345,0.003575,0.056375
1680013194275,1193182630241115,0.1544125,0.0056375,0.062425
1680013194277,1193182632742961,0.1544125,0.0077,0.0694375
1680013194280,1193182635245346,0.155375,0.0077,0.073425
1680013194283,1193182637747269,0.1544125,0.0116875,0.0763125
1680013194285,1193182640249351,0.15345,0.009625,0.083325
1680013194288,1193182642751274,0.1513875,0.0077,0.0853875
1680013194293,1193182645253351,0.1513875,0.0077,0.0884125
1680013194295,1193182650255269,0.1494625,0.0077,0.0903375
1680013194297,1193182650352808,0.1494625,0.003575,0.0884125
1680013194298,1193182652759577,0.14533749,-4.125E-4,0.0903375
1680013194301,1193182655261654,0.144375,-0.0033,0.0903375
1680013194303,1193182657763577,0.14135,-0.0103124995,0.089375
1680013194305,1193182660265654,0.1403875,-0.012375,0.0853875
1680013194308,1193182662767577,0.1403875,-0.0154,0.0804375
1680013194310,1193182665269654,0.1384625,-0.0193875,0.078375
1680013194313,1193182667771808,0.1384625,-0.0224125,0.0774125
1680013194316,1193182670273726,0.1343375,-0.028324999,0.073425
1680013194319,1193182672775880,0.13035,-0.0323125,0.073425
1680013194320,1193182675277957,0.13145,-0.0363,0.0704
1680013194323,1193182677779923,0.13035,-0.0383625,0.0653125
1680013194325,1193182680282000,0.1293875,-0.045375,0.0633875
1680013194330,1193182682783923,0.128425,-0.0473,0.061325
1680013194334,1193182685286077,0.1263625,-0.0463375,0.062425
1680013194335,1193182687788153,0.1254,-0.0523875,0.0584375
1680013194337,1193182690290077,0.1214125,-0.0554125,0.0543125
1680013194338,1193182692792230,0.1183875,-0.0633875,0.0543125
1680013194340,1193182695294307,0.12045,-0.0653125,0.0573375
1680013194343,1193182697796230,0.1164625,-0.069299996,0.0594
1680013194345,1193182700298403,0.117425,-0.072325,0.061325
1680013194348,1193182702800480,0.1104125,-0.078375,0.0584375
1680013194352,1193182705302634,0.10945,-0.0793375,0.0584375
1680013194353,1193182707804480,0.10945,-0.0823625,0.0594
1680013194355,1193182710306615,0.102437496,-0.091299996,0.061325
1680013194358,1193182712808538,0.0944625,-0.09735,0.06435
1680013194360,1193182715310692,0.089375,-0.0994125,0.0653125
1680013194363,1193182717812769,0.084425,-0.1023,0.06435
1680013194367,1193182720314678,0.078375,-0.10835,0.0633875
1680013194368,1193182722816755,0.0704,-0.1093125,0.06435
1680013194371,1193182725318678,0.0664125,-0.1153625,0.061325
1680013194374,1193182727820755,0.0614625,-0.117425,0.062425
1680013194376,1193182730322909,0.051425,-0.1214125,0.0633875
1680013194378,1193182732825048,0.0444125,-0.1263625,0.061325
1680013194380,1193182735326971,0.043449998,-0.1263625,0.062425
1680013194385,1193182737829048,0.0383625,-0.128425,0.0633875
1680013194386,1193182740330971,0.0273625,-0.1313125,0.062425
1680013194388,1193182742833072,0.023375,-0.1343375,0.06435
1680013194390,1193182745334995,0.0154,-0.133375,0.06435
1680013194393,1193182747837379,0.007425,-0.1343375,0.0653125
1680013194395,1193182750339302,4.125E-4,-0.1324125,0.067375
1680013194398,1193182752841403,-0.0086624995,-0.1263625,0.072325
1680013194400,1193182755343326,-0.014575,-0.1263625,0.0743875
1680013194404,1193182757845403,-0.0246125,-0.1263625,0.0743875
1680013194406,1193182760347326,-0.0306625,-0.1243,0.0793375
1680013194408,1193182762849403,-0.0405625,-0.1153625,0.0814
1680013194411,1193182765351533,-0.0485375,-0.111375,0.0814
1680013194413,1193182767853687,-0.056649998,-0.1104125,0.0823625
1680013194415,1193182770355610,-0.06655,-0.1013375,0.0853875
1680013194419,1193182772857721,-0.075625,-0.100375,0.089375
1680013194420,1193182775359644,-0.0815375,-0.09735,0.0924
1680013194423,1193182777861721,-0.093637496,-0.091299996,0.094325
1680013194426,1193182780363875,-0.0946,-0.0853875,0.09735
1680013194428,1193182782865798,-0.1016125,-0.078375,0.100375
1680013194431,1193182785367889,-0.11055,-0.0774125,0.105325
1680013194433,1193182787870043,-0.1126125,-0.0774125,0.106425
1680013194436,1193182790371966,-0.119625,-0.0683375,0.106425
1680013194438,1193182792874043,-0.124575,-0.0664125,0.1104125
1680013194442,1193182795376192,-0.1296625,-0.0633875,0.1123375
1680013194445,1193182797878115,-0.1346125,-0.062425,0.111375
1680013194446,1193182800380269,-0.1395625,-0.061325,0.1153625
1680013194448,1193182802882115,-0.14355,-0.0594,0.11935
1680013194452,1193182805384255,-0.1496,-0.0573375,0.11935
1680013194454,1193182807886332,-0.15455,-0.0523875,0.1203125
1680013194456,1193182810388255,-0.1606,-0.05335,0.1214125
1680013194458,1193182812890409,-0.1626625,-0.05335,0.1214125
1680013194460,1193182815392485,-0.1645875,-0.0543125,0.1214125
1680013194464,1193182817894394,-0.1706375,-0.05335,0.1233375
1680013194467,1193182820396470,-0.1716,-0.0573375,0.1254
1680013194467,1193182822898394,-0.174625,-0.0594,0.1263625
1680013194470,1193182825400547,-0.18053749,-0.062425,0.124437496
1680013194473,1193182827902701,-0.1835625,-0.0664125,0.127325
1680013194475,1193182830404788,-0.185625,-0.0704,0.1293875
1680013194479,1193182832906711,-0.18865,-0.0743875,0.1313125
1680013194481,1193182835408788,-0.1926375,-0.084425,0.1354375
1680013194484,1193182837910956,-0.1956625,-0.08635,0.1364
1680013194486,1193182840412879,-0.196625,-0.08635,0.1434125
1680013194488,1193182842915033,-0.2006125,-0.095425,0.1434125
1680013194491,1193182845416879,-0.20253749,-0.1034,0.1464375
1680013194494,1193182847919014,-0.2085875,-0.1093125,0.15235
1680013194495,1193182850421091,-0.2055625,-0.1123375,0.1544125
1680013194498,1193182852923014,-0.2066625,-0.11935,0.155375
1680013194500,1193182855425168,-0.2085875,-0.1243,0.161425
1680013194503,1193182857927245,-0.21065,-0.127325,0.16335
1680013194505,1193182860429182,-0.2135375,-0.1293875,0.1654125
1680013194508,1193182862931336,-0.2135375,-0.1313125,0.1703625
1680013194510,1193182865433182,-0.2176625,-0.1364,0.1684375
1680013194513,1193182867935336,-0.2176625,-0.1364,0.166375
1680013194517,1193182870437486,-0.2195875,-0.1403875,0.166375
1680013194519,1193182872939563,-0.22165,-0.1434125,0.1694
1680013194523,1193182875441486,-0.2226125,-0.14135,0.172425
1680013194525,1193182877943563,-0.2256375,-0.14135,0.1654125
1680013194526,1193182880445716,-0.2275625,-0.144375,0.1643125
1680013194528,1193182882947572,-0.2305875,-0.1434125,0.16335
1680013194531,1193182885449725,-0.23265,-0.14533749,0.1623875
1680013194534,1193182887951879,-0.2336125,-0.14533749,0.1563375
1680013194536,1193182890453802,-0.23265,-0.144375,0.15235
1680013194538,1193182892955894,-0.2355375,-0.1483625,0.14533749
1680013194540,1193182895457817,-0.2366375,-0.1483625,0.1434125
1680013194543,1193182897959894,-0.2385625,-0.1483625,0.138325
1680013194545,1193182900462048,-0.2415875,-0.150425,0.1324125
1680013194548,1193182902963990,-0.2385625,-0.1513875,0.128425
1680013194550,1193182905466144,-0.240625,-0.1533125,0.122375
1680013194555,1193182907968221,-0.2446125,-0.1584,0.11935
1680013194556,1193182910470144,-0.24365,-0.1584,0.113437496
1680013194558,1193182912972206,-0.245575,-0.1573,0.1104125
1680013194561,1193182915474129,-0.24653749,-0.1573,0.1073875
1680013194564,1193182917976514,-0.2495625,-0.1573,0.100375
1680013194572,1193182920478360,-0.251625,-0.1533125,0.0994125
1680013194572,1193182922980514,-0.2525875,-0.149325,0.0963875
1680013194572,1193182925482409,-0.25355,-0.15235,0.094325
1680013194574,1193182927984486,-0.2586375,-0.149325,0.091437496
1680013194576,1193182930486409,-0.25959998,-0.1483625,0.089375
1680013194578,1193182932988486,-0.25959998,-0.14533749,0.0873125
1680013194580,1193182935490664,-0.2586375,-0.1403875,0.083325
1680013194583,1193182937992817,-0.25753748,-0.138325,0.083325
1680013194585,1193182940494741,-0.2605625,-0.1364,0.083325
1680013194587,1193182942996807,-0.2616625,-0.133375,0.0823625
1680013194592,1193182945498731,-0.262625,-0.128425,0.0823625
1680013194594,1193182948000807,-0.2605625,-0.1293875,0.0804375
1680013194596,1193182950502961,-0.262625,-0.1293875,0.0823625
1680013194598,1193182953004884,-0.2616625,-0.1254,0.0804375
1680013194601,1193182955507043,-0.2635875,-0.122375,0.0763125
1680013194603,1193182958009120,-0.2616625,-0.1203125,0.0793375
1680013194605,1193182960511043,-0.2616625,-0.122375,0.0804375
1680013194607,1193182963013120,-0.2586375,-0.1214125,0.0804375
1680013194612,1193182965515028,-0.2556125,-0.1153625,0.0804375
1680013194613,1193182968017182,-0.2556125,-0.1144,0.0814
1680013194615,1193182970519259,-0.25465,-0.113299996,0.078375
1680013194618,1193182973021182,-0.2495625,-0.113299996,0.0763125
1680013194621,1193182975523336,-0.24653749,-0.117425,0.0774125
1680013194623,1193182978025413,-0.24365,-0.1104125,0.0743875
1680013194625,1193182980527336,-0.24255,-0.1104125,0.072325
1680013194629,1193182983029490,-0.240625,-0.1093125,0.0704
1680013194632,1193182985531567,-0.234575,-0.1123375,0.0664125
1680013194635,1193182988033495,-0.229625,-0.113299996,0.0664125
1680013194636,1193182990535572,-0.2286625,-0.10835,0.0664125
1680013194637,1193182993037726,-0.22165,-0.1104125,0.06435
1680013194642,1193182995539649,-0.212575,-0.111375,0.062425
1680013194643,1193182998041726,-0.21065,-0.117425,0.0594
1680013194645,1193183000543870,-0.2036375,-0.1144,0.0543125
1680013194648,1193183003045793,-0.201575,-0.117425,0.0523875
1680013194653,1193183005547870,-0.1926375,-0.1203125,0.0543125
1680013194655,1193183008049793,-0.1865875,-0.11935,0.0493625
1680013194656,1193183010551827,-0.1835625,-0.1243,0.0444125
1680013194658,1193183013053980,-0.179575,-0.122375,0.0444125
1680013194662,1193183015556134,-0.1716,-0.1243,0.0444125
1680013194663,1193183018057980,-0.163625,-0.127325,0.04235
1680013194668,1193183020559893,-0.1615625,-0.127325,0.0413875
1680013194668,1193183023062047,-0.152625,-0.133375,0.04235
1680013194671,1193183025564201,-0.146575,-0.1353,0.039325
1680013194673,1193183028066278,-0.1406625,-0.1364,0.039325
1680013194675,1193183030568201,-0.13653749,-0.1373625,0.0374
1680013194678,1193183033070245,-0.1296625,-0.14135,0.039325
1680013194681,1193183035572399,-0.124575,-0.14533749,0.0374
1680013194684,1193183038074245,-0.1205875,-0.14739999,0.0323125
1680013194685,1193183040576476,-0.1126125,-0.14739999,0.0364375
1680013194688,1193183043078548,-0.1095875,-0.150425,0.0364375
1680013194691,1193183045580471,-0.1076625,-0.15235,0.0374
1680013194693,1193183048082548,-0.1016125,-0.1623875,0.0364375
1680013194695,1193183050584471,-0.0966625,-0.1643125,0.0334125
1680013194698,1193183053086548,-0.08965,-0.1683,0.03135
1680013194702,1193183055588476,-0.0845625,-0.1783375,0.028324999
1680013194704,1193183058090861,-0.07755,-0.18535,0.0254375
1680013194706,1193183060592784,-0.0746625,-0.1923625,0.02035
1680013194708,1193183063094861,-0.0716375,-0.194425,0.017324999
1680013194712,1193183065596793,-0.06655,-0.2033625,0.0154
1680013194713,1193183068098870,-0.06655,-0.2024,0.0114124995
1680013194715,1193183070600793,-0.0616,-0.21133749,0.006325
1680013194719,1193183073103177,-0.0595375,-0.2143625,0.001375
1680013194722,1193183075605033,-0.0545875,-0.21835,-0.003575
1680013194723,1193183078107187,-0.0506,-0.2204125,-0.0086624995
1680013194725,1193183080609110,-0.045649998,-0.2244,-0.015675
1680013194728,1193183083111187,-0.042625,-0.221375,-0.0176
1680013194731,1193183085613110,-0.042625,-0.22935,-0.0215875
1680013194733,1193183088115187,-0.0386375,-0.226325,-0.025575
1680013194735,1193183090617418,-0.0356125,-0.2244,-0.0336875
1680013194738,1193183093119264,-0.034649998,-0.2244,-0.036575
1680013194745,1193183095621403,-0.0306625,-0.21835,-0.0386375
1680013194745,1193183098123480,-0.025575,-0.2204125,-0.0416625
1680013194746,1193183100625403,-0.0246125,-0.215325,-0.047575
1680013194750,1193183103127480,-0.020624999,-0.2143625,-0.048675
1680013194752,1193183105629634,-0.020624999,-0.210375,-0.0496375
1680013194753,1193183108131557,-0.0176,-0.21133749,-0.0496375
1680013194756,1193183110633673,-0.0185625,-0.204325,-0.0506
1680013194758,1193183113135519,-0.0155375,-0.2033625,-0.0496375
1680013194763,1193183115637673,-0.014575,-0.199375,-0.0496375
1680013194764,1193183118139750,-0.013612499,-0.1984125,-0.0506
1680013194766,1193183120641682,-0.0105875,-0.2013,-0.0496375
1680013194769,1193183123143836,-0.0086624995,-0.1973125,-0.0496375
1680013194772,1193183125645913,-0.009625,-0.193325,-0.047575
1680013194773,1193183128148067,-0.0086624995,-0.194425,-0.045649998
1680013194775,1193183130649990,-0.0066,-0.19139999,-0.0446875
1680013194781,1193183133152053,-0.0056375,-0.1903,-0.0446875
1680013194782,1193183135653976,-0.0026125,-0.183425,-0.0446875
1680013194784,1193183138156129,-0.003575,-0.1804,-0.0435875
1680013194786,1193183140658211,-0.00165,-0.1764125,-0.045649998
1680013194788,1193183143160134,-0.00165,-0.171325,-0.047575
1680013194791,1193183145662211,4.125E-4,-0.1683,-0.0496375
1680013194793,1193183148164365,4.125E-4,-0.1643125,-0.0515625
1680013194795,1193183150666211,-0.0045375,-0.1654125,-0.0515625
1680013194798,1193183153168442,4.125E-4,-0.1573,-0.0526625
1680013194802,1193183155670519,0.002475,-0.1544125,-0.053625
1680013194803,1193183158172442,0.0034375,-0.1483625,-0.0506
1680013194806,1193183160674519,0.0053625,-0.14533749,-0.053625
1680013194809,1193183163176418,0.007425,-0.1373625,-0.0556875
1680013194811,1193183165678495,0.0094875,-0.1343375,-0.0606375
1680013194813,1193183168180649,0.012375,-0.1282875,-0.058575
1680013194817,1193183170682803,0.0114124995,-0.1203125,-0.059675
1680013194818,1193183173184726,0.012375,-0.113299996,-0.0616
1680013194821,1193183175686807,0.0174625,-0.1073875,-0.0655875
1680013194823,1193183178188730,0.0174625,-0.1023,-0.0625625
1680013194825,1193183180690807,0.0204875,-0.1013375,-0.0616
1680013194828,1193183183192730,0.023375,-0.0963875,-0.0655875
1680013194831,1193183185695144,0.023375,-0.0884125,-0.0686125
1680013194833,1193183188197067,0.024475,-0.0853875,-0.0655875
1680013194835,1193183190699144,0.0254375,-0.083325,-0.0666875
1680013194838,1193183193201067,0.029424999,-0.0842875,-0.0666875
1680013194841,1193183195703159,0.029424999,-0.078375,-0.0655875
1680013194843,1193183198205082,0.0314875,-0.0713625,-0.064625
1680013194845,1193183200707159,0.0374,-0.072325,-0.0625625
1680013194849,1193183203209389,0.0383625,-0.0743875,-0.0625625
1680013194851,1193183205711466,0.0413875,-0.0743875,-0.064625
1680013194855,1193183208213408,0.0413875,-0.0763125,-0.0625625
1680013194856,1193183210715485,0.0413875,-0.0743875,-0.0616
1680013194860,1193183213217639,0.045375,-0.069299996,-0.059675
1680013194862,1193183215719586,0.0474375,-0.069299996,-0.059675
1680013194864,1193183218221663,0.0504625,-0.0763125,-0.059675
1680013194866,1193183220723586,0.0534875,-0.072325,-0.0576125
1680013194868,1193183223225663,0.057475,-0.0743875,-0.0545875
1680013194872,1193183225727586,0.0594,-0.0743875,-0.0526625
1680013194874,1193183228229976,0.0603625,-0.0683375,-0.0556875
1680013194875,1193183230731899,0.0633875,-0.0713625,-0.053625
1680013194878,1193183233233976,0.067375,-0.0704,-0.0556875
1680013194882,1193183235735899,0.0694375,-0.067375,-0.053625
1680013194884,1193183238237976,0.0704,-0.069299996,-0.0506
1680013194885,1193183240740130,0.0704,-0.069299996,-0.0506
1680013194889,1193183243242053,0.0724625,-0.0704,-0.053625
1680013194893,1193183245744183,0.073425,-0.067375,-0.0526625
1680013194895,1193183248246260,0.0774125,-0.0664125,-0.0515625
1680013194896,1193183250748183,0.0754875,-0.0653125,-0.0496375
1680013194899,1193183253250260,0.073425,-0.0653125,-0.048675
1680013194902,1193183255752183,0.0774125,-0.0664125,-0.0496375
1680013194903,1193183258254250,0.079475,-0.0622875,-0.0515625
1680013194905,1193183260756404,0.0814,-0.0622875,-0.045649998
1680013194908,1193183263258327,0.079475,-0.067375,-0.0435875
1680013194913,1193183265760480,0.0804375,-0.0653125,-0.042625
1680013194913,1193183268262557,0.0814,-0.0573375,-0.037675
1680013194915,1193183270764489,0.079475,-0.0594,-0.036575
1680013194919,1193183273266566,0.0774125,-0.0603625,-0.0325875
1680013194922,1193183275768720,0.078375,-0.0573375,-0.0295625
1680013194923,1193183278270913,0.0804375,-0.0543125,-0.031625
1680013194926,1193183280772759,0.0774125,-0.0573375,-0.0286
1680013194930,1193183283274913,0.0774125,-0.0583,-0.026675
1680013194933,1193183285776836,0.078375,-0.0554125,-0.026675
1680013194934,1193183288350908,0.0804375,-0.0573375,-0.026675
1680013194936,1193183290780831,0.0804375,-0.0573375,-0.025575
1680013194938,1193183293282985,0.0754875,-0.0543125,-0.02365
1680013194941,1193183295785062,0.078375,-0.0523875,-0.025575
1680013194943,1193183298286985,0.07645,-0.0493625,-0.0226875
1680013194945,1193183300789076,0.073425,-0.05335,-0.020624999
1680013194948,1193183303291230,0.0743875,-0.0543125,-0.020624999
1680013194952,1193183305793153,0.07645,-0.0484,-0.0185625
1680013194953,1193183308295307,0.07645,-0.0473,-0.0185625
1680013194955,1193183310797375,0.0743875,-0.0473,-0.0185625
1680013194958,1193183313299298,0.0743875,-0.0463375,-0.014575
1680013194962,1193183315801452,0.0754875,-0.0444125,-0.014575
1680013194963,1193183318303298,0.073425,-0.0463375,-0.01265
1680013194967,1193183320805466,0.0724625,-0.045375,-0.0105875
1680013194969,1193183323307543,0.0754875,-0.0374,-0.0086624995
1680013194972,1193183325809696,0.07645,-0.0374,-0.0066
1680013194973,1193183328311620,0.073425,-0.0383625,-0.0066
1680013194975,1193183330813696,0.07645,-0.0383625,-0.0075625
1680013194978,1193183333315668,0.0814,-0.039325,-0.0086624995
1680013194981,1193183335817821,0.0834625,-0.0444125,-0.0116875
1680013194983,1193183338319668,0.0853875,-0.04235,-0.01265
1680013194985,1193183340822052,0.0853875,-0.0463375,-0.009625
1680013194988,1193183343323975,0.0884125,-0.0543125,-0.009625
1680013194992,1193183345826052,0.091437496,-0.0573375,-0.0086624995
1680013194993,1193183348327975,0.090475,-0.061325,-0.0105875
1680013194997,1193183350830052,0.0933625,-0.0664125,-0.0086624995
1680013194998,1193183353332206,0.095425,-0.0743875,-0.0066
1680013195002,1193183355834360,0.0974875,-0.0774125,-0.0086624995
1680013195005,1193183358336283,0.0963875,-0.083325,-0.0075625
1680013195007,1193183360838360,0.100375,-0.0933625,-0.004675
1680013195009,1193183363340288,0.101475,-0.0983125,-0.003575
1680013195013,1193183365842365,0.106425,-0.0994125,-0.003575
1680013195014,1193183368344288,0.1043625,-0.1104125,-0.0026125
1680013195016,1193183370846365,0.1034,-0.1144,-0.0026125
1680013195020,1193183373348606,0.1073875,-0.1183875,-0.003575
1680013195022,1193183375850452,0.1084875,-0.1313125,4.125E-4
1680013195023,1193183378352606,0.112475,-0.138325,-0.00165
1680013195027,1193183380854683,0.112475,-0.144375,-0.0056375
1680013195033,1193183383356591,0.111375,-0.1513875,-0.0075625
1680013195035,1193183385858668,0.113437496,-0.1584,-0.0075625
1680013195036,1193183388360822,0.113437496,-0.166375,-0.004675
1680013195037,1193183390862745,0.117425,-0.171325,-0.0066
1680013195038,1193183393364898,0.1183875,-0.1764125,-0.0056375
1680013195043,1193183395866961,0.122375,-0.1863125,-0.004675
1680013195044,1193183398368884,0.124437496,-0.1953875,-0.009625
1680013195046,1193183400870961,0.1274625,-0.1973125,-0.0086624995
1680013195049,1193183403373115,0.1304875,-0.2024,-0.0086624995
1680013195052,1193183405875038,0.1354375,-0.2083125,-0.0105875
1680013195053,1193183408377091,0.1354375,-0.2123,-0.01265
1680013195056,1193183410879014,0.1354375,-0.215325,-0.0105875
1680013195059,1193183413381091,0.1403875,-0.221375,-0.014575
1680013195061,1193183415883245,0.144375,-0.2283875,-0.015675
1680013195063,1193183418385399,0.145475,-0.23539999,-0.0166375
1680013195066,1193183420887312,0.145475,-0.2424125,-0.0185625
1680013195068,1193183423389389,0.14739999,-0.2424125,-0.020624999
1680013195072,1193183425891312,0.1524875,-0.2503875,-0.0196625
1680013195073,1193183428393389,0.155375,-0.2574,-0.0215875
1680013195077,1193183430895553,0.156475,-0.2602875,-0.0276375
1680013195081,1193183433397476,0.1593625,-0.26633748,-0.034649998
1680013195084,1193183435899553,0.166375,-0.2754125,-0.0405625
1680013195085,1193183438401707,0.167475,-0.2803625,-0.045649998
1680013195087,1193183440903649,0.167475,-0.2853125,-0.053625
1680013195089,1193183443405726,0.172425,-0.287375,-0.0625625
1680013195092,1193183445907649,0.1744875,-0.2913625,-0.069575
1680013195094,1193183448409803,0.1764125,-0.2943875,-0.0776875
1680013195096,1193183450911880,0.17847499,-0.298375,-0.0856625
1680013195098,1193183453413803,0.1804,-0.3003,-0.0906125
1680013195102,1193183455915957,0.183425,-0.3073125,-0.10065
1680013195104,1193183458418033,0.18645,-0.3073125,-0.104637496
1680013195106,1193183460919957,0.1854875,-0.3084125,-0.1056
1680013195108,1193183463422091,0.188375,-0.3084125,-0.1166
1680013195111,1193183465924168,0.1874125,-0.31033748,-0.1205875
1680013195113,1193183468426091,0.188375,-0.3133625,-0.124575
1680013195118,1193183470928245,0.19139999,-0.31239998,-0.1285625
1680013195120,1193183473430091,0.189475,-0.3133625,-0.1315875
1680013195123,1193183475932245,0.189475,-0.31033748,-0.136675
1680013195124,1193183478434399,0.1904375,-0.3133625,-0.141625
1680013195126,1193183480936476,0.18645,-0.31239998,-0.1456125
1680013195129,1193183483438418,0.1854875,-0.3084125,-0.1505625
1680013195132,1193183485940495,0.1824625,-0.303325,-0.1516625
1680013195134,1193183488442418,0.177375,-0.3042875,-0.1535875
1680013195136,1193183490944495,0.17545,-0.2963125,-0.1535875
1680013195139,1193183493446649,0.1703625,-0.292325,-0.1535875
1680013195141,1193183495948798,0.167475,-0.28435,-0.1566125
1680013195143,1193183498450721,0.167475,-0.2833875,-0.15565
1680013195146,1193183500952798,0.1623875,-0.2833875,-0.158675
1680013195149,1193183503454721,0.161425,-0.2853125,-0.1676125
1680013195155,1193183505956755,0.1574375,-0.2853125,-0.1736625
1680013195156,1193183508458909,0.1584,-0.281325,-0.18259999
1680013195157,1193183510960832,0.155375,-0.2794,-0.18865
1680013195159,1193183513462986,0.155375,-0.2783,-0.1975875
1680013195161,1193183515965063,0.1524875,-0.2783,-0.202675
1680013195165,1193183518466991,0.14739999,-0.2754125,-0.2156
1680013195167,1193183520969068,0.1494625,-0.2712875,-0.224675
1680013195169,1193183523470991,0.14739999,-0.2684,-0.2286625
1680013195172,1193183525973144,0.145475,-0.259325,-0.2366375
1680013195174,1193183528475221,0.1414875,-0.254375,-0.2426875
1680013195176,1193183530977375,0.1354375,-0.2534125,-0.246675
1680013195179,1193183533479298,0.139425,-0.2492875,-0.2536875
1680013195181,1193183535981375,0.1384625,-0.248325,-0.25959998
1680013195183,1193183538483293,0.134475,-0.2503875,-0.2666125
1680013195186,1193183540985370,0.133375,-0.248325,-0.2726625
1680013195189,1193183543487524,0.13145,-0.2464,-0.2776125
1680013195197,1193183545989678,0.13145,-0.2453,-0.2836625
1680013195197,1193183548491500,0.128425,-0.243375,-0.2866875
1680013195197,1193183550993654,0.1254,-0.2382875,-0.2866875
1680013195198,1193183553495577,0.1214125,-0.24035,-0.2836625
1680013195201,1193183555997654,0.123475,-0.2424125,-0.2825625
1680013195203,1193183558499803,0.12045,-0.2443375,-0.2836625
1680013195205,1193183561001726,0.1183875,-0.2473625,-0.2855875
1680013195209,1193183563503880,0.117425,-0.25135,-0.2836625
1680013195211,1193183566005957,0.1144,-0.2563,-0.2855875
1680013195213,1193183568507817,0.1144,-0.2613875,-0.284625
1680013195215,1193183571009971,0.1104125,-0.26633748,-0.2855875
1680013195218,1193183573511894,0.10945,-0.2693625,-0.2866875
1680013195221,1193183576014048,0.1084875,-0.2754125,-0.284625
1680013195223,1193183578516135,0.1054625,-0.2794,-0.2855875
1680013195226,1193183581018058,0.10945,-0.287375,-0.28861248
1680013195230,1193183583520212,0.1054625,-0.2893,-0.28861248
1680013195232,1193183586022058,0.102437496,-0.2913625,-0.284625
1680013195237,1193183588524212,0.102437496,-0.2963125,-0.2836625
1680013195239,1193183591026365,0.100375,-0.3023625,-0.284625
1680013195239,1193183593528442,0.09845,-0.3023625,-0.2816
1680013195242,1193183596030365,0.0963875,-0.309375,-0.279675
1680013195243,1193183598532442,0.0944625,-0.31735,-0.2745875
1680013195246,1193183601034600,0.0924,-0.3163875,-0.2726625
1680013195249,1193183603536523,0.091437496,-0.320375,-0.2706
1680013195252,1193183606038677,0.090475,-0.325325,-0.267575
1680013195253,1193183608540754,0.08745,-0.3262875,-0.267575
1680013195256,1193183611042672,0.0814,-0.3273875,-0.2666125
1680013195260,1193183613544749,0.078375,-0.331375,-0.2616625
1680013195262,1193183616046672,0.07645,-0.3353625,-0.2635875
1680013195264,1193183618548826,0.073425,-0.3403125,-0.2605625
1680013195269,1193183621050884,0.0713625,-0.33935,-0.2616625
1680013195270,1193183623552807,0.068475,-0.3372875,-0.2635875
1680013195272,1193183626054961,0.062425,-0.342375,-0.2616625
1680013195274,1193183628557038,0.0664125,-0.3433375,-0.26565
1680013195276,1193183631058961,0.067375,-0.3454,-0.2666125
1680013195278,1193183633561139,0.0603625,-0.3493875,-0.26565
1680013195282,1193183636063216,0.0603625,-0.35035,-0.2646875
1680013195283,1193183638565139,0.0633875,-0.3482875,-0.2635875
1680013195286,1193183641067216,0.0633875,-0.3524125,-0.2605625
1680013195289,1193183643569365,0.057475,-0.358325,-0.2556125
1680013195291,1193183646071288,0.0594,-0.3573625,-0.2536875
1680013195294,1193183648573365,0.0594,-0.3564,-0.2525875
1680013195297,1193183651075518,0.057475,-0.3564,-0.2495625
1680013195299,1193183653577441,0.054449998,-0.3623125,-0.2486
1680013195302,1193183656079528,0.0523875,-0.3653375,-0.24365
1680013195305,1193183658581451,0.051425,-0.3674,-0.2396625
1680013195307,1193183661083605,0.0474375,-0.3683625,-0.2376
1680013195308,1193183663585682,0.0455125,-0.3733125,-0.2385625
1680013195312,1193183666087836,0.046475,-0.3773,-0.234575
1680013195313,1193183668589759,0.0455125,-0.3793625,-0.2316875
1680013195316,1193183671091836,0.0444125,-0.3823875,-0.224675
1680013195319,1193183673593759,0.0413875,-0.3812875,-0.2226125
1680013195323,1193183676095947,0.0374,-0.3812875,-0.2146375
1680013195324,1193183678597793,0.0364375,-0.385275,-0.2046
1680013195326,1193183681100178,0.0385,-0.385275,-0.201575
1680013195330,1193183683602101,0.0364375,-0.3873375,-0.19965
1680013195332,1193183686104153,0.0334125,-0.386375,-0.1926375
1680013195334,1193183688606076,0.0314875,-0.3894,-0.1865875
1680013195336,1193183691108153,0.0275,-0.3922875,-0.185625
1680013195340,1193183693610307,0.0264,-0.385275,-0.18259999
1680013195343,1193183696112133,0.024475,-0.3823875,-0.1766875
1680013195345,1193183698614287,0.02145,-0.3784,-0.1755875
1680013195347,1193183701116441,0.0224125,-0.374275,-0.1755875
1680013195349,1193183703618364,0.024475,-0.374275,-0.169675
1680013195352,1193183706120441,0.0224125,-0.369325,-0.163625
1680013195353,1193183708622350,0.0235125,-0.3702875,-0.15565
1680013195356,1193183711124427,0.0254375,-0.3653375,-0.1516625
1680013195360,1193183713626657,0.0264,-0.36135,-0.147675
1680013195362,1193183716128504,0.0254375,-0.3603875,-0.141625
1680013195364,1193183718630666,0.0264,-0.358325,-0.136675
1680013195366,1193183721132743,0.0264,-0.3573625,-0.130625
1680013195369,1193183723634666,0.0275,-0.35433748,-0.1205875
1680013195372,1193183726136743,0.029424999,-0.3513125,-0.115637496
1680013195373,1193183728638666,0.0275,-0.3573625,-0.1106875
1680013195376,1193183731141037,0.029424999,-0.3573625,-0.104637496
1680013195380,1193183733642960,0.0284625,-0.358325,-0.10065
1680013195386,1193183736145037,0.029424999,-0.3573625,-0.0946
1680013195386,1193183738646960,0.0284625,-0.3603875,-0.091575
1680013195386,1193183741149037,0.0275,-0.3564,-0.0836
1680013195389,1193183743650960,0.0275,-0.3564,-0.07865
1680013195392,1193183746153114,0.0264,-0.358325,-0.0746625
1680013195393,1193183748655191,0.024475,-0.358325,-0.0666875
1680013195396,1193183751157335,0.024475,-0.3592875,-0.0616
1680013195400,1193183753659181,0.0264,-0.3603875,-0.0616
1680013195402,1193183756161335,0.029424999,-0.3623125,-0.0616
1680013195403,1193183758663258,0.0284625,-0.3603875,-0.059675
1680013195406,1193183761165335,0.0334125,-0.3573625,-0.064625
1680013195409,1193183763667499,0.0394625,-0.358325,-0.064625
1680013195412,1193183766169422,0.0385,-0.35227498,-0.0625625
1680013195414,1193183768671576,0.043449998,-0.35035,-0.070675
1680013195418,1193183771173643,0.0455125,-0.3443,-0.070675
1680013195419,1193183773675566,0.0474375,-0.33935,-0.06765
1680013195422,1193183776177643,0.0484,-0.3353625,-0.0716375
1680013195423,1193183778679796,0.051425,-0.3323375,-0.0655875
1680013195426,1193183781181719,0.0534875,-0.3273875,-0.0606375
1680013195428,1193183783683806,0.0534875,-0.3273875,-0.0616
1680013195431,1193183786185729,0.0554125,-0.3273875,-0.058575
1680013195434,1193183788687883,0.054449998,-0.3262875,-0.053625
1680013195436,1193183791189960,0.0523875,-0.3234,-0.056649998
1680013195439,1193183793691869,0.0523875,-0.3234,-0.0545875
1680013195441,1193183796193946,0.057475,-0.3262875,-0.0526625
1680013195443,1193183798696100,0.057475,-0.3234,-0.0545875
1680013195446,1193183801198023,0.0523875,-0.325325,-0.0506
1680013195450,1193183803700181,0.0523875,-0.3293125,-0.0446875
1680013195452,1193183806202258,0.0484,-0.331375,-0.0405625
1680013195456,1193183808704181,0.0504625,-0.3372875,-0.0416625
1680013195457,1193183811206258,0.0484,-0.3463625,-0.042625
1680013195458,1193183813708181,0.051425,-0.35433748,-0.0416625
1680013195462,1193183816210340,0.0484,-0.3592875,-0.0396
1680013195464,1193183818712417,0.0504625,-0.364375,-0.037675
1680013195466,1193183821214571,0.054449998,-0.3653375,-0.0336875
1680013195470,1193183823716494,0.057475,-0.3674,-0.034649998
1680013195472,1193183826218557,0.057475,-0.3702875,-0.0295625
1680013195473,1193183828720480,0.0605,-0.375375,-0.0286
1680013195476,1193183831222557,0.0664125,-0.3773,-0.026675
1680013195480,1193183833724711,0.0704,-0.3823875,-0.0276375
1680013195483,1193183836226864,0.073425,-0.385275,-0.0276375
1680013195484,1193183838728788,0.0774125,-0.3894,-0.025575
1680013195486,1193183841230864,0.079475,-0.3873375,-0.0246125
1680013195490,1193183843732788,0.079475,-0.386375,-0.0196625
1680013195493,1193183846234845,0.0834625,-0.386375,-0.0166375
1680013195495,1193183848736999,0.0864875,-0.3903625,-0.0166375
1680013195497,1193183851238845,0.090475,-0.3903625,-0.0185625
1680013195499,1193183853741076,0.0924,-0.386375,-0.0176
1680013195502,1193183856243153,0.095425,-0.3843125,-0.0176
1680013195504,1193183858745076,0.0944625,-0.3843125,-0.0226875
1680013195506,1193183861247153,0.0963875,-0.3812875,-0.02365
1680013195508,1193183863749076,0.095425,-0.3793625,-0.0215875
1680013195511,1193183866251167,0.0963875,-0.3784,-0.0246125
1680013195514,1193183868753321,0.101475,-0.380325,-0.0325875
1680013195516,1193183871255475,0.1034,-0.380325,-0.0405625
1680013195518,1193183873757398,0.102437496,-0.38334998,-0.0496375
1680013195522,1193183876259475,0.1034,-0.3823875,-0.053625
1680013195523,1193183878761427,0.106425,-0.3812875,-0.0606375
1680013195526,1193183881263504,0.10945,-0.3793625,-0.06765
1680013195531,1193183883765427,0.1084875,-0.385275,-0.0686125
1680013195533,1193183886267821,0.1084875,-0.386375,-0.0716375
1680013195535,1193183888905128,0.10945,-0.3823875,-0.0746625
1680013195536,1193183891271821,0.10945,-0.3812875,-0.0765875
1680013195539,1193183893773744,0.1115125,-0.385275,-0.07865
1680013195542,1193183896275821,0.117425,-0.3903625,-0.0845625
1680013195544,1193183898777749,0.12045,-0.39435,-0.0845625
1680013195547,1193183901279903,0.1225125,-0.397375,-0.0856625
1680013195549,1193183903782056,0.124437496,-0.39435,-0.086625
1680013195552,1193183906283903,0.128425,-0.397375,-0.0875875
1680013195554,1193183908786051,0.128425,-0.39833748,-0.0886875
1680013195556,1193183911288128,0.1364,-0.39833748,-0.0906125
1680013195559,1193183913790051,0.1403875,-0.40535,-0.0886875
1680013195562,1193183916292205,0.1445125,-0.407275,-0.0886875
1680013195564,1193183918794306,0.145475,-0.4114,-0.091575
1680013195570,1193183921296229,0.145475,-0.413325,-0.0886875
1680013195570,1193183923798383,0.1513875,-0.4224,-0.091575
1680013195573,1193183926300460,0.15345,-0.4283125,-0.0985875
1680013195576,1193183928802393,0.1574375,-0.4334,-0.10065
1680013195577,1193183931304470,0.1574375,-0.446325,-0.1016125
1680013195580,1193183933806624,0.1595,-0.4533375,-0.1016125
1680013195582,1193183936308547,0.1623875,-0.4582875,-0.1065625
1680013195584,1193183938810624,0.16445,-0.4664,-0.108625
1680013195586,1193183941312768,0.16445,-0.4802875,-0.1065625
1680013195589,1193183943814691,0.16445,-0.48633748,-0.103675
1680013195592,1193183946316768,0.1604625,-0.4893625,-0.1056
1680013195593,1193183948818922,0.1623875,-0.4943125,-0.104637496
1680013195596,1193183951320845,0.1623875,-0.5003625,-0.1016125
1680013195599,1193183953822994,0.161425,-0.5053125,-0.1016125
1680013195602,1193183956324840,0.1595,-0.5083375,-0.102575
1680013195605,1193183958826994,0.1604625,-0.51535,-0.0996875
1680013195607,1193183961329086,0.161425,-0.51535,-0.0955625
1680013195610,1193183963831009,0.167475,-0.5143875,-0.091575
1680013195612,1193183966333163,0.167475,-0.517275,-0.0906125
1680013195614,1193183968835239,0.1684375,-0.523325,-0.0955625
1680013195616,1193183971337163,0.1694,-0.52635,-0.1016125
1680013195619,1193183973839229,0.1705,-0.5324,-0.104637496
1680013195622,1193183976341153,0.172425,-0.5333625,-0.1095875
1680013195624,1193183978843306,0.1733875,-0.5363875,-0.1175625
1680013195626,1193183981345460,0.1744875,-0.539275,-0.1186625
1680013195629,1193183983847547,0.1733875,-0.540375,-0.1205875
1680013195632,1193183986349470,0.1744875,-0.5423,-0.125675
1680013195633,1193183988851547,0.1744875,-0.540375,-0.130625
1680013195636,1193183991353701,0.172425,-0.5363875,-0.1346125
1680013195639,1193183993855638,0.172425,-0.5363875,-0.1395625
1680013195645,1193183996357792,0.17847499,-0.529375,-0.1436875
1680013195645,1193183998859638,0.183425,-0.5143875,-0.147675
1680013195647,1193184001361792,0.1874125,-0.512325,-0.1425875
1680013195652,1193184003863879,0.18645,-0.5132875,-0.1406625
1680013195653,1193184006366033,0.1925,-0.5053125,-0.1425875
1680013195654,1193184008867956,0.194425,-0.496375,-0.1406625
1680013195656,1193184011370033,0.1953875,-0.4923875,-0.1346125
1680013195659,1193184013871956,0.1995125,-0.49335,-0.1315875
1680013195662,1193184016374062,0.2014375,-0.4943125,-0.130625
1680013195664,1193184018876216,0.2024,-0.4912875,-0.1276
1680013195668,1193184021378139,0.2024,-0.4893625,-0.1276
1680013195668,1193184023880293,0.2035,-0.48633748,-0.1326875
1680013195672,1193184026382384,0.2024,-0.4802875,-0.1376375
1680013195674,1193184028884307,0.2035,-0.48235,-0.1376375
1680013195676,1193184031386384,0.2035,-0.490325,-0.1395625
1680013195680,1193184033888537,0.2014375,-0.490325,-0.1395625
1680013195683,1193184036390394,0.2014375,-0.490325,-0.141625
1680013195686,1193184038892624,0.20047499,-0.4923875,-0.147675
1680013195687,1193184041394701,0.2035,-0.490325,-0.1486375
1680013195690,1193184043896624,0.2044625,-0.48839998,-0.141625
1680013195693,1193184046398654,0.205425,-0.48427498,-0.1406625
1680013195694,1193184048900577,0.2014375,-0.48633748,-0.1376375
1680013195696,1193184051402731,0.2035,-0.4802875,-0.136675
1680013195699,1193184053904808,0.2024,-0.474375,-0.13859999
1680013195702,1193184056406962,0.2044625,-0.4653,-0.1395625
1680013195704,1193184058908880,0.2074875,-0.462275,-0.14465
1680013195706,1193184061410957,0.2074875,-0.4593875,-0.1496
1680013195709,1193184063912880,0.205425,-0.4503125,-0.1496
1680013195712,1193184066414957,0.2014375,-0.4444,-0.1456125
1680013195714,1193184068917125,0.1995125,-0.4334,-0.147675
1680013195720,1193184071419279,0.1995125,-0.4283125,-0.1496
1680013195721,1193184073921202,0.19745,-0.4224,-0.152625
1680013195724,1193184076423260,0.19745,-0.4142875,-0.15565
1680013195726,1193184079012260,0.1934625,-0.408375,-0.158675
1680013195727,1193184081427260,0.1925,-0.4093375,-0.158675
1680013195730,1193184083929183,0.1904375,-0.407275,-0.163625
1680013195733,1193184086431260,0.1885125,-0.4032875,-0.1606
1680013195735,1193184088933481,0.189475,-0.40039998,-0.163625
1680013195736,1193184091435557,0.1885125,-0.4013625,-0.1645875
1680013195739,1193184093937481,0.1885125,-0.39833748,-0.168575
1680013195742,1193184096439557,0.1874125,-0.3953125,-0.1716
