system_ts_ms, sensor_ts_ns, gyrX, gyrY, gyrZ
1680017923100,1197911450078436,0.0306625,0.425425,-0.022275
1680017923100,1197911452580820,0.026675,0.3914625,-0.02035
1680017923100,1197911455083051,0.021724999,0.3564,-0.011275
1680017923102,1197911457585205,0.0187,0.315425,-0.006325
1680017923104,1197911460087594,0.013612499,0.2754125,6.875E-4
1680017923120,1197911462589824,0.009625,0.2314125,0.0086624995
1680017923120,1197911465092286,0.0026125,0.188375,0.0187
1680017923120,1197911467594671,-0.001375,0.145475,0.0306625
1680017923121,1197911470096925,-0.0033,0.101475,0.0466125
1680017923121,1197911472599310,-0.0083875,0.054449998,0.0636625
1680017923121,1197911475101541,-0.017324999,0.0114124995,0.076725
1680017923126,1197911477603695,-0.0292875,-0.030524999,0.0906125
1680017923126,1197911480106180,-0.0402875,-0.07865,0.0966625
1680017923128,1197911482608565,-0.0484,-0.12155,0.097625
1680017923131,1197911485110796,-0.0573375,-0.157575,0.095699996
1680017923132,1197911487613180,-0.06435,-0.1936,0.0917125
1680017923134,1197911490115334,-0.0732875,-0.2195875,0.0856625
1680017923137,1197911492617777,-0.0793375,-0.2486,0.076725
1680017923142,1197911495119930,-0.0793375,-0.2696375,0.0666875
1680017923142,1197911497622392,-0.083325,-0.284625,0.056649998
1680017923145,1197911500124623,-0.0924,-0.29865,0.0416625
1680017923147,1197911502627007,-0.0963875,-0.316525,0.031625
1680017923150,1197911505129161,-0.099275,-0.3256,0.0286
1680017923154,1197911507631392,-0.1013375,-0.3366,0.021724999
1680017923155,1197911510133777,-0.1073875,-0.34759998,0.0116875
1680017923160,1197911512636238,-0.1144,-0.35255,0.004675
1680017923161,1197911515138474,-0.122375,-0.360525,6.875E-4
1680017923164,1197911517640859,-0.1263625,-0.36465,-2.75E-4
1680017923165,1197911520143089,-0.1313125,-0.36355,-0.0033
1680017923167,1197911522645474,-0.1364,-0.3656125,-0.0053625
1680017923170,1197911525147637,-0.14135,-0.3675375,-0.006325
1680017923172,1197911527650098,-0.144375,-0.366575,-0.0072875
1680017923176,1197911530152329,-0.15235,-0.36465,-0.0103124995
1680017923178,1197911532654714,-0.1563375,-0.361625,-0.0133375
1680017923180,1197911535156911,-0.1593625,-0.349525,-0.011275
1680017923182,1197911537659295,-0.1623875,-0.3405875,-0.0154
1680017923185,1197911540161526,-0.1573,-0.328625,-0.0213125
1680017923187,1197911542663911,-0.1533125,-0.311575,-0.0243375
1680017923193,1197911545166136,-0.14533749,-0.289575,-0.0292875
1680017923193,1197911547668521,-0.1313125,-0.2706,-0.0303875
1680017923195,1197911550170752,-0.10835,-0.245575,-0.0292875
1680017923199,1197911552673136,-0.0903375,-0.2165625,-0.0353375
1680017923201,1197911555175372,-0.0713625,-0.190575,-0.044275
1680017923203,1197911557677757,-0.0512875,-0.1596375,-0.0484
1680017923205,1197911560180218,-0.033275,-0.1276,-0.0512875
1680017923211,1197911562682372,-0.02035,-0.093637496,-0.0583
1680017923212,1197911565184579,-0.0143,-0.058575,-0.0603625
1680017923212,1197911567686964,-0.0072875,-0.025575,-0.0633875
1680017923215,1197911570189194,-0.00935,0.0083875,-0.067375
1680017923218,1197911572691579,-0.006325,0.0484,-0.0653125
1680017923220,1197911575193810,-0.012375,0.0814,-0.069299996
1680017923222,1197911577696199,-0.0163625,0.1183875,-0.0633875
1680017923228,1197911580198430,-0.0154,0.15235,-0.0594
1680017923229,1197911582700815,-0.02035,0.188375,-0.061325
1680017923232,1197911585203036,-0.022275,0.2204125,-0.0573375
1680017923233,1197911587705420,-0.023375,0.2484625,-0.05335
1680017923235,1197911590207882,-0.0273625,0.271425,-0.0493625
1680017923237,1197911592710036,-0.028324999,0.2904,-0.045375
1680017923243,1197911595212266,-0.0273625,0.3053875,-0.039325
1680017923244,1197911597714646,-0.0264,0.31735,-0.033275
1680017923245,1197911600216877,-0.022275,0.326425,-0.0253
1680017923248,1197911602719261,-0.022275,0.3334375,-0.02035
1680017923250,1197911605221723,-0.02035,0.3344,-0.0133375
1680017923252,1197911607723954,-0.017324999,0.3353625,-0.0103124995
1680017923255,1197911610226097,-0.017324999,0.32945,-0.0044
1680017923263,1197911612728482,-0.012375,0.3234,0.00165
1680017923264,1197911615230713,-0.0103124995,0.31735,0.004675
1680017923265,1197911617733098,-0.0133375,0.3014,0.0066
1680017923267,1197911620235559,-0.017324999,0.2904,0.01265
1680017923268,1197911622737790,-0.0143,0.276375,0.014712499
1680017923271,1197911625240174,-0.0154,0.25547498,0.0166375
1680017923272,1197911627742405,-0.0154,0.24035,0.015675
1680017923276,1197911630244559,-0.017324999,0.2264625,0.0226875
1680017923278,1197911632746915,-0.0182875,0.2044625,0.0196625
1680017923280,1197911635249145,-0.0182875,0.183425,0.0166375
1680017923283,1197911637751607,-0.0182875,0.16335,0.02365
1680017923287,1197911640253992,-0.017324999,0.139425,0.0226875
1680017923288,1197911642756222,-0.0163625,0.1214125,0.0196625
1680017923292,1197911645258607,-0.011275,0.101475,0.0196625
1680017923292,1197911647760761,-0.001375,0.08745,0.0196625
1680017923295,1197911650262992,0.014712499,0.07645,0.020624999
1680017923298,1197911652765444,0.0367125,0.06545,0.020624999
1680017923300,1197911655267829,0.0587125,0.056375,0.0257125
1680017923304,1197911657769983,0.086625,0.0493625,0.0246125
1680017923306,1197911660272213,0.1137125,0.0444125,0.0226875
1680017923312,1197911662774617,0.1346125,0.0383625,0.0187
1680017923313,1197911665276848,0.1546875,0.035475,0.015675
1680017923314,1197911667779309,0.1596375,0.0303875,0.010725
1680017923316,1197911670281694,0.1626625,0.024475,0.0066
1680017923318,1197911672783910,0.1596375,0.0193875,0.00165
1680017923322,1197911675286294,0.1577125,0.0144375,-0.006325
1680017923327,1197911677788448,0.14465,0.013475,-0.0154
1680017923327,1197911680290679,0.1266375,0.013475,-0.0193875
1680017923328,1197911682793141,0.1126125,0.0064625,-0.0243375
1680017923331,1197911685295530,0.10065,0.0044,-0.028324999
1680017923335,1197911687797761,0.087725,-0.0026125,-0.0303875
1680017923336,1197911690300146,0.07865,-0.01265,-0.033275
1680017923337,1197911692802376,0.070675,-0.03355,-0.033275
1680017923343,1197911695304530,0.0636625,-0.0496375,-0.033275
1680017923343,1197911697806992,0.0616,-0.0686125,-0.0303875
1680017923345,1197911700309376,0.0606375,-0.091575,-0.0292875
1680017923347,1197911702811607,0.0587125,-0.118525,-0.0253
1680017923350,1197911705314012,0.0556875,-0.1486375,-0.023375
1680017923352,1197911707816243,0.0526625,-0.174625,-0.0243375
1680017923355,1197911710318627,0.0526625,-0.19965,-0.02035
1680017923359,1197911712820858,0.0517,-0.2226125,-0.017324999
1680017923361,1197911715323239,0.0466125,-0.24653749,-0.012375
1680017923363,1197911717825392,0.0416625,-0.26455,-0.011275
1680017923365,1197911720327854,0.0407,-0.2825625,-0.0083875
1680017923368,1197911722830085,0.037675,-0.30153748,-0.0083875
1680017923370,1197911725332449,0.0306625,-0.3185875,-0.0044
1680017923376,1197911727834680,0.026675,-0.327525,-0.0033
1680017923377,1197911730337065,0.021724999,-0.3405875,-0.0033
1680017923379,1197911732839296,0.0116875,-0.3436125,-0.0023375
1680017923383,1197911735341459,0.0086624995,-0.34553748,6.875E-4
1680017923384,1197911737843844,0.004675,-0.349525,-2.75E-4
1680017923386,1197911740346306,-0.0053625,-0.350625,-0.0053625
1680017923388,1197911742848536,-0.011275,-0.34155,-0.006325
1680017923392,1197911745350902,-0.017324999,-0.3356375,-0.0072875
1680017923393,1197911747853133,-0.0243375,-0.33055,-0.006325
1680017923396,1197911750355517,-0.0353375,-0.322575,-0.00935
1680017923398,1197911752857748,-0.0383625,-0.3106125,-0.0044
1680017923403,1197911755360147,-0.045375,-0.29755,-0.0072875
1680017923403,1197911757862378,-0.0523875,-0.2816,-0.012375
1680017923405,1197911760364762,-0.0583,-0.267575,-0.0193875
1680017923414,1197911762866993,-0.066275,-0.2525875,-0.0154
1680017923416,1197911765369378,-0.0743875,-0.240625,-0.0163625
1680017923417,1197911767871589,-0.0803,-0.2256375,-0.0193875
1680017923418,1197911770374051,-0.0853875,-0.2085875,-0.0213125
1680017923419,1197911772876205,-0.0873125,-0.1926375,-0.0193875
1680017923421,1197911775378589,-0.0933625,-0.174625,-0.0213125
1680017923427,1197911777880796,-0.0963875,-0.1606,-0.0243375
1680017923429,1197911780383181,-0.09735,-0.141625,-0.0253
1680017923436,1197911782885412,-0.0963875,-0.12155,-0.0264
1680017923436,1197911785387873,-0.0933625,-0.0985875,-0.0264
1680017923437,1197911787890258,-0.0842875,-0.0765875,-0.0243375
1680017923438,1197911790392459,-0.0732875,-0.0515625,-0.0253
1680017923439,1197911792894613,-0.0603625,-0.0265375,-0.0264
1680017923444,1197911795396998,-0.0484,-0.00165,-0.028324999
1680017923445,1197911797899229,-0.034375,0.02145,-0.0273625
1680017923446,1197911800401608,-0.0182875,0.0523875,-0.028324999
1680017923449,1197911802903839,0.0026125,0.084425,-0.028324999
1680017923451,1197911805406224,0.0286,0.1274625,-0.0243375
1680017923454,1197911807908454,0.0587125,0.166375,-0.0243375
1680017923460,1197911810410815,0.0886875,0.205425,-0.0243375
1680017923461,1197911812913046,0.1137125,0.24447499,-0.022275
1680017923462,1197911815415431,0.1346125,0.2814625,-0.022275
1680017923463,1197911817917892,0.1507,0.31735,-0.023375
1680017923466,1197911820420046,0.15565,0.3564,-0.0213125
1680017923468,1197911822922287,0.1577125,0.3914625,-0.0213125
1680017923470,1197911825424671,0.1546875,0.420475,-0.0213125
1680017923472,1197911827926902,0.14465,0.44935,-0.0243375
1680017923477,1197911830429287,0.13365,0.474375,-0.022275
1680017923478,1197911832931728,0.114675,0.4893625,-0.0193875
1680017923482,1197911835433959,0.104637496,0.4994,-0.0193875
1680017923484,1197911837936344,0.08965,0.5094375,-0.0193875
1680017923486,1197911840438497,0.07865,0.5113625,-0.0193875
1680017923488,1197911842940728,0.0686125,0.50435,-0.0154
1680017923493,1197911845443113,0.0616,0.4923875,-0.0133375
1680017923495,1197911847945574,0.056649998,0.474375,-0.011275
1680017923496,1197911850447805,0.054725,0.4464625,-0.00935
1680017923498,1197911852950210,0.053625,0.409475,-0.0053625
1680017923501,1197911855452441,0.056649998,0.37235,-0.0044
1680017923502,1197911857954825,0.0606375,0.326425,-0.0023375
1680017923505,1197911860456979,0.0627,0.276375,0.0026125
1680017923507,1197911862959185,0.0636625,0.23045,0.0077
1680017923510,1197911865461646,0.064625,0.1794375,0.010725
1680017923512,1197911867963800,0.0627,0.124437496,0.015675
1680017923515,1197911870466185,0.064625,0.0774125,0.021724999
1680017923518,1197911872968631,0.0666875,0.029424999,0.0246125
1680017923521,1197911875470785,0.0627,-0.020624999,0.0297
1680017923524,1197911877973016,0.0587125,-0.0716375,0.0367125
1680017923525,1197911880475478,0.0576125,-0.1126125,0.037675
1680017923529,1197911882977862,0.0556875,-0.1496,0.037675
1680017923531,1197911885480093,0.0526625,-0.185625,0.0386375
1680017923533,1197911887982247,0.048675,-0.2156,0.037675
1680017923535,1197911890484631,0.042625,-0.24653749,0.037675
1680017923537,1197911892986862,0.0367125,-0.2696375,0.0306625
1680017923540,1197911895489353,0.0336875,-0.295625,0.0286
1680017923542,1197911897991737,0.0257125,-0.30965,0.0276375
1680017923545,1197911900493968,0.0196625,-0.3256,0.0246125
1680017923548,1197911902996353,0.0086624995,-0.34155,0.0196625
1680017923550,1197911905498584,0.004675,-0.350625,0.013612499
1680017923552,1197911908000747,6.875E-4,-0.360525,0.0086624995
1680017923555,1197911910503209,-0.006325,-0.3675375,0.0037125
1680017923557,1197911913005594,-0.012375,-0.37454998,-0.001375
1680017923560,1197911915507838,-0.0163625,-0.3735875,-0.0053625
1680017923563,1197911918010223,-0.02035,-0.3796375,-0.0103124995
1680017923566,1197911920512454,-0.0243375,-0.37661248,-0.0163625
1680017923568,1197911923014838,-0.028324999,-0.377575,-0.02035
1680017923571,1197911925517059,-0.0353375,-0.37454998,-0.022275
1680017923573,1197911928019444,-0.0374,-0.3686375,-0.0243375
1680017923575,1197911930521675,-0.039325,-0.36465,-0.0243375
1680017923578,1197911933024059,-0.0413875,-0.3586,-0.0253
1680017923581,1197911935526290,-0.045375,-0.350625,-0.0253
1680017923583,1197911938028473,-0.0463375,-0.3366,-0.028324999
1680017923585,1197911940530857,-0.0473,-0.3235375,-0.023375
1680017923587,1197911943033396,-0.0473,-0.311575,-0.0213125
1680017923590,1197911945535550,-0.045375,-0.29755,-0.0193875
1680017923592,1197911948037934,-0.04235,-0.278575,-0.017324999
1680017923595,1197911950540184,-0.0383625,-0.25753748,-0.017324999
1680017923597,1197911953042569,-0.0273625,-0.23265,-0.0133375
1680017923600,1197911955544723,-0.011275,-0.2036375,-0.0072875
1680017923605,1197911958047199,0.015675,-0.16555,-0.001375
1680017923607,1197911960549430,0.0477125,-0.12155,0.0026125
1680017923608,1197911963051815,0.0807125,-0.0815375,0.0077
1680017923611,1197911965554045,0.1126125,-0.0386375,0.010725
1680017923612,1197911968056430,0.13859999,-0.0066,0.0116875
1680017923616,1197911970558666,0.1516625,0.032449998,0.0116875
1680017923618,1197911973061127,0.1606,0.0743875,0.015675
1680017923620,1197911975563281,0.1596375,0.1183875,0.0166375
1680017923622,1197911978065666,0.1516625,0.1593625,0.0187
1680017923625,1197911980567921,0.13859999,0.19745,0.0187
1680017923627,1197911983070305,0.1247125,0.238425,0.0196625
1680017923630,1197911985572536,0.103675,0.282425,0.02365
1680017923632,1197911988074997,0.087725,0.31735,0.0257125
1680017923635,1197911990577381,0.0697125,0.348425,0.0257125
1680017923637,1197911993079535,0.056649998,0.38445,0.0257125
1680017923642,1197911995581766,0.042625,0.4123625,0.0257125
1680017923644,1197911998084150,0.031625,0.4224,0.0257125
1680017923646,1197912000586410,0.026675,0.4373875,0.021724999
1680017923648,1197912003088795,0.0246125,0.442475,0.02365
1680017923651,1197912005591256,0.021724999,0.4444,0.0246125
1680017923652,1197912008093410,0.0187,0.4343625,0.0257125
1680017923655,1197912010595641,0.0196625,0.425425,0.0246125
1680017923658,1197912013098031,0.02365,0.4114,0.0257125
1680017923661,1197912015600261,0.021724999,0.3884375,0.0306625
1680017923662,1197912018102646,0.0176,0.3603875,0.0356125
1680017923665,1197912020605107,0.0196625,0.331375,0.0367125
1680017923668,1197912023107256,0.015675,0.3004375,0.0396
1680017923671,1197912025609487,0.01265,0.2693625,0.0396
1680017923673,1197912028111872,0.0077,0.2344375,0.045649998
1680017923676,1197912030614102,6.875E-4,0.19635,0.0466125
1680017923679,1197912033116487,-0.0033,0.1654125,0.0517
1680017923682,1197912035618949,-0.0072875,0.1274625,0.0526625
1680017923685,1197912038121179,-0.0143,0.089375,0.0517
1680017923686,1197912040623333,-0.0154,0.0554125,0.053625
1680017923693,1197912043125718,-0.0213125,0.024475,0.0526625
1680017923694,1197912045627959,-0.0273625,-0.0075625,0.0466125
1680017923694,1197912048130343,-0.033275,-0.0405625,0.043725
1680017923695,1197912050632805,-0.0402875,-0.074525,0.042625
1680017923698,1197912053135036,-0.04235,-0.1016125,0.0386375
1680017923700,1197912055637420,-0.0512875,-0.129525,0.0336875
1680017923703,1197912058139651,-0.0523875,-0.1596375,0.0286
1680017923705,1197912060641805,-0.0543125,-0.18259999,0.026675
1680017923708,1197912063144189,-0.055275,-0.2036375,0.020624999
1680017923710,1197912065646627,-0.055275,-0.22453749,0.015675
1680017923712,1197912068148858,-0.056375,-0.2476375,0.013612499
1680017923716,1197912070651012,-0.061325,-0.2696375,0.009625
1680017923721,1197912073153396,-0.0583,-0.2825625,0.0066
1680017923722,1197912075655607,-0.0622875,-0.2916375,0.0056375
1680017923725,1197912078157992,-0.0573375,-0.30965,0.0037125
1680017923726,1197912080660222,-0.0573375,-0.311575,0.00165
1680017923737,1197912083162684,-0.056375,-0.317625,-0.0023375
1680017923738,1197912085665069,-0.0512875,-0.31955,-2.75E-4
1680017923738,1197912088167208,-0.044275,-0.3155625,-0.0053625
1680017923738,1197912090669439,-0.0383625,-0.3146,-0.0083875
1680017923738,1197912093171824,-0.033275,-0.3075875,-0.012375
1680017923740,1197912095674055,-0.0253,-0.29865,-0.0133375
1680017923743,1197912098176516,-0.017324999,-0.2825625,-0.0154
1680017923745,1197912100678906,-0.0103124995,-0.2666125,-0.017324999
1680017923747,1197912103181137,6.875E-4,-0.2495625,-0.02035
1680017923761,1197912105683521,0.009625,-0.228525,-0.023375
1680017923761,1197912108185665,0.013612499,-0.207625,-0.028324999
1680017923761,1197912110687896,0.021724999,-0.184525,-0.0323125
1680017923761,1197912113190357,0.0226875,-0.1606,-0.0353375
1680017923761,1197912115692742,0.0257125,-0.130625,-0.0383625
1680017923763,1197912118194973,0.0246125,-0.102575,-0.04235
1680017923765,1197912120697357,0.021724999,-0.0815375,-0.0484
1680017923768,1197912123199588,0.0187,-0.0545875,-0.045375
1680017923770,1197912125701973,0.01265,-0.0265375,-0.044275
1680017923772,1197912128204204,0.0086624995,0.001375,-0.0484
1680017923775,1197912130706588,0.0056375,0.024475,-0.045375
1680017923777,1197912133208819,-0.001375,0.0484,-0.0433125
1680017923780,1197912135711204,-0.0033,0.0713625,-0.04235
1680017923783,1197912138213434,-0.0033,0.08745,-0.0383625
1680017923785,1197912140715839,-0.001375,0.1043625,-0.034375
1680017923788,1197912143218301,6.875E-4,0.1164625,-0.028324999
1680017923792,1197912145720454,6.875E-4,0.1354375,-0.022275
1680017923793,1197912148222685,0.004675,0.14135,-0.0133375
1680017923795,1197912150725065,0.0056375,0.1464375,-0.0053625
1680017923797,1197912153227296,0.009625,0.15345,6.875E-4
1680017923800,1197912155729449,0.009625,0.1574375,0.0077
1680017923803,1197912158231834,0.009625,0.1604625,0.01265
1680017923805,1197912160734300,0.009625,0.1604625,0.0196625
1680017923807,1197912163236530,0.0116875,0.156475,0.021724999
1680017923810,1197912165738915,0.010725,0.1604625,0.0257125
1680017923813,1197912168241146,0.009625,0.1544125,0.0286
1680017923815,1197912170743530,0.0056375,0.15345,0.0297
1680017923817,1197912173245757,0.0037125,0.1513875,0.0336875
1680017923820,1197912175748142,0.0037125,0.1434125,0.0356125
1680017923822,1197912178250373,0.00165,0.1384625,0.0367125
1680017923825,1197912180752757,-0.0033,0.1293875,0.037675
1680017923829,1197912183254983,-0.0023375,0.122375,0.0356125
1680017923832,1197912185757368,-0.006325,0.1144,0.0336875
1680017923833,1197912188259598,-0.0072875,0.1104125,0.0306625
1680017923835,1197912190762060,-0.0103124995,0.0963875,0.0286
1680017923838,1197912193264214,-0.0143,0.08635,0.0226875
1680017923840,1197912195766565,-0.017324999,0.073425,0.0196625
1680017923843,1197912198268796,-0.0143,0.0603625,0.013612499
1680017923845,1197912200771181,-0.0143,0.0444125,0.004675
1680017923848,1197912203273412,-0.0163625,0.0284625,-0.001375
1680017923851,1197912205775873,-0.017324999,0.013475,-0.0072875
1680017923852,1197912208278258,-0.0133375,4.125E-4,-0.0083875
1680017923855,1197912210780488,-0.0083875,-0.0155375,-0.00935
1680017923858,1197912213282642,0.0037125,-0.0295625,-0.012375
1680017923861,1197912215785032,0.013612499,-0.0405625,-0.0154
1680017923863,1197912218287263,0.0246125,-0.0506,-0.0133375
1680017923867,1197912220789647,0.0356125,-0.0625625,-0.0154
1680017923869,1197912223292109,0.045649998,-0.0655875,-0.0163625
1680017923871,1197912225794268,0.0576125,-0.0686125,-0.0133375
1680017923873,1197912228296729,0.0697125,-0.0655875,-0.0182875
1680017923875,1197912230798883,0.081675,-0.063525,-0.0182875
1680017923878,1197912233301114,0.0917125,-0.0576125,-0.0193875
1680017923881,1197912235803499,0.0966625,-0.045649998,-0.017324999
1680017923883,1197912238305964,0.1076625,-0.0405625,-0.0163625
1680017923885,1197912240808118,0.1137125,-0.03355,-0.0163625
1680017923888,1197912243310349,0.11165,-0.0265375,-0.0163625
1680017923891,1197912245812738,0.1126125,-0.0166375,-0.0163625
1680017923893,1197912248314969,0.108625,-0.01155,-0.017324999
1680017923895,1197912250817354,0.10065,-0.0075625,-0.0182875
1680017923899,1197912253319815,0.0946,-0.0066,-0.0163625
1680017923901,1197912255822046,0.0906125,-0.008525,-0.012375
1680017923904,1197912258324455,0.0847,-0.0056375,-0.0193875
1680017923906,1197912260826609,0.0796125,-0.0075625,-0.0163625
1680017923907,1197912263328839,0.0746625,-0.01155,-0.012375
1680017923910,1197912265831224,0.070675,-0.0166375,-0.012375
1680017923912,1197912268333685,0.070675,-0.0246125,-0.00935
1680017923916,1197912270835916,0.0716375,-0.034649998,-0.0072875
1680017923918,1197912273338301,0.0697125,-0.0506,-0.0033
1680017923921,1197912275840532,0.0697125,-0.063525,-2.75E-4
1680017923923,1197912278342916,0.0666875,-0.0765875,0.0026125
1680017923925,1197912280845147,0.064625,-0.0925375,0.0056375
1680017923928,1197912283347532,0.0606375,-0.108625,0.0066
1680017923931,1197912285849762,0.0627,-0.1166,0.0116875
1680017923933,1197912288352147,0.0606375,-0.13365,0.0166375
1680017923935,1197912290854373,0.0587125,-0.14465,0.015675
1680017923938,1197912293356834,0.053625,-0.157575,0.0196625
1680017923942,1197912295858988,0.0506,-0.1645875,0.021724999
1680017923944,1197912298361373,0.048675,-0.1695375,0.0226875
1680017923946,1197912300863599,0.0416625,-0.1755875,0.02365
1680017923949,1197912303365752,0.0386375,-0.179575,0.0226875
1680017923951,1197912305868137,0.0356125,-0.179575,0.02365
1680017923952,1197912308370599,0.0297,-0.17765,0.0246125
1680017923955,1197912310872834,0.026675,-0.173525,0.0257125
1680017923958,1197912313375219,0.021724999,-0.168575,0.02365
1680017923961,1197912315877450,0.014712499,-0.1606,0.0226875
1680017923964,1197912318379834,0.013612499,-0.152625,0.021724999
1680017923965,1197912320882065,0.0086624995,-0.1425875,0.021724999
1680017923968,1197912323384431,0.004675,-0.1346125,0.0196625
1680017923971,1197912325886662,0.00165,-0.1255375,0.0166375
1680017923973,1197912328389046,-0.0023375,-0.115637496,0.0166375
1680017923975,1197912330891277,-0.0053625,-0.1035375,0.015675
1680017923979,1197912333393667,-0.0053625,-0.096525,0.014712499
1680017923982,1197912335895897,-0.0053625,-0.0836,0.01265
1680017923984,1197912338398359,-0.0053625,-0.07865,0.010725
1680017923988,1197912340900744,-0.0072875,-0.069575,0.0116875
1680017923988,1197912343402897,-0.00935,-0.058575,0.010725
1680017923991,1197912345905133,-0.012375,-0.052525,0.009625
1680017923993,1197912348407518,-0.0133375,-0.042625,0.0066
1680017923995,1197912350909749,-0.011275,-0.034649998,0.0077
1680017923998,1197912353412210,-0.00935,-0.03355,0.0066
1680017924001,1197912355914604,-0.0163625,-0.0265375,0.0037125
1680017924003,1197912358416835,-0.011275,-0.0215875,0.00165
1680017924006,1197912360918988,-0.0083875,-0.0215875,6.875E-4
1680017924008,1197912363421373,-0.0044,-0.014575,-0.001375
1680017924011,1197912365923628,0.004675,-0.008525,-0.0072875
1680017924013,1197912368426089,0.02365,0.0064625,6.875E-4
1680017924017,1197912370928243,0.0526625,0.0284625,6.875E-4
1680017924020,1197912373430628,0.08965,0.0484,6.875E-4
1680017924022,1197912375932845,0.1287,0.0713625,0.0037125
1680017924023,1197912378435229,0.1596375,0.08635,0.0077
1680017924025,1197912380937460,0.1896125,0.101475,0.0066
1680017924028,1197912383439921,0.21065,0.117425,0.0026125
1680017924031,1197912385942306,0.2226125,0.1293875,0.004675
1680017924033,1197912388444537,0.229625,0.1434125,0.00165
1680017924036,1197912390946691,0.2206875,0.1544125,6.875E-4
1680017924038,1197912393449075,0.2116125,0.1623875,6.875E-4
1680017924041,1197912395951306,0.2006125,0.172425,-0.0033
1680017924044,1197912398453777,0.18259999,0.183425,-0.0033
1680017924045,1197912400956161,0.16665,0.189475,-0.0044
1680017924051,1197912403458392,0.1456125,0.194425,-0.006325
1680017924051,1197912405960777,0.13365,0.194425,-0.0083875
1680017924056,1197912408462917,0.1216875,0.1904375,-0.012375
1680017924057,1197912410965147,0.1137125,0.17847499,-0.0154
1680017924058,1197912413467609,0.108625,0.1623875,-0.0103124995
1680017924061,1197912415969993,0.1056,0.1464375,-0.011275
1680017924063,1197912418472224,0.1027125,0.1214125,-0.0133375
1680017924066,1197912420974599,0.103675,0.091437496,-0.0103124995
1680017924068,1197912423476830,0.104637496,0.062425,-0.00935
1680017924073,1197912425979214,0.103675,0.03135,-0.006325
1680017924073,1197912428481445,0.1027125,-0.00165,-0.0023375
1680017924076,1197912430983835,0.103675,-0.03355,-0.0023375
1680017924078,1197912433486065,0.10065,-0.06655,-2.75E-4
1680017924081,1197912435988450,0.095699996,-0.096525,0.0066
1680017924084,1197912438490604,0.097625,-0.118525,0.010725
1680017924086,1197912440992796,0.0946,-0.146575,0.0116875
1680017924088,1197912443495257,0.08965,-0.16555,0.015675
1680017924093,1197912445997642,0.0856625,-0.18259999,0.014712499
1680017924095,1197912448499873,0.0807125,-0.195525,0.020624999
1680017924096,1197912451002262,0.0746625,-0.2085875,0.020624999
1680017924098,1197912453504493,0.070675,-0.217525,0.0187
1680017924102,1197912456006878,0.064625,-0.2256375,0.020624999
1680017924104,1197912458509108,0.0606375,-0.228525,0.021724999
1680017924106,1197912461011493,0.0556875,-0.229625,0.0166375
1680017924108,1197912463513710,0.0506,-0.228525,0.01265
1680017924111,1197912466016094,0.0446875,-0.22453749,0.010725
1680017924113,1197912468518325,0.0396,-0.228525,0.0077
1680017924116,1197912471020710,0.0356125,-0.22659999,0.0037125
1680017924119,1197912473523142,0.0286,-0.2226125,-2.75E-4
1680017924122,1197912476025296,0.021724999,-0.2195875,-0.0023375
1680017924124,1197912478527527,0.015675,-0.2165625,-0.006325
1680017924126,1197912481029912,0.01265,-0.2156,-0.00935
1680017924130,1197912483532118,0.009625,-0.21065,-0.0133375
1680017924134,1197912486034503,0.0077,-0.21065,-0.0154
1680017924135,1197912488536965,0.004675,-0.2116125,-0.0193875
1680017924136,1197912491039195,0.00165,-0.20955,-0.022275
1680017924138,1197912493541580,0.0037125,-0.2055625,-0.0243375
1680017924141,1197912496043743,0.0037125,-0.19855,-0.0253
1680017924143,1197912498545974,0.004675,-0.1975875,-0.0273625
1680017924146,1197912501048358,0.0077,-0.1896125,-0.0292875
1680017924149,1197912503550820,0.004675,-0.18053749,-0.0292875
1680017924151,1197912506052960,0.0077,-0.173525,-0.0292875
1680017924153,1197912508555190,0.0086624995,-0.162525,-0.0323125
1680017924156,1197912511057575,0.0116875,-0.1505625,-0.0303875
1680017924158,1197912513559806,0.015675,-0.13365,-0.0292875
1680017924161,1197912516062175,0.0226875,-0.1145375,-0.0264
1680017924163,1197912518564637,0.031625,-0.0946,-0.0243375
1680017924168,1197912521066868,0.043725,-0.074525,-0.023375
1680017924170,1197912523569022,0.048675,-0.0576125,-0.023375
1680017924171,1197912526071406,0.059675,-0.041525,-0.0213125
1680017924178,1197912528573647,0.06765,-0.020624999,-0.02035
1680017924178,1197912531076032,0.073699996,-0.00165,-0.0213125
1680017924179,1197912533578493,0.076725,0.0174625,-0.0193875
1680017924180,1197912536080724,0.075625,0.035475,-0.0182875
1680017924183,1197912538583090,0.073699996,0.0554125,-0.0154
1680017924186,1197912541085320,0.075625,0.0814,-0.012375
1680017924188,1197912543587474,0.075625,0.1034,-0.0103124995
1680017924191,1197912546089859,0.075625,0.124437496,-0.0072875
1680017924193,1197912548592348,0.073699996,0.14739999,-0.0033
1680017924196,1197912551094579,0.070675,0.166375,6.875E-4
1680017924199,1197912553596964,0.070675,0.183425,0.004675
1680017924202,1197912556099195,0.0666875,0.194425,0.0056375
1680017924205,1197912558601594,0.0616,0.20735,0.0077
1680017924207,1197912561103748,0.0556875,0.2154625,0.010725
1680017924209,1197912563606210,0.0517,0.2204125,0.014712499
1680017924211,1197912566108440,0.0506,0.22247499,0.0187
1680017924213,1197912568610825,0.0466125,0.22935,0.020624999
1680017924216,1197912571113027,0.043725,0.227425,0.02365
1680017924218,1197912573615411,0.0386375,0.2244,0.0246125
1680017924221,1197912576117565,0.037675,0.221375,0.0286
1680017924223,1197912578619796,0.0367125,0.21835,0.0306625
1680017924226,1197912581122281,0.0356125,0.2094125,0.032725
1680017924228,1197912583624666,0.031625,0.19745,0.0367125
1680017924231,1197912586126897,0.0286,0.1874125,0.0386375
1680017924233,1197912588629282,0.0276375,0.1813625,0.0416625
1680017924236,1197912591131469,0.0286,0.16445,0.042625
1680017924239,1197912593633700,0.0336875,0.14739999,0.0466125
1680017924243,1197912596136162,0.0257125,0.13145,0.0526625
1680017924245,1197912598638546,0.0246125,0.12045,0.053625
1680017924247,1197912601140762,0.0246125,0.1034,0.054725
1680017924250,1197912603643147,0.0257125,0.08635,0.0576125
1680017924253,1197912606145377,0.02365,0.0704,0.0606375
1680017924254,1197912608647762,0.0276375,0.0554125,0.0616
1680017924257,1197912611149993,0.0276375,0.0413875,0.0627
1680017924259,1197912613652411,0.0276375,0.0254375,0.065725
1680017924260,1197912616154642,0.0306625,0.013475,0.0666875
1680017924263,1197912618657027,0.0367125,-0.003575,0.065725
1680017924265,1197912621159258,0.034649998,-0.0166375,0.064625
1680017924269,1197912623661632,0.0356125,-0.0286,0.0616
1680017924270,1197912626164094,0.037675,-0.036575,0.0627
1680017924273,1197912628666248,0.045649998,-0.0435875,0.0627
1680017924276,1197912631168478,0.0556875,-0.052525,0.0636625
1680017924280,1197912633670873,0.0616,-0.0576125,0.0606375
1680017924290,1197912636173104,0.0686125,-0.0655875,0.0606375
1680017924291,1197912638675258,0.070675,-0.0705375,0.0587125
1680017924291,1197912641177719,0.0776875,-0.0796125,0.0576125
1680017924295,1197912643680138,0.0796125,-0.0826375,0.0556875
1680017924296,1197912646182369,0.0796125,-0.086625,0.0526625
1680017924298,1197912648684753,0.0776875,-0.08965,0.0466125
1680017924299,1197912651186984,0.075625,-0.091575,0.0416625
1680017924300,1197912653689369,0.076725,-0.093637496,0.042625
1680017924302,1197912656191844,0.0746625,-0.091575,0.0407
1680017924304,1197912658693998,0.0697125,-0.093637496,0.0407
1680017924306,1197912661196229,0.0666875,-0.096525,0.037675
1680017924308,1197912663698613,0.064625,-0.09955,0.0356125
1680017924310,1197912666200844,0.0666875,-0.1016125,0.0336875
1680017924313,1197912668703248,0.0636625,-0.108625,0.0306625
1680017924317,1197912671205709,0.064625,-0.11165,0.026675
1680017924320,1197912673707940,0.0666875,-0.118525,0.0276375
1680017924324,1197912676209017,0.064625,-0.12155,0.0257125
1680017924324,1197912678710094,0.06765,-0.124575,0.0257125
1680017924326,1197912681214709,0.0666875,-0.1315875,0.0257125
1680017924328,1197912683717094,0.064625,-0.1376375,0.0246125
1680017924331,1197912686219556,0.0636625,-0.1395625,0.026675
1680017924333,1197912688721786,0.0576125,-0.1425875,0.0276375
1680017924336,1197912691224171,0.0556875,-0.1456125,0.0257125
1680017924339,1197912693726402,0.0556875,-0.1496,0.0286
1680017924341,1197912696228556,0.0526625,-0.146575,0.031625
1680017924345,1197912698730935,0.0506,-0.1395625,0.0336875
1680017924352,1197912701233397,0.045649998,-0.13365,0.0367125
1680017924352,1197912703735628,0.0446875,-0.130625,0.0367125
1680017924352,1197912706238012,0.0416625,-0.1205875,0.0416625
1680017924355,1197912708740185,0.0396,-0.1166,0.0446875
1680017924356,1197912711242416,0.0396,-0.108625,0.0477125
1680017924359,1197912713744800,0.0396,-0.0985875,0.0496375
1680017924361,1197912716247262,0.0407,-0.0906125,0.0526625
1680017924363,1197912718749493,0.0396,-0.0836,0.0517
1680017924366,1197912721251877,0.0416625,-0.06765,0.053625
1680017924369,1197912723754031,0.045649998,-0.058575,0.0556875
1680017924371,1197912726256262,0.048675,-0.045649998,0.0556875
1680017924373,1197912728758627,0.053625,-0.030524999,0.053625
1680017924376,1197912731261088,0.0587125,-0.0166375,0.053625
1680017924379,1197912733763319,0.0697125,-0.003575,0.054725
1680017924381,1197912736265704,0.0807125,0.0154,0.0587125
1680017924384,1197912738767949,0.0906125,0.032449998,0.0576125
1680017924386,1197912741270334,0.1016125,0.0484,0.0587125
1680017924389,1197912743772488,0.1126125,0.0664125,0.0606375
1680017924392,1197912746274949,0.12265,0.0814,0.0616
1680017924394,1197912748777180,0.1247125,0.095425,0.0636625
1680017924396,1197912751279565,0.1266375,0.1054625,0.0606375
1680017924400,1197912753781796,0.1296625,0.117425,0.059675
1680017924402,1197912756284180,0.1296625,0.1274625,0.0576125
1680017924404,1197912758786334,0.1287,0.139425,0.056649998
1680017924406,1197912761288857,0.125675,0.1483625,0.056649998
1680017924411,1197912763791011,0.1247125,0.155375,0.056649998
1680017924412,1197912766293396,0.1216875,0.1654125,0.053625
1680017924413,1197912768795627,0.1166,0.167475,0.0496375
1680017924416,1197912771298006,0.1126125,0.1703625,0.048675
1680017924420,1197912773800160,0.11165,0.167475,0.043725
1680017924421,1197912776302622,0.109725,0.1623875,0.0386375
1680017924424,1197912778804853,0.1076625,0.1593625,0.037675
1680017924427,1197912781307237,0.1076625,0.1494625,0.0336875
1680017924433,1197912783809468,0.1016125,0.1364,0.031625
1680017924433,1197912786311853,0.1016125,0.123475,0.0297
1680017924434,1197912788814083,0.10065,0.1104125,0.0286
1680017924436,1197912791316473,0.095699996,0.09845,0.0297
1680017924440,1197912793818704,0.095699996,0.0814,0.031625
1680017924442,1197912796321088,0.0966625,0.0633875,0.032725
1680017924444,1197912798823319,0.0906125,0.0484,0.0356125
1680017924446,1197912801325704,0.087725,0.0303875,0.0356125
1680017924450,1197912803827929,0.0856625,0.012375,0.0367125
1680017924451,1197912806330391,0.0847,-0.008525,0.0367125
1680017924453,1197912808832776,0.0796125,-0.0215875,0.037675
1680017924456,1197912811334930,0.0716375,-0.036575,0.0367125
1680017924460,1197912813837155,0.070675,-0.0545875,0.0396
1680017924461,1197912816339540,0.06765,-0.069575,0.0407
1680017924463,1197912818841771,0.0627,-0.0836,0.0396
1680017924468,1197912821344232,0.0606375,-0.096525,0.0367125
1680017924470,1197912823846613,0.0556875,-0.1065625,0.037675
1680017924474,1197912826348844,0.0526625,-0.1166,0.0416625
1680017924475,1197912828850997,0.0466125,-0.1255375,0.0396
1680017924476,1197912831353382,0.042625,-0.1346125,0.0367125
1680017924480,1197912833855613,0.042625,-0.1425875,0.0367125
1680017924482,1197912836358064,0.037675,-0.1456125,0.037675
1680017924484,1197912838860218,0.034649998,-0.1505625,0.0367125
1680017924486,1197912841362603,0.0336875,-0.1566125,0.0367125
1680017924490,1197912843864834,0.0297,-0.1615625,0.0356125
1680017924492,1197912846367208,0.0276375,-0.1645875,0.037675
1680017924493,1197912848869439,0.02365,-0.168575,0.0386375
1680017924498,1197912851371901,0.021724999,-0.1706375,0.0367125
1680017924500,1197912853874285,0.020624999,-0.1725625,0.0367125
1680017924501,1197912856376511,0.0196625,-0.168575,0.037675
1680017924505,1197912858878665,0.0176,-0.16665,0.0367125
1680017924507,1197912861381126,0.015675,-0.1645875,0.0386375
1680017924510,1197912863883511,0.015675,-0.1566125,0.0407
1680017924511,1197912866385757,0.0246125,-0.151525,0.042625
1680017924513,1197912868887911,0.0286,-0.1425875,0.042625
1680017924516,1197912871390295,0.0356125,-0.130625,0.0466125
1680017924519,1197912873892526,0.043725,-0.124575,0.0496375
1680017924523,1197912876394969,0.048675,-0.113575,0.053625
1680017924525,1197912878897353,0.053625,-0.1016125,0.054725
1680017924526,1197912881399584,0.056649998,-0.093637496,0.054725
1680017924529,1197912883901969,0.0587125,-0.0826375,0.053625
1680017924532,1197912886404199,0.0556875,-0.074525,0.054725
1680017924533,1197912888906357,0.053625,-0.063525,0.054725
1680017924536,1197912891408819,0.048675,-0.053625,0.0526625
1680017924543,1197912893911203,0.042625,-0.0405625,0.0517
1680017924544,1197912896413357,0.0396,-0.0265375,0.0526625
1680017924545,1197912898915609,0.0336875,-0.014575,0.0517
1680017924546,1197912901417994,0.0306625,-0.0066,0.048675
1680017924550,1197912903920224,0.0297,0.001375,0.0477125
1680017924551,1197912906422686,0.02365,0.0044,0.0517
1680017924553,1197912908925075,0.02365,0.0083875,0.0517
1680017924558,1197912911427305,0.0257125,0.0114124995,0.048675
1680017924560,1197912913929690,0.0257125,0.0114124995,0.0496375
1680017924563,1197912916431844,0.0196625,0.012375,0.0466125
1680017924566,1197912918934085,0.0176,0.0083875,0.0466125
1680017924566,1197912921436546,0.0187,0.001375,0.0466125
1680017924570,1197912923938931,0.0187,4.125E-4,0.0466125
1680017924571,1197912926441162,0.0187,-0.003575,0.045649998
1680017924573,1197912928943546,0.013612499,-0.0056375,0.043725
1680017924576,1197912931445767,0.01265,-0.009625,0.0477125
1680017924581,1197912933948152,0.009625,-0.01155,0.042625
1680017924583,1197912936450382,0.004675,-0.014575,0.042625
1680017924585,1197912938952767,0.00165,-0.0155375,0.043725
1680017924587,1197912941454989,6.875E-4,-0.0166375,0.0407
1680017924590,1197912943957373,6.875E-4,-0.0176,0.037675
1680017924592,1197912946459604,-0.0023375,-0.0176,0.0386375
1680017924594,1197912948961989,0.00165,-0.01265,0.0386375
1680017924596,1197912951464450,0.01265,-0.0045375,0.0407
1680017924603,1197912953966594,0.0257125,0.0044,0.043725
1680017924603,1197912956468825,0.0386375,0.012375,0.042625
1680017924605,1197912958971210,0.054725,0.024475,0.043725
1680017924606,1197912961473440,0.0686125,0.0374,0.0446875
1680017924610,1197912963975594,0.0746625,0.0484,0.043725
1680017924611,1197912966478051,0.08965,0.0614625,0.045649998
1680017924613,1197912968980435,0.1027125,0.0774125,0.045649998
1680017924618,1197912971482666,0.11165,0.089375,0.045649998
1680017924620,1197912973985051,0.1137125,0.1073875,0.0407
1680017924622,1197912976487282,0.1186625,0.1263625,0.0396
1680017924624,1197912978989666,0.12265,0.139425,0.0396
1680017924626,1197912981492128,0.1247125,0.156475,0.0386375
1680017924630,1197912983994282,0.1186625,0.1714625,0.037675
1680017924632,1197912986496512,0.109725,0.18535,0.0386375
1680017924634,1197912988998887,0.1056,0.1923625,0.0396
1680017924636,1197912991501118,0.097625,0.2024,0.0396
1680017924639,1197912994003502,0.08965,0.2063875,0.037675
1680017924642,1197912996505964,0.07865,0.20735,0.037675
1680017924644,1197912999008186,0.0686125,0.20735,0.0396
1680017924646,1197913001510339,0.0556875,0.199375,0.0386375
1680017924650,1197913004012724,0.0477125,0.1934625,0.037675
1680017924651,1197913006514955,0.0416625,0.1794375,0.0396
1680017924655,1197913009017345,0.0367125,0.1604625,0.042625
1680017924657,1197913011519806,0.0336875,0.14135,0.043725
1680017924660,1197913014022037,0.0246125,0.122375,0.045649998
1680017924661,1197913016524191,0.020624999,0.09845,0.0477125
1680017924664,1197913019026652,0.0196625,0.07645,0.045649998
1680017924666,1197913021528811,0.015675,0.0474375,0.048675
1680017924669,1197913024031196,0.013612499,0.024475,0.048675
1680017924671,1197913026533657,0.0086624995,-0.00165,0.0466125
1680017924673,1197913029035888,0.0056375,-0.0276375,0.0496375
1680017924676,1197913031538032,0.0037125,-0.0485375,0.0466125
1680017924680,1197913034040416,6.875E-4,-0.075625,0.045649998
1680017924682,1197913036542647,-0.0044,-0.093637496,0.0446875
1680017924684,1197913039045032,-0.00935,-0.113575,0.0416625
1680017924686,1197913041547493,-0.017324999,-0.1285625,0.0356125
1680017924690,1197913044049724,-0.0253,-0.1475375,0.0336875
1680017924693,1197913046552109,-0.028324999,-0.157575,0.031625
1680017924694,1197913049054340,-0.0363,-0.162525,0.0276375
1680017924696,1197913051556493,-0.0433125,-0.1755875,0.0226875
1680017924700,1197913054058907,-0.0543125,-0.1835625,0.0166375
1680017924701,1197913056561369,-0.061325,-0.184525,0.014712499
1680017924704,1197913059063599,-0.0683375,-0.1896125,0.0066
1680017924706,1197913061565984,-0.0743875,-0.1915375,0.004675
1680017924710,1197913064068215,-0.083325,-0.1945625,0.0026125
1680017924711,1197913066570599,-0.0922625,-0.1896125,-0.0033
1680017924714,1197913069072753,-0.1023,-0.1896125,-0.006325
1680017924716,1197913071575215,-0.1043625,-0.18755,-0.00935
1680017924719,1197913074077446,-0.110275,-0.1816375,-0.011275
1680017924723,1197913076579815,-0.1183875,-0.1786125,-0.0103124995
1680017924726,1197913079081969,-0.1243,-0.17655,-0.00935
1680017924726,1197913081584200,-0.1293875,-0.17655,-0.0163625
1680017924731,1197913084086594,-0.1343375,-0.1695375,-0.0163625
1680017924732,1197913086589056,-0.138325,-0.16555,-0.0163625
1680017924734,1197913089091287,-0.1392875,-0.1615625,-0.0182875
1680017924736,1197913091593671,-0.143275,-0.1566125,-0.0182875
1680017924739,1197913094095902,-0.149325,-0.1486375,-0.0182875
1680017924741,1197913096598277,-0.149325,-0.140525,-0.0163625
1680017924744,1197913099100431,-0.1463,-0.13255,-0.0133375
1680017924746,1197913101602892,-0.144375,-0.1236125,-0.0163625
1680017924750,1197913104105123,-0.1403875,-0.107525,-0.0193875
1680017924752,1197913106607503,-0.1293875,-0.0946,-0.02035
1680017924754,1197913109109733,-0.116325,-0.080575,-0.0213125
1680017924756,1197913111612118,-0.1013375,-0.0606375,-0.0213125
1680017924760,1197913114114349,-0.0842875,-0.041525,-0.022275
1680017924763,1197913116616748,-0.0633875,-0.0185625,-0.0243375
1680017924764,1197913119118979,-0.0353375,0.0044,-0.0243375
1680017924768,1197913121621364,-0.0042625,0.043449998,-0.0243375
1680017924771,1197913124123595,0.0276375,0.084425,-0.0253
1680017924772,1197913126625979,0.054725,0.117425,-0.0264
1680017924775,1197913129128219,0.0856625,0.1513875,-0.028324999
1680017924776,1197913131630680,0.1057375,0.1904375,-0.0292875
1680017924779,1197913134132834,0.1186625,0.2244,-0.0323125
1680017924781,1197913136635219,0.120725,0.26235,-0.028324999
1680017924784,1197913139137455,0.1137125,0.3034625,-0.0264
1680017924786,1197913141639839,0.104637496,0.33935,-0.0253
1680017924789,1197913144142070,0.0917125,0.3774375,-0.0273625
1680017924793,1197913146644455,0.0727375,0.40645,-0.023375
1680017924795,1197913149146705,0.0526625,0.4334,-0.022275
1680017924796,1197913151649089,0.0367125,0.458425,-0.0213125
1680017924800,1197913154151320,0.021724999,0.4703875,-0.0213125
1680017924802,1197913156653705,0.009625,0.4783625,-0.0213125
1680017924807,1197913159155955,0.00165,0.4794625,-0.02035
1680017924808,1197913161658417,-0.0033,0.47547498,-0.02035
1680017924812,1197913164160571,-0.006325,0.4554,-0.02035
1680017924814,1197913166662955,-0.006325,0.4343625,-0.0213125
1680017924814,1197913169165186,-0.0042625,0.409475,-0.02035
1680017924817,1197913171667571,-0.0033,0.37235,-0.02035
1680017924820,1197913174169802,-0.001375,0.3364625,-0.0154
1680017924821,1197913176672263,6.875E-4,0.29645,-0.0133375
1680017924825,1197913179174648,-0.0023375,0.25135,-0.011275
1680017924826,1197913181676873,-0.0023375,0.205425,-0.0033
1680017924830,1197913184179027,0.004675,0.1604625,0.0026125
1680017924833,1197913186681412,0.00165,0.10835,0.0086624995
1680017924834,1197913189183643,0.00165,0.062425,0.0116875
1680017924837,1197913191686094,-0.0023375,0.018424999,0.0187
1680017924839,1197913194188248,-0.0083875,-0.0246125,0.0246125
1680017924844,1197913196690633,-0.0103124995,-0.064625,0.0297
1680017924846,1197913199192864,-0.015262499,-0.1065625,0.031625
1680017924847,1197913201695253,-0.0182875,-0.1395625,0.032725
1680017924850,1197913204197484,-0.023375,-0.1695375,0.0306625
1680017924852,1197913206699945,-0.028324999,-0.201575,0.032725
1680017924854,1197913209202330,-0.0292875,-0.2336125,0.0286
1680017924856,1197913211704484,-0.034375,-0.2605625,0.0257125
1680017924859,1197913214206715,-0.039325,-0.278575,0.0226875
1680017924861,1197913216709099,-0.0473,-0.2965875,0.01265
1680017924864,1197913219211330,-0.0523875,-0.3146,0.0086624995
1680017924866,1197913221713715,-0.0543125,-0.3345375,0.0066
1680017924871,1197913224216176,-0.056375,-0.3485625,0.00165
1680017924871,1197913226718407,-0.0592625,-0.3576375,-0.006325
1680017924874,1197913229220792,-0.0633875,-0.366575,-0.0103124995
1680017924876,1197913231722946,-0.0683375,-0.3796375,-0.0182875
1680017924881,1197913234225185,-0.0732875,-0.3845875,-0.0213125
1680017924884,1197913236727570,-0.07535,-0.38953748,-0.0243375
1680017924885,1197913239230031,-0.0763125,-0.3955875,-0.033275
1680017924888,1197913241732262,-0.0793375,-0.393525,-0.039325
1680017924891,1197913244234647,-0.0842875,-0.394625,-0.044275
1680017924892,1197913246736796,-0.0812625,-0.388575,-0.0493625
1680017924894,1197913249239257,-0.083325,-0.3796375,-0.0512875
1680017924897,1197913251741411,-0.083325,-0.3675375,-0.055275
1680017924899,1197913254243873,-0.0812625,-0.3565375,-0.0573375
1680017924901,1197913256746103,-0.077275,-0.3436125,-0.0622875
1680017924904,1197913259248261,-0.0743875,-0.3256,-0.0622875
1680017924907,1197913261750646,-0.061325,-0.295625,-0.0622875
1680017924909,1197913264252877,-0.0433125,-0.262625,-0.0622875
1680017924912,1197913266755261,-0.0163625,-0.22659999,-0.0583
1680017924914,1197913269257742,0.013612499,-0.1865875,-0.056375
1680017924918,1197913271759973,0.042625,-0.14465,-0.0543125
1680017924920,1197913274262357,0.070675,-0.108625,-0.055275
1680017924924,1197913276764622,0.093637496,-0.0716375,-0.0573375
1680017924926,1197913279266776,0.1137125,-0.0276375,-0.0583
1680017924928,1197913281769160,0.131725,0.023375,-0.0573375
1680017924931,1197913284271622,0.14973749,0.0774125,-0.055275
1680017924932,1197913286773853,0.1617,0.1384625,-0.050325
1680017924934,1197913289276227,0.17173749,0.19745,-0.0463375
1680017924937,1197913291778458,0.1797125,0.2534125,-0.0433125
1680017924940,1197913294280843,0.1827375,0.3034625,-0.039325
1680017924941,1197913296783074,0.180675,0.354475,-0.0374
1680017924944,1197913299285227,0.17765,0.39545,-0.0323125
1680017924946,1197913301787694,0.169675,0.4343625,-0.0264
1680017924950,1197913304290079,0.1577125,0.464475,-0.023375
1680017924952,1197913306792309,0.147675,0.486475,-0.023375
1680017924955,1197913309294473,0.1376375,0.5033875,-0.0193875
1680017924957,1197913311796858,0.1266375,0.513425,-0.0154
1680017924960,1197913314299089,0.1076625,0.5214,-0.0163625
1680017924963,1197913316801550,0.093637496,0.5214,-0.0103124995
1680017924964,1197913319303935,0.0856625,0.5094375,-0.0083875
1680017924966,1197913321806156,0.0727375,0.497475,-0.0072875
1680017924970,1197913324308540,0.0617375,0.4813875,-0.0083875
1680017924973,1197913326810694,0.0526625,0.4544375,-0.0053625
1680017924973,1197913329312925,0.042625,0.419375,-0.0044
1680017924976,1197913331815381,0.0367125,0.381425,-0.0023375
1680017924980,1197913334317766,0.0306625,0.3444375,0.00165
1680017924981,1197913336819997,0.0257125,0.298375,0.0077
1680017924984,1197913339322381,0.0196625,0.25245,0.010725
1680017924987,1197913341824627,0.015675,0.2124375,0.014712499
1680017924990,1197913344327012,0.01265,0.1623875,0.020624999
1680017924993,1197913346829243,0.0056375,0.111375,0.0246125
1680017924994,1197913349331627,0.0026125,0.067375,0.026675
1680017924996,1197913351833863,-0.0042625,0.018424999,0.0276375
1680017925000,1197913354336248,-0.011275,-0.025575,0.032725
1680017925002,1197913356838478,-0.0193875,-0.063525,0.0367125
1680017925004,1197913359340632,-0.0262625,-0.1065625,0.032725
1680017925006,1197913361843094,-0.034375,-0.1376375,0.0356125
1680017925010,1197913364345497,-0.039325,-0.17655,0.0367125
1680017925011,1197913366847728,-0.0473,-0.21065,0.031625
1680017925014,1197913369350113,-0.0543125,-0.239525,0.031625
1680017925017,1197913371852339,-0.0592625,-0.262625,0.0286
1680017925020,1197913374354492,-0.067375,-0.28655,0.0257125
1680017925022,1197913376856877,-0.0763125,-0.3136375,0.0226875
1680017925024,1197913379359339,-0.0853875,-0.33055,0.0166375
1680017925027,1197913381861569,-0.0952875,-0.3485625,0.010725
1680017925032,1197913384363954,-0.1062875,-0.36355,0.004675
1680017925033,1197913386866185,-0.1142625,-0.377575,0.0026125
1680017925034,1197913389368569,-0.122375,-0.3925625,-0.0033
1680017925036,1197913391870800,-0.1313125,-0.3986125,-0.011275
1680017925040,1197913394373175,-0.14135,-0.404525,-0.0182875
1680017925042,1197913396875406,-0.1513875,-0.4096125,-0.023375
1680017925044,1197913399377790,-0.1593625,-0.40865,-0.0273625
1680017925047,1197913401880021,-0.166375,-0.4096125,-0.0303875
1680017925050,1197913404382397,-0.171325,-0.410575,-0.033275
1680017925051,1197913406884627,-0.1783375,-0.4016375,-0.0374
1680017925054,1197913409387089,-0.177375,-0.393525,-0.039325
1680017925056,1197913411889473,-0.1703625,-0.382525,-0.039325
1680017925060,1197913414391642,-0.15235,-0.36355,-0.0374
1680017925061,1197913416893873,-0.1362625,-0.344575,-0.0363
1680017925064,1197913419396258,-0.1183875,-0.3265625,-0.0353375
1680017925068,1197913421898483,-0.0922625,-0.305525,-0.033275
1680017925070,1197913424400868,-0.07535,-0.283525,-0.0383625
1680017925072,1197913426903099,-0.05335,-0.2486,-0.039325
1680017925074,1197913429405484,-0.023375,-0.19965,-0.039325
1680017925076,1197913431907714,0.014712499,-0.1425875,-0.039325
1680017925079,1197913434410075,0.0587125,-0.080575,-0.0374
1680017925082,1197913436912306,0.10065,-0.0155375,-0.034375
1680017925084,1197913439414690,0.1376375,0.0444125,-0.0303875
1680017925086,1197913441916921,0.1676125,0.1104125,-0.0292875
1680017925089,1197913444419292,0.1876875,0.1694,-0.0264
1680017925091,1197913446921522,0.19373749,0.2314125,-0.0243375
1680017925094,1197913449423984,0.19373749,0.288475,-0.0243375
1680017925096,1197913451926369,0.1876875,0.3474625,-0.0273625
1680017925100,1197913454428594,0.169675,0.403425,-0.0264
1680017925101,1197913456930748,0.147675,0.4514125,-0.0264
1680017925105,1197913459433133,0.125675,0.5003625,-0.0303875
1680017925107,1197913461935364,0.10065,0.53845,-0.034375
1680017925110,1197913464437724,0.075625,0.57145,-0.0363
1680017925111,1197913466940186,0.053625,0.5944125,-0.0383625
1680017925114,1197913469442340,0.0397375,0.6094,-0.039325
1680017925117,1197913471944570,0.0257125,0.617375,-0.0383625
1680017925119,1197913474446955,0.01265,0.618475,-0.039325
1680017925123,1197913476949181,0.0077,0.61036247,-0.0374
1680017925124,1197913479451565,0.00165,0.596475,-0.0363
1680017925126,1197913481954027,-0.0053625,0.57035,-0.0323125
1680017925130,1197913484456166,-0.0072875,0.5363875,-0.023375
1680017925131,1197913486958397,-0.0103124995,0.502425,-0.0193875
1680017925134,1197913489460781,-0.012375,0.464475,-0.0133375
1680017925136,1197913491963012,-0.015262499,0.4153875,-0.0033
1680017925140,1197913494465397,-0.0213125,0.365475,0.0037125
1680017925143,1197913496967858,-0.0243375,0.3224375,0.0116875
1680017925145,1197913499470089,-0.0292875,0.2704625,0.0166375
1680017925147,1197913501972474,-0.0363,0.2173875,0.020624999
1680017925150,1197913504474613,-0.04235,0.1684375,0.0286
1680017925152,1197913506976844,-0.045375,0.1214125,0.0336875
1680017925154,1197913509479229,-0.0512875,0.0724625,0.0407
1680017925156,1197913511981690,-0.0603625,0.024475,0.0446875
1680017925160,1197913514483921,-0.0633875,-0.0176,0.048675
1680017925162,1197913516986315,-0.0702625,-0.0595375,0.0496375
1680017925164,1197913519488546,-0.0793375,-0.1065625,0.048675
1680017925166,1197913521990930,-0.0853875,-0.1486375,0.0496375
1680017925169,1197913524493084,-0.091299996,-0.185625,0.0526625
1680017925171,1197913526995315,-0.0952875,-0.218625,0.048675
1680017925175,1197913529497767,-0.105325,-0.2525875,0.0446875
1680017925176,1197913531999921,-0.113299996,-0.2825625,0.0416625
1680017925181,1197913534502306,-0.1203125,-0.3106125,0.0356125
1680017925183,1197913537004537,-0.1282875,-0.338525,0.026675
1680017925185,1197913539506935,-0.1392875,-0.3625875,0.0187
1680017925187,1197913542009166,-0.144375,-0.382525,0.010725
1680017925190,1197913544511628,-0.154275,-0.405625,0.004675
1680017925194,1197913547014012,-0.1692625,-0.421575,-0.001375
1680017925195,1197913549516243,-0.1793,-0.438625,-0.011275
1680017925196,1197913552018388,-0.1863125,-0.4486625,-0.0213125
1680017925200,1197913554520772,-0.1953875,-0.4576,-0.0264
1680017925202,1197913557023003,-0.1973125,-0.4676375,-0.0323125
1680017925204,1197913559525465,-0.2024,-0.4686,-0.0363
1680017925206,1197913562027848,-0.2013,-0.4665375,-0.0413875
1680017925210,1197913564530079,-0.19139999,-0.4596625,-0.044275
1680017925212,1197913567032464,-0.177375,-0.4505875,-0.045375
1680017925215,1197913569534695,-0.1623875,-0.4426125,-0.045375
1680017925218,1197913572036834,-0.14533749,-0.4316125,-0.0413875
1680017925221,1197913574539296,-0.1254,-0.4145625,-0.039325
1680017925223,1197913577041681,-0.1023,-0.3906375,-0.0374
1680017925224,1197913579543834,-0.0683375,-0.361625,-0.034375
1680017925228,1197913582046040,-0.0253,-0.3235375,-0.0253
1680017925232,1197913584548425,0.015675,-0.278575,-0.0193875
1680017925233,1197913587050656,0.0587125,-0.2336125,-0.00935
1680017925235,1197913589553117,0.095699996,-0.1846625,-0.0023375
1680017925237,1197913592055502,0.1186625,-0.1395625,0.0026125
1680017925240,1197913594557709,0.1276,-0.0836,0.0056375
1680017925244,1197913597060093,0.1287,-0.0325875,0.009625
1680017925245,1197913599562247,0.1126125,0.0163625,0.010725
1680017925247,1197913602064478,0.0906125,0.0724625,0.0086624995
1680017925250,1197913604566929,0.0636625,0.1343375,0.0077
1680017925252,1197913607069314,0.0306625,0.199375,6.875E-4
1680017925256,1197913609571545,-0.0033,0.2574,-0.0072875
1680017925257,1197913612073929,-0.028324999,0.31845,-0.0133375
1680017925260,1197913614576160,-0.0583,0.3713875,-0.0213125
1680017925262,1197913617078545,-0.0814,0.4203375,-0.028324999
1680017925264,1197913619580776,-0.0933625,0.4593875,-0.0402875
1680017925267,1197913622083160,-0.1013375,0.491425,-0.0463375
1680017925270,1197913624585415,-0.1062875,0.5124625,-0.056375
1680017925272,1197913627087800,-0.100375,0.5214,-0.0573375
1680017925274,1197913629589953,-0.099275,0.5253875,-0.0594
1680017925277,1197913632092184,-0.094325,0.518375,-0.061325
1680017925280,1197913634594665,-0.091299996,0.5003625,-0.0594
1680017925283,1197913637097049,-0.0903375,0.4844125,-0.0594
1680017925284,1197913639599280,-0.0924,0.4593875,-0.0543125
1680017925287,1197913642101665,-0.089375,0.4244625,-0.0493625
1680017925290,1197913644603871,-0.0952875,0.3933875,-0.044275
1680017925293,1197913647106025,-0.100375,0.36245,-0.0413875
1680017925295,1197913649608487,-0.1073875,0.3254625,-0.0374
1680017925297,1197913652110872,-0.1123375,0.287375,-0.0323125
1680017925300,1197913654613102,-0.1203125,0.2473625,-0.0292875
1680017925302,1197913657115507,-0.1263625,0.20735,-0.028324999
1680017925304,1197913659617738,-0.1364,0.1694,-0.0264
1680017925307,1197913662120122,-0.14533749,0.1324125,-0.028324999
1680017925310,1197913664622584,-0.15235,0.0933625,-0.033275
1680017925312,1197913667124738,-0.160325,0.05335,-0.0353375
1680017925314,1197913669626968,-0.1703625,0.0144375,-0.0374
1680017925317,1197913672129353,-0.176275,-0.0246125,-0.0402875
1680017925322,1197913674631588,-0.18535,-0.0625625,-0.0463375
1680017925324,1197913677133742,-0.19139999,-0.0966625,-0.05335
1680017925326,1197913679636434,-0.199375,-0.1315875,-0.0594
1680017925328,1197913682138588,-0.204325,-0.16555,-0.066275
1680017925332,1197913684640800,-0.2083125,-0.1975875,-0.0713625
1680017925334,1197913687143184,-0.215325,-0.2286625,-0.0763125
1680017925336,1197913689645415,-0.215325,-0.2556125,-0.0842875
1680017925337,1197913692147800,-0.21835,-0.278575,-0.0823625
1680017925340,1197913694650030,-0.2223375,-0.29755,-0.08635
1680017925345,1197913697152415,-0.220275,-0.3106125,-0.089375
1680017925347,1197913699654646,-0.2134,-0.317625,-0.089375
1680017925348,1197913702157030,-0.2003375,-0.3216125,-0.091299996
1680017925350,1197913704659261,-0.18727499,-0.3216125,-0.0903375
1680017925352,1197913707161646,-0.1694,-0.317625,-0.0903375
1680017925354,1197913709664107,-0.1502875,-0.3106125,-0.0924
1680017925357,1197913712166338,-0.1353,-0.2926,-0.0924
1680017925360,1197913714668492,-0.10835,-0.2726625,-0.089375
1680017925363,1197913717170858,-0.077275,-0.2446125,-0.088275
1680017925366,1197913719673088,-0.0413875,-0.2066625,-0.088275
1680017925368,1197913722175473,-0.00935,-0.1676125,-0.088275
1680017925371,1197913724677935,0.0196625,-0.1315875,-0.0903375
1680017925373,1197913727180150,0.0416625,-0.093637496,-0.091299996
1680017925376,1197913729682535,0.059675,-0.0506,-0.0924
1680017925377,1197913732184689,0.064625,-0.0066,-0.099275
1680017925380,1197913734686920,0.0616,0.0364375,-0.105325
1680017925383,1197913737189319,0.0517,0.0804375,-0.110275
1680017925385,1197913739691781,0.0356125,0.1263625,-0.1153625
1680017925389,1197913742193935,0.0176,0.1733875,-0.11935
1680017925390,1197913744696165,-0.006325,0.21133749,-0.121275
1680017925392,1197913747198550,-0.0273625,0.249425,-0.1254
1680017925395,1197913749700791,-0.0463375,0.2833875,-0.1293875
1680017925397,1197913752203175,-0.061325,0.304425,-0.133375
1680017925400,1197913754705637,-0.0713625,0.3234,-0.1364
1680017925403,1197913757207868,-0.0743875,0.3344,-0.1392875
1680017925406,1197913759710247,-0.083325,0.3364625,-0.1423125
1680017925408,1197913762212401,-0.0814,0.32945,-0.144375
1680017925410,1197913764714632,-0.077275,0.3163875,-0.143275
1680017925412,1197913767217017,-0.078375,0.29645,-0.1403875
1680017925416,1197913769719478,-0.0732875,0.271425,-0.1364
1680017925418,1197913772221733,-0.067375,0.2484625,-0.1364
1680017925422,1197913774724118,-0.066275,0.2134,-0.1313125
1680017925422,1197913777226348,-0.06435,0.1794375,-0.1263625
1680017925425,1197913779728733,-0.0603625,0.1434125,-0.121275
1680017925427,1197913782230887,-0.0622875,0.1054625,-0.1172875
1680017925432,1197913784733334,-0.0633875,0.0713625,-0.1123375
1680017925432,1197913787235565,-0.0683375,0.0394625,-0.1073875
1680017925435,1197913789737950,-0.069299996,0.0053625,-0.1043625
1680017925438,1197913792240094,-0.072325,-0.025575,-0.1043625
1680017925440,1197913794742324,-0.07535,-0.0576125,-0.1034
1680017925444,1197913797244709,-0.0763125,-0.0906125,-0.1023
1680017925446,1197913799747171,-0.0803,-0.1175625,-0.099275
1680017925449,1197913802249397,-0.0842875,-0.1376375,-0.099275
1680017925451,1197913804751782,-0.088275,-0.1615625,-0.100375
1680017925452,1197913807254013,-0.0933625,-0.1835625,-0.1023
1680017925455,1197913809756167,-0.0963875,-0.20253749,-0.1023
1680017925457,1197913812258551,-0.099275,-0.22055,-0.099275
1680017925460,1197913814761032,-0.1023,-0.2396625,-0.1034
1680017925462,1197913817263263,-0.1034,-0.25355,-0.105325
1680017925466,1197913819765647,-0.1062875,-0.26565,-0.1023
1680017925467,1197913822267878,-0.10835,-0.27665,-0.1062875
1680017925471,1197913824770258,-0.1073875,-0.2776125,-0.105325
1680017925472,1197913827272488,-0.105325,-0.2816,-0.1073875
1680017925476,1197913829774873,-0.09735,-0.2816,-0.1073875
1680017925477,1197913832277104,-0.089375,-0.2806375,-0.1073875
1680017925483,1197913834779483,-0.0814,-0.267575,-0.1073875
1680017925484,1197913837281714,-0.06435,-0.256575,-0.1093125
1680017925486,1197913839784099,-0.045375,-0.2366375,-0.10835
1680017925488,1197913842286253,-0.022275,-0.2146375,-0.1073875
1680017925491,1197913844788786,-0.0044,-0.190575,-0.1073875
1680017925493,1197913847290940,0.015675,-0.1606,-0.1073875
1680017925495,1197913849793325,0.0297,-0.13653749,-0.110275
1680017925497,1197913852295555,0.037675,-0.11165,-0.110275
1680017925500,1197913854797940,0.0446875,-0.07865,-0.111375
1680017925502,1197913857300094,0.045649998,-0.04455,-0.111375
1680017925505,1197913859802555,0.0416625,-0.009625,-0.1153625
1680017925507,1197913862304786,0.0396,0.029424999,-0.1172875
1680017925511,1197913864807171,0.031625,0.0664125,-0.11935
1680017925512,1197913867309401,0.0226875,0.1034,-0.11935
1680017925515,1197913869811786,0.0176,0.1354375,-0.1203125
1680017925519,1197913872314017,0.0066,0.16445,-0.121275
1680017925521,1197913874816493,-0.001375,0.194425,-0.1233375
1680017925524,1197913877318647,-0.0033,0.21133749,-0.1233375
1680017925526,1197913879821032,-0.006325,0.2283875,-0.1243
1680017925527,1197913882323263,-0.00935,0.2363625,-0.1254
1680017925530,1197913884825647,-0.0133375,0.24035,-0.121275
1680017925532,1197913887327906,-0.011275,0.23333749,-0.1203125
1680017925535,1197913889830368,-0.006325,0.22935,-0.1203125
1680017925538,1197913892332752,-0.0023375,0.2154625,-0.1183875
1680017925540,1197913894834906,-0.001375,0.2014375,-0.113299996
1680017925543,1197913897337151,6.875E-4,0.1874125,-0.10835
1680017925545,1197913899839535,-0.0023375,0.1654125,-0.1034
1680017925548,1197913902341766,-0.001375,0.1434125,-0.0983125
1680017925551,1197913904844151,-0.001375,0.122375,-0.0933625
1680017925552,1197913907346368,-0.0083875,0.0994125,-0.0842875
1680017925556,1197913909848752,-0.017324999,0.0724625,-0.078375
1680017925558,1197913912350983,-0.0213125,0.0523875,-0.072325
1680017925560,1197913914853368,-0.023375,0.0334125,-0.066275
1680017925563,1197913917355598,-0.03135,0.0144375,-0.0603625
1680017925565,1197913919858060,-0.0433125,-0.0045375,-0.0543125
1680017925567,1197913922360445,-0.0463375,-0.0265375,-0.0493625
1680017925570,1197913924862598,-0.05335,-0.047575,-0.044275
1680017925572,1197913927364829,-0.061325,-0.0595375,-0.0402875
1680017925575,1197913929867223,-0.0683375,-0.0765875,-0.0402875
1680017925578,1197913932369454,-0.0732875,-0.0966625,-0.0413875
1680017925580,1197913934871915,-0.0763125,-0.11165,-0.0402875
1680017925583,1197913937374300,-0.083325,-0.1276,-0.0383625
1680017925585,1197913939876512,-0.0873125,-0.1406625,-0.0374
1680017925588,1197913942378896,-0.089375,-0.1496,-0.0363
1680017925591,1197913944881050,-0.091299996,-0.157575,-0.034375
1680017925594,1197913947383281,-0.094325,-0.1695375,-0.0323125
1680017925597,1197913949885665,-0.0952875,-0.1725625,-0.033275
1680017925602,1197913952388127,-0.0952875,-0.17655,-0.0323125
1680017925602,1197913954890281,-0.0952875,-0.18259999,-0.0353375
1680017925603,1197913957392512,-0.089375,-0.18053749,-0.0353375
1680017925604,1197913959894896,-0.0803,-0.1755875,-0.033275
1680017925607,1197913962397109,-0.0704,-0.1626625,-0.033275
1680017925610,1197913964899494,-0.0543125,-0.146575,-0.028324999
1680017925612,1197913967401955,-0.0353375,-0.13365,-0.0264
1680017925616,1197913969904186,-0.017324999,-0.1166,-0.0264
1680017925618,1197913972406325,-0.0044,-0.1016125,-0.0273625
1680017925620,1197913974908709,0.0056375,-0.080575,-0.028324999
1680017925624,1197913977410940,0.0176,-0.0616,-0.0273625
1680017925625,1197913979913325,0.02365,-0.0386375,-0.028324999
1680017925629,1197913982415772,0.026675,-0.0166375,-0.028324999
1680017925633,1197913984918003,0.026675,0.0083875,-0.0323125
1680017925634,1197913987420388,0.026675,0.0353375,-0.0303875
1680017925635,1197913989922619,0.0257125,0.0584375,-0.0303875
1680017925637,1197913992424772,0.0226875,0.0814,-0.034375
1680017925640,1197913994927161,0.0176,0.1043625,-0.0363
1680017925645,1197913997429623,0.0116875,0.122375,-0.0374
1680017925645,1197913999931853,0.0037125,0.1343375,-0.0413875
1680017925647,1197914002434238,-0.0053625,0.1464375,-0.0433125
1680017925651,1197914004936484,-0.0103124995,0.1483625,-0.0402875
1680017925652,1197914007438868,-0.0133375,0.14739999,-0.039325
1680017925655,1197914009941099,-0.0163625,0.144375,-0.0433125
1680017925658,1197914012443484,-0.0182875,0.1373625,-0.044275
1680017925660,1197914014945729,-0.0193875,0.1274625,-0.045375
1680017925662,1197914017447882,-0.022275,0.111375,-0.0484
1680017925667,1197914019950344,-0.0213125,0.0933625,-0.044275
1680017925668,1197914022452729,-0.0213125,0.067375,-0.0433125
1680017925671,1197914024954940,-0.017324999,0.0444125,-0.0433125
1680017925673,1197914027457325,-0.0213125,0.02145,-0.04235
1680017925675,1197914029959479,-0.0213125,-0.0026125,-0.039325
1680017925677,1197914032461710,-0.0182875,-0.0295625,-0.0374
1680017925681,1197914034964171,-0.017324999,-0.0515625,-0.0374
1680017925683,1197914037466542,-0.017324999,-0.0746625,-0.0303875
1680017925685,1197914039968773,-0.0182875,-0.10065,-0.034375
1680017925689,1197914042471157,-0.0193875,-0.113575,-0.0292875
1680017925691,1197914044973388,-0.0213125,-0.1285625,-0.0264
1680017925692,1197914047475773,-0.02035,-0.1406625,-0.0253
1680017925696,1197914049977878,-0.0243375,-0.15455,-0.0243375
1680017925699,1197914052480340,-0.0273625,-0.162525,-0.0243375
1680017925700,1197914054982571,-0.028324999,-0.1676125,-0.0253
1680017925702,1197914057484955,-0.034375,-0.173525,-0.0253
1680017925707,1197914059987152,-0.0353375,-0.173525,-0.0253
1680017925708,1197914062489537,-0.0383625,-0.1725625,-0.028324999
1680017925711,1197914064991767,-0.0402875,-0.1706375,-0.0264
1680017925716,1197914067494152,-0.04235,-0.168575,-0.0273625
1680017925716,1197914069996383,-0.0383625,-0.16555,-0.0292875
1680017925718,1197914072498749,-0.033275,-0.1535875,-0.0273625
1680017925721,1197914075000979,-0.0273625,-0.14465,-0.0243375
1680017925724,1197914077503133,-0.0182875,-0.135575,-0.0253
1680017925726,1197914080005518,-0.011275,-0.1266375,-0.0273625
1680017925727,1197914082507979,-0.0053625,-0.1145375,-0.0264
1680017925730,1197914085010219,0.0026125,-0.0985875,-0.0264
1680017925733,1197914087512604,0.009625,-0.0845625,-0.028324999
1680017925735,1197914090014834,0.0187,-0.0686125,-0.0273625
1680017925737,1197914092517219,0.02365,-0.04455,-0.0264
1680017925740,1197914095019465,0.0297,-0.0215875,-0.0273625
1680017925744,1197914097521849,0.0386375,-0.0026125,-0.028324999
1680017925746,1197914100024080,0.043725,0.0174625,-0.028324999
1680017925748,1197914102526465,0.045649998,0.0364375,-0.034375
1680017925751,1197914105028705,0.0446875,0.0603625,-0.0383625
1680017925752,1197914107531089,0.0416625,0.079475,-0.0413875
1680017925756,1197914110033320,0.037675,0.0944625,-0.044275
1680017925758,1197914112535782,0.0297,0.1144,-0.0484
1680017925760,1197914115038171,0.026675,0.13035,-0.05335
1680017925763,1197914117540325,0.020624999,0.145475,-0.0594
1680017925765,1197914120042556,0.0176,0.1494625,-0.0594
1680017925768,1197914122544940,0.015675,0.15345,-0.066275
1680017925770,1197914125047118,0.0176,0.15345,-0.0683375
1680017925773,1197914127549580,0.0176,0.150425,-0.0683375
1680017925775,1197914130051811,0.0176,0.1464375,-0.0683375
1680017925777,1197914132554195,0.0176,0.1364,-0.0683375
1680017925782,1197914135056445,0.0176,0.123475,-0.066275
1680017925784,1197914137558830,0.0176,0.1054625,-0.0653125
1680017925786,1197914140061060,0.015675,0.08745,-0.061325
1680017925788,1197914142563522,0.014712499,0.0704,-0.056375
1680017925791,1197914145065676,0.01265,0.05335,-0.056375
1680017925792,1197914147568079,0.0116875,0.034375,-0.0543125
1680017925795,1197914150070310,0.0056375,0.0144375,-0.0523875
1680017925798,1197914152572695,6.875E-4,-5.5E-4,-0.0512875
1680017925801,1197914155074926,-0.0023375,-0.0185625,-0.045375
1680017925803,1197914157577402,-0.0053625,-0.034649998,-0.045375
1680017925805,1197914160079787,-0.0083875,-0.045649998,-0.0433125
1680017925807,1197914162582018,-0.0143,-0.063525,-0.044275
1680017925810,1197914165084171,-0.0182875,-0.074525,-0.044275
1680017925812,1197914167586556,-0.023375,-0.080575,-0.0484
1680017925815,1197914170088801,-0.028324999,-0.093637496,-0.045375
1680017925819,1197914172591262,-0.034375,-0.102575,-0.0493625
1680017925822,1197914175093647,-0.039325,-0.104637496,-0.0512875
1680017925823,1197914177595801,-0.04235,-0.11165,-0.0523875
1680017925825,1197914180098018,-0.044275,-0.118525,-0.0543125
1680017925828,1197914182600402,-0.045375,-0.1266375,-0.0573375
1680017925832,1197914185102633,-0.0473,-0.1285625,-0.056375
1680017925834,1197914187605095,-0.0484,-0.13365,-0.056375
1680017925835,1197914190107479,-0.0543125,-0.135575,-0.0573375
1680017925838,1197914192609633,-0.05335,-0.1376375,-0.0543125
1680017925841,1197914195111864,-0.0512875,-0.1425875,-0.0573375
1680017925844,1197914197614248,-0.0512875,-0.140525,-0.056375
1680017925845,1197914200116479,-0.0463375,-0.13653749,-0.0543125
1680017925847,1197914202618965,-0.0374,-0.135575,-0.0543125
1680017925850,1197914205121349,-0.02035,-0.1315875,-0.0523875
1680017925852,1197914207623580,0.0026125,-0.1175625,-0.0484
1680017925857,1197914210125965,0.0226875,-0.1065625,-0.04235
1680017925858,1197914212628119,0.0407,-0.0955625,-0.0402875
1680017925861,1197914215130349,0.0616,-0.0836,-0.0413875
1680017925863,1197914217632811,0.073699996,-0.0705375,-0.04235
1680017925865,1197914220135196,0.081675,-0.056649998,-0.04235
1680017925867,1197914222637459,0.087725,-0.041525,-0.045375
1680017925870,1197914225139844,0.087725,-0.02365,-0.0493625
1680017925872,1197914227642075,0.0807125,-0.0056375,-0.0463375
1680017925875,1197914230144459,0.0726,0.0154,-0.050325
1680017925877,1197914232646705,0.0627,0.0383625,-0.055275
1680017925880,1197914235149090,0.0506,0.056375,-0.0543125
1680017925883,1197914237651321,0.0367125,0.0713625,-0.0583
1680017925885,1197914240153474,0.0246125,0.08635,-0.0594
1680017925888,1197914242655863,0.015675,0.0994125,-0.0603625
1680017925891,1197914245158094,0.0077,0.10835,-0.067375
1680017925894,1197914247660555,6.875E-4,0.1144,-0.066275
1680017925896,1197914250162940,-0.001375,0.112475,-0.067375
1680017925897,1197914252665167,-0.0044,0.1034,-0.0683375
1680017925900,1197914255167551,-0.0033,0.0933625,-0.0704
1680017925902,1197914257669782,-0.0033,0.0814,-0.0713625
1680017925905,1197914260171936,-0.0023375,0.0633875,-0.0704
1680017925907,1197914262674373,6.875E-4,0.040425,-0.072325
1680017925910,1197914265176757,0.0037125,0.0224125,-0.0713625
1680017925912,1197914267678988,-0.001375,-5.5E-4,-0.067375
1680017925916,1197914270181373,-0.001375,-0.019524999,-0.069299996
1680017925918,1197914272683588,-0.0033,-0.03355,-0.069299996
1680017925921,1197914275185973,-0.0072875,-0.056649998,-0.067375
1680017925923,1197914277688434,-0.0072875,-0.0765875,-0.067375
1680017925925,1197914280190588,-0.011275,-0.08965,-0.0653125
1680017925927,1197914282692819,-0.0154,-0.1016125,-0.0653125
1680017925933,1197914285195214,-0.0163625,-0.1166,-0.061325
1680017925934,1197914287697444,-0.023375,-0.1236125,-0.0583
1680017925935,1197914290199829,-0.0264,-0.1315875,-0.061325
1680017925937,1197914292702060,-0.0303875,-0.140525,-0.0603625
1680017925940,1197914295204430,-0.0353375,-0.141625,-0.0603625
1680017925943,1197914297706660,-0.0402875,-0.14465,-0.061325
1680017925945,1197914300209045,-0.0463375,-0.14465,-0.061325
1680017925949,1197914302711276,-0.0512875,-0.141625,-0.0603625
1680017925951,1197914305213655,-0.055275,-0.140525,-0.0583
1680017925952,1197914307715886,-0.0603625,-0.1425875,-0.056375
1680017925955,1197914310218271,-0.0594,-0.135575,-0.05335
1680017925958,1197914312720501,-0.0633875,-0.129525,-0.05335
1680017925960,1197914315222872,-0.06435,-0.129525,-0.05335
1680017925963,1197914317725103,-0.066275,-0.1255375,-0.050325
1680017925966,1197914320227487,-0.0633875,-0.115637496,-0.050325
1680017925969,1197914322729959,-0.0622875,-0.107525,-0.0493625
1680017925971,1197914325232190,-0.0583,-0.096525,-0.0484
1680017925973,1197914327734344,-0.055275,-0.096525,-0.045375
1680017925975,1197914330236728,-0.0523875,-0.0845625,-0.044275
1680017925977,1197914332738959,-0.0463375,-0.0796125,-0.044275
1680017925980,1197914335241329,-0.0433125,-0.0686125,-0.045375
1680017925983,1197914337743790,-0.0363,-0.0616,-0.039325
1680017925985,1197914340246021,-0.0273625,-0.0466125,-0.0383625
1680017925988,1197914342748406,-0.0133375,-0.02365,-0.0374
1680017925990,1197914345250549,0.0056375,-0.008525,-0.0374
1680017925992,1197914347752780,0.02365,0.0083875,-0.0353375
1680017925995,1197914350255165,0.0396,0.0224125,-0.034375
1680017925999,1197914352757626,0.0517,0.0394625,-0.034375
1680017926001,1197914355259857,0.053625,0.051425,-0.0374
1680017926003,1197914357762011,0.0526625,0.0633875,-0.0383625
1680017926006,1197914360264396,0.054725,0.073425,-0.0374
1680017926008,1197914362766626,0.0466125,0.0814,-0.0383625
1680017926011,1197914365269007,0.0336875,0.090475,-0.039325
1680017926013,1197914367771469,0.0226875,0.102437496,-0.0413875
1680017926016,1197914370273699,0.0116875,0.10835,-0.044275
1680017926018,1197914372776084,6.875E-4,0.111375,-0.0463375
1680017926020,1197914375278238,-0.00935,0.1153625,-0.0463375
1680017926023,1197914377780483,-0.0143,0.113437496,-0.0493625
1680017926025,1197914380282867,-0.0163625,0.10835,-0.0523875
1680017926028,1197914382785329,-0.02035,0.0994125,-0.0523875
1680017926031,1197914385287560,-0.02035,0.0884125,-0.0523875
1680017926032,1197914387789930,-0.0182875,0.068475,-0.050325
1680017926035,1197914390292161,-0.0182875,0.05335,-0.050325
1680017926038,1197914392794546,-0.017324999,0.0334125,-0.05335
1680017926040,1197914395296699,-0.0143,0.013475,-0.0512875
1680017926045,1197914397799165,-0.012375,-5.5E-4,-0.05335
1680017926046,1197914400301396,-0.0133375,-0.0176,-0.05335
1680017926048,1197914402803780,-0.0143,-0.034649998,-0.0512875
1680017926051,1197914405306011,-0.0163625,-0.0496375,-0.0512875
1680017926053,1197914407808165,-0.017324999,-0.0705375,-0.0523875
1680017926055,1197914410310570,-0.0182875,-0.0765875,-0.0493625
1680017926057,1197914412813031,-0.0213125,-0.0906125,-0.050325
1680017926062,1197914415315262,-0.0253,-0.0955625,-0.0523875
1680017926066,1197914417817647,-0.0264,-0.10065,-0.0512875
1680017926068,1197914420319862,-0.0303875,-0.107525,-0.0484
1680017926070,1197914422822016,-0.034375,-0.11165,-0.0463375
1680017926073,1197914425324401,-0.039325,-0.11165,-0.0433125
1680017926074,1197914427826862,-0.04235,-0.113575,-0.0433125
1680017926076,1197914430329108,-0.0433125,-0.1126125,-0.0402875
1680017926078,1197914432831493,-0.0512875,-0.113575,-0.039325
1680017926082,1197914435333724,-0.0523875,-0.107525,-0.0402875
1680017926084,1197914437836108,-0.0484,-0.1035375,-0.0374
1680017926087,1197914440338325,-0.050325,-0.09955,-0.0374
1680017926089,1197914442840710,-0.0473,-0.0906125,-0.0353375
1680017926091,1197914445342940,-0.045375,-0.0845625,-0.0353375
1680017926093,1197914447845325,-0.045375,-0.080575,-0.034375
1680017926095,1197914450347556,-0.04235,-0.0735625,-0.034375
1680017926099,1197914452849926,-0.0374,-0.069575,-0.034375
1680017926100,1197914455352157,-0.0383625,-0.0595375,-0.0303875
1680017926103,1197914457854619,-0.0374,-0.0485375,-0.034375
1680017926105,1197914460356773,-0.033275,-0.036575,-0.0323125
1680017926108,1197914462859147,-0.028324999,-0.030524999,-0.0292875
1680017926110,1197914465361378,-0.02035,-0.0166375,-0.0264
1680017926113,1197914467863763,-0.0133375,0.002475,-0.0323125
1680017926116,1197914470365916,-0.006325,0.0174625,-0.0303875
1680017926122,1197914472868363,0.0056375,0.0334125,-0.0253
1680017926123,1197914475370594,0.0187,0.0493625,-0.0243375
1680017926126,1197914478331517,0.031625,0.0704,-0.0264
1680017926130,1197914479431110,0.042625,0.089375,-0.0243375
1680017926131,1197914480533287,0.0477125,0.1054625,-0.022275
1680017926133,1197914485379834,0.0556875,0.1183875,-0.02035
1680017926134,1197914487882296,0.0576125,0.134475,-0.02035
1680017926136,1197914490384450,0.053625,0.15235,-0.022275
1680017926138,1197914492886835,0.0477125,0.1623875,-0.022275
1680017926140,1197914495389065,0.0416625,0.1714625,-0.022275
1680017926143,1197914497891436,0.034649998,0.18535,-0.0243375
1680017926145,1197914500393667,0.0246125,0.1934625,-0.0264
1680017926148,1197914502896128,0.0187,0.19745,-0.0323125
1680017926150,1197914505398513,0.010725,0.19635,-0.0353375
1680017926153,1197914507900652,0.0037125,0.1874125,-0.0363
1680017926157,1197914510402882,-0.001375,0.1824625,-0.0383625
1680017926158,1197914512905267,-0.0053625,0.166375,-0.0402875
1680017926161,1197914515407498,-0.00935,0.1513875,-0.039325
1680017926164,1197914517909959,-0.006325,0.1364,-0.044275
1680017926165,1197914520412113,-0.006325,0.112475,-0.0433125
1680017926168,1197914522914498,-0.0083875,0.084425,-0.04235
1680017926171,1197914525416729,-0.0103124995,0.0584375,-0.0433125
1680017926174,1197914527919113,-0.0103124995,0.0334125,-0.04235
1680017926176,1197914530421354,-0.00935,0.0044,-0.0402875
1680017926179,1197914532923816,-0.00935,-0.0215875,-0.0413875
1680017926181,1197914535426200,-0.012375,-0.045649998,-0.039325
1680017926184,1197914537928354,-0.0143,-0.06655,-0.0383625
1680017926187,1197914540430590,-0.0143,-0.086625,-0.0383625
1680017926188,1197914542932974,-0.0163625,-0.1095875,-0.0402875
1680017926192,1197914545435205,-0.0182875,-0.130625,-0.04235
1680017926194,1197914547937667,-0.0193875,-0.1456125,-0.0402875
1680017926196,1197914550440055,-0.023375,-0.1566125,-0.039325
1680017926198,1197914552942286,-0.028324999,-0.1645875,-0.0413875
1680017926201,1197914555444440,-0.0292875,-0.1706375,-0.0433125
1680017926204,1197914557946825,-0.0363,-0.17765,-0.0413875
1680017926206,1197914560449055,-0.039325,-0.18053749,-0.04235
1680017926208,1197914562951537,-0.04235,-0.1865875,-0.0433125
1680017926211,1197914565453922,-0.0463375,-0.190575,-0.0433125
1680017926213,1197914567956152,-0.0512875,-0.1896125,-0.04235
1680017926215,1197914570458537,-0.0512875,-0.1865875,-0.0413875
1680017926218,1197914572960676,-0.0523875,-0.184525,-0.039325
1680017926222,1197914575462907,-0.0512875,-0.179575,-0.039325
1680017926226,1197914577965368,-0.050325,-0.173525,-0.0363
1680017926226,1197914580467753,-0.045375,-0.16665,-0.034375
1680017926227,1197914582969965,-0.0402875,-0.1596375,-0.0292875
1680017926233,1197914585472118,-0.03135,-0.1475375,-0.0292875
1680017926233,1197914587974503,-0.0243375,-0.135575,-0.0292875
1680017926235,1197914590476734,-0.0193875,-0.1255375,-0.028324999
1680017926238,1197914592979147,-0.0143,-0.104637496,-0.0253
1680017926240,1197914595481609,-0.0103124995,-0.0906125,-0.0213125
1680017926243,1197914597983840,-0.006325,-0.075625,-0.022275
1680017926245,1197914600485994,-0.006325,-0.058575,-0.0213125
1680017926249,1197914602988455,6.875E-4,-0.0386375,-0.022275
1680017926250,1197914605490835,-0.0042625,-0.025575,-0.022275
1680017926252,1197914607993066,-0.0023375,-0.01155,-0.0243375
1680017926256,1197914610495450,-0.0042625,0.001375,-0.0273625
1680017926258,1197914612997700,-0.006325,0.0193875,-0.0323125
1680017926261,1197914615500085,-0.011275,0.0334125,-0.033275
1680017926263,1197914618002315,-0.012375,0.0474375,-0.0374
1680017926266,1197914620504700,-0.0182875,0.0554125,-0.0413875
1680017926269,1197914623006955,-0.023375,0.0633875,-0.0402875
1680017926272,1197914625509339,-0.0273625,0.068475,-0.0402875
1680017926273,1197914628011570,-0.0303875,0.073425,-0.044275
1680017926275,1197914630513955,-0.033275,0.0724625,-0.0413875
1680017926278,1197914633016186,-0.033275,0.0713625,-0.0402875
1680017926281,1197914635518656,-0.033275,0.0704,-0.04235
1680017926283,1197914638020810,-0.034375,0.0603625,-0.044275
1680017926286,1197914640523195,-0.033275,0.056375,-0.0413875
1680017926288,1197914643025425,-0.03135,0.054449998,-0.0413875
1680017926291,1197914645527814,-0.0353375,0.0444125,-0.04235
1680017926293,1197914648030045,-0.033275,0.029424999,-0.0402875
1680017926295,1197914650532429,-0.0353375,0.0193875,-0.039325
1680017926300,1197914653034660,-0.034375,0.0083875,-0.04235
1680017926301,1197914655537045,-0.033275,0.0044,-0.04235
1680017926303,1197914658039276,-0.0363,-0.003575,-0.0402875
1680017926307,1197914660541660,-0.039325,-0.014575,-0.039325
1680017926309,1197914663044122,-0.04235,-0.019524999,-0.039325
1680017926311,1197914665546263,-0.0413875,-0.025575,-0.039325
1680017926313,1197914668048493,-0.0413875,-0.025575,-0.039325
1680017926317,1197914670550878,-0.044275,-0.0286,-0.0402875
1680017926319,1197914673053109,-0.0402875,-0.031625,-0.039325
1680017926322,1197914675555474,-0.0402875,-0.03355,-0.0374
1680017926324,1197914678057936,-0.0413875,-0.0356125,-0.0353375
1680017926326,1197914680560167,-0.0402875,-0.0325875,-0.0303875
1680017926328,1197914683062551,-0.0383625,-0.0295625,-0.033275
1680017926332,1197914685564705,-0.0292875,-0.0215875,-0.033275
1680017926333,1197914688066964,-0.02035,-0.0176,-0.0303875
1680017926335,1197914690569349,-0.012375,-0.01155,-0.0273625
1680017926338,1197914693071579,-0.0023375,-0.003575,-0.0273625
1680017926341,1197914695573964,0.0056375,0.0034375,-0.0264
1680017926344,1197914698076167,0.021724999,0.0193875,-0.0243375
1680017926346,1197914700578551,0.0306625,0.03135,-0.0253
1680017926349,1197914703080782,0.045649998,0.0413875,-0.0273625
1680017926351,1197914705583167,0.059675,0.0504625,-0.0264
1680017926353,1197914708085397,0.076725,0.0633875,-0.0273625
1680017926355,1197914710587854,0.086625,0.07645,-0.0273625
1680017926358,1197914713090239,0.093637496,0.0853875,-0.028324999
1680017926360,1197914715592393,0.0947375,0.091437496,-0.0292875
1680017926366,1197914718094608,0.0966625,0.102437496,-0.0292875
1680017926367,1197914720596993,0.0917125,0.10835,-0.034375
1680017926368,1197914723099224,0.0847,0.1153625,-0.0363
1680017926371,1197914725601685,0.075625,0.117425,-0.0363
1680017926373,1197914728104070,0.0686125,0.1183875,-0.0402875
1680017926375,1197914730606287,0.0587125,0.1183875,-0.0413875
1680017926379,1197914733108440,0.0507375,0.111375,-0.0493625
1680017926383,1197914735610825,0.0416625,0.1034,-0.05335
1680017926385,1197914738113056,0.0336875,0.091437496,-0.0512875
1680017926386,1197914740615536,0.0306625,0.073425,-0.0523875
1680017926388,1197914743117921,0.0287375,0.0584375,-0.0583
1680017926391,1197914745620152,0.026675,0.0383625,-0.0583
1680017926393,1197914748122306,0.0257125,0.0174625,-0.0583
1680017926396,1197914750624767,0.02365,-0.008525,-0.0573375
1680017926398,1197914753126940,0.020624999,-0.0325875,-0.056375
1680017926401,1197914755629402,0.0196625,-0.053625,-0.056375
1680017926404,1197914758131786,0.0187,-0.0765875,-0.055275
1680017926406,1197914760634017,0.015675,-0.1016125,-0.0543125
1680017926408,1197914763136171,0.014712499,-0.1205875,-0.0523875
1680017926411,1197914765638560,0.01265,-0.1376375,-0.050325
1680017926413,1197914768140791,0.0086624995,-0.152625,-0.0463375
1680017926416,1197914770643253,0.0077,-0.174625,-0.0433125
1680017926420,1197914773145602,0.0067375,-0.1835625,-0.0433125
1680017926422,1197914775647833,0.00165,-0.1936,-0.0433125
1680017926423,1197914778150218,6.875E-4,-0.20253749,-0.0402875
1680017926425,1197914780652372,-0.0042625,-0.20955,-0.0413875
1680017926428,1197914783154602,-0.0072875,-0.217525,-0.0374
1680017926431,1197914785657074,-0.00935,-0.2275625,-0.039325
1680017926433,1197914788159459,-0.0182875,-0.2305875,-0.0402875
1680017926435,1197914790661689,-0.022275,-0.23265,-0.0383625
1680017926439,1197914793164074,-0.0292875,-0.23155,-0.0413875
1680017926441,1197914795666300,-0.034375,-0.228525,-0.0402875
1680017926444,1197914798168684,-0.039325,-0.229625,-0.0433125
1680017926445,1197914800670915,-0.0433125,-0.2275625,-0.044275
1680017926448,1197914803173300,-0.0473,-0.22453749,-0.044275
1680017926453,1197914805675536,-0.0523875,-0.22055,-0.04235
1680017926454,1197914808177920,-0.0512875,-0.2165625,-0.04235
1680017926456,1197914810680074,-0.0543125,-0.2146375,-0.044275
1680017926459,1197914813182305,-0.056375,-0.207625,-0.045375
1680017926461,1197914815684776,-0.055275,-0.2055625,-0.045375
1680017926463,1197914818187161,-0.0573375,-0.196625,-0.0484
1680017926466,1197914820689392,-0.0543125,-0.1915375,-0.044275
1680017926468,1197914823191776,-0.056375,-0.1835625,-0.044275
1680017926471,1197914825694007,-0.0573375,-0.173525,-0.0433125
1680017926473,1197914828196151,-0.050325,-0.1615625,-0.045375
1680017926475,1197914830698613,-0.0402875,-0.1486375,-0.045375
1680017926478,1197914833200997,-0.0292875,-0.1266375,-0.04235
1680017926481,1197914835703228,-0.0182875,-0.104637496,-0.0413875
1680017926484,1197914838205632,-0.0042625,-0.086625,-0.0374
1680017926486,1197914840707862,0.009625,-0.0606375,-0.0353375
1680017926488,1197914843210247,0.0287375,-0.036575,-0.0353375
1680017926491,1197914845712709,0.0466125,-0.014575,-0.0353375
1680017926496,1197914848214872,0.0576125,0.0053625,-0.0363
1680017926498,1197914850717103,0.06765,0.0273625,-0.0353375
1680017926499,1197914853219488,0.070675,0.0474375,-0.0374
1680017926502,1197914855721719,0.0727375,0.0704,-0.0413875
1680017926504,1197914858223872,0.0666875,0.091437496,-0.0463375
1680017926505,1197914860726319,0.056649998,0.1153625,-0.0463375
1680017926508,1197914863228704,0.0446875,0.1364,-0.0484
1680017926511,1197914865730934,0.0306625,0.15235,-0.050325
1680017926513,1197914868233319,0.0177375,0.1714625,-0.0512875
1680017926515,1197914870735560,0.0056375,0.1843875,-0.0523875
1680017926518,1197914873237944,-0.0042625,0.189475,-0.055275
1680017926521,1197914875740175,-0.012375,0.1984125,-0.056375
1680017926524,1197914878242560,-0.0193875,0.20047499,-0.055275
1680017926526,1197914880744791,-0.02035,0.1934625,-0.0583
1680017926528,1197914883247175,-0.023375,0.183425,-0.0594
1680017926533,1197914885749406,-0.0262625,0.1703625,-0.0603625
1680017926534,1197914888251791,-0.0253,0.150425,-0.0622875
1680017926536,1197914890754252,-0.0253,0.1293875,-0.0622875
1680017926538,1197914893256497,-0.0262625,0.1054625,-0.0622875
1680017926541,1197914895758651,-0.0253,0.0834625,-0.0622875
1680017926543,1197914898261035,-0.023375,0.057475,-0.0622875
1680017926546,1197914900763266,-0.022275,0.0303875,-0.0583
1680017926549,1197914903265661,-0.022275,0.0044,-0.061325
1680017926553,1197914905768122,-0.023375,-0.0185625,-0.061325
1680017926556,1197914908270353,-0.023375,-0.0405625,-0.0573375
1680017926559,1197914910772738,-0.0243375,-0.0576125,-0.0594
1680017926560,1197914913274944,-0.0253,-0.0765875,-0.0603625
1680017926563,1197914915777098,-0.0253,-0.093637496,-0.0583
1680017926564,1197914918279483,-0.023375,-0.1095875,-0.0603625
1680017926566,1197914920781944,-0.0253,-0.124575,-0.0653125
1680017926569,1197914923284059,-0.0253,-0.1255375,-0.0633875
1680017926572,1197914925786290,-0.028324999,-0.13365,-0.0594
1680017926574,1197914928288675,-0.028324999,-0.13255,-0.0622875
1680017926576,1197914930790905,-0.03135,-0.13365,-0.0633875
1680017926578,1197914933293290,-0.033275,-0.13653749,-0.067375
1680017926582,1197914935795723,-0.0372625,-0.1376375,-0.067375
1680017926583,1197914938297953,-0.0363,-0.129525,-0.067375
1680017926585,1197914940800338,-0.03135,-0.124575,-0.066275
1680017926588,1197914943302492,-0.0363,-0.1175625,-0.067375
1680017926591,1197914945804763,-0.0363,-0.1065625,-0.067375
1680017926593,1197914948307147,-0.03135,-0.0985875,-0.066275
1680017926596,1197914950809609,-0.02035,-0.0815375,-0.066275
1680017926599,1197914953311840,-0.0053625,-0.0616,-0.0653125
1680017926603,1197914955814238,0.015675,-0.045649998,-0.0603625
1680017926604,1197914958316469,0.0386375,-0.0265375,-0.0583
1680017926609,1197914960818854,0.0606375,-0.0066,-0.0573375
1680017926610,1197914963321007,0.0796125,0.012375,-0.0543125
1680017926612,1197914965823464,0.10065,0.03135,-0.0512875
1680017926614,1197914968325695,0.1106875,0.0523875,-0.0523875
1680017926616,1197914970828079,0.117699996,0.0694375,-0.0512875
1680017926618,1197914973330233,0.117699996,0.08745,-0.050325
1680017926621,1197914975832464,0.114675,0.10835,-0.0523875
1680017926623,1197914978334845,0.1067,0.1214125,-0.0512875
1680017926626,1197914980837306,0.0947375,0.14135,-0.0543125
1680017926628,1197914983339537,0.0776875,0.161425,-0.0583
1680017926632,1197914985841922,0.064625,0.172425,-0.0594
1680017926634,1197914988344151,0.0466125,0.1843875,-0.0603625
1680017926635,1197914990846305,0.0367125,0.1904375,-0.0622875
1680017926638,1197914993348690,0.0257125,0.194425,-0.067375
1680017926641,1197914995851151,0.015675,0.194425,-0.067375
1680017926646,1197914998353387,0.010725,0.188375,-0.069299996
1680017926649,1197915000855772,0.004675,0.1794375,-0.069299996
1680017926651,1197915003358003,0.0026125,0.167475,-0.067375
1680017926653,1197915005860387,0.0026125,0.1544125,-0.0683375
1680017926655,1197915008362618,-0.0023375,0.1354375,-0.0633875
1680017926657,1197915010864984,-0.0042625,0.122375,-0.0622875
1680017926659,1197915013367214,-0.0033,0.1034,-0.0594
1680017926662,1197915015869599,-0.0053625,0.084425,-0.055275
1680017926663,1197915018371830,-0.0083875,0.0633875,-0.0512875
1680017926666,1197915020874243,-0.0083875,0.0444125,-0.0512875
1680017926668,1197915023376397,-0.0103124995,0.02035,-0.045375
1680017926671,1197915025878859,-0.012375,0.001375,-0.0433125
1680017926673,1197915028381090,-0.0182875,-0.01265,-0.0402875
1680017926676,1197915030883474,-0.02035,-0.0286,-0.0374
1680017926678,1197915033385700,-0.0243375,-0.047575,-0.034375
1680017926683,1197915035888085,-0.03135,-0.0616,-0.033275
1680017926685,1197915038390238,-0.0402875,-0.074525,-0.033275
1680017926687,1197915040892709,-0.0463375,-0.0906125,-0.034375
1680017926691,1197915043394940,-0.055275,-0.1035375,-0.033275
1680017926692,1197915045897324,-0.0592625,-0.1145375,-0.034375
1680017926694,1197915048399555,-0.067375,-0.1255375,-0.0323125
1680017926696,1197915050901940,-0.069299996,-0.129525,-0.033275
1680017926699,1197915053404171,-0.067375,-0.13365,-0.028324999
1680017926701,1197915055906632,-0.0683375,-0.1395625,-0.0253
1680017926704,1197915058408786,-0.061325,-0.1425875,-0.0243375
1680017926706,1197915060911171,-0.0543125,-0.1475375,-0.022275
1680017926710,1197915063413401,-0.050325,-0.1486375,-0.022275
1680017926712,1197915065915786,-0.0413875,-0.1505625,-0.0182875
1680017926714,1197915068418017,-0.0353375,-0.1475375,-0.017324999
1680017926716,1197915070920478,-0.0262625,-0.14355,-0.0163625
1680017926720,1197915073422830,-0.0143,-0.1315875,-0.0133375
1680017926723,1197915075925061,0.0056375,-0.118525,-0.00935
1680017926725,1197915078427215,0.0226875,-0.096525,-0.0053625
1680017926726,1197915080929599,0.0407,-0.074525,-0.001375
1680017926729,1197915083431830,0.054725,-0.052525,0.0026125
1680017926731,1197915085934234,0.0697125,-0.0286,0.004675
1680017926733,1197915088436464,0.07865,-0.0075625,0.0077
1680017926736,1197915090938849,0.0837375,0.018424999,0.0116875
1680017926738,1197915093441080,0.0796125,0.0444125,0.010725
1680017926741,1197915095943478,0.073699996,0.067375,0.010725
1680017926743,1197915098445709,0.0617375,0.0933625,0.0116875
1680017926746,1197915100948171,0.0466125,0.1164625,0.0086624995
1680017926749,1197915103450555,0.0336875,0.13145,0.009625
1680017926751,1197915105952724,0.020624999,0.155375,0.0077
1680017926753,1197915108454955,0.0086624995,0.17435,0.0066
1680017926759,1197915110957340,-0.0042625,0.1843875,0.0056375
1680017926762,1197915113459579,-0.0163625,0.18535,0.0077
1680017926764,1197915115962041,-0.022275,0.19635,0.004675
1680017926765,1197915118464425,-0.0262625,0.1923625,0.00165
1680017926767,1197915120966656,-0.028324999,0.1804,0.0037125
1680017926768,1197915123469041,-0.0292875,0.1714625,0.00165
1680017926771,1197915125971195,-0.03135,0.150425,6.875E-4
1680017926774,1197915128473416,-0.034375,0.134475,0.0056375
1680017926776,1197915130975878,-0.0303875,0.1144,0.0037125
1680017926778,1197915133478263,-0.0303875,0.089375,0.0056375
1680017926782,1197915135980417,-0.033275,0.0664125,0.0066
1680017926784,1197915138482656,-0.0303875,0.045375,0.0086624995
1680017926787,1197915140985041,-0.03135,0.024475,0.0116875
1680017926788,1197915143487272,-0.03135,0.001375,0.0187
1680017926791,1197915145989733,-0.0363,-0.0155375,0.0187
1680017926795,1197915148492104,-0.0372625,-0.0325875,0.0196625
1680017926796,1197915150994335,-0.0413875,-0.0515625,0.02365
1680017926799,1197915153496488,-0.044275,-0.0655875,0.020624999
1680017926801,1197915155998873,-0.044275,-0.0765875,0.0196625
1680017926804,1197915158501104,-0.0473,-0.0845625,0.0257125
1680017926806,1197915161003555,-0.05335,-0.0955625,0.0246125
1680017926808,1197915163505940,-0.0573375,-0.10065,0.0226875
1680017926811,1197915166008171,-0.0633875,-0.1016125,0.026675
1680017926813,1197915168510555,-0.0633875,-0.11055,0.0246125
1680017926816,1197915171012762,-0.0622875,-0.104637496,0.026675
1680017926819,1197915173514916,-0.0592625,-0.102575,0.0297
1680017926821,1197915176017301,-0.0583,-0.09955,0.031625
1680017926823,1197915178519762,-0.050325,-0.096525,0.0336875
1680017926826,1197915181021916,-0.0413875,-0.0906125,0.0407
1680017926829,1197915183524161,-0.03135,-0.0845625,0.0416625
1680017926833,1197915186026622,-0.023375,-0.074525,0.0416625
1680017926834,1197915188529007,-0.0133375,-0.06655,0.043725
1680017926836,1197915191031224,-0.001375,-0.056649998,0.043725
1680017926838,1197915193533378,0.013612499,-0.03355,0.043725
1680017926842,1197915196035762,0.0306625,-0.020624999,0.042625
1680017926843,1197915198537993,0.0466125,-0.0045375,0.0446875
1680017926846,1197915201040455,0.0606375,0.012375,0.0446875
1680017926851,1197915203542839,0.070675,0.03135,0.045649998
1680017926852,1197915206045070,0.0716375,0.0484,0.043725
1680017926853,1197915208547455,0.0727375,0.068475,0.0446875
1680017926855,1197915211049608,0.070675,0.089375,0.043725
1680017926859,1197915213551834,0.059675,0.112475,0.0407
1680017926861,1197915216054296,0.0517,0.1274625,0.0336875
1680017926863,1197915218556680,0.0407,0.1464375,0.0306625
1680017926867,1197915221058892,0.0246125,0.16445,0.02365
1680017926871,1197915223561277,0.014712499,0.17435,0.0246125
1680017926873,1197915226063508,0.0037125,0.1804,0.0187
1680017926874,1197915228565892,-0.006325,0.188375,0.0116875
1680017926876,1197915231068123,-0.0133375,0.1923625,0.0066
1680017926878,1197915233570508,-0.0182875,0.1874125,0.0056375
1680017926882,1197915236072738,-0.02035,0.1764125,0.0037125
1680017926884,1197915238575123,-0.0193875,0.161425,0.0026125
1680017926886,1197915241077277,-0.0182875,0.144375,6.875E-4
1680017926888,1197915243579556,-0.02035,0.1263625,0.0037125
1680017926891,1197915246082017,-0.0213125,0.1043625,0.0037125
1680017926893,1197915248584402,-0.0213125,0.0804375,0.004675
1680017926896,1197915251086633,-0.022275,0.0554125,0.0056375
1680017926899,1197915253589017,-0.022275,0.0303875,0.0056375
1680017926904,1197915256091248,-0.022275,0.007425,0.0056375
1680017926904,1197915258593402,-0.0243375,-0.01155,0.0056375
1680017926907,1197915261095863,-0.022275,-0.031625,0.0056375
1680017926910,1197915263598267,-0.0213125,-0.047575,0.0086624995
1680017926911,1197915266100498,-0.023375,-0.063525,0.0066
1680017926913,1197915268602882,-0.0292875,-0.07755,0.004675
1680017926916,1197915271105113,-0.028324999,-0.091575,0.0026125
1680017926918,1197915273607498,-0.033275,-0.102575,0.0037125
1680017926923,1197915276109955,-0.0383625,-0.113575,0.0026125
1680017926924,1197915278612109,-0.039325,-0.1145375,0.00165
1680017926926,1197915281114340,-0.045375,-0.1205875,6.875E-4
1680017926928,1197915283616725,-0.050325,-0.1236125,6.875E-4
1680017926931,1197915286118925,-0.05335,-0.12155,0.00165
1680017926933,1197915288621079,-0.056375,-0.12155,0.004675
1680017926936,1197915291123541,-0.0543125,-0.1175625,0.004675
1680017926938,1197915293625925,-0.055275,-0.1175625,0.004675
1680017926941,1197915296128151,-0.05335,-0.1126125,0.0086624995
1680017926945,1197915298630536,-0.0512875,-0.1035375,0.010725
1680017926946,1197915301132767,-0.0473,-0.1016125,0.010725
1680017926948,1197915303635151,-0.0363,-0.08965,0.013612499
1680017926951,1197915306137372,-0.0243375,-0.0815375,0.013612499
1680017926953,1197915308639757,-0.015262499,-0.0705375,0.0166375
1680017926956,1197915311141987,-0.0053625,-0.0625625,0.020624999
1680017926958,1197915313644372,0.0056375,-0.047575,0.0187
1680017926962,1197915316146608,0.0067375,-0.034649998,0.013612499
1680017926963,1197915318648992,0.014712499,-0.0246125,0.0196625
1680017926965,1197915321151223,0.0226875,-0.0075625,0.02365
1680017926968,1197915323653685,0.0356125,0.0154,0.020624999
1680017926971,1197915326155863,0.0466125,0.0364375,0.021724999
1680017926973,1197915328658247,0.0587125,0.057475,0.0226875
1680017926975,1197915331160478,0.073699996,0.0774125,0.0196625
1680017926978,1197915333662863,0.0837375,0.09845,0.0166375
1680017926982,1197915336165050,0.0847,0.11935,0.015675
1680017926984,1197915338667512,0.0906125,0.133375,0.013612499
1680017926986,1197915341169973,0.0856625,0.1403875,0.010725
1680017926988,1197915343672127,0.07865,0.15235,0.0066
1680017926991,1197915346174358,0.0666875,0.156475,6.875E-4
1680017926993,1197915348676752,0.056649998,0.161425,-0.001375
1680017926995,1197915351178982,0.0477125,0.161425,-0.0033
1680017926998,1197915353681444,0.0367125,0.161425,-0.00935
1680017927002,1197915356183598,0.0297,0.155375,-0.0133375
1680017927003,1197915358685983,0.02365,0.1464375,-0.0154
1680017927006,1197915361188213,0.0196625,0.134475,-0.017324999
1680017927008,1197915363690598,0.015675,0.1214125,-0.022275
1680017927011,1197915366192829,0.01265,0.1054625,-0.0253
1680017927013,1197915368695295,0.013612499,0.0834625,-0.0264
1680017927016,1197915371197680,0.0116875,0.0584375,-0.0273625
1680017927019,1197915373699834,0.01265,0.0394625,-0.0273625
1680017927022,1197915376202064,0.01265,0.0154,-0.0292875
1680017927024,1197915378704449,0.015675,-0.0155375,-0.0303875
1680017927026,1197915381206680,0.0177375,-0.0356125,-0.0253
1680017927028,1197915383709141,0.0177375,-0.0595375,-0.0253
1680017927031,1197915386211295,0.0116875,-0.0815375,-0.0273625
1680017927033,1197915388713680,0.0086624995,-0.10065,-0.0253
1680017927036,1197915391216151,0.0067375,-0.1205875,-0.0243375
1680017927039,1197915393718305,0.0037125,-0.13653749,-0.0213125
1680017927042,1197915396220536,-0.0033,-0.151525,-0.0193875
1680017927044,1197915398722998,-0.0072875,-0.1645875,-0.017324999
1680017927046,1197915401225386,-0.011275,-0.174625,-0.0182875
1680017927052,1197915403727540,-0.0182875,-0.1835625,-0.0182875
1680017927053,1197915406229771,-0.023375,-0.190575,-0.0154
1680017927053,1197915408732155,-0.0253,-0.1936,-0.0154
1680017927057,1197915411234382,-0.033275,-0.1945625,-0.0133375
1680017927060,1197915413736844,-0.0363,-0.1896125,-0.0133375
1680017927062,1197915416239228,-0.0402875,-0.185625,-0.011275
1680017927063,1197915418741459,-0.0433125,-0.185625,-0.00935
1680017927066,1197915421243613,-0.045375,-0.1816375,-0.0103124995
1680017927069,1197915423745993,-0.045375,-0.173525,-0.00935
1680017927071,1197915426248223,-0.0473,-0.163625,-0.006325
1680017927073,1197915428750685,-0.0433125,-0.15455,-0.0072875
1680017927076,1197915431253070,-0.0402875,-0.146575,-0.0083875
1680017927080,1197915433755295,-0.039325,-0.1346125,-0.011275
1680017927083,1197915436257680,-0.034375,-0.1255375,-0.0083875
1680017927084,1197915438759834,-0.0243375,-0.1095875,-0.0053625
1680017927087,1197915441262065,-0.0103124995,-0.0985875,-0.0023375
1680017927091,1197915443764512,6.875E-4,-0.080575,-0.0023375
1680017927091,1197915446266897,0.01265,-0.064625,-0.001375
1680017927095,1197915448769128,0.026675,-0.0496375,-0.0033
1680017927097,1197915451271281,0.0407,-0.0325875,-0.001375
1680017927099,1197915453773695,0.0556875,-0.014575,-0.0023375
1680017927101,1197915456275926,0.0716375,0.001375,-2.75E-4
1680017927103,1197915458778387,0.07865,0.02035,-0.001375
1680017927106,1197915461280772,0.0837375,0.0444125,-2.75E-4
1680017927110,1197915463783003,0.0847,0.06545,-0.0053625
1680017927112,1197915466285378,0.0796125,0.0823625,-0.006325
1680017927113,1197915468787532,0.0727375,0.102437496,-0.0053625
1680017927116,1197915471289763,0.0617375,0.11935,-0.0072875
1680017927119,1197915473792225,0.0477125,0.134475,-0.011275
1680017927122,1197915476294594,0.037675,0.1513875,-0.012375
1680017927124,1197915478796825,0.0287375,0.1623875,-0.0193875
1680017927126,1197915481299210,0.015675,0.1684375,-0.017324999
1680017927129,1197915483801440,0.013612499,0.1703625,-0.0182875
1680017927133,1197915486303806,0.01265,0.16445,-0.022275
1680017927135,1197915488806037,0.013612499,0.1593625,-0.02035
1680017927136,1197915491308421,0.0187,0.144375,-0.0213125
1680017927140,1197915493810652,0.013612499,0.123475,-0.0193875
1680017927142,1197915496313037,0.015675,0.102437496,-0.0213125
1680017927143,1197915498815167,0.014712499,0.079475,-0.022275
1680017927146,1197915501317397,0.015675,0.0523875,-0.02035
1680017927150,1197915503819859,0.0187,0.0273625,-0.0213125
1680017927152,1197915506322244,0.0177375,0.0044,-0.0213125
1680017927153,1197915508824464,0.015675,-0.0215875,-0.0213125
1680017927156,1197915511326849,0.014712499,-0.045649998,-0.0213125
1680017927160,1197915513829080,0.01265,-0.06765,-0.0213125
1680017927162,1197915516331464,0.01265,-0.091575,-0.02035
1680017927164,1197915518833676,0.0056375,-0.1065625,-0.0193875
1680017927166,1197915521336061,0.0037125,-0.1166,-0.0182875
1680017927172,1197915523838292,6.875E-4,-0.1346125,-0.017324999
1680017927176,1197915526340676,-0.0042625,-0.141625,-0.0163625
1680017927178,1197915528842912,-0.0083875,-0.151525,-0.0133375
1680017927181,1197915531345297,-0.0133375,-0.1596375,-0.011275
1680017927182,1197915533847758,-0.0143,-0.1615625,-0.0083875
1680017927184,1197915536349912,-0.017324999,-0.163625,-0.0053625
1680017927186,1197915538852143,-0.017324999,-0.1676125,-0.0023375
1680017927187,1197915541354527,-0.023375,-0.16555,-0.001375
1680017927193,1197915543856758,-0.028324999,-0.162525,0.00165
1680017927193,1197915546358912,-0.0363,-0.1615625,0.00165
1680017927195,1197915548861373,-0.0363,-0.157575,0.0026125
1680017927196,1197915551363763,-0.0383625,-0.1475375,0.004675
1680017927202,1197915553865994,-0.0402875,-0.1425875,0.004675
1680017927206,1197915556368379,-0.04235,-0.13365,0.0056375
1680017927206,1197915558870609,-0.039325,-0.1255375,0.0056375
1680017927208,1197915561372993,-0.0363,-0.113575,0.0056375
1680017927210,1197915563875454,-0.033275,-0.10065,0.004675
1680017927212,1197915566377608,-0.0262625,-0.086625,0.0056375
1680017927214,1197915568879839,-0.017324999,-0.0705375,0.009625
1680017927217,1197915571382224,-0.0103124995,-0.058575,0.01265
1680017927220,1197915573884430,-0.0023375,-0.0405625,0.01265
1680017927222,1197915576386815,0.0067375,-0.0246125,0.014712499
1680017927223,1197915578889277,0.015675,-0.0075625,0.014712499
1680017927226,1197915581391507,0.026675,0.013475,0.01265
1680017927230,1197915583893652,0.0336875,0.032449998,0.0187
1680017927232,1197915586396037,0.0367125,0.0474375,0.0196625
1680017927234,1197915588898268,0.0416625,0.068475,0.021724999
1680017927237,1197915591400652,0.0477125,0.0944625,0.0286
1680017927241,1197915593903104,0.048675,0.113437496,0.0286
1680017927242,1197915596405335,0.0477125,0.1324125,0.0297
1680017927247,1197915598907719,0.0446875,0.1574375,0.0356125
1680017927251,1197915601409873,0.0397375,0.1684375,0.0356125
1680017927254,1197915603912094,0.0297,0.1804,0.0336875
1680017927255,1197915606414478,0.02365,0.189475,0.0336875
1680017927257,1197915608916940,0.015675,0.199375,0.032725
1680017927258,1197915611419171,0.0086624995,0.2063875,0.031625
1680017927260,1197915613921325,0.0026125,0.2044625,0.0286
1680017927263,1197915616423743,-0.001375,0.2024,0.026675
1680017927264,1197915618925974,-0.0072875,0.199375,0.026675
1680017927268,1197915621428359,-0.0103124995,0.1923625,0.0246125
1680017927269,1197915623930820,-0.011275,0.1804,0.021724999
1680017927271,1197915626433041,-0.0143,0.16335,0.021724999
1680017927274,1197915628935426,-0.0133375,0.1494625,0.021724999
1680017927276,1197915631437579,-0.0143,0.1324125,0.020624999
1680017927280,1197915633939810,-0.012375,0.1183875,0.021724999
1680017927284,1197915636442186,-0.011275,0.0963875,0.02365
1680017927286,1197915638944647,-0.00935,0.079475,0.02365
1680017927288,1197915641446878,-0.00935,0.0603625,0.0257125
1680017927290,1197915643949263,-0.012375,0.0364375,0.0226875
1680017927294,1197915646451474,-0.011275,0.0193875,0.0246125
1680017927295,1197915648953858,-0.0103124995,0.0044,0.026675
1680017927296,1197915651456012,-0.012375,-0.01155,0.0276375
1680017927301,1197915653958474,-0.015262499,-0.0276375,0.0276375
1680017927302,1197915656460704,-0.0193875,-0.042625,0.0276375
1680017927304,1197915658963089,-0.023375,-0.053625,0.026675
1680017927306,1197915661465272,-0.0253,-0.0655875,0.02365
1680017927310,1197915663967503,-0.03135,-0.0716375,0.0187
1680017927311,1197915666469887,-0.0383625,-0.0836,0.014712499
1680017927314,1197915668972349,-0.04235,-0.086625,0.01265
1680017927317,1197915671474580,-0.0482625,-0.0955625,0.013612499
1680017927322,1197915673976964,-0.0543125,-0.09955,0.010725
1680017927326,1197915676478078,-0.055275,-0.1035375,0.0077
1680017927327,1197915678979195,-0.0523875,-0.107525,0.004675
1680017927328,1197915681483728,-0.0512875,-0.108625,0.0026125
1680017927330,1197915683986190,-0.0473,-0.108625,0.00165
1680017927332,1197915686488421,-0.04235,-0.108625,6.875E-4
1680017927334,1197915688990805,-0.03135,-0.104637496,6.875E-4
1680017927336,1197915691493036,-0.0213125,-0.10065,0.0026125
1680017927340,1197915693995421,-0.015262499,-0.0906125,6.875E-4
1680017927341,1197915696497652,-0.0023375,-0.0796125,0.00165
1680017927344,1197915699000036,0.014712499,-0.06655,0.0037125
1680017927346,1197915701502267,0.034649998,-0.053625,0.0056375
1680017927350,1197915704004671,0.0446875,-0.0405625,0.0066
1680017927351,1197915706506901,0.0526625,-0.0215875,0.0086624995
1680017927354,1197915709009055,0.059675,-0.0075625,0.010725
1680017927358,1197915711511440,0.0606375,0.013475,0.01265
1680017927360,1197915714013901,0.059675,0.032449998,0.014712499
1680017927363,1197915716516132,0.0526625,0.056375,0.0166375
1680017927365,1197915719018517,0.048675,0.0834625,0.0226875
1680017927367,1197915721520748,0.043725,0.1043625,0.0276375
1680017927370,1197915724023132,0.0367125,0.13145,0.0286
1680017927371,1197915726525349,0.0306625,0.1513875,0.0297
1680017927374,1197915729027734,0.0257125,0.167475,0.031625
1680017927376,1197915731529964,0.0226875,0.17847499,0.0297
1680017927380,1197915734032349,0.0116875,0.1904375,0.0257125
1680017927383,1197915736534580,0.0067375,0.19745,0.0246125
1680017927384,1197915739036964,0.004675,0.1984125,0.0246125
1680017927387,1197915741539195,0.0026125,0.19745,0.0226875
1680017927390,1197915744041657,-0.0033,0.1874125,0.021724999
1680017927391,1197915746543811,-0.0042625,0.1733875,0.0196625
1680017927395,1197915749046229,-0.0053625,0.16445,0.015675
1680017927397,1197915751548460,-0.0053625,0.1464375,0.015675
1680017927401,1197915754050845,-0.0042625,0.1274625,0.0187
1680017927403,1197915756553046,-0.0033,0.10835,0.0166375
1680017927404,1197915759055431,-0.0033,0.0814,0.014712499
1680017927406,1197915761557662,-0.0033,0.0584375,0.015675
1680017927410,1197915764060046,-0.001375,0.03135,0.0196625
1680017927411,1197915766562277,-0.001375,0.012375,0.0196625
1680017927414,1197915769064753,6.875E-4,-0.008525,0.0196625
1680017927416,1197915771566906,0.00165,-0.025575,0.0187
1680017927420,1197915774069291,6.875E-4,-0.047575,0.0196625
1680017927421,1197915776571522,0.0026125,-0.06655,0.021724999
1680017927424,1197915779073902,0.00165,-0.080575,0.0187
1680017927426,1197915781576132,-0.0042625,-0.0925375,0.020624999
1680017927430,1197915784078594,-0.0072875,-0.104637496,0.021724999
1680017927434,1197915786580978,-0.00935,-0.11055,0.0166375
1680017927435,1197915789083108,-0.00935,-0.1166,0.015675
1680017927437,1197915791585339,-0.0083875,-0.115637496,0.01265
1680017927440,1197915794087724,-0.0103124995,-0.1175625,0.01265
1680017927442,1197915796589954,-0.011275,-0.118525,0.013612499
1680017927444,1197915799092416,-0.0083875,-0.1166,0.015675
1680017927446,1197915801594816,-0.0083875,-0.11055,0.014712499
1680017927450,1197915804096969,-0.0072875,-0.104637496,0.013612499
1680017927451,1197915806599431,-0.001375,-0.0906125,0.01265
1680017927454,1197915809101585,0.0026125,-0.0836,0.0116875
1680017927456,1197915811603845,0.0116875,-0.07755,0.01265
1680017927460,1197915814106306,0.02365,-0.0686125,0.013612499
1680017927462,1197915816608691,0.034649998,-0.0576125,0.0116875
1680017927464,1197915819110845,0.0466125,-0.047575,0.009625
1680017927466,1197915821613113,0.054725,-0.0375375,0.0086624995
1680017927472,1197915824115498,0.059675,-0.0295625,0.0066
1680017927474,1197915826617729,0.059675,-0.0215875,0.0026125
1680017927479,1197915829120190,0.0587125,-0.008525,-0.001375
1680017927479,1197915831622580,0.054725,-5.5E-4,-0.0044
1680017927480,1197915834124811,0.0466125,0.01045,-0.006325
1680017927482,1197915836627195,0.0386375,0.02145,-0.006325
1680017927484,1197915839129349,0.031625,0.0284625,-0.0083875
1680017927486,1197915841631594,0.02365,0.032449998,-0.0133375
1680017927490,1197915844134056,0.0196625,0.0383625,-0.017324999
1680017927491,1197915846636440,0.015675,0.0413875,-0.0182875
1680017927493,1197915849138671,0.010725,0.0374,-0.0182875
1680017927496,1197915851641061,0.0056375,0.0364375,-0.0193875
1680017927500,1197915854143214,0.0037125,0.029424999,-0.0213125
1680017927501,1197915856645445,0.00165,0.023375,-0.0213125
1680017927504,1197915859147907,0.004675,0.018424999,-0.0163625
1680017927508,1197915861650291,0.0037125,4.125E-4,-0.0163625
1680017927511,1197915864152522,0.0037125,-0.0166375,-0.012375
1680017927512,1197915866654676,0.0026125,-0.0246125,-0.0083875
1680017927514,1197915869157061,6.875E-4,-0.0356125,-0.006325
1680017927517,1197915871659291,-0.0053625,-0.0515625,-0.001375
1680017927519,1197915874161734,-0.0042625,-0.063525,6.875E-4
1680017927523,1197915876664119,-0.0042625,-0.0796125,0.00165
1680017927524,1197915879166349,-0.0053625,-0.08965,0.0066
1680017927526,1197915881668734,-0.0083875,-0.0985875,0.0056375
1680017927529,1197915884170960,-0.011275,-0.11165,0.0066
1680017927532,1197915886673114,-0.015262499,-0.1145375,0.0086624995
1680017927534,1197915889175575,-0.0133375,-0.1175625,0.009625
1680017927537,1197915891677960,-0.0182875,-0.1205875,0.010725
1680017927540,1197915894180205,-0.0213125,-0.119625,0.010725
1680017927542,1197915896682589,-0.0243375,-0.118525,0.010725
1680017927545,1197915899184820,-0.0253,-0.115637496,0.0086624995
1680017927547,1197915901686974,-0.023375,-0.1095875,0.009625
1680017927550,1197915904189430,-0.0213125,-0.10065,0.010725
1680017927551,1197915906691815,-0.0213125,-0.0946,0.0086624995
1680017927554,1197915909194046,-0.017324999,-0.08965,0.009625
1680017927556,1197915911696430,-0.012375,-0.080575,0.0077
1680017927560,1197915914198555,-0.0053625,-0.069575,0.0086624995
1680017927562,1197915916700786,-0.0033,-0.064625,0.0077
1680017927564,1197915919203248,0.004675,-0.058575,0.0066
1680017927570,1197915921705632,0.0086624995,-0.0466125,0.0056375
1680017927571,1197915924207892,0.01265,-0.03355,0.0056375
1680017927571,1197915926710277,0.0226875,-0.020624999,0.0037125
1680017927574,1197915929212507,0.0276375,-0.0075625,6.875E-4
1680017927576,1197915931714892,0.0336875,0.0044,6.875E-4
1680017927580,1197915934217128,0.034649998,0.018424999,6.875E-4
1680017927583,1197915936719512,0.037675,0.032449998,0.00165
1680017927585,1197915939221743,0.0356125,0.0474375,-2.75E-4
1680017927587,1197915941724128,0.0306625,0.062425,0.0056375
1680017927590,1197915944226373,0.026675,0.073425,0.004675
1680017927592,1197915946728757,0.0226875,0.0834625,0.0037125
1680017927594,1197915949231219,0.02365,0.0944625,0.00165
1680017927596,1197915951733373,0.013612499,0.1043625,0.0026125
1680017927600,1197915954235603,0.004675,0.106425,-2.75E-4
1680017927602,1197915956738008,0.004675,0.1153625,-0.0053625
1680017927604,1197915959240239,-0.0033,0.1183875,-0.00935
1680017927606,1197915961742393,-0.0023375,0.1153625,-0.00935
1680017927610,1197915964244777,-0.0023375,0.1104125,-0.0083875
1680017927611,1197915966747239,-0.0053625,0.1043625,-0.0133375
1680017927614,1197915969249444,-0.006325,0.095425,-0.0154
1680017927616,1197915971751829,-0.0053625,0.0814,-0.0154
1680017927621,1197915974254060,-0.0072875,0.0704,-0.0163625
1680017927623,1197915976756445,-0.0053625,0.0554125,-0.0163625
1680017927625,1197915979258651,-0.0042625,0.0394625,-0.0133375
1680017927627,1197915981761036,-0.006325,0.023375,-0.0154
1680017927630,1197915984263267,-0.0053625,0.007425,-0.0133375
1680017927632,1197915986765651,-0.0053625,-0.009625,-0.012375
1680017927634,1197915989267882,-0.0042625,-0.0286,-0.011275
1680017927636,1197915991770247,-0.0053625,-0.042625,-0.0083875
1680017927640,1197915994272477,-0.0083875,-0.0576125,-0.0103124995
1680017927642,1197915996774862,-0.0083875,-0.069575,-0.0072875
1680017927644,1197915999277324,-0.0072875,-0.0845625,-0.0053625
1680017927646,1197916001779477,-0.006325,-0.0946,-0.0053625
1680017927650,1197916004281708,-0.00935,-0.09955,-0.006325
1680017927652,1197916006784093,-0.0103124995,-0.11055,-0.0044
1680017927654,1197916009286247,-0.0182875,-0.1126125,-0.0044
1680017927658,1197916011788694,-0.0193875,-0.113575,-0.006325
1680017927661,1197916014290925,-0.0213125,-0.1166,-0.0044
1680017927663,1197916016793310,-0.0243375,-0.1065625,-0.0023375
1680017927664,1197916019295540,-0.028324999,-0.107525,-2.75E-4
1680017927667,1197916021797925,-0.028324999,-0.102575,-2.75E-4
1680017927670,1197916024300166,-0.0292875,-0.096525,0.00165
1680017927674,1197916026802627,-0.028324999,-0.0875875,-2.75E-4
1680017927675,1197916029304781,-0.0262625,-0.0796125,-2.75E-4
1680017927677,1197916031807166,-0.022275,-0.0735625,-0.001375
1680017927680,1197916034309411,-0.015262499,-0.0625625,-2.75E-4
1680017927682,1197916036811795,-0.017324999,-0.0515625,-0.001375
1680017927685,1197916039314026,-0.0143,-0.04455,-0.0033
1680017927687,1197916041816488,-0.00935,-0.031625,-0.0033
1680017927690,1197916044318877,6.875E-4,-0.0246125,-0.0044
1680017927692,1197916046821108,0.01265,-0.0105875,-0.006325
1680017927695,1197916049323262,0.02365,4.125E-4,-0.00935
1680017927697,1197916051825646,0.034649998,0.0083875,-0.012375
1680017927702,1197916054327862,0.043725,0.0224125,-0.0133375
1680017927703,1197916056830324,0.0507375,0.035475,-0.0163625
1680017927704,1197916059332478,0.054725,0.0394625,-0.02035
1680017927706,1197916061834862,0.0576125,0.05335,-0.0213125
1680017927710,1197916064337093,0.0576125,0.067375,-0.0213125
1680017927712,1197916066839478,0.054725,0.078375,-0.02035
1680017927714,1197916069341708,0.0517,0.0884125,-0.02035
1680017927716,1197916071844170,0.0416625,0.101475,-0.017324999
1680017927719,1197916074346555,0.034649998,0.1073875,-0.02035
1680017927723,1197916076848723,0.0287375,0.1153625,-0.0193875
1680017927725,1197916079350954,0.0187,0.117425,-0.02035
1680017927727,1197916081853339,0.0116875,0.117425,-0.0213125
1680017927730,1197916084355579,0.0037125,0.117425,-0.02035
1680017927733,1197916086858040,0.00165,0.1164625,-0.023375
1680017927735,1197916089360425,6.875E-4,0.10835,-0.0253
1680017927737,1197916091862656,-0.0023375,0.095425,-0.0243375
1680017927740,1197916094365040,-0.0042625,0.0823625,-0.022275
1680017927741,1197916096867189,-0.0042625,0.0713625,-0.0213125
1680017927744,1197916099369420,-0.0023375,0.057475,-0.023375
1680017927746,1197916101871881,-0.0033,0.0444125,-0.0193875
1680017927750,1197916104374266,6.875E-4,0.0273625,-0.017324999
1680017927752,1197916106876401,-0.001375,0.013475,-0.017324999
1680017927756,1197916109378632,0.00165,-0.00165,-0.011275
1680017927757,1197916111881016,-0.001375,-0.014575,-0.00935
1680017927760,1197916114383247,0.00165,-0.025575,-0.006325
1680017927763,1197916116885709,0.0026125,-0.034649998,-0.0053625
1680017927766,1197916119388093,-0.0023375,-0.04455,-0.0044
1680017927767,1197916121890324,-0.0023375,-0.0506,0.0026125
1680017927772,1197916124392478,-0.0053625,-0.0545875,0.004675
1680017927774,1197916126894838,-0.0083875,-0.056649998,0.0026125
1680017927775,1197916129397069,-0.0072875,-0.0606375,0.0056375
1680017927777,1197916131899531,-0.0072875,-0.0606375,0.0056375
1680017927780,1197916134401915,-0.00935,-0.0595375,0.0077
1680017927783,1197916136904146,-0.012375,-0.0606375,0.0056375
1680017927785,1197916139406537,-0.00935,-0.063525,0.004675
1680017927787,1197916141908768,-0.0083875,-0.0606375,0.004675
1680017927790,1197916144410921,-0.00935,-0.058575,0.0037125
1680017927792,1197916146913383,-0.0103124995,-0.0595375,0.0037125
1680017927794,1197916149415777,-0.0133375,-0.053625,6.875E-4
1680017927797,1197916151918007,-0.0163625,-0.052525,-0.0023375
1680017927801,1197916154420392,-0.0133375,-0.0515625,-0.0033
1680017927803,1197916156922546,-0.0103124995,-0.0496375,-0.0044
1680017927805,1197916159424777,-0.0103124995,-0.0515625,-0.0053625
1680017927808,1197916161927238,-0.006325,-0.0485375,-0.0044
1680017927811,1197916164429623,0.00165,-0.04455,-0.0053625
1680017927812,1197916166931854,0.0067375,-0.045649998,-0.006325
1680017927814,1197916169434238,0.0067375,-0.041525,-0.0083875
1680017927817,1197916171936392,0.0067375,-0.0405625,-0.011275
1680017927820,1197916174438623,0.004675,-0.034649998,-0.0154
1680017927821,1197916176941084,0.004675,-0.031625,-0.017324999
1680017927824,1197916179443469,0.004675,-0.0265375,-0.02035
1680017927826,1197916181945715,-0.0023375,-0.02365,-0.0213125
1680017927830,1197916184448099,-0.0083875,-0.014575,-0.023375
1680017927832,1197916186950330,-0.0083875,-0.009625,-0.0253
1680017927835,1197916189452715,-0.012375,-0.0075625,-0.0273625
1680017927837,1197916191954935,-0.015262499,-0.0026125,-0.0273625
1680017927840,1197916194457320,-0.015262499,-0.0026125,-0.0264
1680017927842,1197916196959551,-0.0163625,4.125E-4,-0.028324999
1680017927846,1197916199461936,-0.015262499,0.001375,-0.0323125
1680017927850,1197916201964161,-0.012375,4.125E-4,-0.033275
1680017927852,1197916204466315,-0.0103124995,-0.003575,-0.0353375
1680017927853,1197916206969007,-0.012375,-0.008525,-0.0323125
1680017927855,1197916209471161,-0.011275,-0.013612499,-0.034375
1680017927857,1197916211973392,-0.0133375,-0.014575,-0.039325
1680017927860,1197916214475763,-0.011275,-0.0176,-0.0383625
1680017927862,1197916216977993,-0.00935,-0.020624999,-0.0383625
1680017927864,1197916219480147,-0.012375,-0.019524999,-0.0413875
1680017927867,1197916221982609,-0.0133375,-0.0246125,-0.04235
1680017927870,1197916224485012,-0.015262499,-0.0246125,-0.04235
1680017927872,1197916226987243,-0.0163625,-0.0246125,-0.044275
1680017927875,1197916229489628,-0.017324999,-0.020624999,-0.044275
1680017927878,1197916231991859,-0.015262499,-0.0166375,-0.0463375
1680017927881,1197916234494243,-0.012375,-0.0105875,-0.045375
1680017927884,1197916236996690,-0.0072875,-0.008525,-0.045375
1680017927887,1197916239498844,-0.0023375,-0.003575,-0.045375
1680017927888,1197916242001074,0.0037125,0.007425,-0.0484
1680017927891,1197916244503426,0.0116875,0.0174625,-0.0484
1680017927893,1197916247005657,0.0177375,0.0273625,-0.0433125
1680017927895,1197916249508041,0.0246125,0.029424999,-0.045375
1680017927897,1197916252010503,0.0287375,0.034375,-0.04235
1680017927900,1197916254512734,0.0336875,0.0474375,-0.0383625
1680017927902,1197916257014893,0.0336875,0.054449998,-0.0383625
1680017927904,1197916259517277,0.0287375,0.06435,-0.0353375
1680017927907,1197916262019508,0.0257125,0.0743875,-0.033275
1680017927910,1197916264521893,0.0226875,0.084425,-0.0323125
1680017927912,1197916267024132,0.0187,0.0933625,-0.0273625
1680017927914,1197916269526517,0.0177375,0.0994125,-0.028324999
1680017927917,1197916272028748,0.015675,0.1034,-0.0243375
1680017927920,1197916274531132,0.014712499,0.1073875,-0.0243375
1680017927924,1197916277033373,0.013612499,0.10835,-0.0253
1680017927926,1197916279535758,0.013612499,0.1043625,-0.0323125
1680017927928,1197916282038219,0.01265,0.0994125,-0.033275
1680017927930,1197916284540450,0.01265,0.095425,-0.0323125
1680017927934,1197916287042614,0.014712499,0.08745,-0.034375
1680017927935,1197916289544999,0.013612499,0.0774125,-0.0353375
1680017927937,1197916292047229,0.013612499,0.062425,-0.0374
1680017927940,1197916294549614,0.0116875,0.054449998,-0.0374
1680017927942,1197916297052076,0.0116875,0.046475,-0.0363
1680017927944,1197916299554330,0.0116875,0.0334125,-0.039325
1680017927947,1197916302056715,0.010725,0.018424999,-0.0383625
1680017927950,1197916304558869,0.009625,0.0064625,-0.0353375
1680017927952,1197916307061100,0.013612499,-0.00165,-0.0363
1680017927954,1197916309563503,0.013612499,-0.019524999,-0.0353375
1680017927958,1197916312065965,0.010725,-0.030524999,-0.0323125
1680017927961,1197916314568196,0.009625,-0.04455,-0.0292875
1680017927963,1197916317070349,0.009625,-0.056649998,-0.0323125
1680017927965,1197916319572739,0.0116875,-0.06655,-0.028324999
1680017927967,1197916322074970,0.0116875,-0.07755,-0.0273625
1680017927970,1197916324577354,0.013612499,-0.085525,-0.0292875
1680017927971,1197916327079816,0.01265,-0.0955625,-0.028324999
1680017927974,1197916329582047,0.010725,-0.1035375,-0.0303875
1680017927977,1197916332084210,0.010725,-0.102575,-0.033275
1680017927980,1197916334586594,0.009625,-0.108625,-0.034375
1680017927982,1197916337089056,0.0056375,-0.113575,-0.0374
1680017927984,1197916339591287,0.0056375,-0.118525,-0.0402875
1680017927987,1197916342093666,0.004675,-0.119625,-0.04235
1680017927990,1197916344595820,0.00165,-0.115637496,-0.044275
1680017927992,1197916347098051,-0.0033,-0.1166,-0.050325
1680017927996,1197916349600435,-0.0053625,-0.1145375,-0.0512875
1680017927997,1197916352102892,-0.0053625,-0.1145375,-0.0484
1680017928000,1197916354605123,-0.0033,-0.107525,-0.050325
1680017928003,1197916357107507,-0.0023375,-0.10065,-0.050325
1680017928004,1197916359609661,-0.0023375,-0.097625,-0.0484
1680017928007,1197916362111892,0.0056375,-0.0925375,-0.0512875
1680017928010,1197916364614292,0.009625,-0.0815375,-0.0512875
1680017928012,1197916367116753,0.010725,-0.074525,-0.0493625
1680017928014,1197916369618984,0.013612499,-0.0616,-0.0484
1680017928017,1197916372121369,0.031625,-0.047575,-0.0413875
1680017928020,1197916374623512,0.042625,-0.030524999,-0.0383625
1680017928022,1197916377125743,0.056649998,-0.0176,-0.0374
1680017928024,1197916379628128,0.0686125,-0.0066,-0.0353375
1680017928027,1197916382130589,0.0746625,0.0064625,-0.0363
1680017928030,1197916384632815,0.0807125,0.02145,-0.033275
1680017928033,1197916387135200,0.0847,0.0383625,-0.0292875
1680017928035,1197916389637430,0.081675,0.046475,-0.0273625
