system_ts_ms, sensor_ts_ns, gyrX, gyrY, gyrZ
1679933945278,1113933631738942,-0.003575,0.034925,-0.004675
1679933945280,1113933634241095,-0.0015125,0.034925,-0.003575
1679933945281,1113933636743249,0.0034375,0.0339625,-0.0056375
1679933945284,1113933639245403,0.0083875,0.0400125,-0.0086624995
1679933945286,1113933641747788,0.012375,0.036025,-0.0075625
1679933945289,1113933644249990,0.012375,0.0400125,-0.0105875
1679933945291,1113933646752220,0.013475,0.0389125,-0.01265
1679933945299,1113933649254374,0.0114124995,0.040975,-0.015675
1679933945299,1113933651756528,0.013475,0.0449625,-0.015675
1679933945300,1113933654258686,0.013475,0.047025,-0.0166375
1679933945302,1113933656760840,0.012375,0.0429,-0.0176
1679933945304,1113933659262994,0.0154,0.036025,-0.0176
1679933945306,1113933661765378,0.013475,0.0319,-0.0215875
1679933945313,1113933664267537,0.013475,0.0319,-0.020624999
1679933945313,1113933666769691,0.012375,0.029975,-0.0185625
1679933945314,1113933669271922,0.012375,0.023924999,-0.02255
1679933945317,1113933671774076,0.013475,0.0180125,-0.0176
1679933945319,1113933674276153,0.012375,0.0169125,-0.013612499
1679933945323,1113933676778629,0.0154,0.012925,-0.0196625
1679933945329,1113933679280552,0.01045,0.0119624995,-0.0166375
1679933945329,1113933681782937,0.01045,0.00495,-0.013612499
1679933945330,1113933684285100,0.0094875,0.003025,-0.013612499
1679933945332,1113933686787330,0.007425,-0.003025,-0.0105875
1679933945334,1113933689289484,0.0083875,-0.003025,-0.0086624995
1679933945337,1113933691791638,0.007425,-0.0050875,-0.0075625
1679933945341,1113933694293783,0.0044,-0.009075,-0.004675
1679933945346,1113933696795937,0.0064625,-0.0121,-0.004675
1679933945346,1113933699298091,0.0044,-0.0121,-0.0066
1679933945347,1113933701800475,0.002475,-0.0149875,-0.004675
1679933945351,1113933704302706,-5.5E-4,-0.018975,-0.00165
1679933945352,1113933706804797,0.0055,-0.0210375,-0.00165
1679933945354,1113933709306951,0.0034375,-0.0240625,4.125E-4
1679933945357,1113933711809182,4.125E-4,-0.0259875,-5.5E-4
1679933945362,1113933714311336,-5.5E-4,-0.025024999,4.125E-4
1679933945362,1113933716813489,0.001375,-0.0240625,0.001375
1679933945364,1113933719315874,-5.5E-4,-0.025024999,0.0023375
1679933945367,1113933721818028,0.001375,-0.0259875,0.0044
1679933945370,1113933724320182,0.001375,-0.033,0.007425
1679933945372,1113933726822336,4.125E-4,-0.0270875,0.006325
1679933945374,1113933729324484,-0.003575,-0.0270875,0.0053625
1679933945379,1113933731826638,-0.0015125,-0.0240625,0.0083875
1679933945381,1113933734329100,-0.0015125,-0.0240625,0.007425
1679933945382,1113933736831013,-5.5E-4,-0.0210375,0.0083875
1679933945384,1113933739333397,4.125E-4,-0.0210375,0.0083875
1679933945386,1113933741835551,0.001375,-0.020075,0.007425
1679933945390,1113933744337705,-5.5E-4,-0.013062499,0.0114124995
1679933945392,1113933746839859,-0.0015125,-0.0121,0.01045
1679933945398,1113933749342013,-0.0055,-0.007975,0.0083875
1679933945398,1113933751844244,-0.0055,-0.0050875,0.007425
1679933945401,1113933754346398,-0.0045375,-0.0039875,0.00935
1679933945403,1113933756848551,-0.0045375,0.001925,0.00935
1679933945404,1113933759350662,-0.0066,9.625E-4,0.01045
1679933945406,1113933761853047,-0.0075625,0.00495,0.0114124995
1679933945413,1113933764354970,-0.0075625,0.00495,0.006325
1679933945414,1113933766857355,-0.0066,0.011,0.006325
1679933945415,1113933769359585,-0.0075625,0.01595,0.0034375
1679933945417,1113933771861739,-0.0075625,0.022,0.0044
1679933945420,1113933774363893,-0.0045375,0.02695,0.0053625
1679933945421,1113933776866047,-0.0055,0.025024999,0.001375
1679933945424,1113933779368201,-0.0066,0.0279125,4.125E-4
1679933945435,1113933781870355,-0.0055,0.0309375,0.0053625
1679933945436,1113933784372739,-0.0075625,0.0309375,0.0034375
1679933945436,1113933786874893,-0.008525,0.0339625,0.0023375
1679933945438,1113933789377047,-0.0055,0.040975,0.0044
1679933945438,1113933791879230,-0.0075625,0.044,0.0023375
1679933945440,1113933794381307,-0.0125124995,0.044,0.001375
1679933945442,1113933796883460,-0.009625,0.045925,0.001375
1679933945446,1113933799385922,-0.0105875,0.047025,0.001375
1679933945447,1113933801888076,-0.01155,0.0510125,4.125E-4
1679933945451,1113933804390239,-0.0105875,0.051975,0.0023375
1679933945453,1113933806892393,-0.0125124995,0.0559625,0.001375
1679933945455,1113933809394546,-0.01155,0.0559625,4.125E-4
1679933945456,1113933811896700,-0.0125124995,0.0539,0.0023375
1679933945462,1113933814398902,-0.01155,0.056925,0.0023375
1679933945462,1113933816901056,-0.0125124995,0.056925,0.0044
1679933945464,1113933819403441,-0.01155,0.058025,0.0044
1679933945467,1113933821905364,-0.013612499,0.058025,0.0023375
1679933945471,1113933824407503,-0.014575,0.058025,0.0023375
1679933945472,1113933826909888,-0.013612499,0.058025,0.0034375
1679933945474,1113933829412042,-0.0155375,0.058025,0.0053625
1679933945478,1113933831914273,-0.0155375,0.056925,0.0044
1679933945480,1113933834416422,-0.0176,0.0620125,0.0053625
1679933945482,1113933836918575,-0.0176,0.056925,0.0053625
1679933945484,1113933839420729,-0.0185625,0.051975,0.0044
1679933945486,1113933841922883,-0.0215875,0.0609125,0.0044
1679933945491,1113933844425052,-0.0165,0.056925,0.0053625
1679933945498,1113933846927437,-0.0155375,0.055,0.007425
1679933945499,1113933849429590,-0.0176,0.0559625,0.006325
1679933945500,1113933851931744,-0.0176,0.0499125,0.006325
1679933945501,1113933854433898,-0.0165,0.0479875,0.006325
1679933945502,1113933856936153,-0.0176,0.04895,0.0083875
1679933945505,1113933859438230,-0.014575,0.04895,0.006325
1679933945507,1113933861940461,-0.014575,0.047025,0.0053625
1679933945513,1113933864442845,-0.0125124995,0.0429,0.006325
1679933945514,1113933866944999,-0.013612499,0.0389125,0.0053625
1679933945517,1113933869447153,-0.014575,0.0339625,0.0034375
1679933945518,1113933871949307,-0.013612499,0.033,0.0023375
1679933945520,1113933874451461,-0.013612499,0.0309375,0.001375
1679933945522,1113933876953595,-0.0125124995,0.0290125,0.001375
1679933945525,1113933879455825,-0.008525,0.023924999,4.125E-4
1679933945531,1113933881957979,-0.008525,0.023924999,4.125E-4
1679933945532,1113933884460364,-0.01155,0.023924999,-0.0026125
1679933945534,1113933886962518,-0.01155,0.018975,-0.0026125
1679933945537,1113933889464671,-0.008525,0.0169125,-0.004675
1679933945538,1113933891966825,-0.0055,0.0209,-0.0056375
1679933945539,1113933894469056,-0.0055,0.01595,-0.0056375
1679933945542,1113933896971210,-0.0066,0.0169125,-0.0056375
1679933945545,1113933899473364,-0.0066,0.0209,-0.0075625
1679933945547,1113933901975518,-0.0066,0.0209,-0.0066
1679933945550,1113933904477671,-0.0066,0.018975,-0.0066
1679933945552,1113933906979825,-0.0075625,0.0229625,-0.0086624995
1679933945554,1113933909482013,-0.0055,0.0209,-0.0086624995
1679933945557,1113933911984398,-0.003575,0.0199375,-0.009625
1679933945564,1113933914486629,-5.5E-4,0.0209,-0.01155
1679933945565,1113933916988706,-0.003575,0.0209,-0.01265
1679933945566,1113933919490922,-0.0066,0.0229625,-0.01155
1679933945567,1113933921993076,-0.0045375,0.022,-0.01265
1679933945570,1113933924495230,-5.5E-4,0.0199375,-0.013612499
1679933945573,1113933926997615,-0.003575,0.0180125,-0.013612499
1679933945574,1113933929499768,-0.0055,0.01595,-0.0166375
1679933945578,1113933932001931,-0.0045375,0.0149875,-0.0176
1679933945580,1113933934504085,-0.0015125,0.014025,-0.020624999
1679933945581,1113933937006239,-0.003575,0.012925,-0.0215875
1679933945585,1113933939508393,-5.5E-4,0.0180125,-0.0215875
1679933945587,1113933942010624,0.0015125,0.018975,-0.02255
1679933945590,1113933944513008,-5.5E-4,0.018975,-0.0276375
1679933945592,1113933947014931,-5.5E-4,0.0209,-0.026675
1679933945595,1113933949517316,4.125E-4,0.0209,-0.026675
1679933945597,1113933952019446,-5.5E-4,0.0169125,-0.0306625
1679933945600,1113933954521600,-5.5E-4,0.01595,-0.0276375
1679933945603,1113933957023754,-5.5E-4,0.01595,-0.02365
1679933945605,1113933959525984,-0.0015125,0.0180125,-0.020624999
1679933945607,1113933962028138,-0.0015125,0.0169125,-0.0215875
1679933945612,1113933964530316,0.002475,0.0149875,-0.02365
1679933945613,1113933967032470,0.002475,0.018975,-0.02255
1679933945614,1113933969534624,-0.0055,0.018975,-0.020624999
1679933945617,1113933972037008,-0.0015125,0.0209,-0.0215875
1679933945620,1113933974538911,-0.0055,0.023924999,-0.02365
1679933945622,1113933977041373,-0.0055,0.0279125,-0.0215875
1679933945624,1113933979543527,-0.0015125,0.0279125,-0.0215875
1679933945629,1113933982045604,-0.0045375,0.0290125,-0.0196625
1679933945630,1113933984547772,-0.003575,0.033,-0.0215875
1679933945631,1113933987050002,-0.003575,0.034925,-0.020624999
1679933945634,1113933989552387,-0.0055,0.034925,-0.0196625
1679933945639,1113933992054541,-5.5E-4,0.0369875,-0.0196625
1679933945642,1113933994556724,-5.5E-4,0.040975,-0.0196625
1679933945644,1113933997058878,4.125E-4,0.036025,-0.020624999
1679933945648,1113933999561031,4.125E-4,0.036025,-0.0215875
1679933945649,1113934002063262,0.0015125,0.0429,-0.020624999
1679933945651,1113934004565412,0.0034375,0.044,-0.02255
1679933945652,1113934007067566,0.0034375,0.044,-0.0295625
1679933945654,1113934009569720,0.002475,0.044,-0.0306625
1679933945657,1113934012072104,0.0064625,0.04895,-0.0286
1679933945661,1113934014574022,0.002475,0.0529375,-0.0325875
1679933945662,1113934017076484,0.0034375,0.0499125,-0.0356125
1679933945664,1113934019578638,0.002475,0.0539,-0.036575
1679933945668,1113934022080715,4.125E-4,0.0559625,-0.036575
1679933945670,1113934024582936,0.0034375,0.055,-0.036575
1679933945672,1113934027085089,0.0044,0.0559625,-0.036575
1679933945674,1113934029587243,0.0034375,0.04895,-0.0386375
1679933945679,1113934032089397,0.002475,0.0449625,-0.0396
1679933945681,1113934034591801,0.0034375,0.0499125,-0.0396
1679933945683,1113934037281108,0.0083875,0.0529375,-0.0416625
1679933945685,1113934039596108,0.0044,0.0479875,-0.042625
1679933945687,1113934042098262,0.0034375,0.04895,-0.0435875
1679933945690,1113934044600416,0.0055,0.051975,-0.0496375
1679933945692,1113934047102637,0.007425,0.051975,-0.0466125
1679933945694,1113934049605022,0.0055,0.0510125,-0.04455
1679933945697,1113934052107175,0.0044,0.0479875,-0.045649998
1679933945701,1113934054609329,0.0034375,0.04895,-0.0496375
1679933945702,1113934057111483,0.002475,0.0479875,-0.0466125
1679933945705,1113934059613637,0.0044,0.045925,-0.0466125
1679933945707,1113934062115791,0.0064625,0.0429,-0.045649998
1679933945710,1113934064617945,4.125E-4,0.0429,-0.04455
1679933945712,1113934067120175,0.002475,0.045925,-0.0466125
1679933945716,1113934069622575,4.125E-4,0.03795,-0.045649998
1679933945719,1113934072124498,4.125E-4,0.0429,-0.0466125
1679933945722,1113934074626652,-5.5E-4,0.040975,-0.0496375
1679933945724,1113934077129008,-5.5E-4,0.0400125,-0.0466125
1679933945726,1113934079630931,4.125E-4,0.0339625,-0.0466125
1679933945728,1113934082133392,4.125E-4,0.0290125,-0.04455
1679933945731,1113934084635546,4.125E-4,0.025024999,-0.04455
1679933945732,1113934087137700,-5.5E-4,0.022,-0.0466125
1679933945735,1113934089639868,-5.5E-4,0.0199375,-0.04455
1679933945738,1113934092142022,-0.0015125,0.0180125,-0.0435875
1679933945740,1113934094644175,-5.5E-4,0.0169125,-0.0416625
1679933945742,1113934097146329,-0.0055,0.012925,-0.042625
1679933945745,1113934099648714,-0.0045375,0.014025,-0.0405625
1679933945747,1113934102150868,-0.003575,0.014025,-0.0405625
1679933945750,1113934104653022,-0.0075625,0.007975,-0.036575
1679933945754,1113934107155252,-0.0055,0.007975,-0.0405625
1679933945756,1113934109657315,-0.0055,0.0039875,-0.0405625
1679933945758,1113934112159546,-0.0055,9.625E-4,-0.037675
1679933945760,1113934114661931,-0.0066,-0.0,-0.037675
1679933945762,1113934117164085,-0.0055,-0.0011,-0.037675
1679933945768,1113934119666281,-0.0045375,-0.0,-0.036575
1679933945770,1113934122168435,-0.0055,-0.003025,-0.034649998
1679933945772,1113934124670589,-0.008525,-0.003025,-0.03355
1679933945774,1113934127172820,-0.008525,-0.003025,-0.03355
1679933945776,1113934129674974,-0.0075625,-0.00605,-0.03355
1679933945777,1113934132177138,-0.0045375,-0.011,-0.0306625
1679933945780,1113934134679522,-0.0075625,-0.0160875,-0.0295625
1679933945782,1113934137181445,-0.008525,-0.014025,-0.0325875
1679933945785,1113934139683830,-0.0094875,-0.009075,-0.03355
1679933945787,1113934142185984,-0.0055,-0.013062499,-0.0325875
1679933945792,1113934144688138,-0.0066,-0.011,-0.0295625
1679933945794,1113934147190368,-0.0055,-0.0149875,-0.025575
1679933945796,1113934149692522,-0.0094875,-0.014025,-0.026675
1679933945798,1113934152194676,-0.0066,-0.0160875,-0.0276375
1679933945801,1113934154696830,-0.003575,-0.014025,-0.025575
1679933945804,1113934157198984,-0.0015125,-0.0149875,-0.0246125
1679933945805,1113934159701138,-5.5E-4,-0.0149875,-0.026675
1679933945807,1113934162203599,4.125E-4,-0.0160875,-0.026675
1679933945810,1113934164705738,4.125E-4,-0.0180125,-0.0246125
1679933945812,1113934167207815,-5.5E-4,-0.0149875,-0.0276375
1679933945814,1113934169710046,-0.0015125,-0.0160875,-0.026675
1679933945818,1113934172212200,-0.003575,-0.0180125,-0.0276375
1679933945820,1113934174714359,-5.5E-4,-0.01705,-0.0276375
1679933945822,1113934177216512,-0.0015125,-0.014025,-0.0286
1679933945825,1113934179718897,-0.0055,-0.01705,-0.0325875
1679933945829,1113934182221051,-0.0066,-0.014025,-0.0325875
1679933945831,1113934184723210,-0.0015125,-0.011,-0.0356125
1679933945834,1113934187225364,-5.5E-4,-0.013062499,-0.037675
1679933945836,1113934189727517,-0.003575,-0.01705,-0.036575
1679933945838,1113934192229748,-0.0045375,-0.0149875,-0.0356125
1679933945840,1113934194731902,-0.0066,-0.014025,-0.037675
1679933945842,1113934197234056,-0.0066,-0.01705,-0.042625
1679933945845,1113934199736441,-0.0094875,-0.0149875,-0.0405625
1679933945847,1113934202238594,-0.0055,-0.014025,-0.0416625
1679933945850,1113934204740748,-0.0075625,-0.0180125,-0.0386375
1679933945852,1113934207242902,-0.0094875,-0.0180125,-0.0386375
1679933945854,1113934209745128,-0.008525,-0.018975,-0.0416625
1679933945857,1113934212247282,-0.008525,-0.0180125,-0.0405625
1679933945860,1113934214749436,-0.008525,-0.0160875,-0.0416625
1679933945862,1113934217251589,-0.008525,-0.020075,-0.0386375
1679933945867,1113934219753767,-0.0066,-0.018975,-0.037675
1679933945870,1113934222256152,-0.0055,-0.022,-0.0405625
1679933945872,1113934224758075,-0.0066,-0.0210375,-0.0416625
1679933945874,1113934227260536,-0.008525,-0.0210375,-0.0416625
1679933945876,1113934229762690,-0.01155,-0.0240625,-0.0405625
1679933945879,1113934232264844,-0.0125124995,-0.025024999,-0.0405625
1679933945881,1113934234766998,-0.01155,-0.0240625,-0.0396
1679933945883,1113934237269152,-0.014575,-0.0210375,-0.037675
1679933945886,1113934239771306,-0.013612499,-0.0210375,-0.036575
1679933945887,1113934242273690,-0.014575,-0.020075,-0.036575
1679933945890,1113934244775844,-0.0155375,-0.0240625,-0.03355
1679933945892,1113934247277998,-0.013612499,-0.0210375,-0.0286
1679933945895,1113934249780229,-0.014575,-0.0259875,-0.0295625
1679933945897,1113934252282306,-0.0165,-0.0259875,-0.025575
1679933945905,1113934254784460,-0.0155375,-0.0259875,-0.02365
1679933945915,1113934257286690,-0.0125124995,-0.0259875,-0.02255
1679933945915,1113934259789075,-0.013612499,-0.0259875,-0.0185625
1679933945915,1113934262291229,-0.0155375,-0.0259875,-0.0166375
1679933945916,1113934264793388,-0.0165,-0.031075,-0.015675
1679933945916,1113934267295542,-0.0155375,-0.029975,-0.01265
1679933945917,1113934269797695,-0.0176,-0.029975,-0.009625
1679933945918,1113934272299849,-0.0204875,-0.0290125,-0.0075625
1679933945921,1113934274802089,-0.0176,-0.0369875,-0.0026125
1679933945924,1113934277304243,-0.0165,-0.0380875,-0.00165
1679933945926,1113934279806628,-0.014575,-0.040975,-5.5E-4
1679933945927,1113934282308551,-0.013612499,-0.0430375,0.0044
1679933945931,1113934284810940,-0.014575,-0.0460625,0.007425
1679933945933,1113934287313094,-0.014575,-0.050049998,0.0083875
1679933945934,1113934289815248,-0.01155,-0.0510125,0.0083875
1679933945937,1113934292317479,-0.013612499,-0.050049998,0.01045
1679933945942,1113934294819527,-0.0155375,-0.050049998,0.0133375
1679933945943,1113934297321757,-0.014575,-0.051975,0.0154
1679933945945,1113934299823911,-0.0125124995,-0.0570625,0.0144375
1679933945947,1113934302326296,-0.014575,-0.0570625,0.0193875
1679933945950,1113934304828450,-0.014575,-0.058025,0.0163625
1679933945952,1113934307330609,-0.0125124995,-0.0600875,0.0154
1679933945954,1113934309832762,-0.0105875,-0.062975,0.0193875
1679933945958,1113934312334916,-0.0165,-0.0650375,0.0193875
1679933945961,1113934314837070,-0.0125124995,-0.062975,0.02035
1679933945963,1113934317339296,-0.0125124995,-0.0671,0.0193875
1679933945964,1113934319841681,-0.0125124995,-0.0680625,0.0193875
1679933945967,1113934322343834,-0.01155,-0.066,0.0154
1679933945970,1113934324845757,-0.01155,-0.0671,0.02035
1679933945973,1113934327348142,-0.01155,-0.0699875,0.0193875
1679933945975,1113934329850296,-0.01155,-0.0699875,0.0163625
1679933945978,1113934332352527,-0.01155,-0.0650375,0.0154
1679933945981,1113934334854681,-0.0125124995,-0.0650375,0.018424999
1679933945983,1113934337356820,-0.01155,-0.069025,0.0154
1679933945985,1113934339858974,-0.0094875,-0.0680625,0.01045
1679933945987,1113934342361128,-0.0066,-0.0680625,0.012375
1679933945990,1113934344863282,-0.0066,-0.0710875,0.0114124995
1679933945992,1113934347365436,-0.0066,-0.075075,0.00935
1679933945995,1113934349867897,-0.0075625,-0.078099996,0.0083875
1679933945998,1113934352369974,-0.0045375,-0.077,0.006325
1679933946003,1113934354872205,-5.5E-4,-0.0760375,0.0044
1679933946003,1113934357374359,-5.5E-4,-0.07205,4.125E-4
1679933946004,1113934359876513,-5.5E-4,-0.066,-0.00165
1679933946007,1113934362378667,-5.5E-4,-0.0650375,-0.00165
1679933946010,1113934364881051,-5.5E-4,-0.0600875,-0.003575
1679933946012,1113934367383205,0.0015125,-0.058025,-0.003575
1679933946017,1113934369885349,4.125E-4,-0.053075,-0.004675
1679933946018,1113934372387503,0.0015125,-0.050049998,-0.004675
1679933946021,1113934374889657,0.0015125,-0.047025,-0.003575
1679933946022,1113934377391811,4.125E-4,-0.044,-0.004675
1679933946025,1113934379894041,4.125E-4,-0.0380875,-0.0075625
1679933946027,1113934382396180,-5.5E-4,-0.0350625,-0.0075625
1679933946032,1113934384898565,-0.0015125,-0.0341,-0.0066
1679933946034,1113934387400719,-0.0015125,-0.029975,-0.0086624995
1679933946035,1113934389902872,4.125E-4,-0.025024999,-0.01155
1679933946038,1113934392405007,-0.0015125,-0.01705,-0.009625
1679933946041,1113934394907161,4.125E-4,-0.0149875,-0.009625
1679933946043,1113934397409392,0.0015125,-0.0149875,-0.01265
1679933946045,1113934399911546,-0.0015125,-0.009075,-0.015675
1679933946047,1113934402413700,-0.003575,-0.0050875,-0.009625
1679933946051,1113934404915854,-0.0015125,0.001925,-0.009625
1679933946053,1113934407418238,4.125E-4,0.00495,-0.0086624995
1679933946055,1113934409920161,-0.003575,0.012925,-0.0056375
1679933946057,1113934412422315,-5.5E-4,0.0169125,-0.004675
1679933946060,1113934414924792,-0.003575,0.0180125,-0.00165
1679933946062,1113934417426945,-0.0055,0.023924999,4.125E-4
1679933946065,1113934419929099,-0.0066,0.0279125,0.001375
1679933946068,1113934422431253,-0.0075625,0.02695,0.0044
1679933946071,1113934424933407,-0.0075625,0.0279125,0.006325
1679933946073,1113934427435561,-0.008525,0.0290125,0.01045
1679933946075,1113934429937946,-0.009625,0.029975,0.0114124995
1679933946078,1113934432440099,-0.008525,0.0319,0.012375
1679933946081,1113934434942238,-0.01155,0.036025,0.012375
1679933946083,1113934437444469,-0.013612499,0.0319,0.0154
1679933946085,1113934439946546,-0.014575,0.0319,0.018424999
1679933946087,1113934442448700,-0.01155,0.033,0.018424999
1679933946092,1113934444951171,-0.013612499,0.0309375,0.02035
1679933946094,1113934447453325,-0.013612499,0.0319,0.018424999
1679933946096,1113934449955479,-0.013612499,0.0290125,0.02035
1679933946097,1113934452457633,-0.0125124995,0.0279125,0.02145
1679933946101,1113934454959787,-0.013612499,0.0290125,0.023375
1679933946102,1113934457461950,-0.0155375,0.0279125,0.0224125
1679933946105,1113934459964103,-0.013612499,0.025024999,0.0224125
1679933946107,1113934462466334,-0.0176,0.0199375,0.023375
1679933946110,1113934464968719,-0.0165,0.0199375,0.0243375
1679933946112,1113934467470652,-0.0155375,0.0180125,0.023375
1679933946115,1113934469972806,-0.0165,0.012925,0.0243375
1679933946118,1113934472475190,-0.0155375,0.014025,0.0243375
1679933946121,1113934474977344,-0.0185625,0.0099,0.0264
1679933946123,1113934477479575,-0.0215875,0.0059125,0.0243375
1679933946126,1113934479981729,-0.019524999,0.0070125,0.0254375
1679933946129,1113934482483883,-0.02255,0.00495,0.0254375
1679933946132,1113934484986037,-0.0235125,0.0039875,0.0243375
1679933946135,1113934487488190,-0.02255,0.001925,0.029424999
1679933946137,1113934489990344,-0.0246125,0.003025,0.0254375
1679933946138,1113934492492498,-0.0275,-0.0,0.0224125
1679933946140,1113934494994960,-0.0246125,-0.0039875,0.02145
1679933946142,1113934497497037,-0.025575,-0.00605,0.02145
1679933946145,1113934499999204,-0.0275,-0.00605,0.02145
1679933946147,1113934502501435,-0.0275,-0.009075,0.018424999
1679933946152,1113934505003512,-0.0275,-0.0121,0.018424999
1679933946155,1113934507505743,-0.025575,-0.013062499,0.0154
1679933946160,1113934510008133,-0.0286,-0.0160875,0.0154
1679933946161,1113934512510286,-0.0286,-0.020075,0.0133375
1679933946163,1113934515012440,-0.0286,-0.0270875,0.0114124995
1679933946165,1113934517514594,-0.0295625,-0.02805,0.0114124995
1679933946167,1113934520016738,-0.030524999,-0.031075,0.007425
1679933946168,1113934522518892,-0.0295625,-0.036025,0.0023375
1679933946172,1113934525021123,-0.0286,-0.040975,0.001375
1679933946173,1113934527523276,-0.0275,-0.040975,-5.5E-4
1679933946176,1113934530025430,-0.0275,-0.0380875,-0.003575
1679933946178,1113934532527815,-0.0246125,-0.040975,-0.00165
1679933946180,1113934535029738,-0.0246125,-0.042075,-0.0026125
1679933946183,1113934537532123,-0.025575,-0.0369875,-0.004675
1679933946185,1113934540034276,-0.0265375,-0.0341,-0.0075625
1679933946187,1113934542536512,-0.0265375,-0.0341,-0.004675
1679933946190,1113934545038666,-0.0265375,-0.0341,-0.0056375
1679933946192,1113934547540820,-0.0265375,-0.031075,-0.0066
1679933946195,1113934550042974,-0.0295625,-0.0341,-0.0086624995
1679933946198,1113934552545373,-0.030524999,-0.0290125,-0.0086624995
1679933946204,1113934555047297,-0.030524999,-0.0290125,-0.0066
1679933946205,1113934557549681,-0.031625,-0.0270875,-0.0086624995
1679933946206,1113934560051912,-0.0325875,-0.0270875,-0.0086624995
1679933946208,1113934562553984,-0.03355,-0.025024999,-0.0086624995
1679933946211,1113934565056215,-0.03355,-0.022,-0.009625
1679933946213,1113934567558368,-0.0356125,-0.0210375,-0.0105875
1679933946215,1113934570060522,-0.03355,-0.020075,-0.01265
1679933946218,1113934572562676,-0.030524999,-0.020075,-0.01265
1679933946221,1113934575065061,-0.031625,-0.0121,-0.013612499
1679933946223,1113934577567215,-0.0375375,-0.013062499,-0.015675
1679933946225,1113934580069368,-0.036575,-0.013062499,-0.015675
1679933946227,1113934582571522,-0.0375375,-0.014025,-0.0176
1679933946230,1113934585073661,-0.0375375,-0.01705,-0.0185625
1679933946232,1113934587575815,-0.0375375,-0.0160875,-0.0196625
1679933946237,1113934590078277,-0.0405625,-0.0121,-0.0185625
1679933946238,1113934592580200,-0.036575,-0.007975,-0.0185625
1679933946242,1113934595082354,-0.0375375,-0.009075,-0.0196625
1679933946244,1113934597584507,-0.0356125,-0.007975,-0.02255
1679933946246,1113934600086969,-0.0325875,-0.00605,-0.02365
1679933946248,1113934602589046,-0.03355,-0.0039875,-0.02255
1679933946252,1113934605091195,-0.0375375,-0.0050875,-0.0246125
1679933946258,1113934607593425,-0.0375375,-0.0020625,-0.02365
1679933946259,1113934610095579,-0.0375375,-0.0020625,-0.02365
1679933946261,1113934612597733,-0.036575,-0.0050875,-0.02365
1679933946263,1113934615099883,-0.0375375,-0.0020625,-0.025575
1679933946264,1113934617602268,-0.0356125,-0.0020625,-0.025575
1679933946266,1113934620104422,-0.0375375,-0.0011,-0.025575
1679933946269,1113934622606575,-0.0385,-0.0020625,-0.025575
1679933946271,1113934625108724,-0.0405625,-0.0050875,-0.026675
1679933946273,1113934627610878,-0.0405625,-0.0070125,-0.0246125
1679933946275,1113934630113032,-0.041525,-0.009075,-0.02255
1679933946280,1113934632615263,-0.042625,-0.00605,-0.0246125
1679933946283,1113934635117632,-0.0435875,-0.0050875,-0.02365
1679933946285,1113934637802017,-0.0455125,-0.007975,-0.02255
1679933946286,1113934640121709,-0.0455125,-0.0100375,-0.020624999
1679933946288,1113934642624094,-0.047575,-0.013062499,-0.0196625
1679933946291,1113934645126248,-0.0466125,-0.013062499,-0.0185625
1679933946293,1113934647628478,-0.047575,-0.020075,-0.020624999
1679933946295,1113934650130632,-0.0485375,-0.02805,-0.0176
1679933946297,1113934652632786,-0.0495,-0.02805,-0.013612499
1679933946301,1113934655134940,-0.052525,-0.0290125,-0.01155
1679933946303,1113934657637094,-0.052525,-0.0341,-0.0166375
1679933946305,1113934660139248,-0.0565125,-0.0430375,-0.0185625
1679933946307,1113934662641402,-0.05555,-0.0380875,-0.0166375
1679933946310,1113934665143863,-0.05555,-0.040975,-0.0166375
1679933946313,1113934667646017,-0.0565125,-0.042075,-0.0176
1679933946317,1113934670148171,-0.05555,-0.0380875,-0.0185625
1679933946319,1113934672650325,-0.0595375,-0.039049998,-0.015675
1679933946324,1113934675152479,-0.0576125,-0.0380875,-0.01265
1679933946324,1113934677654632,-0.0616,-0.0451,-0.015675
1679933946326,1113934680157017,-0.063525,-0.0479875,-0.01155
1679933946328,1113934682659171,-0.0625625,-0.0490875,-0.0086624995
1679933946331,1113934685161325,-0.0616,-0.0540375,-0.0086624995
1679933946332,1113934687663498,-0.064625,-0.062975,-0.0086624995
1679933946335,1113934690165651,-0.0686125,-0.0650375,-0.0086624995
1679933946337,1113934692667882,-0.064625,-0.062975,-0.009625
1679933946340,1113934695170036,-0.0686125,-0.0699875,-0.01155
1679933946342,1113934697672190,-0.06655,-0.075075,-0.01265
1679933946345,1113934700174561,-0.0655875,-0.0710875,-0.013612499
1679933946347,1113934702676714,-0.06655,-0.0699875,-0.0166375
1679933946350,1113934705178868,-0.06655,-0.069025,-0.013612499
1679933946354,1113934707681036,-0.06655,-0.0671,-0.0166375
1679933946355,1113934710183190,-0.069575,-0.066,-0.0185625
1679933946358,1113934712685421,-0.069575,-0.0680625,-0.0166375
1679933946361,1113934715187575,-0.0735625,-0.0671,-0.0166375
1679933946363,1113934717689728,-0.0715,-0.0671,-0.0166375
1679933946365,1113934720191882,-0.0726,-0.066,-0.0185625
1679933946371,1113934722694267,-0.075625,-0.062975,-0.0176
1679933946372,1113934725196190,-0.0735625,-0.0620125,-0.01265
1679933946373,1113934727698575,-0.0705375,-0.064075,-0.0166375
1679933946375,1113934730200805,-0.0705375,-0.0650375,-0.0166375
1679933946379,1113934732702959,-0.0715,-0.064075,-0.0105875
1679933946382,1113934735205113,-0.069575,-0.0589875,-0.01265
1679933946383,1113934737707267,-0.0686125,-0.062975,-0.01265
1679933946385,1113934740209421,-0.06655,-0.066,-0.0086624995
1679933946388,1113934742711575,-0.06655,-0.066,-0.0075625
1679933946392,1113934745213959,-0.063525,-0.0620125,-0.0056375
1679933946394,1113934747716113,-0.0595375,-0.0600875,-0.0066
1679933946395,1113934750218277,-0.0605,-0.055,-0.003575
1679933946401,1113934752720508,-0.058575,-0.050049998,4.125E-4
1679933946405,1113934755222585,-0.05555,-0.0510125,4.125E-4
1679933946405,1113934757724815,-0.0576125,-0.050049998,0.0023375
1679933946407,1113934760227200,-0.0565125,-0.0490875,0.0034375
1679933946408,1113934762729354,-0.053625,-0.0510125,0.0034375
1679933946411,1113934765231508,-0.0506,-0.0479875,0.0053625
1679933946413,1113934767733662,-0.052525,-0.044,0.0083875
1679933946415,1113934770235815,-0.0506,-0.044,0.0083875
1679933946418,1113934772737969,-0.0506,-0.042075,0.01045
1679933946421,1113934775240123,-0.0485375,-0.039049998,0.0114124995
1679933946422,1113934777742354,-0.0466125,-0.042075,0.01045
1679933946425,1113934780244508,-0.042625,-0.040975,0.01045
1679933946429,1113934782746643,-0.0435875,-0.042075,0.0114124995
1679933946431,1113934785248797,-0.0455125,-0.036025,0.0144375
1679933946434,1113934787751181,-0.0466125,-0.033,0.0114124995
1679933946436,1113934790253335,-0.0435875,-0.0341,0.0053625
1679933946438,1113934792755566,-0.0435875,-0.0341,0.0083875
1679933946441,1113934795257705,-0.0466125,-0.0320375,0.01045
1679933946443,1113934797759858,-0.0455125,-0.0320375,0.007425
1679933946446,1113934800262012,-0.04455,-0.0341,0.006325
1679933946448,1113934802764166,-0.041525,-0.036025,0.0044
1679933946451,1113934805266354,-0.041525,-0.031075,0.0034375
1679933946453,1113934807768508,-0.041525,-0.0259875,0.006325
1679933946455,1113934810270893,-0.0435875,-0.02805,0.0034375
1679933946457,1113934812773046,-0.041525,-0.031075,4.125E-4
1679933946460,1113934815275195,-0.0405625,-0.0320375,0.0023375
1679933946463,1113934817777426,-0.0405625,-0.0341,0.0034375
1679933946468,1113934820279580,-0.0396,-0.033,0.0034375
1679933946469,1113934822781734,-0.0375375,-0.031075,0.001375
1679933946472,1113934825284133,-0.036575,-0.0320375,0.0044
1679933946474,1113934827786287,-0.0356125,-0.031075,0.0034375
1679933946476,1113934830288441,-0.036575,-0.0270875,0.0034375
1679933946478,1113934832790595,-0.0356125,-0.029975,0.0034375
1679933946481,1113934835292749,-0.03355,-0.0341,0.0034375
1679933946483,1113934837794889,-0.03355,-0.0380875,0.0034375
1679933946488,1113934840297119,-0.0375375,-0.039049998,0.0034375
1679933946490,1113934842799273,-0.036575,-0.042075,0.0023375
1679933946493,1113934845301658,-0.036575,-0.044,0.007425
1679933946493,1113934847803807,-0.0396,-0.047025,0.007425
1679933946496,1113934850305961,-0.0375375,-0.0479875,0.007425
1679933946498,1113934852808114,-0.0356125,-0.0510125,0.0044
1679933946501,1113934855310268,-0.0356125,-0.050049998,0.0023375
1679933946504,1113934857812470,-0.03355,-0.050049998,0.0034375
1679933946506,1113934860314624,-0.036575,-0.0490875,0.0044
1679933946508,1113934862816778,-0.0385,-0.055,0.0044
1679933946511,1113934865318932,-0.0385,-0.058025,0.0053625
1679933946513,1113934867821085,-0.0396,-0.0589875,0.0053625
1679933946515,1113934870323244,-0.042625,-0.061049998,0.0044
1679933946519,1113934872825629,-0.042625,-0.0600875,0.0053625
1679933946522,1113934875327860,-0.042625,-0.058025,0.0023375
1679933946524,1113934877830014,-0.04455,-0.061049998,0.0034375
1679933946529,1113934880332157,-0.0485375,-0.0620125,0.0023375
1679933946537,1113934882834311,-0.047575,-0.058025,0.0034375
1679933946538,1113934885336465,-0.047575,-0.0540375,0.0023375
1679933946538,1113934887838619,-0.0485375,-0.058025,0.0023375
1679933946538,1113934890341014,-0.047575,-0.0589875,0.0053625
1679933946539,1113934892843167,-0.0506,-0.0589875,0.0053625
1679933946542,1113934895345321,-0.0485375,-0.055,0.0034375
1679933946543,1113934897847475,-0.0495,-0.055,0.0053625
1679933946546,1113934900349730,-0.0466125,-0.055,0.006325
1679933946547,1113934902851884,-0.0485375,-0.0620125,0.007425
1679933946551,1113934905354038,-0.052525,-0.0589875,0.00935
1679933946553,1113934907856191,-0.0565125,-0.0589875,0.01045
1679933946555,1113934910358581,-0.05555,-0.0620125,0.00935
1679933946558,1113934912860504,-0.0545875,-0.0620125,0.0114124995
1679933946561,1113934915362966,-0.05555,-0.0650375,0.0114124995
1679933946563,1113934917865120,-0.0565125,-0.0620125,0.0114124995
1679933946565,1113934920367273,-0.0576125,-0.0671,0.01045
1679933946568,1113934922869402,-0.0606375,-0.0671,0.0133375
1679933946571,1113934925371556,-0.0595375,-0.0650375,0.0144375
1679933946575,1113934927873710,-0.0595375,-0.0650375,0.0154
1679933946575,1113934930375879,-0.0595375,-0.064075,0.0133375
1679933946579,1113934932878263,-0.058575,-0.0671,0.0133375
1679933946582,1113934935380417,-0.0565125,-0.0710875,0.0193875
1679933946585,1113934937882571,-0.0595375,-0.077,0.0193875
1679933946586,1113934940384792,-0.0595375,-0.0760375,0.02035
1679933946588,1113934942886869,-0.0606375,-0.077,0.0193875
1679933946591,1113934945389100,-0.0625625,-0.0790625,0.023375
1679933946593,1113934947891484,-0.0625625,-0.073975,0.0224125
1679933946595,1113934950393638,-0.0606375,-0.075075,0.0224125
1679933946598,1113934952895826,-0.058575,-0.0760375,0.0224125
1679933946601,1113934955397980,-0.0606375,-0.0760375,0.02145
1679933946603,1113934957900134,-0.0616,-0.069025,0.0224125
1679933946605,1113934960402287,-0.0606375,-0.069025,0.023375
1679933946607,1113934962904518,-0.0625625,-0.0671,0.0243375
1679933946611,1113934965406681,-0.0625625,-0.0680625,0.0254375
1679933946613,1113934967909066,-0.0625625,-0.0699875,0.0254375
1679933946618,1113934970410989,-0.0616,-0.0620125,0.0273625
1679933946618,1113934972913143,-0.0616,-0.0589875,0.028324999
1679933946621,1113934975415508,-0.0595375,-0.0600875,0.029424999
1679933946623,1113934977917662,-0.058575,-0.061049998,0.028324999
1679933946625,1113934980419893,-0.0576125,-0.0620125,0.028324999
1679933946628,1113934982922047,-0.058575,-0.055,0.029424999
1679933946630,1113934985424206,-0.0595375,-0.0510125,0.029424999
1679933946632,1113934987926359,-0.05555,-0.0510125,0.028324999
1679933946635,1113934990428513,-0.0576125,-0.0490875,0.028324999
1679933946639,1113934992930667,-0.0565125,-0.050049998,0.028324999
1679933946641,1113934995433037,-0.0545875,-0.050049998,0.029424999
1679933946643,1113934997935191,-0.0496375,-0.0451,0.028324999
1679933946645,1113935000437344,-0.0485375,-0.044,0.028324999
1679933946648,1113935002939575,-0.0466125,-0.0460625,0.028324999
1679933946651,1113935005441729,-0.0435875,-0.044,0.0273625
1679933946654,1113935007943897,-0.042625,-0.0430375,0.0254375
1679933946656,1113935010446051,-0.0405625,-0.039049998,0.0264
1679933946658,1113935012948435,-0.0396,-0.0369875,0.0264
1679933946661,1113935015450589,-0.036575,-0.0369875,0.0254375
1679933946662,1113935017952743,-0.036575,-0.0369875,0.0224125
1679933946665,1113935020454892,-0.031625,-0.0369875,0.018424999
1679933946668,1113935022957046,-0.030524999,-0.0369875,0.0193875
1679933946671,1113935025459200,-0.0276375,-0.039049998,0.018424999
1679933946673,1113935027961430,-0.0235125,-0.0369875,0.0163625
1679933946675,1113935030463589,-0.0235125,-0.0380875,0.0163625
1679933946678,1113935032965974,-0.0246125,-0.0380875,0.0114124995
1679933946683,1113935035468128,-0.020624999,-0.0380875,0.01045
1679933946684,1113935037970282,-0.019524999,-0.039049998,0.012375
1679933946686,1113935040472446,-0.0155375,-0.0369875,0.0083875
1679933946688,1113935042974676,-0.009625,-0.036025,0.007425
1679933946693,1113935045476830,-0.0105875,-0.0380875,0.001375
1679933946694,1113935047978984,-0.0125124995,-0.0369875,0.0034375
1679933946696,1113935050481123,-0.0105875,-0.036025,0.0034375
1679933946698,1113935052983277,-0.0066,-0.0380875,0.0044
1679933946702,1113935055485431,-0.0075625,-0.0369875,0.001375
1679933946703,1113935057987584,-0.0066,-0.0369875,-0.003575
1679933946705,1113935060490046,-0.0015125,-0.0369875,-0.003575
1679933946708,1113935062992200,-0.0015125,-0.036025,4.125E-4
1679933946711,1113935065494277,-0.0015125,-0.0341,-0.003575
1679933946713,1113935067996508,-0.0015125,-0.0380875,-0.0075625
1679933946715,1113935070498661,-5.5E-4,-0.0380875,-0.0086624995
1679933946719,1113935073000815,0.002475,-0.0380875,-0.0075625
1679933946722,1113935075503200,0.001375,-0.040975,-0.0086624995
1679933946724,1113935078005354,0.0034375,-0.036025,-0.009625
1679933946726,1113935080507508,0.002475,-0.0341,-0.0105875
1679933946730,1113935083009671,0.002475,-0.0341,-0.013612499
1679933946732,1113935085511825,0.001375,-0.0341,-0.01265
1679933946735,1113935088013979,0.0034375,-0.036025,-0.015675
1679933946736,1113935090516210,0.0044,-0.0341,-0.0176
1679933946738,1113935093018594,0.0034375,-0.025024999,-0.020624999
1679933946741,1113935095520518,4.125E-4,-0.0270875,-0.0166375
1679933946742,1113935098022902,0.001375,-0.0259875,-0.0196625
1679933946745,1113935100525056,0.002475,-0.02805,-0.0246125
1679933946747,1113935103027210,4.125E-4,-0.031075,-0.025575
1679933946751,1113935105529359,0.001375,-0.029975,-0.025575
1679933946753,1113935108031590,4.125E-4,-0.02805,-0.0276375
1679933946755,1113935110533743,-0.003575,-0.0240625,-0.0276375
1679933946760,1113935113035897,-0.0015125,-0.0259875,-0.0276375
1679933946762,1113935115538065,-0.003575,-0.0259875,-0.0286
1679933946763,1113935118040219,-0.0045375,-0.0240625,-0.0286
1679933946767,1113935120542604,-0.0045375,-0.0210375,-0.0325875
1679933946768,1113935123044527,-0.0056375,-0.0240625,-0.0306625
1679933946772,1113935125546954,-0.0045375,-0.025024999,-0.0295625
1679933946774,1113935128049108,-5.5E-4,-0.022,-0.0295625
1679933946776,1113935130551262,-0.0015125,-0.020075,-0.03355
1679933946778,1113935133053416,4.125E-4,-0.0259875,-0.0306625
1679933946781,1113935135555570,0.002475,-0.0270875,-0.0286
1679933946783,1113935138057719,0.0034375,-0.022,-0.026675
1679933946786,1113935140560104,0.0053625,-0.02805,-0.0276375
1679933946788,1113935143062258,0.0044,-0.02805,-0.02365
1679933946791,1113935145564412,0.0053625,-0.02805,-0.0246125
1679933946793,1113935148066638,0.0083875,-0.033,-0.02255
1679933946795,1113935150568791,0.01045,-0.02805,-0.020624999
1679933946802,1113935153070868,0.01045,-0.0320375,-0.0196625
1679933946803,1113935155573330,0.012375,-0.0369875,-0.0196625
1679933946806,1113935158075465,0.0174625,-0.0320375,-0.0185625
1679933946807,1113935160577619,0.0163625,-0.0320375,-0.0166375
1679933946809,1113935163079772,0.0174625,-0.0369875,-0.013612499
1679933946812,1113935165581926,0.0163625,-0.036025,-0.013612499
1679933946818,1113935168084075,0.0163625,-0.0350625,-0.01155
1679933946819,1113935170586229,0.0163625,-0.036025,-0.0105875
1679933946820,1113935173088460,0.0174625,-0.040975,-0.0105875
1679933946822,1113935175590614,0.0193875,-0.039049998,-0.0086624995
1679933946823,1113935178092998,0.02145,-0.0369875,-0.0075625
1679933946825,1113935180594921,0.0193875,-0.039049998,-0.004675
1679933946828,1113935183097320,0.02145,-0.044,-0.004675
1679933946831,1113935185599474,0.0224125,-0.0479875,-0.004675
1679933946834,1113935188101705,0.023375,-0.0460625,-5.5E-4
1679933946835,1113935190603858,0.0254375,-0.047025,4.125E-4
1679933946839,1113935193106012,0.0254375,-0.0490875,0.0023375
1679933946843,1113935195608166,0.023375,-0.0510125,0.0023375
1679933946844,1113935198110320,0.023375,-0.047025,0.0023375
1679933946846,1113935200612710,0.0224125,-0.0430375,0.0034375
1679933946848,1113935203114863,0.0204875,-0.0430375,0.0023375
1679933946852,1113935205617017,0.0254375,-0.0430375,0.0044
1679933946853,1113935208119171,0.0224125,-0.042075,0.0044
1679933946855,1113935210621325,0.0193875,-0.0350625,0.0023375
1679933946858,1113935213123479,0.023375,-0.0320375,0.0034375
1679933946861,1113935215625710,0.0204875,-0.0380875,0.0044
1679933946863,1113935218127863,0.0204875,-0.0320375,0.001375
1679933946865,1113935220630017,0.023375,-0.02805,-0.0026125
1679933946868,1113935223132195,0.0204875,-0.02805,4.125E-4
1679933946871,1113935225634580,0.0193875,-0.02805,-5.5E-4
1679933946874,1113935228136503,0.0193875,-0.02805,-0.003575
1679933946876,1113935230638964,0.018424999,-0.0259875,-0.004675
1679933946881,1113935233141079,0.013475,-0.022,-0.0066
1679933946883,1113935235643233,0.0174625,-0.018975,-0.0086624995
1679933946886,1113935238201925,0.0154,-0.0180125,-0.009625
1679933946887,1113935240647541,0.012375,-0.01705,-0.009625
1679933946889,1113935243149695,0.013475,-0.0160875,-0.009625
1679933946891,1113935245652060,0.012375,-0.01705,-0.01265
1679933946893,1113935248154214,0.013475,-0.0149875,-0.01265
1679933946895,1113935250656368,0.013475,-0.0149875,-0.009625
1679933946898,1113935253158599,0.0163625,-0.0149875,-0.01155
1679933946901,1113935255660753,0.018424999,-0.0149875,-0.0105875
1679933946903,1113935258162821,0.018424999,-0.0121,-0.0105875
1679933946906,1113935260665051,0.0163625,-0.014025,-0.009625
1679933946908,1113935263167436,0.0174625,-0.0121,-0.0066
1679933946911,1113935265669590,0.0163625,-0.0121,-0.0056375
1679933946913,1113935268171744,0.0174625,-0.0100375,-0.0056375
1679933946919,1113935270673912,0.0174625,-0.0121,-0.0056375
1679933946921,1113935273176065,0.0163625,-0.011,-0.0056375
1679933946925,1113935275677160,0.0174625,-0.0121,-0.003575
1679933946925,1113935278178239,0.018424999,-0.0121,-0.00165
1679933946929,1113935280682623,0.013475,-0.007975,-5.5E-4
1679933946930,1113935283185007,0.013475,-0.0100375,4.125E-4
1679933946932,1113935285686931,0.0174625,-0.0100375,0.0044
1679933946934,1113935288189084,0.013475,-0.009075,0.0044
1679933946936,1113935290691474,0.012375,-0.007975,0.0034375
1679933946938,1113935293193628,0.0094875,-0.0121,0.0034375
1679933946941,1113935295695859,0.0094875,-0.014025,0.0053625
1679933946944,1113935298198013,0.01045,-0.013062499,0.007425
1679933946946,1113935300700161,0.0094875,-0.011,0.007425
1679933946948,1113935303202315,0.0094875,-0.009075,0.0083875
1679933946952,1113935305704469,0.0083875,-0.011,0.006325
1679933946955,1113935308206623,0.0094875,-0.011,0.0044
1679933946957,1113935310708994,0.0064625,-0.00605,0.006325
1679933946959,1113935313211224,0.007425,-0.0039875,0.0053625
1679933946963,1113935315713301,0.007425,-0.009075,0.0053625
1679933946963,1113935318215532,0.0064625,-0.009075,0.0044
1679933946966,1113935320717686,0.0034375,-0.0020625,0.0044
1679933946968,1113935323219849,0.0034375,-0.0070125,0.0044
1679933946971,1113935325722003,0.002475,-0.007975,0.0053625
1679933946973,1113935328224387,4.125E-4,-0.0039875,0.0034375
1679933946977,1113935330726541,4.125E-4,-0.0020625,0.0053625
1679933946978,1113935333228700,0.0034375,-0.0,0.0034375
1679933946981,1113935335730854,4.125E-4,0.003025,4.125E-4
1679933946983,1113935338233008,-0.0015125,0.001925,0.0053625
1679933946986,1113935340735161,4.125E-4,-0.0,0.007425
1679933946988,1113935343237392,-0.003575,-0.0011,0.0053625
1679933946992,1113935345739546,-0.0056375,0.003025,4.125E-4
1679933946994,1113935348241931,-0.0045375,0.0070125,0.001375
1679933946996,1113935350744085,-0.0015125,0.001925,0.0044
1679933946999,1113935353246204,-0.0066,0.0039875,0.0023375
1679933947002,1113935355748358,-0.009625,0.0059125,0.0023375
1679933947004,1113935358250589,-0.0075625,0.00495,0.0023375
1679933947006,1113935360752743,-0.0075625,0.0059125,-5.5E-4
1679933947008,1113935363254897,-0.0075625,0.0059125,0.0023375
1679933947011,1113935365757071,-0.008525,0.0059125,0.001375
1679933947015,1113935368259224,-0.0056375,0.0070125,0.001375
1679933947016,1113935370761609,-0.0075625,0.0059125,0.0053625
1679933947019,1113935373263532,-0.0066,0.0070125,0.001375
1679933947021,1113935375765926,-0.0066,0.0119624995,4.125E-4
1679933947023,1113935378268157,-0.0056375,0.007975,0.001375
1679933947026,1113935380770233,-0.0075625,0.012925,4.125E-4
1679933947032,1113935383272459,-0.0105875,0.0099,0.0023375
1679933947033,1113935385774613,-0.008525,0.007975,0.001375
1679933947035,1113935388276767,-0.0066,0.011,-5.5E-4
1679933947037,1113935390779152,-0.0056375,0.011,-0.00165
1679933947039,1113935393281305,-0.0056375,0.007975,4.125E-4
1679933947042,1113935395783421,-0.0045375,0.011,0.001375
1679933947044,1113935398285575,-0.0015125,0.0099,0.0034375
1679933947046,1113935400787729,-0.0045375,0.0099,0.001375
1679933947049,1113935403289883,-0.0045375,0.011,-5.5E-4
1679933947051,1113935405792114,-0.0075625,0.0070125,0.001375
1679933947053,1113935408294527,-0.0056375,0.00495,4.125E-4
1679933947056,1113935410796681,-0.0056375,0.007975,0.001375
1679933947059,1113935413298835,-0.003575,0.0059125,4.125E-4
1679933947061,1113935415800989,-0.00165,0.00495,0.0034375
1679933947063,1113935418303152,-0.0056375,0.0059125,4.125E-4
1679933947067,1113935420805305,-0.0045375,0.0028875,4.125E-4
1679933947069,1113935423307536,-0.00165,0.0070125,0.0044
1679933947072,1113935425809690,-0.0075625,0.0039875,0.0034375
1679933947074,1113935428311830,-0.0066,9.625E-4,0.001375
1679933947076,1113935430813984,-0.0075625,0.0028875,0.0034375
1679933947080,1113935433316138,-0.0105875,0.00495,0.0034375
1679933947082,1113935435818522,-0.01265,0.0028875,0.001375
1679933947084,1113935438320690,-0.013612499,-0.0,0.0023375
1679933947086,1113935440822844,-0.01265,-0.0,-5.5E-4
1679933947088,1113935443325075,-0.0155375,9.625E-4,-0.00165
1679933947092,1113935445827229,-0.0176,-0.0,-0.004675
1679933947094,1113935448329382,-0.0176,-0.003025,-0.00165
1679933947096,1113935450831503,-0.019524999,-0.0020625,-0.0056375
1679933947101,1113935453333657,-0.0176,-0.0011,-0.0066
1679933947102,1113935455836042,-0.0176,-0.0050875,-0.0075625
1679933947105,1113935458338196,-0.0185625,-0.00605,-0.009625
1679933947106,1113935460840350,-0.0185625,-0.0050875,-0.01265
1679933947109,1113935463342503,-0.0185625,-0.0050875,-0.013612499
1679933947111,1113935465844734,-0.020624999,-0.0050875,-0.01265
1679933947113,1113935468346811,-0.02365,-0.00605,-0.013612499
1679933947116,1113935470849297,-0.020624999,-0.0070125,-0.0185625
1679933947119,1113935473351450,-0.020624999,-0.0100375,-0.01265
1679933947122,1113935475853604,-0.020624999,-0.0100375,-0.0196625
1679933947124,1113935478355758,-0.02365,-0.0121,-0.0196625
1679933947126,1113935480857940,-0.0246125,-0.0100375,-0.020624999
1679933947128,1113935483360094,-0.025575,-0.009075,-0.0215875
1679933947131,1113935485862248,-0.025575,-0.0121,-0.0215875
1679933947134,1113935488364479,-0.0265375,-0.011,-0.0185625
1679933947136,1113935490866632,-0.0276375,-0.011,-0.020624999
1679933947138,1113935493369017,-0.0286,-0.014025,-0.0196625
1679933947143,1113935495870940,-0.0276375,-0.011,-0.0185625
1679933947144,1113935498373325,-0.0265375,-0.0149875,-0.0215875
1679933947146,1113935500875498,-0.0295625,-0.0160875,-0.02365
1679933947148,1113935503377728,-0.030524999,-0.0149875,-0.0215875
1679933947153,1113935505879882,-0.031625,-0.0149875,-0.0215875
1679933947156,1113935508382036,-0.0325875,-0.0210375,-0.02365
1679933947156,1113935510884190,-0.0325875,-0.0240625,-0.02255
1679933947159,1113935513386589,-0.030524999,-0.0210375,-0.02255
1679933947161,1113935515888743,-0.0325875,-0.025024999,-0.0215875
1679933947163,1113935518390897,-0.0295625,-0.0290125,-0.0246125
1679933947166,1113935520893051,-0.0276375,-0.0270875,-0.0246125
1679933947168,1113935523395210,-0.030524999,-0.0270875,-0.0215875
1679933947171,1113935525897364,-0.0325875,-0.0301125,-0.0215875
1679933947173,1113935528399595,-0.0295625,-0.0290125,-0.025575
1679933947175,1113935530901748,-0.0295625,-0.0270875,-0.02365
1679933947179,1113935533404133,-0.0265375,-0.0259875,-0.02365
1679933947182,1113935535906287,-0.030524999,-0.031075,-0.02255
1679933947185,1113935538408210,-0.030524999,-0.031075,-0.0246125
1679933947186,1113935540910595,-0.030524999,-0.0270875,-0.0276375
1679933947188,1113935543412748,-0.0325875,-0.0270875,-0.0276375
1679933947191,1113935545914974,-0.0356125,-0.0320375,-0.02365
1679933947194,1113935548417128,-0.0325875,-0.0301125,-0.0286
1679933947196,1113935550919282,-0.031625,-0.0320375,-0.026675
1679933947200,1113935553421436,-0.0356125,-0.031075,-0.025575
1679933947202,1113935555923552,-0.0356125,-0.0301125,-0.026675
1679933947204,1113935558425705,-0.036575,-0.033,-0.0286
1679933947206,1113935560928090,-0.0386375,-0.033,-0.0286
1679933947208,1113935563430321,-0.036575,-0.0350625,-0.0276375
1679933947211,1113935565932508,-0.041525,-0.0320375,-0.0325875
1679933947213,1113935568434585,-0.042625,-0.031075,-0.0325875
1679933947219,1113935570936815,-0.04455,-0.0369875,-0.0306625
1679933947220,1113935573438969,-0.0435875,-0.0320375,-0.0306625
1679933947222,1113935575941123,-0.042625,-0.0301125,-0.03355
1679933947224,1113935578443508,-0.045649998,-0.033,-0.03355
1679933947226,1113935580945662,-0.04455,-0.031075,-0.0325875
1679933947228,1113935583447815,-0.042625,-0.0301125,-0.0306625
1679933947231,1113935585949969,-0.0466125,-0.0320375,-0.03355
1679933947234,1113935588452133,-0.0435875,-0.0320375,-0.0295625
1679933947236,1113935590954287,-0.041525,-0.0290125,-0.034649998
1679933947239,1113935593456749,-0.042625,-0.033,-0.0356125
1679933947242,1113935595958672,-0.04455,-0.0369875,-0.0356125
1679933947244,1113935598461070,-0.0435875,-0.0350625,-0.0386375
1679933947246,1113935600963224,-0.0435875,-0.0341,-0.0386375
1679933947248,1113935603465378,-0.04455,-0.0350625,-0.037675
1679933947252,1113935605967532,-0.04455,-0.0369875,-0.036575
1679933947255,1113935608469671,-0.04455,-0.036025,-0.0396
1679933947256,1113935610971901,-0.0435875,-0.0350625,-0.037675
1679933947260,1113935613474055,-0.0435875,-0.0369875,-0.036575
1679933947261,1113935615976209,-0.0466125,-0.036025,-0.036575
1679933947266,1113935618478363,-0.0466125,-0.0369875,-0.0386375
1679933947267,1113935620980517,-0.0466125,-0.0380875,-0.037675
1679933947269,1113935623482901,-0.045649998,-0.042075,-0.034649998
1679933947272,1113935625985055,-0.0485375,-0.044,-0.036575
1679933947274,1113935628487286,-0.045649998,-0.039049998,-0.034649998
1679933947276,1113935630989450,-0.045649998,-0.044,-0.034649998
1679933947279,1113935633491604,-0.0466125,-0.0430375,-0.03355
1679933947282,1113935635993758,-0.0466125,-0.0430375,-0.034649998
1679933947284,1113935638495911,-0.047575,-0.0460625,-0.0325875
1679933947286,1113935640998065,-0.0496375,-0.0451,-0.03355
1679933947288,1113935643500450,-0.0466125,-0.0451,-0.0295625
1679933947293,1113935646002604,-0.045649998,-0.0479875,-0.0286
1679933947295,1113935648504758,-0.045649998,-0.0510125,-0.026675
1679933947297,1113935651006973,-0.045649998,-0.0490875,-0.0286
1679933947298,1113935653509050,-0.047575,-0.050049998,-0.0295625
1679933947302,1113935656011204,-0.047575,-0.0521125,-0.025575
1679933947303,1113935658513666,-0.047575,-0.050049998,-0.0246125
1679933947306,1113935661015820,-0.0466125,-0.0540375,-0.025575
1679933947308,1113935663517983,-0.0466125,-0.055,-0.02365
1679933947312,1113935666020137,-0.04455,-0.055,-0.02255
1679933947313,1113935668522291,-0.045649998,-0.0540375,-0.0215875
1679933947316,1113935671024445,-0.04455,-0.0600875,-0.025575
1679933947320,1113935673526681,-0.0405625,-0.0620125,-0.0246125
1679933947323,1113935676028835,-0.042625,-0.0589875,-0.02255
1679933947325,1113935678530988,-0.047575,-0.058025,-0.0246125
1679933947327,1113935681033373,-0.0435875,-0.0570625,-0.0246125
1679933947331,1113935683535286,-0.0466125,-0.0589875,-0.0215875
1679933947336,1113935686037671,-0.0466125,-0.0600875,-0.0215875
1679933947338,1113935688539825,-0.047575,-0.061049998,-0.0196625
1679933947339,1113935691042055,-0.0506,-0.0589875,-0.0196625
1679933947340,1113935693544209,-0.047575,-0.058025,-0.0185625
1679933947342,1113935696046378,-0.0485375,-0.0570625,-0.0166375
1679933947344,1113935698548532,-0.0466125,-0.0589875,-0.0176
1679933947346,1113935701050686,-0.045649998,-0.053075,-0.013612499
1679933947348,1113935703552840,-0.0466125,-0.0570625,-0.01265
1679933947352,1113935706055209,-0.0435875,-0.0570625,-0.013612499
1679933947354,1113935708557440,-0.0435875,-0.0540375,-0.01265
1679933947356,1113935711059517,-0.041525,-0.053075,-0.01155
1679933947359,1113935713561671,-0.0396,-0.055,-0.015675
1679933947362,1113935716063907,-0.0386375,-0.0510125,-0.01265
1679933947364,1113935718566061,-0.0386375,-0.0490875,-0.01265
1679933947369,1113935721068214,-0.031625,-0.0510125,-0.01155
1679933947371,1113935723570599,-0.0356125,-0.050049998,-0.01265
1679933947373,1113935726072782,-0.031625,-0.0451,-0.013612499
1679933947375,1113935728574936,-0.0276375,-0.0490875,-0.015675
1679933947377,1113935731077090,-0.0295625,-0.0490875,-0.01155
1679933947379,1113935733579243,-0.0286,-0.044,-0.015675
1679933947382,1113935736081397,-0.0265375,-0.0460625,-0.013612499
1679933947384,1113935738583854,-0.0246125,-0.0479875,-0.013612499
1679933947386,1113935741085777,-0.025575,-0.0451,-0.015675
1679933947388,1113935743588161,-0.0276375,-0.044,-0.015675
1679933947391,1113935746090315,-0.025575,-0.0490875,-0.0166375
1679933947393,1113935748592459,-0.02255,-0.047025,-0.013612499
1679933947396,1113935751094613,-0.0185625,-0.0521125,-0.0166375
1679933947399,1113935753596844,-0.0176,-0.053075,-0.0185625
1679933947402,1113935756098998,-0.0155375,-0.0521125,-0.0176
1679933947405,1113935758601148,-0.013612499,-0.055,-0.0176
1679933947408,1113935761103301,-0.014575,-0.058025,-0.0176
1679933947409,1113935763605455,-0.014575,-0.0589875,-0.0185625
1679933947411,1113935766107609,-0.009625,-0.061049998,-0.0185625
1679933947414,1113935768609763,-0.0075625,-0.0650375,-0.0176
1679933947416,1113935771112148,-0.0075625,-0.064075,-0.0196625
1679933947418,1113935773614378,-0.0056375,-0.066,-0.020624999
1679933947421,1113935776116532,-0.0045375,-0.07205,-0.0196625
1679933947423,1113935778618609,-5.5E-4,-0.0741125,-0.020624999
1679933947426,1113935781120825,-5.5E-4,-0.0741125,-0.0215875
1679933947428,1113935783622979,4.125E-4,-0.075075,-0.0176
1679933947431,1113935786125363,0.0053625,-0.075075,-0.0215875
1679933947435,1113935788627517,0.0064625,-0.0760375,-0.0196625
1679933947437,1113935791129657,0.007425,-0.080025,-0.0176
1679933947439,1113935793631811,0.0053625,-0.088,-0.0185625
1679933947444,1113935796133965,0.0083875,-0.0900625,-0.020624999
1679933947446,1113935798636119,0.007425,-0.091025,-0.0196625
1679933947447,1113935801138243,0.0083875,-0.0930875,-0.0196625
1679933947450,1113935803640705,0.00935,-0.100099996,-0.0185625
1679933947453,1113935806142628,0.0114124995,-0.1040875,-0.0196625
1679933947454,1113935808644782,0.013475,-0.109037496,-0.0185625
1679933947456,1113935811146936,0.0163625,-0.113025,-0.0196625
1679933947458,1113935813649310,0.018424999,-0.11605,-0.020624999
1679933947461,1113935816151464,0.02145,-0.121,-0.020624999
1679933947463,1113935818653618,0.023375,-0.1249875,-0.0176
1679933947467,1113935821155849,0.024475,-0.1260875,-0.020624999
1679933947469,1113935823657994,0.024475,-0.1310375,-0.020624999
1679933947472,1113935826160148,0.0254375,-0.1331,-0.02255
1679933947473,1113935828662532,0.0273625,-0.135025,-0.0215875
1679933947476,1113935831164686,0.0264,-0.1401125,-0.0196625
1679933947483,1113935833666806,0.03135,-0.1450625,-0.0176
1679933947486,1113935838668960,0.034375,-0.1441,-0.0185625
1679933947487,1113935838832729,0.035475,-0.1469875,-0.0185625
1679933947489,1113935841173267,0.0364375,-0.1480875,-0.0185625
1679933947490,1113935843675498,0.040425,-0.146025,-0.020624999
1679933947493,1113935846177652,0.0413875,-0.1530375,-0.0196625
1679933947494,1113935848679806,0.0413875,-0.157025,-0.020624999
1679933947496,1113935851182191,0.043449998,-0.1551,-0.0185625
1679933947499,1113935853684344,0.046475,-0.152075,-0.013612499
1679933947502,1113935856186498,0.0504625,-0.1551,-0.0176
1679933947503,1113935858688652,0.046475,-0.154,-0.0196625
1679933947506,1113935861190883,0.0493625,-0.1551,-0.020624999
1679933947510,1113935863693037,0.0504625,-0.152075,-0.020624999
1679933947511,1113935866195191,0.051425,-0.1551,-0.0215875
1679933947513,1113935868697344,0.054449998,-0.1511125,-0.020624999
1679933947517,1113935871199729,0.0554125,-0.1469875,-0.02365
1679933947520,1113935873701652,0.05335,-0.1441,-0.020624999
1679933947523,1113935876204037,0.05335,-0.1480875,-0.02255
1679933947525,1113935878727430,0.056375,-0.146025,-0.025575
1679933947527,1113935881208430,0.057475,-0.141075,-0.025575
1679933947530,1113935883710584,0.056375,-0.1401125,-0.025575
1679933947531,1113935886212738,0.057475,-0.1420375,-0.026675
1679933947535,1113935888714892,0.0584375,-0.1420375,-0.0276375
1679933947536,1113935891217042,0.0554125,-0.1370875,-0.0276375
1679933947540,1113935893719426,0.057475,-0.1331,-0.0276375
1679933947541,1113935896221580,0.057475,-0.1359875,-0.0295625
1679933947544,1113935898723734,0.0554125,-0.135025,-0.0295625
1679933947546,1113935901225916,0.0594,-0.1310375,-0.0286
1679933947550,1113935903728070,0.0595375,-0.1310375,-0.0295625
1679933947551,1113935906230224,0.0584375,-0.12705,-0.0286
1679933947555,1113935908732685,0.057475,-0.1280125,-0.0325875
1679933947558,1113935911234839,0.0584375,-0.128975,-0.026675
1679933947561,1113935913736993,0.0605,-0.1260875,-0.0286
1679933947562,1113935916239147,0.0584375,-0.12705,-0.0306625
1679933947564,1113935918741301,0.0565125,-0.12705,-0.0295625
1679933947566,1113935921243465,0.0554125,-0.1280125,-0.0306625
1679933947570,1113935923745618,0.057475,-0.1280125,-0.0306625
1679933947572,1113935926247849,0.0565125,-0.124025,-0.0276375
1679933947574,1113935928750003,0.0554125,-0.121,-0.026675
1679933947576,1113935931252152,0.0595375,-0.119075,-0.0276375
1679933947580,1113935933754306,0.057475,-0.1219625,-0.0286
1679933947582,1113935936256690,0.0565125,-0.124025,-0.0295625
1679933947585,1113935938758844,0.0554125,-0.1249875,-0.0276375
1679933947586,1113935941260984,0.0534875,-0.1260875,-0.026675
1679933947590,1113935943763215,0.051425,-0.1280125,-0.026675
1679933947593,1113935946265369,0.052525,-0.1280125,-0.026675
1679933947595,1113935948767523,0.052525,-0.1260875,-0.02365
1679933947599,1113935951269690,0.051425,-0.1249875,-0.0246125
1679933947601,1113935953771844,0.051425,-0.1280125,-0.025575
1679933947602,1113935956273998,0.0504625,-0.12705,-0.025575
1679933947604,1113935958776383,0.0495,-0.1249875,-0.02255
1679933947606,1113935961278537,0.0455125,-0.1260875,-0.02365
1679933947610,1113935963780714,0.043449998,-0.1260875,-0.020624999
1679933947612,1113935966282945,0.0455125,-0.121,-0.02255
1679933947613,1113935968785022,0.0444125,-0.119075,-0.02255
1679933947616,1113935971287253,0.0424875,-0.121,-0.02365
1679933947620,1113935973789653,0.0424875,-0.119075,-0.0215875
1679933947621,1113935976291806,0.043449998,-0.1170125,-0.020624999
1679933947623,1113935978793960,0.0424875,-0.1150875,-0.02255
1679933947626,1113935981296114,0.040425,-0.113025,-0.0215875
1679933947633,1113935983798248,0.040425,-0.10505,-0.02255
1679933947635,1113935986300402,0.0394625,-0.1040875,-0.02365
1679933947637,1113935988802633,0.0364375,-0.1029875,-0.026675
1679933947638,1113935991304786,0.0364375,-0.0999625,-0.026675
1679933947641,1113935993806940,0.0284625,-0.095975,-0.0276375
1679933947642,1113935996309335,0.032449998,-0.091025,-0.0286
1679933947644,1113935998811258,0.0345125,-0.09405,-0.0295625
1679933947646,1113936001313643,0.0314875,-0.087037496,-0.0276375
1679933947651,1113936003815796,0.0254375,-0.08305,-0.0325875
1679933947652,1113936006318027,0.0275,-0.0790625,-0.0386375
1679933947654,1113936008820219,0.024475,-0.077,-0.0405625
1679933947657,1113936011322373,0.0254375,-0.069025,-0.037675
1679933947660,1113936013824527,0.0265375,-0.066,-0.0405625
1679933947661,1113936016326681,0.0235125,-0.064075,-0.042625
1679933947664,1113936018828825,0.0235125,-0.0600875,-0.0386375
1679933947668,1113936021331210,0.0235125,-0.051975,-0.0405625
1679933947671,1113936023833441,0.0204875,-0.0460625,-0.0405625
1679933947673,1113936026335595,0.02145,-0.0380875,-0.0405625
1679933947675,1113936028837687,0.0204875,-0.036025,-0.042625
1679933947677,1113936031339917,0.018424999,-0.031075,-0.0416625
1679933947680,1113936033842071,0.0174625,-0.025024999,-0.0405625
1679933947682,1113936036344225,0.0174625,-0.0210375,-0.0416625
1679933947684,1113936038846610,0.018424999,-0.0149875,-0.042625
1679933947686,1113936041348769,0.0125124995,-0.0100375,-0.0396
1679933947690,1113936043850922,0.0174625,-0.00605,-0.0356125
1679933947691,1113936046353076,0.013475,-0.0050875,-0.036575
1679933947694,1113936048855230,0.01045,-9.625E-4,-0.036575
1679933947698,1113936051357403,0.013475,-0.0,-0.037675
1679933947701,1113936053859865,0.013475,0.0039875,-0.0356125
1679933947702,1113936056361788,0.0114124995,0.003025,-0.034649998
1679933947706,1113936058864172,0.01045,0.003025,-0.034649998
1679933947707,1113936061366345,0.01045,0.0039875,-0.0325875
1679933947710,1113936063868499,0.01045,0.0039875,-0.034649998
1679933947712,1113936066370653,0.0114124995,9.625E-4,-0.0306625
1679933947714,1113936068872884,0.008525,9.625E-4,-0.0306625
1679933947718,1113936071375003,0.01045,9.625E-4,-0.0325875
1679933947719,1113936073877157,0.01045,-0.003025,-0.0325875
1679933947722,1113936076379311,0.0094875,-0.003025,-0.0306625
1679933947725,1113936078881465,0.0094875,-0.00605,-0.0286
1679933947727,1113936081383624,0.0125124995,-0.011,-0.0295625
1679933947731,1113936083885778,0.0155375,-0.013062499,-0.03355
1679933947732,1113936086388239,0.013475,-0.014025,-0.0306625
1679933947735,1113936088890393,0.0155375,-0.020075,-0.0295625
1679933947736,1113936091392547,0.013475,-0.020075,-0.0356125
1679933947740,1113936093894668,0.013475,-0.022,-0.037675
1679933947743,1113936096396822,0.0165,-0.0290125,-0.034649998
1679933947745,1113936098898975,0.0155375,-0.0380875,-0.036575
1679933947746,1113936101401360,0.0165,-0.039049998,-0.0396
1679933947753,1113936103903528,0.013475,-0.042075,-0.0396
1679933947755,1113936106405682,0.0174625,-0.0460625,-0.0416625
1679933947756,1113936108907836,0.018424999,-0.0510125,-0.04455
1679933947758,1113936111410066,0.018424999,-0.0540375,-0.0466125
1679933947761,1113936113912220,0.0174625,-0.0589875,-0.0506
1679933947763,1113936116414398,0.0165,-0.061049998,-0.0526625
1679933947764,1113936118916552,0.0114124995,-0.066,-0.05555
1679933947768,1113936121418706,0.01045,-0.0710875,-0.0576125
1679933947771,1113936123921090,0.008525,-0.077,-0.0616
1679933947772,1113936126423009,0.0064625,-0.08305,-0.06765
1679933947774,1113936128925470,0.002475,-0.086075,-0.069575
1679933947777,1113936131427624,0.002475,-0.091025,-0.0716375
1679933947782,1113936133929778,-5.5E-4,-0.098037496,-0.0746625
1679933947783,1113936136431937,-0.003575,-0.102025,-0.081675
1679933947786,1113936138934091,-0.0055,-0.1109625,-0.081675
1679933947787,1113936141436244,-0.0064625,-0.1150875,-0.0826375
1679933947791,1113936143938629,-0.0105875,-0.119075,-0.0845625
1679933947791,1113936146440783,-0.013475,-0.1260875,-0.086625
1679933947794,1113936148942942,-0.0174625,-0.132,-0.0875875
1679933947797,1113936151445172,-0.0174625,-0.139975,-0.08855
1679933947800,1113936153947326,-0.019524999,-0.143,-0.0875875
1679933947802,1113936156449403,-0.02255,-0.1500125,-0.08965
1679933947804,1113936158951657,-0.0235125,-0.150975,-0.08855
1679933947806,1113936161454042,-0.025575,-0.16005,-0.08855
1679933947810,1113936163956195,-0.0284625,-0.1670625,-0.0836
1679933947811,1113936166458349,-0.0295625,-0.1700875,-0.0856625
1679933947814,1113936168960503,-0.0295625,-0.1810875,-0.0836
1679933947819,1113936171462657,-0.0314875,-0.187,-0.0826375
1679933947821,1113936173964811,-0.030524999,-0.190025,-0.0796125
1679933947822,1113936176467042,-0.0295625,-0.1989625,-0.07755
1679933947824,1113936178969183,-0.0295625,-0.20405,-0.0765875
1679933947826,1113936181471567,-0.030524999,-0.205975,-0.0746625
1679933947832,1113936183973721,-0.030524999,-0.2129875,-0.070675
1679933947832,1113936186475875,-0.0295625,-0.22,-0.070675
1679933947835,1113936188978029,-0.030524999,-0.2250875,-0.0686125
1679933947837,1113936191480249,-0.0314875,-0.22605,-0.06765
1679933947840,1113936193982403,-0.030524999,-0.2300375,-0.06765
1679933947842,1113936196484557,-0.0265375,-0.2300375,-0.06655
1679933947844,1113936198986711,-0.025575,-0.2319625,-0.0636625
1679933947846,1113936201488865,-0.0284625,-0.2360875,-0.0636625
1679933947852,1113936203991019,-0.0284625,-0.2349875,-0.0655875
1679933947853,1113936206493173,-0.0265375,-0.234025,-0.0686125
1679933947855,1113936208995538,-0.0235125,-0.2429625,-0.0655875
1679933947857,1113936211497769,-0.025575,-0.2429625,-0.0625625
1679933947861,1113936213999846,-0.024475,-0.249975,-0.0606375
1679933947861,1113936216502077,-0.0235125,-0.253,-0.059675
1679933947864,1113936219004231,-0.0215875,-0.256025,-0.0606375
1679933947866,1113936221506360,-0.024475,-0.25905,-0.058575
1679933947871,1113936224008745,-0.0235125,-0.2630375,-0.058575
1679933947872,1113936226510899,-0.0265375,-0.267025,-0.0576125
1679933947874,1113936229013053,-0.024475,-0.2770625,-0.0545875
1679933947877,1113936231515192,-0.0215875,-0.2850375,-0.0515625
1679933947880,1113936234017345,-0.025575,-0.29205,-0.048675
1679933947882,1113936236519499,-0.0284625,-0.300025,-0.0435875
1679933947883,1113936239021730,-0.0275,-0.3089625,-0.0405625
1679933947887,1113936241523884,-0.03355,-0.31707498,-0.037675
1679933947890,1113936244026067,-0.0375375,-0.328075,-0.03355
1679933947893,1113936246528451,-0.0424875,-0.333025,-0.0295625
1679933947895,1113936249030605,-0.0455125,-0.344025,-0.025575
1679933947897,1113936251532759,-0.0455125,-0.350075,-0.020624999
1679933947900,1113936254034908,-0.0504625,-0.35805,-0.0196625
1679933947901,1113936256537139,-0.0534875,-0.363,-0.0185625
1679933947904,1113936259039293,-0.0595375,-0.374,-0.0185625
1679933947906,1113936261541446,-0.0625625,-0.38005,-0.0166375
1679933947911,1113936264043624,-0.0705375,-0.3810125,-0.0166375
1679933947912,1113936266545778,-0.0765875,-0.3870625,-0.015675
1679933947916,1113936269048163,-0.082499996,-0.392975,-0.0185625
1679933947918,1113936271550317,-0.0935,-0.3969625,-0.0176
1679933947919,1113936274052547,-0.09955,-0.3999875,-0.013612499
1679933947923,1113936276554682,-0.107525,-0.40301248,-0.0105875
1679933947925,1113936279056836,-0.1194875,-0.40507498,-0.0105875
1679933947927,1113936281558990,-0.1205875,-0.4060375,-0.0066
1679933947931,1113936284061134,-0.1285625,-0.4060375,-0.0066
1679933947933,1113936286563288,-0.1335125,-0.4120875,-0.004675
1679933947935,1113936289065672,-0.13653749,-0.416075,-0.003575
1679933947937,1113936291567826,-0.140525,-0.4230875,0.0023375
1679933947940,1113936294069980,-0.1414875,-0.425975,0.006325
1679933947942,1113936296572211,-0.1445125,-0.4299625,0.007425
1679933947944,1113936299074288,-0.146575,-0.4360125,0.00935
1679933947946,1113936301576442,-0.146575,-0.4390375,0.0114124995
1679933947953,1113936304078903,-0.1494625,-0.44701248,0.0133375
1679933947954,1113936306581057,-0.151525,-0.4500375,0.0154
1679933947955,1113936309083211,-0.1494625,-0.458975,0.018424999
1679933947957,1113936311585365,-0.151525,-0.462,0.0224125
1679933947961,1113936314087518,-0.156475,-0.4659875,0.023375
1679933947962,1113936316589672,-0.1535875,-0.469975,0.0243375
1679933947964,1113936319091826,-0.1555125,-0.4690125,0.0264
1679933947970,1113936321594057,-0.1604625,-0.469975,0.0273625
1679933947973,1113936324096211,-0.1615625,-0.473,0.03135
1679933947974,1113936326598619,-0.1634875,-0.4720375,0.0353375
1679933947975,1113936329100543,-0.1665125,-0.46805,0.0374
1679933947978,1113936331602696,-0.168575,-0.4659875,0.040425
1679933947981,1113936334105081,-0.1705,-0.4610375,0.0413875
1679933947982,1113936336607302,-0.173525,-0.45705,0.043449998
1679933947985,1113936339109456,-0.17847499,-0.451,0.0463375
1679933947987,1113936341611609,-0.1755875,-0.4439875,0.0484
1679933947995,1113936344113763,-0.1815,-0.4390375,0.054449998
1679933947996,1113936346615917,-0.1865875,-0.4310625,0.0594
1679933947996,1113936349118057,-0.190575,-0.4230875,0.0633875
1679933947998,1113936351620211,-0.1945625,-0.4140125,0.0704
1679933948000,1113936354122595,-0.1934625,-0.407,0.073425
1679933948002,1113936356624749,-0.1964875,-0.396,0.07645
1679933948005,1113936359126903,-0.201575,-0.3889875,0.0814
1679933948007,1113936361629134,-0.2035,-0.381975,0.089375
1679933948010,1113936364131288,-0.2085875,-0.3680875,0.0963875
1679933948012,1113936366633442,-0.212575,-0.35901248,0.0994125
1679933948014,1113936369135810,-0.2135375,-0.348975,0.1043625
1679933948016,1113936371637964,-0.2154625,-0.339075,0.1073875
1679933948020,1113936374140118,-0.2184875,-0.3290375,0.116325
1679933948021,1113936376642272,-0.2215125,-0.3180375,0.122375
1679933948024,1113936379144455,-0.2264625,-0.3089625,0.1254
1679933948026,1113936381646609,-0.2294875,-0.297,0.128425
1679933948030,1113936384149070,-0.2264625,-0.2820125,0.1324125
1679933948032,1113936386650993,-0.228525,-0.2740375,0.1364
1679933948034,1113936389153152,-0.2305875,-0.2600125,0.139425
1679933948038,1113936391655537,-0.2365,-0.24805,0.14135
1679933948041,1113936394157691,-0.239525,-0.2360875,0.1434125
1679933948044,1113936396659844,-0.239525,-0.2209625,0.144375
1679933948045,1113936399161998,-0.2374625,-0.207075,0.14739999
1679933948046,1113936401664229,-0.2415875,-0.1879625,0.1483625
1679933948050,1113936404166383,-0.2446125,-0.1750375,0.149325
1679933948052,1113936406668537,-0.2475,-0.16499999,0.149325
1679933948054,1113936409170691,-0.2475,-0.1469875,0.1513875
1679933948056,1113936411672844,-0.2475,-0.1331,0.1483625
1679933948060,1113936414174998,-0.2495625,-0.1150875,0.14739999
1679933948062,1113936416677383,-0.2545125,-0.098037496,0.1483625
1679933948063,1113936419179537,-0.25355,-0.0809875,0.1464375
1679933948066,1113936421681696,-0.251625,-0.0699875,0.14245
1679933948070,1113936424183849,-0.2556125,-0.053075,0.14245
1679933948072,1113936426686080,-0.256575,-0.0350625,0.14245
1679933948074,1113936429188234,-0.2545125,-0.01705,0.14135
1679933948077,1113936431690628,-0.25753748,-0.0050875,0.138325
1679933948084,1113936434192551,-0.25753748,0.0119624995,0.138325
1679933948086,1113936436693743,-0.256575,0.0290125,0.1364
1679933948087,1113936439194936,-0.2585,0.0389125,0.1373625
1679933948088,1113936441699243,-0.25753748,0.0559625,0.139425
1679933948090,1113936444201479,-0.25753748,0.0719125,0.139425
1679933948092,1113936446703633,-0.2605625,0.0859375,0.139425
1679933948094,1113936449205787,-0.261525,0.099,0.1373625
1679933948097,1113936451707940,-0.2635875,0.1079375,0.1354375
1679933948102,1113936454210094,-0.261525,0.1199,0.1364
1679933948103,1113936456712248,-0.25959998,0.1390125,0.1354375
1679933948104,1113936459214633,-0.262625,0.157025,0.1343375
1679933948107,1113936461716787,-0.261525,0.176,0.1373625
1679933948111,1113936464218959,-0.2585,0.19195,0.138325
1679933948112,1113936466721190,-0.25959998,0.205975,0.138325
1679933948115,1113936469223344,-0.2605625,0.2160125,0.139425
1679933948120,1113936471725498,-0.262625,0.22893749,0.14245
1679933948122,1113936474227657,-0.261525,0.238975,0.1403875
1679933948126,1113936476728849,-0.2605625,0.245025,0.14135
1679933948126,1113936479230042,-0.2585,0.2619375,0.14135
1679933948128,1113936481734349,-0.2605625,0.2729375,0.14135
1679933948131,1113936484236498,-0.2605625,0.276925,0.1434125
1679933948133,1113936486738652,-0.25753748,0.282975,0.1434125
1679933948135,1113936489240883,-0.2605625,0.286,0.14245
1679933948136,1113936491743036,-0.25753748,0.2919125,0.14245
1679933948140,1113936494245190,-0.251625,0.3040125,0.1403875
1679933948141,1113936496747556,-0.2486,0.31501248,0.138325
1679933948144,1113936499249710,-0.2475,0.3199625,0.1373625
1679933948146,1113936501751864,-0.24653749,0.3249125,0.1364
1679933948151,1113936504254017,-0.2446125,0.32793748,0.138325
1679933948152,1113936506756248,-0.2415875,0.3339875,0.1373625
1679933948155,1113936509258402,-0.2385625,0.344025,0.1364
1679933948158,1113936511760556,-0.2355375,0.3509,0.13145
1679933948161,1113936514262710,-0.234575,0.352,0.1343375
1679933948163,1113936516764873,-0.23155,0.35901248,0.1364
1679933948165,1113936519267026,-0.2305875,0.359975,0.1373625
1679933948167,1113936521769180,-0.22659999,0.35901248,0.1364
1679933948171,1113936524271642,-0.22659999,0.359975,0.1373625
1679933948173,1113936526773801,-0.2255,0.3559875,0.1354375
1679933948175,1113936529275955,-0.2255,0.359975,0.1324125
1679933948177,1113936531778108,-0.22453749,0.3559875,0.13145
1679933948180,1113936534280262,-0.2226125,0.353925,0.128425
1679933948182,1113936536782416,-0.2215125,0.3559875,0.127325
1679933948186,1113936539284816,-0.2195875,0.353925,0.1263625
1679933948187,1113936541786970,-0.2195875,0.3499375,0.1233375
1679933948190,1113936544289123,-0.22453749,0.3469125,0.124437496
1679933948193,1113936546791277,-0.223575,0.3469125,0.122375
1679933948195,1113936549293417,-0.22055,0.3449875,0.1214125
1679933948197,1113936551795571,-0.22453749,0.3419625,0.12045
1679933948202,1113936554297802,-0.2226125,0.3399,0.1214125
1679933948203,1113936556800186,-0.2215125,0.337975,0.1183875
1679933948205,1113936559302340,-0.223575,0.3359125,0.11935
1679933948207,1113936561804494,-0.22055,0.3309625,0.12045
1679933948210,1113936564306648,-0.2215125,0.3339875,0.1183875
1679933948212,1113936566808802,-0.2215125,0.326975,0.1214125
1679933948214,1113936569310956,-0.22055,0.3139125,0.1233375
1679933948216,1113936571813195,-0.2156,0.3139125,0.127325
1679933948220,1113936574315349,-0.22055,0.3179,0.1293875
1679933948222,1113936576817503,-0.223575,0.309925,0.127325
1679933948224,1113936579319657,-0.223575,0.3009875,0.127325
1679933948226,1113936581821783,-0.223575,0.297,0.13145
1679933948231,1113936584324168,-0.228525,0.2919125,0.13035
1679933948234,1113936586826321,-0.2325125,0.286,0.1324125
1679933948235,1113936589328552,-0.2355375,0.2820125,0.1343375
1679933948238,1113936591830677,-0.239525,0.278025,0.1403875
1679933948241,1113936594332831,-0.239525,0.2699125,0.1403875
1679933948242,1113936596834985,-0.2446125,0.2589125,0.14135
1679933948244,1113936599337139,-0.2435125,0.253,0.144375
1679933948247,1113936601839292,-0.24255,0.2459875,0.144375
1679933948251,1113936604341658,-0.2495625,0.2369125,0.1434125
1679933948252,1113936606843812,-0.2475,0.22893749,0.14533749
1679933948254,1113936609345966,-0.2486,0.22,0.14739999
1679933948257,1113936611848196,-0.2525875,0.2160125,0.15235
1679933948260,1113936614350316,-0.25753748,0.2019875,0.149325
1679933948262,1113936616852470,-0.2556125,0.1940125,0.15345
1679933948264,1113936619354855,-0.2585,0.18095,0.1563375
1679933948269,1113936621857009,-0.262625,0.1709125,0.155375
1679933948271,1113936624359163,-0.26455,0.16293749,0.1574375
1679933948274,1113936626861316,-0.2655125,0.1610125,0.1574375
1679933948275,1113936629363470,-0.267575,0.157025,0.1563375
1679933948278,1113936631865624,-0.267575,0.155925,0.155375
1679933948281,1113936634367778,-0.2706,0.150975,0.15345
1679933948283,1113936636869956,-0.2745875,0.139975,0.1513875
1679933948284,1113936639372110,-0.273625,0.1329625,0.1544125
1679933948287,1113936641874494,-0.2745875,0.1269125,0.155375
1679933948290,1113936644376417,-0.2765125,0.1189375,0.1544125
1679933948292,1113936646878793,-0.273625,0.1109625,0.1544125
1679933948294,1113936649380947,-0.2745875,0.095975,0.1513875
1679933948297,1113936651883178,-0.278575,0.0829125,0.15345
1679933948301,1113936654385331,-0.2745875,0.077,0.1544125
1679933948302,1113936656887485,-0.27555,0.0669625,0.1513875
1679933948306,1113936659389648,-0.2776125,0.056925,0.1513875
1679933948308,1113936661891802,-0.2805,0.044,0.1513875
1679933948311,1113936664393956,-0.2795375,0.0369875,0.1544125
1679933948312,1113936666896110,-0.284625,0.0339625,0.1513875
1679933948314,1113936669398571,-0.2825625,0.0290125,0.14739999
1679933948318,1113936671900648,-0.2825625,0.023924999,0.14245
1679933948320,1113936674402879,-0.2825625,0.0059125,0.1434125
1679933948323,1113936676905038,-0.2765125,-0.0050875,0.14533749
1679933948324,1113936679407192,-0.2745875,-0.0070125,0.14739999
1679933948327,1113936681909345,-0.2715625,-0.0100375,0.1434125
1679933948330,1113936684411730,-0.2685375,-0.014025,0.14135
1679933948332,1113936686913884,-0.26455,-0.0240625,0.139425
1679933948335,1113936689416048,-0.262625,-0.02805,0.1364
1679933948338,1113936691918202,-0.25959998,-0.022,0.1324125
1679933948341,1113936694420355,-0.256575,-0.0149875,0.13145
1679933948344,1113936696922509,-0.25355,-0.011,0.127325
1679933948345,1113936699424990,-0.251625,-0.003025,0.128425
1679933948347,1113936701926913,-0.2486,0.0099,0.1263625
1679933948351,1113936704429298,-0.245575,0.0149875,0.1254
1679933948353,1113936706931451,-0.2446125,0.014025,0.1233375
1679933948355,1113936709433605,-0.2435125,0.0209,0.1233375
1679933948359,1113936711935734,-0.240625,0.0290125,0.124437496
1679933948361,1113936714437888,-0.2435125,0.0369875,0.124437496
1679933948363,1113936716940119,-0.24255,0.044,0.128425
1679933948364,1113936719442273,-0.240625,0.047025,0.13035
1679933948368,1113936721944426,-0.239525,0.055,0.13145
1679933948370,1113936724446580,-0.239525,0.0539,0.1343375
1679933948372,1113936726948965,-0.24255,0.064899996,0.1354375
1679933948377,1113936729451119,-0.24255,0.080025,0.1293875
1679933948378,1113936731953273,-0.24255,0.0859375,0.122375
1679933948382,1113936734455426,-0.24255,0.089925,0.1144
1679933948383,1113936736957580,-0.2435125,0.1029875,0.113437496
1679933948385,1113936739459811,-0.2435125,0.1109625,0.116325
1679933948387,1113936741962196,-0.240625,0.1189375,0.1123375
1679933948390,1113936744464109,-0.239525,0.1269125,0.116325
1679933948392,1113936746966493,-0.24255,0.1390125,0.116325
1679933948394,1113936749468647,-0.2415875,0.1529,0.1144
1679933948398,1113936751970801,-0.239525,0.155925,0.1153625
1679933948401,1113936754472979,-0.2376,0.1599125,0.1183875
1679933948403,1113936756975133,-0.2355375,0.1659625,0.11935
1679933948408,1113936759477364,-0.234575,0.1659625,0.116325
1679933948408,1113936761979748,-0.2355375,0.1720125,0.1183875
1679933948410,1113936764481676,-0.2365,0.177925,0.1183875
1679933948412,1113936766983830,-0.239525,0.187,0.116325
1679933948414,1113936769486215,-0.234575,0.19195,0.11935
1679933948419,1113936771988369,-0.2376,0.194975,0.1214125
1679933948421,1113936774490618,-0.2385625,0.201025,0.12045
1679933948422,1113936776992772,-0.24255,0.201025,0.1233375
1679933948424,1113936779494926,-0.239525,0.20693749,0.127325
1679933948426,1113936781997080,-0.2435125,0.2099625,0.13145
1679933948430,1113936784499234,-0.2435125,0.2129875,0.13035
1679933948432,1113936787001431,-0.2446125,0.2149125,0.1293875
1679933948435,1113936789503815,-0.2475,0.210925,0.1343375
1679933948438,1113936792005969,-0.2486,0.210925,0.1354375
1679933948441,1113936794508123,-0.251625,0.2149125,0.138325
1679933948442,1113936797010253,-0.2495625,0.216975,0.14245
1679933948445,1113936799512484,-0.2525875,0.21395,0.14533749
1679933948447,1113936802014561,-0.256575,0.210925,0.14739999
1679933948452,1113936804516791,-0.25753748,0.205975,0.149325
1679933948452,1113936807019224,-0.2585,0.2039125,0.15235
1679933948455,1113936809521378,-0.25959998,0.20295,0.15345
1679933948457,1113936812023532,-0.25753748,0.1989625,0.15345
1679933948461,1113936814525686,-0.2605625,0.19195,0.1513875
1679933948462,1113936817027830,-0.26455,0.1819125,0.1513875
1679933948464,1113936819529984,-0.262625,0.18095,0.1513875
1679933948468,1113936822032215,-0.2605625,0.1830125,0.1513875
1679933948470,1113936824534369,-0.261525,0.1739375,0.1464375
1679933948473,1113936827036757,-0.2605625,0.1659625,0.144375
1679933948475,1113936829538681,-0.2655125,0.1610125,0.144375
1679933948477,1113936832041065,-0.2695,0.154,0.14135
1679933948480,1113936834543219,-0.2655125,0.1469875,0.1403875
1679933948482,1113936837045373,-0.2695,0.14093749,0.139425
1679933948484,1113936839547604,-0.2706,0.139975,0.14135
1679933948487,1113936842049757,-0.273625,0.1309,0.14135
1679933948490,1113936844551911,-0.2795375,0.122925,0.138325
1679933948493,1113936847054041,-0.2816,0.1170125,0.1373625
1679933948495,1113936849556195,-0.2855875,0.11495,0.1343375
1679933948497,1113936852058349,-0.2905375,0.1139875,0.1324125
1679933948501,1113936854560734,-0.2965875,0.11,0.1293875
1679933948502,1113936857062964,-0.3025,0.10395,0.128425
1679933948505,1113936859565027,-0.30855,0.0969375,0.1254
1679933948507,1113936862067258,-0.3146,0.091025,0.127325
1679933948510,1113936864569412,-0.3216125,0.088,0.124437496
1679933948512,1113936867071566,-0.3256,0.091025,0.1214125
1679933948514,1113936869573696,-0.33055,0.0999625,0.116325
1679933948520,1113936872076080,-0.3355,0.095975,0.1214125
1679933948521,1113936874578234,-0.34155,0.0969375,0.12045
1679933948524,1113936877080388,-0.34553748,0.1029875,0.1214125
1679933948526,1113936879582562,-0.3485625,0.1109625,0.1254
1679933948528,1113936882084716,-0.3575,0.1139875,0.1293875
1679933948532,1113936884586946,-0.3656125,0.1139875,0.13145
1679933948535,1113936887089331,-0.372625,0.1109625,0.13035
1679933948537,1113936889677422,-0.38555,0.1139875,0.1354375
1679933948538,1113936892093653,-0.3905,0.1219625,0.138325
1679933948541,1113936894595807,-0.39655,0.1329625,0.1403875
1679933948543,1113936897097730,-0.404525,0.146025,0.1434125
1679933948544,1113936899600114,-0.4096125,0.157025,0.1434125
1679933948546,1113936902102345,-0.4175875,0.168025,0.14533749
1679933948551,1113936904604499,-0.4235,0.1739375,0.14533749
1679933948552,1113936907106653,-0.43353748,0.18493749,0.14739999
1679933948554,1113936909608807,-0.44055,0.2019875,0.155375
1679933948558,1113936912110950,-0.4525125,0.216975,0.1623875
1679933948560,1113936914613335,-0.46048748,0.2239875,0.1684375
1679933948562,1113936917115258,-0.4635125,0.234025,0.17435
1679933948564,1113936919617720,-0.476575,0.2479125,0.1813625
1679933948569,1113936922119870,-0.481525,0.2589125,0.188375
1679933948572,1113936924622023,-0.4895,0.254925,0.1953875
1679933948574,1113936927124177,-0.5025625,0.260975,0.205425
1679933948576,1113936929626331,-0.5105375,0.2589125,0.210375
1679933948577,1113936932128485,-0.5135625,0.2519,0.215325
1679933948581,1113936934630888,-0.5225,0.2600125,0.2234375
1679933948582,1113936937133041,-0.5275875,0.27995,0.23045
1679933948584,1113936939635195,-0.5385875,0.2949375,0.237325
1679933948587,1113936942137349,-0.5445,0.2919125,0.2424125
1679933948590,1113936944639508,-0.55055,0.282975,0.254375
1679933948592,1113936947141662,-0.5545375,0.28393748,0.2583625
1679933948594,1113936949643893,-0.56155,0.2820125,0.259325
1679933948598,1113936952146277,-0.5704875,0.26895,0.26345
1679933948602,1113936954648195,-0.5735125,0.27101249,0.271425
1679933948602,1113936957150580,-0.5775,0.2759625,0.2754125
1679933948606,1113936959652734,-0.58355,0.264,0.276375
1679933948608,1113936962154888,-0.5924875,0.2539625,0.2784375
1679933948611,1113936964657065,-0.59455,0.2319625,0.2803625
1679933948613,1113936967159296,-0.6034875,0.2129875,0.2803625
1679933948614,1113936969661450,-0.608575,0.2039125,0.271425
1679933948619,1113936972163604,-0.6155875,0.2019875,0.265375
1679933948622,1113936974665730,-0.6175125,0.199925,0.2644125
1679933948623,1113936977167884,-0.6226,0.20899999,0.2583625
1679933948625,1113936979670268,-0.624525,0.2099625,0.25135
1679933948627,1113936982172499,-0.6285125,0.1929125,0.24145
1679933948630,1113936984674576,-0.630575,0.172975,0.232375
1679933948632,1113936987176807,-0.6296125,0.176,0.2314125
1679933948635,1113936989678961,-0.6285125,0.18095,0.2344375
1679933948638,1113936992181114,-0.630575,0.18095,0.2344375
1679933948641,1113936994683268,-0.6325,0.172975,0.2314125
1679933948644,1113936997185422,-0.6345625,0.1689875,0.22935
1679933948646,1113936999687807,-0.6364875,0.1689875,0.226325
1679933948648,1113937002189961,-0.6364875,0.15895,0.2253625
1679933948652,1113937004692105,-0.63855,0.1469875,0.227425
1679933948653,1113937007194258,-0.6375875,0.1519375,0.2363625
1679933948654,1113937009696489,-0.63855,0.1469875,0.2393875
1679933948660,1113937012198566,-0.64556247,0.12595,0.2454375
1679933948662,1113937014701028,-0.646525,0.111925,0.248325
1679933948663,1113937017203204,-0.64955,0.1079375,0.254375
1679933948665,1113937019705358,-0.6505125,0.106975,0.2564375
1679933948668,1113937022207512,-0.6485875,0.1060125,0.254375
1679933948671,1113937024709666,-0.64955,0.0979,0.254375
1679933948673,1113937027211907,-0.6505125,0.09295,0.2583625
1679933948675,1113937029714061,-0.646525,0.084975,0.2583625
1679933948679,1113937032216214,-0.6435,0.09295,0.260425
1679933948686,1113937034718373,-0.646525,0.0969375,0.2583625
1679933948688,1113937037220527,-0.6446,0.084975,0.2583625
1679933948689,1113937039722681,-0.6446,0.0840125,0.2574
1679933948691,1113937042225066,-0.646525,0.0759,0.2574
1679933948693,1113937044727220,-0.64955,0.0699875,0.259325
1679933948694,1113937047229373,-0.6446,0.066,0.26345
1679933948695,1113937049731542,-0.63855,0.073975,0.26235
1679933948697,1113937052233696,-0.6364875,0.0840125,0.26345
1679933948700,1113937054735927,-0.6345625,0.0779625,0.2693625
1679933948702,1113937057238311,-0.6325,0.0639375,0.271425
1679933948705,1113937059740216,-0.62755,0.0609125,0.2773375
1679933948707,1113937062242600,-0.6226,0.064899996,0.2833875
1679933948711,1113937064744754,-0.6116,0.069025,0.2864125
1679933948713,1113937067246908,-0.6065125,0.0840125,0.2904
1679933948715,1113937069749081,-0.6006,0.0859375,0.2913625
1679933948719,1113937072251235,-0.59455,0.0840125,0.2913625
1679933948722,1113937074753465,-0.5955125,0.0719125,0.293425
1679933948724,1113937077255619,-0.5905625,0.067925,0.2943875
1679933948726,1113937079757783,-0.5856125,0.0779625,0.3023625
1679933948728,1113937082259937,-0.580525,0.07095,0.3084125
1679933948731,1113937084762322,-0.5775,0.05995,0.3114375
1679933948733,1113937087264475,-0.569525,0.04895,0.31735
1679933948735,1113937089766629,-0.56155,0.0290125,0.3243625
1679933948737,1113937092268874,-0.553575,0.0209,0.32945
1679933948740,1113937094771028,-0.55055,0.0279125,0.3304125
1679933948742,1113937097273182,-0.5435375,0.0290125,0.32945
1679933948745,1113937099775336,-0.536525,0.0149875,0.325325
1679933948747,1113937102277475,-0.5355625,0.012925,0.3224375
1679933948755,1113937104779860,-0.5335,0.01595,0.325325
1679933948757,1113937107282014,-0.5295125,0.01595,0.3243625
1679933948759,1113937109784168,-0.52648747,0.01595,0.326425
1679933948761,1113937112286302,-0.5236,0.01595,0.3234
1679933948763,1113937114788532,-0.5225,0.00495,0.3234
1679933948765,1113937117290609,-0.5225,9.625E-4,0.325325
1679933948766,1113937119792840,-0.5245625,-0.0050875,0.326425
1679933948768,1113937122295225,-0.5225,-0.025024999,0.3304125
1679933948771,1113937124797370,-0.5225,-0.029975,0.3344
1679933948772,1113937127299523,-0.5236,-0.0180125,0.3344
1679933948774,1113937129801677,-0.5245625,-0.02805,0.331375
1679933948777,1113937132303831,-0.5215375,-0.0451,0.3334375
1679933948780,1113937134805980,-0.5196125,-0.051975,0.331375
1679933948783,1113937137308211,-0.5196125,-0.053075,0.3304125
1679933948786,1113937139810365,-0.514525,-0.0451,0.3344
1679933948788,1113937142312518,-0.509575,-0.0341,0.3353625
1679933948790,1113937144814918,-0.5105375,-0.042075,0.331375
1679933948794,1113937147316841,-0.5105375,-0.0699875,0.3353625
1679933948796,1113937149819226,-0.5105375,-0.086075,0.33935
1679933948799,1113937152321380,-0.5105375,-0.075075,0.337425
1679933948802,1113937154823614,-0.5055875,-0.058025,0.3344
1679933948803,1113937157325768,-0.4965125,-0.053075,0.3334375
1679933948805,1113937159827922,-0.4934875,-0.053075,0.3334375
1679933948807,1113937162330076,-0.4915625,-0.061049998,0.3344
1679933948811,1113937164832230,-0.4866125,-0.0589875,0.3344
1679933948813,1113937167334370,-0.48455,-0.055,0.3334375
1679933948815,1113937169836754,-0.476575,-0.064075,0.32945
1679933948820,1113937172338985,-0.4756125,-0.073975,0.3304125
1679933948822,1113937174841062,-0.47355,-0.0671,0.3344
1679933948823,1113937177343226,-0.4675,-0.0589875,0.3383875
1679933948825,1113937179845457,-0.4635125,-0.0510125,0.33935
1679933948827,1113937182347610,-0.4615875,-0.044,0.3353625
1679933948834,1113937184849754,-0.4576,-0.0380875,0.3304125
1679933948836,1113937187352139,-0.4585625,-0.029975,0.3334375
1679933948838,1113937189854293,-0.454575,-0.0270875,0.3334375
1679933948841,1113937192356447,-0.454575,-0.020075,0.3334375
1679933948843,1113937194858600,-0.4475625,-0.0100375,0.32945
1679933948845,1113937197360749,-0.4455,9.625E-4,0.32945
1679933948846,1113937199862903,-0.4426125,0.014025,0.32835
1679933948848,1113937202365365,-0.4395875,0.022,0.3224375
1679933948851,1113937204867288,-0.4365625,0.0199375,0.31845
1679933948853,1113937207369442,-0.437525,0.007975,0.309375
1679933948855,1113937209871845,-0.4365625,-0.0039875,0.3053875
1679933948859,1113937212373768,-0.4285875,0.0070125,0.3004375
1679933948862,1113937214876153,-0.42061248,0.036025,0.2943875
1679933948864,1113937217378384,-0.4145625,0.0429,0.2883375
1679933948866,1113937219880513,-0.40755,0.0429,0.276375
1679933948869,1113937222382666,-0.4065875,0.0400125,0.265375
1679933948871,1113937224884820,-0.4054875,0.0369875,0.259325
1679933948873,1113937227386974,-0.4015,0.02695,0.2574
1679933948875,1113937229889118,-0.39655,0.0279125,0.2534125
1679933948878,1113937232391272,-0.3905,0.0319,0.2473625
1679933948881,1113937234893657,-0.3876125,0.047025,0.2443375
1679933948883,1113937237395887,-0.3785375,0.0639375,0.24145
1679933948887,1113937239898041,-0.3755125,0.0699875,0.238425
1679933948888,1113937242400118,-0.3685,0.067925,0.2344375
1679933948890,1113937244902349,-0.3675375,0.058025,0.22935
1679933948892,1113937247404503,-0.3656125,0.045925,0.2283875
1679933948896,1113937249906887,-0.36355,0.047025,0.2283875
1679933948898,1113937252409027,-0.3595625,0.04895,0.227425
1679933948901,1113937254911181,-0.3575,0.056925,0.226325
1679933948903,1113937257413335,-0.35255,0.0669625,0.2223375
1679933948906,1113937259915489,-0.3504875,0.067925,0.2204125
1679933948907,1113937262417609,-0.34553748,0.07095,0.2143625
1679933948911,1113937264919762,-0.3405875,0.0779625,0.2124375
1679933948912,1113937267422224,-0.3355,0.0829125,0.20845
1679933948915,1113937269924378,-0.33055,0.080025,0.2094125
1679933948921,1113937272426296,-0.3284875,0.073975,0.2094125
1679933948922,1113937274928681,-0.3245,0.0759,0.20735
1679933948924,1113937277430834,-0.3205125,0.077,0.210375
1679933948927,1113937279932988,-0.3185875,0.0669625,0.210375
1679933948928,1113937282435219,-0.3174875,0.0559625,0.2094125
1679933948931,1113937284937388,-0.3095125,0.0529375,0.20845
1679933948933,1113937287439542,-0.3106125,0.045925,0.210375
1679933948935,1113937289941696,-0.3125375,0.033,0.20845
1679933948938,1113937292443849,-0.3106125,0.0339625,0.2063875
1679933948940,1113937294946007,-0.305525,0.0400125,0.20735
1679933948944,1113937297448469,-0.3036,0.0400125,0.2063875
1679933948945,1113937299950546,-0.30855,0.033,0.20845
1679933948947,1113937302452777,-0.30855,0.022,0.21133749
1679933948951,1113937304954935,-0.305525,0.0149875,0.21133749
1679933948952,1113937307457089,-0.3045625,0.0199375,0.2094125
1679933948955,1113937309959243,-0.3025,0.0290125,0.2124375
1679933948958,1113937312461397,-0.2985125,0.0309375,0.2173875
1679933948961,1113937314963787,-0.29755,0.029975,0.215325
1679933948962,1113937317465940,-0.2954875,0.0229625,0.21835
1679933948965,1113937319968094,-0.2926,0.022,0.2204125
1679933948968,1113937322470248,-0.2926,0.0209,0.21835
1679933948971,1113937324972397,-0.28861248,0.018975,0.21835
1679933948973,1113937327474551,-0.28655,0.0229625,0.215325
1679933948975,1113937329976782,-0.2825625,0.01595,0.2134
1679933948977,1113937332478935,-0.278575,0.0149875,0.210375
1679933948982,1113937334981084,-0.2795375,0.011,0.204325
1679933948984,1113937337483238,-0.27555,-0.0020625,0.19745
1679933948985,1113937339985700,-0.272525,-0.020075,0.18535
1679933948988,1113937342487854,-0.2695,-0.0380875,0.1794375
1679933948992,1113937344990007,-0.267575,-0.0540375,0.1733875
1679933948993,1113937347492181,-0.2605625,-0.069025,0.1623875
1679933948996,1113937349994335,-0.25753748,-0.077,0.15345
1679933948999,1113937352496489,-0.2514875,-0.0919875,0.1434125
1679933949001,1113937354998643,-0.24653749,-0.098037496,0.138325
1679933949003,1113937357501031,-0.2385625,-0.102025,0.128425
1679933949005,1113937360003185,-0.2355375,-0.109037496,0.12045
1679933949008,1113937362505339,-0.2275625,-0.11,0.1123375
1679933949010,1113937365007493,-0.2195875,-0.113025,0.10835
1679933949012,1113937367509724,-0.2135375,-0.1249875,0.102437496
1679933949015,1113937370011898,-0.20955,-0.130075,0.1013375
1679933949019,1113937372514282,-0.2085875,-0.1420375,0.09845
1679933949021,1113937375016436,-0.201575,-0.1640375,0.0933625
1679933949023,1113937377518575,-0.19855,-0.1661,0.0924
1679933949025,1113937380020729,-0.1925,-0.16005,0.091437496
1679933949028,1113937382522883,-0.1896125,-0.1700875,0.08745
1679933949037,1113937385025036,-0.1854875,-0.185075,0.08635
1679933949037,1113937387527190,-0.1854875,-0.187,0.089375
1679933949037,1113937390029416,-0.1815,-0.1909875,0.0903375
1679933949038,1113937392531570,-0.17655,-0.19607499,0.08635
1679933949041,1113937395033724,-0.1716,-0.2030875,0.0804375
1679933949042,1113937397536108,-0.168575,-0.2129875,0.0793375
1679933949045,1113937400038032,-0.16555,-0.212025,0.078375
1679933949047,1113937402540416,-0.1615625,-0.20899999,0.072325
1679933949051,1113937405042647,-0.157575,-0.20405,0.072325
1679933949052,1113937407544801,-0.1535875,-0.2080375,0.0713625
1679933949056,1113937410046936,-0.1475375,-0.207075,0.0713625
1679933949058,1113937412549089,-0.14465,-0.212025,0.0694375
1679933949061,1113937415051243,-0.141625,-0.2129875,0.0704
1679933949062,1113937417553397,-0.13859999,-0.201025,0.0704
1679933949065,1113937420055782,-0.1376375,-0.198,0.0694375
1679933949069,1113937422557931,-0.13653749,-0.1991,0.06545
1679933949071,1113937425060085,-0.1315875,-0.20405,0.06435
1679933949072,1113937427562315,-0.13255,-0.2019875,0.06545
1679933949077,1113937430064392,-0.1315875,-0.19607499,0.06545
1679933949078,1113937432566638,-0.1266375,-0.1920875,0.06545
1679933949085,1113937435068792,-0.12265,-0.1860375,0.06435
1679933949085,1113937437570946,-0.119625,-0.179025,0.06435
1679933949086,1113937440073330,-0.1205875,-0.1771,0.062425
1679933949088,1113937442575484,-0.1166,-0.176,0.06545
1679933949090,1113937445077623,-0.1166,-0.17105,0.06435
1679933949094,1113937447579777,-0.115637496,-0.1640375,0.062425
1679933949098,1113937450081931,-0.1095875,-0.157025,0.06435
1679933949098,1113937452584161,-0.1095875,-0.141075,0.0694375
1679933949101,1113937455086527,-0.104637496,-0.1359875,0.0704
1679933949102,1113937457588450,-0.104637496,-0.1310375,0.0694375
1679933949105,1113937460090604,-0.104637496,-0.1260875,0.072325
1679933949107,1113937462592989,-0.09955,-0.11605,0.0743875
1679933949110,1113937465095138,-0.1035375,-0.113025,0.07645
1679933949112,1113937467597291,-0.09955,-0.1071125,0.0774125
1679933949115,1113937470099522,-0.0946,-0.0961125,0.0814
1679933949119,1113937472601676,-0.091575,-0.080025,0.08635
1679933949123,1113937477603816,-0.0875875,-0.0620125,0.084425
1679933949124,1113937477706816,-0.085525,-0.050049998,0.08745
1679933949126,1113937480108124,-0.0796125,-0.044,0.0924
1679933949128,1113937482610277,-0.07865,-0.0341,0.0924
1679933949132,1113937485112662,-0.074525,-0.025024999,0.0933625
1679933949135,1113937487614816,-0.0686125,-0.0210375,0.095425
1679933949136,1113937490116970,-0.064625,-0.0149875,0.089375
1679933949138,1113937492619201,-0.063525,-0.0081124995,0.091437496
1679933949141,1113937495121277,-0.0625625,9.625E-4,0.0884125
1679933949143,1113937497623513,-0.0595375,0.0039875,0.0823625
1679933949147,1113937500125667,-0.058575,9.625E-4,0.0814
1679933949148,1113937502628052,-0.0576125,0.001925,0.0743875
1679933949151,1113937505130206,-0.058575,0.0070125,0.0704
1679933949153,1113937507632378,-0.056649998,0.0099,0.0603625
1679933949155,1113937510134532,-0.0545875,0.0180125,0.054449998
1679933949158,1113937512636686,-0.0545875,0.02695,0.0484
1679933949161,1113937515138840,-0.053625,0.0279125,0.0444125
1679933949163,1113937517641056,-0.053625,0.0339625,0.0383625
1679933949169,1113937520143210,-0.0485375,0.0369875,0.0364375
1679933949170,1113937522645594,-0.052525,0.0358875,0.03135
1679933949172,1113937525147517,-0.052525,0.0429,0.0264
1679933949174,1113937527649902,-0.053625,0.0400125,0.023375
1679933949176,1113937530152056,-0.053625,0.0358875,0.02145
1679933949178,1113937532654287,-0.0496375,0.0339625,0.02035
1679933949181,1113937535156440,-0.0485375,0.0279125,0.018424999
1679933949183,1113937537658589,-0.0506,0.023924999,0.02145
1679933949185,1113937540160743,-0.053625,0.0248875,0.018424999
1679933949188,1113937542662897,-0.0545875,0.0248875,0.0154
1679933949190,1113937545165051,-0.056649998,0.02695,0.0133375
1679933949192,1113937547667205,-0.0576125,0.0229625,0.012375
1679933949195,1113937550169662,-0.058575,0.022,0.0083875
1679933949198,1113937552671739,-0.0606375,0.018975,0.0083875
1679933949204,1113937555173893,-0.0616,0.018975,0.01045
1679933949205,1113937557676124,-0.0606375,0.0180125,0.01045
1679933949206,1113937560178307,-0.056649998,0.0209,0.0114124995
1679933949208,1113937562680460,-0.056649998,0.023924999,0.012375
1679933949213,1113937565182845,-0.0595375,0.0209,0.0114124995
1679933949214,1113937567684999,-0.0595375,0.0180125,0.012375
1679933949215,1113937570187153,-0.056649998,0.0229625,0.0144375
1679933949218,1113937572689307,-0.0606375,0.022,0.0144375
1679933949221,1113937575191460,-0.0595375,0.022,0.0133375
1679933949223,1113937577693614,-0.058575,0.022,0.0144375
1679933949228,1113937580195845,-0.0606375,0.0229625,0.0163625
1679933949228,1113937582697994,-0.0625625,0.0180125,0.0144375
1679933949231,1113937585200379,-0.0606375,0.0199375,0.012375
1679933949232,1113937587702532,-0.06655,0.0209,0.0163625
1679933949236,1113937590204686,-0.0705375,0.0248875,0.0154
1679933949239,1113937592706836,-0.069575,0.022,0.0133375
1679933949241,1113937595208990,-0.06655,0.029975,0.0163625
1679933949244,1113937597711221,-0.0686125,0.0319,0.0163625
1679933949246,1113937600213375,-0.0705375,0.0339625,0.0144375
1679933949249,1113937602715523,-0.0705375,0.0400125,0.0163625
1679933949252,1113937605217677,-0.0705375,0.03795,0.0193875
1679933949254,1113937607720062,-0.064625,0.03795,0.018424999
1679933949256,1113937610221985,-0.0655875,0.0449625,0.02035
1679933949258,1113937612724370,-0.064625,0.0429,0.018424999
1679933949261,1113937615226648,-0.0655875,0.0369875,0.0163625
1679933949263,1113937617728802,-0.063525,0.03795,0.02035
1679933949265,1113937620230879,-0.0655875,0.0389125,0.0163625
1679933949268,1113937622733110,-0.06655,0.0389125,0.0144375
1679933949271,1113937625235283,-0.06655,0.0358875,0.012375
1679933949273,1113937627737437,-0.0655875,0.0319,0.01045
1679933949275,1113937630239821,-0.0655875,0.0309375,0.007425
1679933949279,1113937632741975,-0.069575,0.0290125,0.006325
1679933949282,1113937635244134,-0.069575,0.0209,0.0044
1679933949285,1113937637746288,-0.0705375,0.01595,0.0023375
1679933949286,1113937640248519,-0.069575,0.0119624995,-5.5E-4
1679933949288,1113937642750672,-0.0686125,0.0070125,-0.00165
1679933949291,1113937645252850,-0.06655,0.0039875,-0.003575
1679933949293,1113937647755004,-0.0716375,9.625E-4,-0.0075625
1679933949295,1113937650257158,-0.069575,-0.0039875,-0.009625
1679933949298,1113937652759312,-0.0686125,-0.009075,-0.01265
1679933949303,1113937655261687,-0.0686125,-0.0180125,-0.0166375
1679933949304,1113937657763840,-0.069575,-0.025024999,-0.0185625
1679933949314,1113937660265994,-0.0655875,-0.0350625,-0.0215875
1679933949314,1113937662768225,-0.064625,-0.0369875,-0.02365
1679933949314,1113937665270398,-0.06655,-0.042075,-0.025575
1679933949316,1113937667772552,-0.06655,-0.0479875,-0.0295625
1679933949317,1113937670274706,-0.069575,-0.058025,-0.0295625
1679933949320,1113937672777090,-0.0726,-0.0600875,-0.0286
1679933949324,1113937675278142,-0.0716375,-0.0589875,-0.0325875
1679933949324,1113937677779221,-0.0726,-0.064075,-0.037675
1679933949326,1113937680283528,-0.0765875,-0.0671,-0.0396
1679933949328,1113937682785682,-0.07755,-0.066,-0.0386375
1679933949331,1113937685287835,-0.0796125,-0.066,-0.0405625
1679933949332,1113937687790076,-0.080575,-0.0631125,-0.042625
1679933949335,1113937690292230,-0.0826375,-0.064075,-0.0396
1679933949338,1113937692794615,-0.0836,-0.0650375,-0.0416625
1679933949340,1113937695296769,-0.0836,-0.061049998,-0.0435875
1679933949342,1113937697798922,-0.085525,-0.061049998,-0.0416625
1679933949345,1113937700301090,-0.0836,-0.0570625,-0.037675
1679933949347,1113937702803244,-0.0815375,-0.0570625,-0.0356125
1679933949351,1113937705305475,-0.0826375,-0.0521125,-0.037675
1679933949352,1113937707807629,-0.0815375,-0.047025,-0.037675
1679933949356,1113937710309759,-0.07865,-0.0430375,-0.037675
1679933949359,1113937712811912,-0.080575,-0.0411125,-0.0356125
1679933949362,1113937715314066,-0.0826375,-0.036025,-0.036575
1679933949364,1113937717816220,-0.0815375,-0.0301125,-0.0386375
1679933949365,1113937720318605,-0.07865,-0.025024999,-0.0356125
1679933949368,1113937722820841,-0.0815375,-0.0180125,-0.0356125
1679933949370,1113937725322917,-0.0815375,-0.014025,-0.0356125
1679933949373,1113937727825148,-0.0826375,-0.0081124995,-0.0356125
1679933949375,1113937730327302,-0.086625,-0.00605,-0.03355
1679933949378,1113937732829431,-0.08965,0.001925,-0.034649998
1679933949380,1113937735331816,-0.08855,0.0059125,-0.036575
1679933949382,1113937737833969,-0.08855,0.007975,-0.0386375
1679933949385,1113937740336123,-0.0875875,0.0138875,-0.0386375
1679933949387,1113937742838277,-0.08855,0.0138875,-0.037675
1679933949390,1113937745340431,-0.08855,0.0169125,-0.037675
1679933949394,1113937747842585,-0.086625,0.022,-0.0405625
1679933949396,1113937750344816,-0.08855,0.023924999,-0.042625
1679933949399,1113937752847219,-0.08855,0.0248875,-0.0466125
1679933949402,1113937755349142,-0.08965,0.029975,-0.0466125
1679933949403,1113937757851527,-0.0875875,0.0290125,-0.0515625
1679933949405,1113937760353681,-0.086625,0.02695,-0.0545875
1679933949408,1113937762855835,-0.08965,0.023924999,-0.0576125
1679933949411,1113937765358007,-0.0875875,0.0248875,-0.059675
1679933949413,1113937767860238,-0.08855,0.0209,-0.0655875
1679933949416,1113937770362392,-0.08855,0.0180125,-0.069575
1679933949419,1113937772864546,-0.093637496,0.0149875,-0.0686125
1679933949421,1113937775366705,-0.097625,0.0138875,-0.070675
1679933949422,1113937777868859,-0.097625,0.0070125,-0.075625
1679933949426,1113937780371243,-0.097625,0.0028875,-0.07755
1679933949428,1113937782873166,-0.102575,0.001925,-0.0826375
1679933949432,1113937785375522,-0.1065625,-0.003025,-0.0836
1679933949435,1113937787877753,-0.108625,-0.0070125,-0.0826375
1679933949436,1113937790379907,-0.11055,-0.014025,-0.0845625
1679933949439,1113937792882060,-0.11165,-0.014025,-0.0826375
1679933949441,1113937795384195,-0.113575,-0.022,-0.0856625
1679933949443,1113937797886349,-0.1145375,-0.0270875,-0.0845625
1679933949445,1113937800388734,-0.113575,-0.033,-0.086625
1679933949448,1113937802890888,-0.113575,-0.0320375,-0.0875875
1679933949450,1113937805393036,-0.1145375,-0.0411125,-0.086625
1679933949453,1113937807895190,-0.113575,-0.047025,-0.0845625
1679933949455,1113937810397421,-0.1166,-0.0479875,-0.081675
1679933949458,1113937812899498,-0.1205875,-0.050049998,-0.0796125
1679933949461,1113937815401936,-0.119625,-0.0540375,-0.07865
1679933949463,1113937817904089,-0.1166,-0.058025,-0.075625
1679933949465,1113937820406013,-0.119625,-0.061049998,-0.0746625
1679933949469,1113937822908397,-0.12265,-0.0650375,-0.0746625
1679933949472,1113937825410546,-0.12265,-0.0680625,-0.0746625
1679933949474,1113937827912700,-0.1166,-0.0680625,-0.0765875
1679933949476,1113937830414854,-0.1205875,-0.0699875,-0.07755
1679933949479,1113937832917084,-0.1236125,-0.07205,-0.07755
1679933949482,1113937835419248,-0.1236125,-0.075075,-0.07755
1679933949483,1113937837921633,-0.1255375,-0.075075,-0.0826375
1679933949485,1113937840423556,-0.1266375,-0.078099996,-0.0856625
1679933949488,1113937842925710,-0.1285625,-0.0809875,-0.0875875
1679933949491,1113937845428095,-0.129525,-0.0809875,-0.091575
1679933949493,1113937847930325,-0.13255,-0.0809875,-0.092675
1679933949495,1113937850432402,-0.13255,-0.0820875,-0.0985875
1679933949498,1113937852934633,-0.13255,-0.0790625,-0.10065
1679933949501,1113937855436787,-0.1315875,-0.0809875,-0.103675
1679933949503,1113937857938931,-0.140525,-0.0790625,-0.1056
1679933949507,1113937860441085,-0.141625,-0.0809875,-0.1076625
1679933949508,1113937862943238,-0.1425875,-0.08305,-0.108625
1679933949511,1113937865445623,-0.146575,-0.078099996,-0.1095875
1679933949512,1113937867947777,-0.1496,-0.0790625,-0.115637496
1679933949515,1113937870449931,-0.1535875,-0.0790625,-0.115637496
1679933949519,1113937872952085,-0.1566125,-0.078099996,-0.1126125
1679933949521,1113937875454315,-0.157575,-0.0760375,-0.1166
1679933949523,1113937877956402,-0.157575,-0.080025,-0.1175625
1679933949525,1113937880458864,-0.1615625,-0.0790625,-0.1186625
1679933949527,1113937882961018,-0.1645875,-0.0809875,-0.119625
1679933949530,1113937885463172,-0.162525,-0.0820875,-0.1205875
1679933949533,1113937887965325,-0.16665,-0.0840125,-0.1236125
1679933949535,1113937890467479,-0.1645875,-0.0851125,-0.1236125
1679933949538,1113937892969633,-0.168575,-0.08305,-0.1236125
1679933949540,1113937895471787,-0.168575,-0.0840125,-0.1276
1679933949544,1113937897974018,-0.16665,-0.077,-0.1296625
1679933949546,1113937900476187,-0.1706375,-0.077,-0.1315875
1679933949549,1113937902978340,-0.1716,-0.080025,-0.13365
1679933949553,1113937905480725,-0.1725625,-0.0760375,-0.135575
1679933949553,1113937907982648,-0.1716,-0.0809875,-0.135575
1679933949556,1113937910485033,-0.174625,-0.0790625,-0.135575
1679933949558,1113937912987274,-0.1725625,-0.0790625,-0.1395625
1679933949561,1113937915489427,-0.173525,-0.0820875,-0.141625
1679933949563,1113937917991581,-0.17655,-0.0809875,-0.141625
1679933949566,1113937920493735,-0.1775125,-0.077,-0.14465
1679933949568,1113937922995889,-0.1786125,-0.073975,-0.1425875
1679933949571,1113937925498033,-0.1775125,-0.0710875,-0.14355
1679933949575,1113937928000417,-0.1786125,-0.0671,-0.141625
1679933949576,1113937930502571,-0.179575,-0.0671,-0.14355
1679933949578,1113937933004725,-0.179575,-0.061049998,-0.1406625
1679933949582,1113937935506889,-0.179575,-0.050049998,-0.1395625
1679933949584,1113937938009120,-0.1775125,-0.0510125,-0.1395625
1679933949586,1113937940511274,-0.174625,-0.042075,-0.13859999
1679933949588,1113937943013427,-0.16555,-0.031075,-0.135575
1679933949591,1113937945515792,-0.1606,-0.025024999,-0.136675
1679933949593,1113937948017946,-0.1566125,-0.020075,-0.136675
1679933949595,1113937950519869,-0.151525,-0.0121,-0.13365
1679933949599,1113937953022254,-0.146575,-0.0050875,-0.1315875
1679933949603,1113937955524484,-0.141625,0.0039875,-0.1296625
1679933949603,1113937958026638,-0.141625,0.0149875,-0.1296625
1679933949606,1113937960528792,-0.13653749,0.025024999,-0.1276
1679933949608,1113937963030946,-0.130625,0.0339625,-0.1266375
1679933949611,1113937965533120,-0.129525,0.0510125,-0.1285625
1679933949613,1113937968035274,-0.1236125,0.069025,-0.1296625
1679933949616,1113937970537658,-0.1166,0.0840125,-0.13255
1679933949619,1113937973039812,-0.1095875,0.100925,-0.135575
1679933949622,1113937975542057,-0.1035375,0.113025,-0.1376375
1679933949624,1113937978044134,-0.102575,0.122925,-0.14355
1679933949625,1113937980546288,-0.0925375,0.1379125,-0.1456125
1679933949628,1113937983048518,-0.0875875,0.1489125,-0.1496
1679933949630,1113937985550672,-0.0815375,0.161975,-0.152625
1679933949639,1113937988053047,-0.0785125,0.177925,-0.15565
1679933949639,1113937990555201,-0.075625,0.18493749,-0.1566125
1679933949640,1113937993057355,-0.06655,0.1959375,-0.152625
1679933949642,1113937995559508,-0.063525,0.2050125,-0.1505625
1679933949644,1113937998061662,-0.0605,0.2209625,-0.15565
1679933949645,1113938000563840,-0.0565125,0.238975,-0.1566125
1679933949648,1113938003066071,-0.0545875,0.2539625,-0.15565
1679933949652,1113938005568456,-0.0545875,0.27101249,-0.15565
1679933949655,1113938008070379,-0.052525,0.2919125,-0.1596375
1679933949659,1113938010572749,-0.0506,0.3089625,-0.1596375
1679933949659,1113938013074903,-0.0576125,0.3260125,-0.169675
1679933949661,1113938015577057,-0.063525,0.3419625,-0.17765
1679933949663,1113938018079211,-0.0686125,0.3579125,-0.1846625
1679933949665,1113938020581442,-0.0765875,0.3729,-0.18755
1679933949668,1113938023083576,-0.08855,0.3889875,-0.1896125
1679933949671,1113938025585730,-0.09955,0.396,-0.19965
1679933949673,1113938028087884,-0.1126125,0.4059,-0.2176625
1679933949675,1113938030590038,-0.1276,0.4189625,-0.2385625
1679933949679,1113938033092158,-0.1395625,0.4189625,-0.2616625
1679933949682,1113938035594542,-0.14355,0.4219875,-0.28765
1679933949683,1113938038096696,-0.151525,0.4250125,-0.30855
1679933949686,1113938040598850,-0.157575,0.4269375,-0.323675
1679933949688,1113938043101081,-0.15853749,0.425975,-0.3366
1679933949691,1113938045603148,-0.1595,0.4239125,-0.35255
1679933949695,1113938048105379,-0.15853749,0.414975,-0.366575
1679933949696,1113938050607763,-0.1595,0.4079625,-0.377575
1679933949698,1113938053109917,-0.1615625,0.397925,-0.389675
1679933949702,1113938055612071,-0.162525,0.3939375,-0.4026
1679933949703,1113938058114225,-0.1615625,0.3829375,-0.40755
1679933949705,1113938060616379,-0.15455,0.377025,-0.4156625
1679933949710,1113938063118524,-0.1555125,0.3639625,-0.4175875
1679933949711,1113938065620677,-0.15455,0.355025,-0.42267498
1679933949713,1113938068122908,-0.1475375,0.344025,-0.42955
1679933949716,1113938070625062,-0.141625,0.3289,-0.427625
1679933949719,1113938073127447,-0.13255,0.315975,-0.4266625
1679933949722,1113938075629370,-0.1236125,0.30195,-0.4236375
1679933949724,1113938078131754,-0.1126125,0.287925,-0.416625
1679933949726,1113938080633908,-0.104499996,0.278025,-0.4035625
1679933949729,1113938083136062,-0.0946,0.264,-0.3916
1679933949733,1113938085638288,-0.086625,0.2429625,-0.37867498
1679933949736,1113938088140442,-0.074525,0.2270125,-0.36355
1679933949737,1113938090642596,-0.0625625,0.205975,-0.344575
1679933949738,1113938093144749,-0.053625,0.187,-0.323675
1679933949741,1113938095646898,-0.041525,0.1659625,-0.301675
1679933949743,1113938098149052,-0.0286,0.1439625,-0.2806375
1679933949746,1113938100651437,-0.020624999,0.1159125,-0.25465
1679933949748,1113938103153591,-0.0105875,0.088,-0.234575
1679933949752,1113938105655739,-5.5E-4,0.064899996,-0.2066625
1679933949753,1113938108157970,0.007425,0.0429,-0.17765
1679933949755,1113938110660124,0.018424999,0.0149875,-0.1516625
1679933949758,1113938113162201,0.023375,-0.0070125,-0.125675
1679933949764,1113938115664668,0.034375,-0.031075,-0.0966625
1679933949764,1113938118166821,0.0394625,-0.058025,-0.0746625
1679933949765,1113938120668975,0.045375,-0.0840125,-0.0526625
1679933949770,1113938123171129,0.0484,-0.1111,-0.0295625
1679933949772,1113938125673283,0.0504625,-0.1331,-0.0105875
1679933949774,1113938128175446,0.0594,-0.1590875,0.0034375
1679933949777,1113938130677677,0.0605,-0.183975,0.02145
1679933949779,1113938133179830,0.062425,-0.2101,0.0353375
1679933949783,1113938135681984,0.06545,-0.231,0.0474375
1679933949784,1113938138184138,0.06545,-0.2490125,0.0584375
1679933949786,1113938140686292,0.067375,-0.264,0.0713625
1679933949788,1113938143188446,0.068475,-0.2789875,0.07535
1679933949791,1113938145690830,0.0594,-0.2871,0.0823625
1679933949793,1113938148193061,0.0594,-0.295075,0.091437496
1679933949796,1113938150695114,0.057475,-0.3020875,0.095425
1679933949799,1113938153197345,0.0534875,-0.308,0.1034
1679933949803,1113938155699499,0.046475,-0.311025,0.105325
1679933949804,1113938158201663,0.046475,-0.3091,0.10835
1679933949807,1113938160703816,0.0444125,-0.3070375,0.113437496
1679933949809,1113938163206201,0.0413875,-0.3070375,0.1144
1679933949812,1113938165708355,0.0385,-0.30305,0.116325
1679933949813,1113938168210485,0.0334125,-0.2930125,0.11935
1679933949815,1113938170712639,0.0284625,-0.284075,0.1233375
1679933949819,1113938173214793,0.024475,-0.275,0.128425
1679933949821,1113938175716946,0.024475,-0.2651,0.1233375
1679933949823,1113938178219177,0.018424999,-0.2541,0.11935
1679933949825,1113938180721340,0.012375,-0.2431,0.12045
1679933949828,1113938183223494,0.0083875,-0.229075,0.1183875
1679933949831,1113938185725878,0.0055,-0.2101,0.1153625
1679933949833,1113938188228032,0.0034375,-0.1970375,0.10945
1679933949835,1113938190730215,-5.5E-4,-0.18205,0.105325
1679933949839,1113938193232369,-0.0015125,-0.1670625,0.102437496
1679933949842,1113938195734600,-0.0055,-0.1551,0.094325
1679933949845,1113938198236754,-0.0075625,-0.135025,0.0884125
1679933949847,1113938200738927,-0.009625,-0.124025,0.0814
1679933949849,1113938203241080,-0.01155,-0.11,0.0774125
1679933949853,1113938205743234,-0.013612499,-0.088,0.0713625
1679933949854,1113938208245388,-0.0105875,-0.069025,0.06435
1679933949856,1113938210747542,-0.008525,-0.0510125,0.0603625
1679933949858,1113938213249937,-0.008525,-0.0270875,0.05335
1679933949863,1113938215752167,-0.0066,-0.007975,0.0413875
1679933949865,1113938218254321,-0.0045375,0.0149875,0.039325
1679933949866,1113938220756475,-0.0055,0.029975,0.0374
1679933949869,1113938223258629,-0.0055,0.0429,0.029424999
1679933949871,1113938225760783,-0.0066,0.058025,0.0243375
1679933949873,1113938228263167,-0.0045375,0.069025,0.02035
1679933949876,1113938230765321,-0.0066,0.0829125,0.0163625
1679933949881,1113938233267451,-0.01155,0.0950125,0.018424999
1679933949887,1113938235769605,-0.0155375,0.106975,0.0163625
1679933949889,1113938238271759,-0.014575,0.122925,0.0154
1679933949890,1113938240773913,-0.0215875,0.128975,0.0154
1679933949892,1113938243276138,-0.025575,0.135025,0.02035
1679933949893,1113938245778292,-0.0356125,0.1390125,0.0224125
1679933949894,1113938248280446,-0.0396,0.135025,0.02145
1679933949896,1113938250782600,-0.0396,0.13695,0.0273625
1679933949898,1113938253284985,-0.0405625,0.133925,0.03135
1679933949903,1113938255787157,-0.042625,0.128975,0.0383625
1679933949904,1113938258289311,-0.041525,0.12595,0.0413875
1679933949906,1113938260791465,-0.0435875,0.1219625,0.051425
1679933949908,1113938263293696,-0.0466125,0.12595,0.0584375
1679933949911,1113938265795773,-0.0495,0.1219625,0.0664125
1679933949914,1113938268298004,-0.0506,0.1109625,0.07535
1679933949916,1113938270800388,-0.0545875,0.11,0.0853875
1679933949921,1113938273302542,-0.05555,0.102025,0.09845
1679933949924,1113938275803619,-0.0565125,0.0939125,0.111375
1679933949925,1113938278304696,-0.05555,0.0840125,0.1233375
1679933949927,1113938280809004,-0.05555,0.0699875,0.1343375
1679933949928,1113938283311157,-0.0605,0.0529375,0.1464375
1679933949931,1113938285813388,-0.069575,0.0389125,0.161425
1679933949935,1113938288315552,-0.0715,0.023924999,0.171325
1679933949936,1113938290817706,-0.0735625,0.0119624995,0.1804
1679933949939,1113938293320091,-0.0765875,0.001925,0.194425
1679933949941,1113938295822014,-0.0785125,-0.0149875,0.210375
1679933949943,1113938298324163,-0.080575,-0.0341,0.2244
1679933949946,1113938300826547,-0.0836,-0.0451,0.2393875
1679933949948,1113938303328701,-0.0895125,-0.055,0.254375
1679933949951,1113938305830932,-0.0875875,-0.066,0.2693625
1679933949953,1113938308333081,-0.0875875,-0.073975,0.281325
1679933949957,1113938310835234,-0.0906125,-0.0840125,0.293425
1679933949961,1113938313337388,-0.0906125,-0.0930875,0.309375
1679933949964,1113938315839542,-0.0925375,-0.1029875,0.320375
1679933949965,1113938318341937,-0.0935,-0.119075,0.32945
1679933949966,1113938320844091,-0.0946,-0.130075,0.34141248
1679933949969,1113938323346244,-0.0955625,-0.1370875,0.35035
1679933949971,1113938325848398,-0.0955625,-0.143,0.359425
1679933949974,1113938328350552,-0.0955625,-0.1420375,0.3683625
1679933949976,1113938330852783,-0.0955625,-0.143,0.3713875
1679933949978,1113938333354937,-0.0946,-0.1500125,0.3774375
1679933949981,1113938335857321,-0.0935,-0.152075,0.3774375
1679933949985,1113938338359475,-0.0925375,-0.1551,0.3774375
1679933949987,1113938340861643,-0.0925375,-0.161975,0.381425
1679933949989,1113938343363797,-0.091575,-0.1640375,0.380325
1679933949991,1113938345865951,-0.091575,-0.1689875,0.375375
1679933949994,1113938348368105,-0.0875875,-0.1670625,0.37235
1679933949997,1113938350870331,-0.0895125,-0.1590875,0.37345
1679933949999,1113938353372485,-0.08855,-0.1551,0.369325
1679933950002,1113938355874639,-0.0906125,-0.14905,0.3634125
1679933950004,1113938358377024,-0.091575,-0.1480875,0.3603875
1679933950008,1113938360878951,-0.091575,-0.1469875,0.359425
1679933950009,1113938363381105,-0.0895125,-0.1359875,0.3554375
1679933950012,1113938365883566,-0.0906125,-0.1260875,0.353375
1679933950013,1113938368385720,-0.0906125,-0.113025,0.35035
1679933950016,1113938370887874,-0.0875875,-0.098037496,0.3433375
1679933950018,1113938373390042,-0.0875875,-0.091025,0.34045
1679933950021,1113938375892196,-0.0895125,-0.077,0.336325
1679933950024,1113938378394350,-0.086625,-0.0650375,0.331375
1679933950026,1113938380896503,-0.0875875,-0.0510125,0.3243625
1679933950029,1113938383398888,-0.0875875,-0.033,0.320375
1679933950035,1113938385901042,-0.082499996,-0.01705,0.3133625
1679933950035,1113938388403273,-0.082499996,-0.003025,0.30635
1679933950037,1113938390905350,-0.0815375,0.0149875,0.303325
1679933950039,1113938393407489,-0.082499996,0.0309375,0.298375
1679933950042,1113938395909720,-0.0796125,0.0479875,0.2913625
1679933950044,1113938398412105,-0.0796125,0.062975,0.28545
1679933950046,1113938400914259,-0.0785125,0.078925,0.2803625
1679933950049,1113938403416413,-0.0735625,0.0939125,0.27445
1679933950052,1113938405918580,-0.0715,0.1029875,0.2674375
1679933950054,1113938408420734,-0.0644875,0.1109625,0.2613875
1679933950056,1113938410922888,-0.0605,0.1199,0.2564375
1679933950058,1113938413425042,-0.0545875,0.121,0.25245
1679933950061,1113938415927278,-0.04455,0.122925,0.2464
1679933950063,1113938418429432,-0.0424875,0.1269125,0.2454375
1679933950066,1113938420931585,-0.0405625,0.1299375,0.248325
1679933950070,1113938423433725,-0.0356125,0.135025,0.243375
1679933950073,1113938425936110,-0.0265375,0.13695,0.2393875
1679933950075,1113938428438033,-0.0235125,0.13695,0.238425
1679933950078,1113938430940418,-0.0215875,0.139975,0.2344375
1679933950081,1113938433442633,-0.0204875,0.13695,0.23045
1679933950083,1113938435944787,-0.0155375,0.1390125,0.23045
1679933950085,1113938438446941,-0.0155375,0.132,0.227425
1679933950087,1113938440949095,-0.01155,0.124025,0.2204125
1679933950089,1113938443451249,-0.0155375,0.124025,0.215325
1679933950092,1113938445953614,-0.014575,0.1159125,0.2134
1679933950093,1113938448455768,-0.01155,0.106975,0.2094125
1679933950096,1113938450957922,-0.014575,0.100925,0.204325
1679933950098,1113938453460076,-0.013612499,0.0979,0.1953875
1679933950102,1113938455962307,-0.0125124995,0.086899996,0.19745
1679933950103,1113938458464374,-0.0094875,0.069025,0.19745
1679933950107,1113938460966528,-0.0055,0.0559625,0.19635
1679933950111,1113938463468989,-0.0055,0.044,0.1953875
1679933950112,1113938465970922,-5.5E-4,0.034925,0.193325
1679933950114,1113938468473307,4.125E-4,0.0229625,0.1953875
1679933950116,1113938470975461,0.0034375,0.0119624995,0.1953875
1679933950120,1113938473477614,0.0064625,-0.0011,0.194425
1679933950128,1113938475978676,0.0083875,-0.011,0.19635
1679933950128,1113938478479753,0.0114124995,-0.022,0.2003375
1679933950131,1113938480984138,0.013475,-0.0320375,0.2003375
1679933950133,1113938483486292,0.013475,-0.0430375,0.2033625
1679933950135,1113938485988446,0.013475,-0.055,0.20735
1679933950136,1113938488490600,0.018424999,-0.066,0.20845
1679933950139,1113938490992753,0.0193875,-0.073975,0.210375
1679933950139,1113938493495138,0.0224125,-0.08305,0.2134
1679933950142,1113938495997292,0.0224125,-0.097075,0.2134
1679933950145,1113938498499523,0.024475,-0.1040875,0.215325
1679933950146,1113938501001686,0.0275,-0.1120625,0.2143625
1679933950148,1113938503503840,0.0314875,-0.1170125,0.21133749
1679933950153,1113938506005994,0.0264,-0.128975,0.2124375
1679933950154,1113938508508148,0.0284625,-0.1370875,0.20735
1679933950156,1113938511010533,0.0314875,-0.143,0.2033625
1679933950161,1113938513512686,0.0345125,-0.152075,0.2014375
1679933950162,1113938516014840,0.0334125,-0.1579875,0.19745
1679933950164,1113938518516994,0.032449998,-0.1661,0.1923625
1679933950166,1113938521019225,0.0275,-0.1750375,0.188375
1679933950169,1113938523521278,0.0314875,-0.18205,0.1843875
1679933950172,1113938526023509,0.0275,-0.19305,0.1804
1679933950174,1113938528525893,0.0235125,-0.2030875,0.1764125
1679933950176,1113938531028047,0.0204875,-0.2101,0.1733875
1679933950178,1113938533530201,0.02145,-0.21807499,0.171325
1679933950183,1113938536032369,0.0204875,-0.22,0.1703625
1679933950184,1113938538534523,0.0193875,-0.223025,0.1684375
1679933950186,1113938541036677,0.0165,-0.229075,0.1684375
1679933950188,1113938543538907,0.0154,-0.231,0.1654125
1679933950191,1113938546041071,0.0114124995,-0.2330625,0.16445
1679933950193,1113938548543225,0.01045,-0.2380125,0.161425
1679933950196,1113938551045379,0.0125124995,-0.242,0.16335
1679933950200,1113938553547778,0.01045,-0.24805,0.16445
1679933950202,1113938556049931,0.0114124995,-0.2520375,0.1623875
1679933950204,1113938558552085,0.013475,-0.253,0.161425
1679933950206,1113938561054239,0.0154,-0.253,0.161425
1679933950209,1113938563556393,0.0154,-0.2541,0.1593625
1679933950211,1113938566058643,0.0114124995,-0.2569875,0.1584
1679933950214,1113938568560797,0.0114124995,-0.25905,0.1574375
1679933950217,1113938571063181,0.0083875,-0.2580875,0.155375
1679933950220,1113938573565350,0.0034375,-0.256025,0.1544125
1679933950223,1113938576067273,0.0064625,-0.2600125,0.155375
1679933950224,1113938578569658,0.0044,-0.2600125,0.1544125
1679933950226,1113938581071812,0.0015125,-0.25905,0.155375
1679933950228,1113938583573965,-5.5E-4,-0.256025,0.155375
