system_ts_ms, sensor_ts_ns, accX, accY, accZ
1679933945278,1113933631738942,1.011,7.5040503,6.7819505
1679933945280,1113933634241095,0.97305006,7.3510504,6.7249503
1679933945281,1113933636743249,0.96495,7.3699503,6.76095
1679933945283,1113933639245403,0.915,7.2840004,6.7249503
1679933945286,1113933641747788,0.92205006,7.35405,6.7249503
1679933945289,1113933644249990,0.78405005,7.3320003,6.6940503
1679933945291,1113933646752220,0.76305,7.3180504,6.70095
1679933945299,1113933649254374,0.74595004,7.2630005,6.6670504
1679933945299,1113933651756528,0.72900003,7.3560004,6.675
1679933945300,1113933654258686,0.70995003,7.2720003,6.6169505
1679933945302,1113933656760840,0.69795,7.3699503,6.55695
1679933945304,1113933659262994,0.81795,7.3030505,6.6550503
1679933945306,1113933661765378,0.77205,7.3660502,6.70095
1679933945313,1113933664267537,0.61395,7.287,6.6049504
1679933945313,1113933666769691,0.64095,7.2430506,6.61005
1679933945314,1113933669271922,0.69105005,7.2840004,6.6840005
1679933945317,1113933671774076,0.70095,7.3009505,6.564
1679933945319,1113933674276153,0.61005,7.3320003,6.61005
1679933945322,1113933676778629,0.64095,7.3080006,6.55695
1679933945329,1113933679280552,0.61005,7.3819504,6.531
1679933945329,1113933681782937,0.669,7.32495,6.636
1679933945330,1113933684285091,0.61395,7.3750505,6.5119505
1679933945332,1113933686787330,0.59295005,7.2910504,6.6169505
1679933945334,1113933689289484,0.693,7.3729506,6.52605
1679933945336,1113933691791638,0.63795,7.35405,6.6000004
1679933945341,1113933694293783,0.75600004,7.32495,6.663
1679933945346,1113933696795937,0.70995003,7.2910504,6.4540505
1679933945346,1113933699298091,0.72405005,7.2190504,6.6150002
1679933945346,1113933701800475,0.70095,7.2670503,6.591
1679933945351,1113933704302706,0.67695004,7.3560004,6.64305
1679933945352,1113933706804797,0.67695004,7.3080006,6.6649504
1679933945353,1113933709306951,0.75600004,7.32705,6.62895
1679933945357,1113933711809182,0.744,7.2720003,6.7219505
1679933945362,1113933714311336,0.83505005,7.2630005,6.61005
1679933945362,1113933716813489,0.82500005,7.2720003,6.7219505
1679933945364,1113933719315874,0.84405005,7.2840004,6.5929503
1679933945366,1113933721818028,0.90405005,7.2769504,6.7219505
1679933945370,1113933724320182,0.85095006,7.2460504,6.6670504
1679933945372,1113933726822336,0.906,7.2510004,6.663
1679933945374,1113933729324484,0.89205,7.31505,6.5929503
1679933945379,1113933731826638,0.85905004,7.3219504,6.7510505
1679933945381,1113933734329100,0.9580501,7.3080006,6.5929503
1679933945382,1113933736831023,0.95295006,7.2649503,6.70305
1679933945384,1113933739333397,0.9889501,7.2030005,6.7320004
1679933945386,1113933741835551,1.0030501,7.2580504,6.8179502
1679933945389,1113933744337705,1.095,7.287,6.6889505
1679933945391,1113933746839859,1.056,7.2840004,6.768
1679933945397,1113933749342013,1.07805,7.3060503,6.675
1679933945398,1113933751844244,1.00605,7.3030505,6.7270503
1679933945400,1113933754346398,1.056,7.1980505,6.7369504
1679933945403,1113933756848551,1.0489501,7.3339505,6.8089504
1679933945404,1113933759350662,1.1020501,7.32495,6.74595
1679933945406,1113933761853047,1.0830001,7.2790504,6.7939506
1679933945413,1113933764354970,1.0320001,7.2649503,6.71295
1679933945414,1113933766857355,1.128,7.3080006,6.7819505
1679933945415,1113933769359585,0.9580501,7.3099504,6.7440004
1679933945417,1113933771861739,0.975,7.2769504,6.68205
1679933945419,1113933774363893,0.96795005,7.3630505,6.675
1679933945421,1113933776866047,1.0200001,7.34595,6.64095
1679933945423,1113933779368201,0.95295006,7.3009505,6.6649504
1679933945434,1113933781870355,0.99195004,7.3420506,6.636
1679933945436,1113933784372739,0.96495,7.2649503,6.6940503
1679933945436,1113933786874893,0.84405005,7.31295,6.60795
1679933945437,1113933789377047,0.85905004,7.2510004,6.5809503
1679933945438,1113933791879230,0.86805004,7.28205,6.6580505
1679933945440,1113933794381307,0.85395,7.3009505,6.6550503
1679933945442,1113933796883460,0.76500005,7.2750006,6.5329504
1679933945445,1113933799385922,0.85095006,7.2840004,6.59805
1679933945446,1113933801888076,0.82305,7.3660502,6.5880003
1679933945451,1113933804390239,0.79200006,7.26,6.64305
1679933945453,1113933806892393,0.684,7.2769504,6.5719504
1679933945454,1113933809394546,0.74805003,7.2990003,6.59595
1679933945456,1113933811896700,0.73395,7.3060503,6.4900503
1679933945462,1113933814398902,0.82695,7.2990003,6.55695
1679933945462,1113933816901056,0.73395,7.2580504,6.5160003
1679933945464,1113933819403441,0.64500004,7.25505,6.61005
1679933945466,1113933821905364,0.70305,7.3489504,6.5929503
1679933945470,1113933824407503,0.73905003,7.3030505,6.531
1679933945472,1113933826909888,0.84705,7.24095,6.6460505
1679933945474,1113933829412042,0.75105006,7.2750006,6.55695
1679933945478,1113933831914273,0.72195005,7.31295,6.61005
1679933945480,1113933834416427,0.72195005,7.3080006,6.6550503
1679933945481,1113933836918575,0.708,7.2769504,6.5719504
1679933945484,1113933839420729,0.669,7.3609505,6.6580505
1679933945486,1113933841922883,0.74805003,7.31505,6.5500503
1679933945491,1113933844425052,0.76995003,7.25295,6.6790504
1679933945497,1113933846927437,0.78000003,7.3369503,6.6460505
1679933945499,1113933849429590,0.75105006,7.32495,6.70095
1679933945500,1113933851931744,0.72900003,7.2750006,6.6169505
1679933945501,1113933854433898,0.768,7.3440003,6.6049504
1679933945502,1113933856936153,0.76005006,7.3369503,6.6169505
1679933945504,1113933859438230,0.753,7.3699503,6.64305
1679933945506,1113933861940461,0.76305,7.3780503,6.67005
1679933945513,1113933864442845,0.77205,7.3560004,6.6940503
1679933945514,1113933866944999,0.82305,7.392,6.52605
1679933945515,1113933869447153,0.82305,7.32705,6.6220503
1679933945518,1113933871949307,0.77505004,7.2840004,6.70305
1679933945520,1113933874451461,0.77505004,7.392,6.64305
1679933945522,1113933876953595,0.837,7.39905,6.6990004
1679933945525,1113933879455825,0.84195006,7.3300505,6.5860505
1679933945531,1113933881957979,0.91005003,7.3180504,6.6460505
1679933945532,1113933884460364,0.90405005,7.3609505,6.71505
1679933945534,1113933886962518,0.84705,7.4059505,6.6649504
1679933945537,1113933889464671,0.75105006,7.3560004,6.74595
1679933945537,1113933891966825,0.78705,7.425,6.6460505
1679933945539,1113933894469056,0.80100006,7.4280005,6.6220503
1679933945542,1113933896971210,0.804,7.3969502,6.6910505
1679933945545,1113933899473364,0.88695,7.35405,6.8040004
1679933945547,1113933901975518,0.82995003,7.3369503,6.6529503
1679933945550,1113933904477671,0.89505005,7.38,6.7270503
1679933945551,1113933906979825,0.84900004,7.4059505,6.6340504
1679933945554,1113933909482013,0.90195006,7.39905,6.59595
1679933945557,1113933911984398,0.79395,7.3939505,6.6000004
1679933945563,1113933914486629,0.78705,7.2889504,6.6649504
1679933945564,1113933916988706,0.84705,7.3969502,6.6049504
1679933945565,1113933919490922,0.81495005,7.39905,6.70095
1679933945567,1113933921993076,0.75600004,7.2649503,6.5860505
1679933945570,1113933924495230,0.83205,7.3900504,6.59805
1679933945573,1113933926997615,0.82500005,7.2289505,6.696
1679933945574,1113933929499768,0.81495005,7.2390003,6.70095
1679933945578,1113933932001931,0.75600004,7.2769504,6.68205
1679933945579,1113933934504085,0.74595004,7.3630505,6.68205
1679933945581,1113933937006239,0.78705,7.24095,6.5929503
1679933945585,1113933939508393,0.74805003,7.24095,6.6150002
1679933945587,1113933942010624,0.71295005,7.227,6.59595
1679933945590,1113933944513008,0.717,7.2460504,6.70095
1679933945592,1113933947014931,0.70095,7.2649503,6.7099504
1679933945595,1113933949517316,0.71295005,7.3030505,6.5860505
1679933945597,1113933952019446,0.61695004,7.2430506,6.6840005
1679933945600,1113933954521600,0.67695004,7.1860504,6.56895
1679933945603,1113933957023754,0.708,7.2750006,6.64305
1679933945605,1113933959525984,0.62895006,7.2289505,6.56895
1679933945607,1113933962028138,0.768,7.2510004,6.5929503
1679933945612,1113933964530316,0.78000003,7.248,6.64305
1679933945612,1113933967032470,0.813,7.2340503,6.6889505
1679933945614,1113933969534624,0.80100006,7.2769504,6.6190505
1679933945616,1113933972037008,0.78705,7.2289505,6.675
1679933945620,1113933974538911,0.67695004,7.2580504,6.675
1679933945621,1113933977041373,0.768,7.3560004,6.6600003
1679933945624,1113933979543527,0.76500005,7.3440003,6.67005
1679933945629,1113933982045604,0.76995003,7.3180504,6.6460505
1679933945630,1113933984547772,0.78900003,7.3180504,6.6990004
1679933945631,1113933987050002,0.83895004,7.3180504,6.6390004
1679933945634,1113933989552387,0.84405005,7.2649503,6.6220503
1679933945638,1113933992054541,0.87495005,7.2910504,6.6600003
1679933945642,1113933994556724,0.73605,7.2769504,6.7180505
1679933945644,1113933997058878,0.82500005,7.2670503,6.5740504
1679933945648,1113933999561031,0.84900004,7.29405,6.6840005
1679933945649,1113934002063262,0.85605,7.1980505,6.7180505
1679933945650,1113934004565412,0.91695005,7.2340503,6.7489505
1679933945652,1113934007067566,0.906,7.3009505,6.8370004
1679933945654,1113934009569720,0.86100006,7.3420506,6.7180505
1679933945657,1113934012072104,0.804,7.2889504,6.6990004
1679933945661,1113934014574027,0.90195006,7.32705,6.7200003
1679933945662,1113934017076484,0.82305,7.31295,6.71295
1679933945664,1113934019578638,0.804,7.3560004,6.7510505
1679933945667,1113934022080715,0.78705,7.287,6.7219505
1679933945670,1113934024582946,0.91995007,7.3630505,6.77295
1679933945672,1113934027085089,0.81795,7.3180504,6.7540503
1679933945674,1113934029587243,0.75105006,7.31295,6.7180505
1679933945679,1113934032089397,0.78705,7.34595,6.7219505
1679933945681,1113934034591801,0.78900003,7.38495,6.6840005
1679933945683,1113934037281108,0.813,7.39905,6.7699504
1679933945685,1113934039596108,0.79395,7.3609505,6.6649504
1679933945687,1113934042098262,0.86295,7.3969502,6.7540503
1679933945690,1113934044600416,0.78705,7.3630505,6.6649504
1679933945692,1113934047102637,0.684,7.39905,6.6649504
1679933945694,1113934049605022,0.669,7.392,6.9
1679933945697,1113934052107175,0.708,7.31295,6.6529503
1679933945699,1113934054609329,0.633,7.3560004,6.6340504
1679933945702,1113934057111483,0.63600004,7.35405,6.6649504
1679933945704,1113934059613637,0.64305,7.3339505,6.675
1679933945707,1113934062115791,0.67905,7.32705,6.6769505
1679933945710,1113934064617945,0.63105005,7.4059505,6.603
1679933945712,1113934067120175,0.58605003,7.35405,6.7180505
1679933945716,1113934069622575,0.633,7.3180504,6.6600003
1679933945718,1113934072124498,0.59505004,7.2840004,6.8089504
1679933945722,1113934074626652,0.65295005,7.3339505,6.663
1679933945723,1113934077129008,0.58095,7.287,6.6649504
1679933945726,1113934079630931,0.62100005,7.3660502,6.6460505
1679933945727,1113934082133392,0.63795,7.2840004,6.7099504
1679933945730,1113934084635546,0.57405,7.28205,6.675
1679933945732,1113934087137700,0.53805,7.4089503,6.5740504
1679933945735,1113934089639868,0.55200005,7.39905,6.6390004
1679933945737,1113934092142022,0.46305,7.3440003,6.67005
1679933945739,1113934094644175,0.54705,7.3390503,6.636
1679933945742,1113934097146329,0.50100005,7.3369503,6.708
1679933945744,1113934099648714,0.57600003,7.3180504,6.6460505
1679933945747,1113934102150868,0.52995,7.3750505,6.5860505
1679933945750,1113934104653022,0.52995,7.2670503,6.6990004
1679933945753,1113934107155252,0.56895,7.3180504,6.7510505
1679933945755,1113934109657315,0.588,7.2649503,6.6460505
1679933945757,1113934112159546,0.61200005,7.3030505,6.59595
1679933945760,1113934114661931,0.528,7.248,6.5929503
1679933945762,1113934117164085,0.66195005,7.2649503,6.636
1679933945766,1113934119666238,0.624,7.3080006,6.62895
1679933945769,1113934122168435,0.58995,7.28205,6.675
1679933945772,1113934124670589,0.648,7.3180504,6.64095
1679933945773,1113934127172820,0.62595004,7.2580504,6.6649504
1679933945775,1113934129674974,0.67905,7.215,6.5400004
1679933945777,1113934132177138,0.66,7.2990003,6.696
1679933945780,1113934134679522,0.66705,7.29405,6.71295
1679933945782,1113934137181445,0.65295005,7.2840004,6.59595
1679933945784,1113934139683830,0.63105005,7.2580504,6.6270003
1679933945787,1113934142185984,0.67695004,7.248,6.6270003
1679933945791,1113934144688138,0.77505004,7.2460504,6.70305
1679933945793,1113934147190368,0.72900003,7.29405,6.7660503
1679933945795,1113934149692522,0.71295005,7.143,6.7660503
1679933945798,1113934152194676,0.75600004,7.2960005,6.6649504
1679933945801,1113934154696830,0.82305,7.248,6.7369504
1679933945803,1113934157198984,0.75105006,7.2769504,6.73395
1679933945804,1113934159701138,0.72,7.2630005,6.7219505
1679933945807,1113934162203599,0.78195006,7.2430506,6.6910505
1679933945809,1113934164705738,0.88500005,7.2720003,6.7180505
1679933945811,1113934167207815,0.78000003,7.2750006,6.68205
1679933945814,1113934169710046,0.83895004,7.3009505,6.636
1679933945817,1113934172212200,0.86595005,7.248,6.6150002
1679933945820,1113934174714359,0.90195006,7.34595,6.6220503
1679933945821,1113934177216512,0.81105006,7.39905,6.663
1679933945824,1113934179718897,0.84405005,7.2720003,6.5809503
1679933945828,1113934182221051,0.80595005,7.3699503,6.6720004
1679933945831,1113934184723210,0.86100006,7.4059505,6.7249503
1679933945833,1113934187225364,0.91005003,7.29405,6.7249503
1679933945835,1113934189727517,0.82500005,7.2769504,6.7489505
1679933945838,1113934192229748,0.80100006,7.3560004,6.7180505
1679933945840,1113934194731902,0.82500005,7.3900504,6.59805
1679933945842,1113934197234056,0.79605,7.3030505,6.6390004
1679933945844,1113934199736441,0.76005006,7.2670503,6.6990004
1679933945847,1113934202238594,0.73605,7.2960005,6.6940503
1679933945850,1113934204740748,0.72,7.3030505,6.7200003
1679933945852,1113934207242902,0.73395,7.3180504,6.7819505
1679933945854,1113934209745128,0.67695004,7.3339505,6.663
1679933945857,1113934212247282,0.65505004,7.2790504,6.6769505
1679933945859,1113934214749436,0.62895006,7.3080006,6.6270003
1679933945862,1113934217251589,0.70500004,7.3489504,6.6169505
1679933945867,1113934219753767,0.669,7.4280005,6.5520005
1679933945869,1113934222256152,0.57405,7.32495,6.6940503
1679933945872,1113934224758075,0.66705,7.3030505,6.6270003
1679933945874,1113934227260536,0.66195005,7.3080006,6.7200003
1679933945876,1113934229762690,0.624,7.3219504,6.59595
1679933945878,1113934232264844,0.66705,7.3440003,6.64305
1679933945881,1113934234766998,0.61200005,7.3489504,6.5880003
1679933945883,1113934237269152,0.63600004,7.3489504,6.6169505
1679933945885,1113934239771306,0.57795,7.32,6.5719504
1679933945887,1113934242273690,0.53505003,7.3009505,6.6889505
1679933945890,1113934244775844,0.52305,7.3420506,6.6460505
1679933945892,1113934247277998,0.633,7.25295,6.543
1679933945894,1113934249780229,0.48705003,7.3060503,6.55695
1679933945897,1113934252282306,0.60495,7.215,6.5520005
1679933945901,1113934254784460,0.507,7.3420506,6.5140505
1679933945915,1113934257286690,0.52305,7.2990003,6.4900503
1679933945915,1113934259789075,0.53805,7.2889504,6.64095
1679933945915,1113934262291229,0.54,7.32705,6.5479503
1679933945916,1113934264793388,0.55695003,7.2430506,6.5329504
1679933945916,1113934267295542,0.55905,7.3060503,6.5599504
1679933945917,1113934269797695,0.47295,7.1910005,6.5880003
1679933945918,1113934272299849,0.504,7.1689506,6.59595
1679933945920,1113934274802080,0.633,7.215,6.6190505
1679933945923,1113934277304243,0.57105005,7.215,6.543
1679933945926,1113934279806628,0.53505003,7.2840004,6.603
1679933945927,1113934282308551,0.56595004,7.2340503,6.5599504
1679933945930,1113934284810935,0.58305,7.1569505,6.5670004
1679933945933,1113934287313094,0.64305,7.1839504,6.5740504
1679933945934,1113934289815248,0.70095,7.2580504,6.6169505
1679933945937,1113934292317479,0.57405,7.22205,6.6510005
1679933945941,1113934294819527,0.73905003,7.215,6.696
1679933945943,1113934297321757,0.68595004,7.1980505,6.6840005
1679933945945,1113934299823911,0.66195005,7.2240005,6.6480002
1679933945947,1113934302326296,0.68100005,7.18095,6.6270003
1679933945950,1113934304828450,0.79905003,7.28205,6.6840005
1679933945952,1113934307330609,0.79395,7.1790004,6.6240005
1679933945954,1113934309832762,0.81495005,7.248,6.70305
1679933945958,1113934312334916,0.85605,7.1520004,6.61005
1679933945961,1113934314837070,0.87795,7.28205,6.7249503
1679933945963,1113934317339296,0.81495005,7.2790504,6.7870502
1679933945964,1113934319841681,0.77205,7.2430506,6.70305
1679933945967,1113934322343834,0.81495005,7.38,6.6769505
1679933945970,1113934324845757,0.88995004,7.32495,6.6550503
1679933945972,1113934327348142,0.81795,7.2769504,6.7219505
1679933945974,1113934329850296,0.91305006,7.2889504,6.77295
1679933945978,1113934332352527,0.9580501,7.3680005,6.675
1679933945981,1113934334854681,0.95295006,7.31295,6.7510505
1679933945983,1113934337356820,0.92205006,7.4490004,6.7579503
1679933945985,1113934339858974,0.915,7.3440003,6.83505
1679933945987,1113934342361128,0.94905007,7.31295,6.7489505
1679933945990,1113934344863282,0.85395,7.2910504,6.6889505
1679933945992,1113934347365436,0.9289501,7.3440003,6.64305
1679933945995,1113934349867897,0.906,7.39905,6.7920003
1679933945998,1113934352369974,0.9289501,7.29405,6.6940503
1679933946002,1113934354872205,1.03995,7.4160004,6.78
1679933946003,1113934357374359,0.9990001,7.4110503,6.74205
1679933946004,1113934359876513,0.94395006,7.4160004,6.8089504
1679933946007,1113934362378667,0.9289501,7.3969502,6.83505
1679933946010,1113934364881051,0.96300006,7.4280005,6.7819505
1679933946012,1113934367383205,0.897,7.4110503,6.7440004
1679933946016,1113934369885349,0.89505005,7.425,6.8490005
1679933946018,1113934372387503,0.93405,7.452,6.7440004
1679933946021,1113934374889657,0.85905004,7.4400005,6.78
1679933946022,1113934377391811,0.82500005,7.39905,6.7200003
1679933946024,1113934379894041,0.88500005,7.34595,6.6529503
1679933946027,1113934382396180,0.84195006,7.392,6.7819505
1679933946032,1113934384898565,0.82695,7.42995,6.6270003
1679933946033,1113934387400719,0.77205,7.4059505,6.6790504
1679933946035,1113934389902872,0.76500005,7.3609505,6.6649504
1679933946038,1113934392405007,0.73605,7.2840004,6.5500503
1679933946041,1113934394907161,0.72405005,7.3339505,6.5719504
1679933946042,1113934397409392,0.67905,7.32705,6.7099504
1679933946045,1113934399911546,0.76305,7.3680005,6.696
1679933946047,1113934402413700,0.75105006,7.3300505,6.7440004
1679933946050,1113934404915854,0.64995,7.4130006,6.71295
1679933946053,1113934407418238,0.75795,7.3369503,6.6150002
1679933946055,1113934409920161,0.64095,7.34595,6.70305
1679933946057,1113934412422315,0.61005,7.3660502,6.70095
1679933946060,1113934414924792,0.67200005,7.3440003,6.6460505
1679933946062,1113934417426945,0.62100005,7.34595,6.696
1679933946064,1113934419929099,0.59505004,7.29405,6.6049504
1679933946067,1113934422431253,0.66195005,7.2910504,6.6550503
1679933946070,1113934424933407,0.58605003,7.28205,6.6600003
1679933946073,1113934427435561,0.66195005,7.4110503,6.6049504
1679933946074,1113934429937946,0.624,7.2840004,6.663
1679933946078,1113934432440099,0.62595004,7.3729506,6.6649504
1679933946081,1113934434942238,0.65295005,7.29405,6.6649504
1679933946083,1113934437444469,0.61395,7.2049503,6.5929503
1679933946084,1113934439946546,0.58095,7.2430506,6.6270003
1679933946087,1113934442448700,0.67905,7.2340503,6.6460505
1679933946092,1113934444951171,0.61005,7.32,6.603
1679933946093,1113934447453325,0.64095,7.2840004,6.5839505
1679933946095,1113934449955479,0.69600004,7.215,6.62895
1679933946097,1113934452457633,0.64305,7.287,6.6670504
1679933946100,1113934454959787,0.669,7.34595,6.67005
1679933946102,1113934457461950,0.64095,7.3390503,6.5880003
1679933946104,1113934459964103,0.63105005,7.3080006,6.6240005
1679933946107,1113934462466334,0.66705,7.155,6.64095
1679933946110,1113934464968719,0.65295005,7.2649503,6.61005
1679933946112,1113934467470642,0.65295005,7.3099504,6.636
1679933946114,1113934469972806,0.67905,7.188,6.7390504
1679933946118,1113934472475190,0.70305,7.2510004,6.6049504
1679933946120,1113934474977344,0.669,7.26,6.696
1679933946123,1113934477479575,0.648,7.287,6.56895
1679933946126,1113934479981729,0.648,7.2360005,6.5520005
1679933946129,1113934482483883,0.69795,7.3699503,6.60795
1679933946132,1113934484986037,0.69795,7.3009505,6.6889505
1679933946134,1113934487488190,0.69105005,7.3390503,6.543
1679933946137,1113934489990344,0.717,7.3030505,6.71295
1679933946137,1113934492492498,0.75105006,7.3060503,6.7369504
1679933946140,1113934494994960,0.753,7.3099504,6.6649504
1679933946142,1113934497497037,0.73605,7.22205,6.7270503
1679933946144,1113934499999204,0.78705,7.2840004,6.71295
1679933946147,1113934502501435,0.648,7.3560004,6.6460505
1679933946151,1113934505003512,0.73395,7.2649503,6.7510505
1679933946154,1113934507505743,0.80805004,7.3560004,6.6990004
1679933946160,1113934510008133,0.72705,7.3339505,6.7180505
1679933946161,1113934512510286,0.72,7.3099504,6.5670004
1679933946163,1113934515012440,0.813,7.3560004,6.6769505
1679933946164,1113934517514594,0.78705,7.28205,6.6870003
1679933946167,1113934520016738,0.77205,7.2840004,6.768
1679933946168,1113934522518892,0.78405005,7.3369503,6.6270003
1679933946171,1113934525021123,0.73200005,7.3780503,6.7510505
1679933946173,1113934527523276,0.657,7.39905,6.7579503
1679933946175,1113934530025430,0.72195005,7.3099504,6.7099504
1679933946177,1113934532527815,0.73395,7.3699503,6.7249503
1679933946180,1113934535029738,0.744,7.3780503,6.675
1679933946183,1113934537532123,0.70995003,7.3630505,6.6529503
1679933946185,1113934540034276,0.69795,7.2840004,6.71295
1679933946187,1113934542536512,0.744,7.3969502,6.8280005
1679933946190,1113934545038666,0.77205,7.34595,6.6529503
1679933946192,1113934547540820,0.72,7.4230504,6.6940503
1679933946194,1113934550042974,0.76305,7.392,6.7270503
1679933946198,1113934552545373,0.78195006,7.4490004,6.77295
1679933946201,1113934555047297,0.74805003,7.4160004,6.8160005
1679933946204,1113934557549681,0.78705,7.452,6.6769505
1679933946206,1113934560051912,0.86100006,7.4160004,6.76095
1679933946207,1113934562553984,0.89505005,7.4449506,6.7780504
1679933946211,1113934565056215,0.88695,7.2960005,6.7219505
1679933946213,1113934567558368,0.90795004,7.39905,6.73395
1679933946214,1113934570060522,0.82305,7.3009505,6.7200003
1679933946218,1113934572562676,0.85395,7.3510504,6.7540503
1679933946220,1113934575065061,0.86100006,7.3819504,6.7180505
1679933946223,1113934577567215,0.81495005,7.4830503,6.6150002
1679933946224,1113934580069368,0.86100006,7.32495,6.8089504
1679933946227,1113934582571522,0.87495005,7.3660502,6.71505
1679933946230,1113934585073661,0.92205006,7.3180504,6.6889505
1679933946232,1113934587575815,0.88695,7.3300505,6.768
1679933946234,1113934590078277,0.89895004,7.31295,6.73005
1679933946238,1113934592580200,0.837,7.2769504,6.6889505
1679933946242,1113934595082354,0.74595004,7.22205,6.675
1679933946244,1113934597584507,0.84405005,7.3080006,6.7369504
1679933946246,1113934600086969,0.77505004,7.3080006,6.73395
1679933946247,1113934602589046,0.813,7.3060503,6.7699504
1679933946252,1113934605091195,0.76305,7.25295,6.6889505
1679933946258,1113934607593425,0.78705,7.3699503,6.74205
1679933946258,1113934610095579,0.72195005,7.215,6.70095
1679933946258,1113934612597733,0.813,7.2430506,6.77295
1679933946263,1113934615099883,0.78000003,7.3750505,6.7369504
1679933946264,1113934617602268,0.75600004,7.2580504,6.6870003
1679933946265,1113934620104422,0.72705,7.215,6.6840005
1679933946268,1113934622606575,0.78705,7.287,6.7060504
1679933946270,1113934625108724,0.82305,7.2790504,6.7320004
1679933946273,1113934627610878,0.71295005,7.1719503,6.59805
1679933946275,1113934630113032,0.73605,7.1050506,6.6150002
1679933946280,1113934632615263,0.73605,7.2120004,6.67005
1679933946282,1113934635117632,0.68100005,7.3300505,6.6529503
1679933946284,1113934637802017,0.76500005,7.248,6.696
1679933946286,1113934640121709,0.717,7.1719503,6.67005
1679933946287,1113934642624094,0.744,7.2670503,6.6870003
1679933946291,1113934645126248,0.72195005,7.2720003,6.6990004
1679933946292,1113934647628478,0.68100005,7.2990003,6.6990004
1679933946294,1113934650130632,0.68895006,7.1929502,6.708
1679933946297,1113934652632786,0.68595004,7.1790004,6.7489505
1679933946300,1113934655134940,0.813,7.3369503,6.6460505
1679933946302,1113934657637094,0.79605,7.2670503,6.8250003
1679933946304,1113934660139248,0.753,7.2360005,6.8370004
1679933946307,1113934662641402,0.75795,7.25505,6.63105
1679933946310,1113934665143863,0.75795,7.25505,6.7630506
1679933946312,1113934667646017,0.76995003,7.2430506,6.80205
1679933946316,1113934670148171,0.71505004,7.2649503,6.7920003
1679933946319,1113934672650325,0.72,7.31505,6.6240005
1679933946323,1113934675152479,0.76305,7.2310505,6.5929503
1679933946324,1113934677654632,0.78405005,7.3339505,6.67005
1679933946326,1113934680157017,0.684,7.2580504,6.61005
1679933946327,1113934682659171,0.684,7.32705,6.603
1679933946330,1113934685161325,0.70500004,7.2720003,6.6870003
1679933946332,1113934687663479,0.75105006,7.2960005,6.6600003
1679933946334,1113934690165651,0.81105006,7.2670503,6.5860505
1679933946337,1113934692667882,0.708,7.22205,6.7060504
1679933946340,1113934695170036,0.76995003,7.2390003,6.70305
1679933946342,1113934697672190,0.76305,7.21005,6.7390504
1679933946344,1113934700174561,0.75795,7.2670503,6.7579503
1679933946347,1113934702676714,0.74805003,7.2649503,6.8179502
1679933946350,1113934705178868,0.71505004,7.24095,6.7489505
1679933946353,1113934707681036,0.73395,7.2049503,6.6990004
1679933946355,1113934710183190,0.77505004,7.2840004,6.6649504
1679933946358,1113934712685421,0.78405005,7.2169504,6.6720004
1679933946361,1113934715187575,0.73905003,7.26,6.7579503
1679933946363,1113934717689728,0.72900003,7.1140504,6.7780504
1679933946365,1113934720191882,0.73605,7.2000003,6.6940503
1679933946370,1113934722694267,0.73395,7.12095,6.6480002
1679933946372,1113934725196190,0.76500005,7.176,6.6510005
1679933946373,1113934727698575,0.84405005,7.1449504,6.68205
1679933946375,1113934730200805,0.74100006,7.0810504,6.64095
1679933946379,1113934732702959,0.81495005,7.1719503,6.6550503
1679933946381,1113934735205113,0.657,7.1860504,6.6790504
1679933946383,1113934737707267,0.70500004,7.2510004,6.6460505
1679933946385,1113934740209421,0.693,7.1400003,6.64305
1679933946387,1113934742711575,0.74805003,7.1310005,6.6510005
1679933946391,1113934745213959,0.75600004,7.15005,6.6580505
1679933946394,1113934747716113,0.72,7.1070004,6.80595
1679933946395,1113934750218277,0.70995003,7.176,6.77505
1679933946401,1113934752720508,0.777,7.1839504,6.6190505
1679933946404,1113934755222585,0.77205,7.083,6.6910505
1679933946404,1113934757724815,0.73605,7.248,6.68205
1679933946406,1113934760227200,0.82305,7.143,6.7200003
1679933946407,1113934762729354,0.79395,7.2390003,6.7219505
1679933946410,1113934765231508,0.744,7.15005,6.7780504
1679933946413,1113934767733662,0.657,7.1599503,6.663
1679933946415,1113934770235815,0.81105006,7.1640005,6.6340504
1679933946418,1113934772737969,0.81105006,7.28205,6.6550503
1679933946420,1113934775240123,0.82305,7.2049503,6.7699504
1679933946422,1113934777742354,0.83895004,7.2049503,6.636
1679933946424,1113934780244508,0.90405005,7.3489504,6.636
1679933946429,1113934782746643,0.82995003,7.2670503,6.7440004
1679933946431,1113934785248797,0.84900004,7.2910504,6.7200003
1679933946434,1113934787751181,0.81105006,7.1740503,6.6940503
1679933946436,1113934790253335,0.84405005,7.22205,6.6720004
1679933946438,1113934792755566,0.85095006,7.2580504,6.7320004
1679933946441,1113934795257705,0.81795,7.2190504,6.70305
1679933946442,1113934797759858,0.83895004,7.1980505,6.6720004
1679933946445,1113934800262012,0.837,7.2030005,6.6990004
1679933946448,1113934802764166,0.76995003,7.1359506,6.7560005
1679933946451,1113934805266354,0.768,7.2430506,6.663
1679933946452,1113934807768508,0.78195006,7.15005,6.7540503
1679933946455,1113934810270893,0.82500005,7.2840004,6.7560005
1679933946457,1113934812773046,0.804,7.1449504,6.7320004
1679933946460,1113934815275200,0.80805004,7.09005,6.6840005
1679933946462,1113934817777426,0.78000003,7.3009505,6.768
1679933946467,1113934820279580,0.9289501,7.2630005,6.80595
1679933946469,1113934822781734,0.78000003,7.2460504,6.7780504
1679933946471,1113934825284133,0.85905004,7.1070004,6.74595
1679933946474,1113934827786287,0.85095006,7.1790004,6.7579503
1679933946476,1113934830288441,0.83205,7.2360005,6.6580505
1679933946478,1113934832790595,0.88305,7.2430506,6.7249503
1679933946480,1113934835292749,0.86805004,7.2240005,6.70305
1679933946483,1113934837794889,0.77205,7.22205,6.7219505
1679933946485,1113934840297119,0.82500005,7.215,6.675
1679933946489,1113934842799273,0.85605,7.2649503,6.7219505
1679933946492,1113934845301658,0.91005003,7.248,6.6270003
1679933946493,1113934847803807,0.88995004,7.2510004,6.70095
1679933946495,1113934850305961,0.906,7.28205,6.8539505
1679933946498,1113934852808114,1.0030501,7.2340503,6.6990004
1679933946501,1113934855310268,0.90795004,7.22205,6.7870502
1679933946504,1113934857812470,0.89895004,7.2340503,6.6990004
1679933946505,1113934860314624,0.82995003,7.2700505,6.7180505
1679933946507,1113934862816778,0.78705,7.24095,6.68205
1679933946510,1113934865318932,0.813,7.2990003,6.7219505
1679933946513,1113934867821085,0.78000003,7.2390003,6.7320004
1679933946515,1113934870323244,0.76005006,7.3900504,6.73005
1679933946519,1113934872825629,0.837,7.1790004,6.76095
1679933946522,1113934875327860,0.82305,7.2049503,6.7870502
1679933946523,1113934877830014,0.744,7.2430506,6.8299503
1679933946526,1113934880332157,0.78000003,7.41795,6.6870003
1679933946537,1113934882834311,0.753,7.3060503,6.76095
1679933946538,1113934885336465,0.76995003,7.2670503,6.7219505
1679933946538,1113934887838619,0.669,7.3560004,6.7870502
1679933946538,1113934890341014,0.71295005,7.2649503,6.80205
1679933946538,1113934892843167,0.69795,7.176,6.6720004
1679933946541,1113934895345321,0.75600004,7.32705,6.7990503
1679933946543,1113934897847475,0.74100006,7.34595,6.6220503
1679933946546,1113934900349730,0.67695004,7.215,6.6529503
1679933946547,1113934902851884,0.717,7.2460504,6.77505
1679933946551,1113934905354038,0.69795,7.2390003,6.6580505
1679933946552,1113934907856191,0.73395,7.22205,6.74205
1679933946555,1113934910358576,0.75795,7.2670503,6.77295
1679933946558,1113934912860504,0.71295005,7.09005,6.67005
1679933946561,1113934915362966,0.77505004,7.15005,6.7249503
1679933946563,1113934917865120,0.76005006,7.22205,6.63105
1679933946565,1113934920367273,0.70500004,7.155,6.7249503
1679933946568,1113934922869402,0.564,7.1400003,6.71505
1679933946571,1113934925371556,0.66195005,7.24095,6.6649504
1679933946575,1113934927873710,0.68895006,7.1569505,6.663
1679933946575,1113934930375879,0.69795,7.1400003,6.68205
1679933946579,1113934932878263,0.67395,7.0810504,6.67005
1679933946581,1113934935380417,0.78705,7.08795,6.6649504
1679933946584,1113934937882571,0.71295005,7.227,6.64095
1679933946585,1113934940384802,0.73395,7.25505,6.70095
1679933946587,1113934942886869,0.77205,7.1119504,6.76095
1679933946590,1113934945389100,0.68895006,7.08795,6.6529503
1679933946592,1113934947891484,0.66195005,7.215,6.6910505
1679933946595,1113934950393638,0.69600004,7.1599503,6.7099504
1679933946598,1113934952895826,0.79905003,7.1239505,6.7320004
1679933946601,1113934955397980,0.744,7.1190004,6.68205
1679933946603,1113934957900134,0.708,7.1689506,6.73395
1679933946605,1113934960402287,0.71505004,7.0729504,6.7219505
1679933946607,1113934962904518,0.744,7.155,6.6529503
1679933946610,1113934965406681,0.72705,7.2460504,6.6769505
1679933946612,1113934967909066,0.72405005,7.15005,6.5809503
1679933946617,1113934970410989,0.75105006,7.2049503,6.663
1679933946618,1113934972913143,0.71505004,7.1280003,6.6390004
1679933946621,1113934975415508,0.90795004,7.15005,6.7390504
1679933946623,1113934977917662,0.79905003,7.0999503,6.73005
1679933946625,1113934980419893,0.82995003,7.1929502,6.7870502
1679933946627,1113934982922047,0.81495005,7.10895,6.74595
1679933946630,1113934985424206,0.79905003,7.0330505,6.7390504
1679933946632,1113934987926359,0.77205,7.1520004,6.7900505
1679933946635,1113934990428513,0.897,7.1959505,6.7630506
1679933946638,1113934992930667,0.906,7.1910005,6.813
1679933946641,1113934995433037,0.78705,7.07805,6.6510005
1679933946643,1113934997935191,0.89205,7.1449504,6.8089504
1679933946645,1113935000437344,0.88305,7.2240005,6.813
1679933946647,1113935002939575,0.88500005,7.2360005,6.70095
1679933946651,1113935005441729,0.91695005,7.1689506,6.9040504
1679933946654,1113935007943897,1.0009501,7.1070004,6.8419504
1679933946656,1113935010446051,0.82995003,7.1140504,6.8610005
1679933946658,1113935012948435,0.85095006,7.1329503,6.7939506
1679933946660,1113935015450589,0.93705004,7.2030005,6.8760004
1679933946662,1113935017952743,0.88305,7.1860504,6.74595
1679933946665,1113935020454892,0.88305,7.07595,6.945
1679933946668,1113935022957046,0.84705,7.116,6.8209505
1679933946671,1113935025459200,0.83895004,7.1670003,6.87795
1679933946673,1113935027961430,0.91995007,7.215,6.7219505
1679933946675,1113935030463589,0.873,7.1140504,6.7849503
1679933946678,1113935032965974,0.94395006,7.143,6.8299503
1679933946682,1113935035468128,0.96495,7.26,6.8179502
1679933946683,1113935037970282,0.89205,7.0969505,6.8160005
1679933946686,1113935040472446,0.99705005,7.3099504,6.9330006
1679933946688,1113935042974676,0.91005003,7.1599503,6.7849503
1679933946693,1113935045476830,0.906,7.2310505,6.8179502
1679933946694,1113935047978984,0.90795004,7.14795,6.8809505
1679933946695,1113935050481123,0.873,7.1910005,6.972
1679933946697,1113935052983277,0.92700005,7.21005,6.7939506
1679933946701,1113935055485431,0.79905003,7.0590005,6.852
1679933946702,1113935057987584,0.897,7.1790004,6.86595
1679933946705,1113935060490046,0.84900004,7.1520004,6.8610005
1679933946708,1113935062992200,0.91995007,7.2310505,6.8040004
1679933946711,1113935065494277,0.90405005,7.2390003,6.9040504
1679933946712,1113935067996508,0.94395006,7.215,6.93795
1679933946715,1113935070498661,0.91995007,7.2960005,6.8490005
1679933946719,1113935073000815,0.94905007,7.2510004,6.945
1679933946721,1113935075503200,0.99705005,7.1860504,6.8899503
1679933946723,1113935078005354,1.0009501,7.2360005,6.7920003
1679933946726,1113935080507508,0.88695,7.32705,6.8089504
1679933946729,1113935083009671,0.87495005,7.1980505,6.77505
1679933946732,1113935085511825,1.044,7.155,6.7320004
1679933946734,1113935088013979,1.0200001,7.1670003,6.7369504
1679933946735,1113935090516210,1.03695,7.3060503,6.7540503
1679933946738,1113935093018594,0.96795005,7.1620502,6.80595
1679933946741,1113935095520518,0.975,7.2000003,6.7510505
1679933946742,1113935098022902,0.94395006,7.143,6.7510505
1679933946745,1113935100525056,1.023,7.1719503,6.6889505
1679933946747,1113935103027210,0.975,7.0660505,6.7870502
1679933946750,1113935105529364,0.9889501,7.1599503,6.6600003
1679933946752,1113935108031590,0.98505,7.071,6.67005
1679933946755,1113935110533743,0.91005003,7.09005,6.7630506
1679933946760,1113935113035897,1.0030501,7.04895,6.708
1679933946761,1113935115538065,1.0009501,7.071,6.5809503
1679933946763,1113935118040219,0.94605005,7.03695,6.6270003
1679933946766,1113935120542604,0.91005003,7.0609503,6.74595
1679933946768,1113935123044527,0.9799501,7.0210505,6.7540503
1679933946771,1113935125546954,0.99705005,7.0470004,6.7489505
1679933946773,1113935128049108,0.90195006,6.9490504,6.7320004
1679933946775,1113935130551262,0.87795,7.0230002,6.7390504
1679933946778,1113935133053416,0.9580501,6.9900002,6.6670504
1679933946781,1113935135555570,0.88005006,7.083,6.64095
1679933946783,1113935138057719,0.88695,7.03695,6.74595
1679933946785,1113935140560104,0.90795004,7.0210505,6.73005
1679933946788,1113935143062258,0.83205,7.0300503,6.74595
1679933946790,1113935145564412,0.85905004,7.0350003,6.7780504
1679933946792,1113935148066643,0.85605,7.0350003,6.7219505
1679933946795,1113935150568791,0.87105006,7.0519505,6.663
1679933946801,1113935153070868,0.81795,7.0470004,6.74595
1679933946802,1113935155573330,0.837,7.03695,6.7060504
1679933946805,1113935158075465,0.804,7.0690503,6.5670004
1679933946807,1113935160577619,0.777,7.0129504,6.6270003
1679933946809,1113935163079772,0.76500005,6.9990005,6.6940503
1679933946812,1113935165581926,0.74805003,7.0230002,6.7540503
1679933946816,1113935168084080,0.75795,7.0590005,6.6790504
1679933946818,1113935170586229,0.768,7.01805,6.7440004
1679933946820,1113935173088460,0.873,7.1640005,6.70095
1679933946821,1113935175590614,0.77205,7.116,6.7099504
1679933946823,1113935178092998,0.73905003,7.0999503,6.83505
1679933946825,1113935180594921,0.82005006,7.1959505,6.7939506
1679933946828,1113935183097320,0.777,7.25505,6.83505
1679933946830,1113935185599474,0.82695,7.1910005,6.74205
1679933946833,1113935188101705,0.79200006,7.28205,6.768
1679933946835,1113935190603858,0.837,7.3780503,6.7699504
1679933946839,1113935193106012,0.78900003,7.2700505,6.7849503
1679933946843,1113935195608166,0.86805004,7.3780503,6.8040004
1679933946844,1113935198110320,0.77205,7.3080006,6.7579503
1679933946846,1113935200612710,0.88005006,7.2049503,6.7819505
1679933946848,1113935203114863,0.83895004,7.26,6.8689504
1679933946851,1113935205617017,0.87495005,7.3440003,6.7249503
1679933946853,1113935208119171,0.90795004,7.29405,6.7200003
1679933946855,1113935210621325,0.95100003,7.3300505,6.7630506
1679933946857,1113935213123479,0.98205006,7.4130006,6.7489505
1679933946861,1113935215625710,0.897,7.3560004,6.7489505
1679933946862,1113935218127863,0.837,7.2750006,6.80595
1679933946865,1113935220630017,0.92700005,7.3060503,6.84705
1679933946868,1113935223132195,0.91005003,7.2000003,6.7320004
1679933946871,1113935225634580,0.95595,7.1929502,6.73395
1679933946873,1113935228136503,0.92205006,7.2910504,6.7579503
1679933946875,1113935230638964,0.92205006,7.1929502,6.71295
1679933946880,1113935233141079,0.95295006,7.2840004,6.7969503
1679933946882,1113935235643233,0.94605005,7.24095,6.768
1679933946885,1113935238201925,0.87795,7.2720003,6.7870502
1679933946887,1113935240647541,0.88995004,7.2340503,6.8569503
1679933946888,1113935243149695,0.99705005,7.1740503,6.7180505
1679933946891,1113935245652060,0.99705005,7.1310005,6.7489505
1679933946893,1113935248154214,1.008,7.1929502,6.84495
1679933946895,1113935250656368,0.915,7.2430506,6.8710504
1679933946898,1113935253158599,0.97305006,7.1620502,6.7969503
1679933946901,1113935255660753,0.95595,7.0930505,6.7939506
1679933946903,1113935258162821,0.9289501,7.083,6.8490005
1679933946905,1113935260665051,0.975,7.176,6.78
1679933946908,1113935263167436,0.99405,7.0729504,6.71295
1679933946911,1113935265669590,0.9580501,7.22205,6.7939506
1679933946913,1113935268171744,0.88500005,7.1239505,6.8299503
1679933946918,1113935270673912,0.86100006,7.1359506,6.7579503
1679933946921,1113935273176065,0.92205006,7.07805,6.78
1679933946924,1113935275677160,0.92505,7.15005,6.8110504
1679933946925,1113935278178239,0.84705,7.1929502,6.7489505
1679933946929,1113935280682623,0.89205,7.0609503,6.7510505
1679933946930,1113935283185007,0.9990001,7.2120004,6.813
1679933946932,1113935285686931,0.88005006,7.1190004,6.8569503
1679933946933,1113935288189084,0.91695005,7.1670003,6.77295
1679933946936,1113935290691474,0.93900007,7.08795,6.7320004
1679933946938,1113935293193628,0.98505,7.15005,6.7390504
1679933946941,1113935295695859,0.99195004,7.1839504,6.7219505
1679933946943,1113935298198013,0.98205006,7.07805,6.7969503
1679933946945,1113935300700161,0.93195003,7.1929502,6.74205
1679933946948,1113935303202315,0.98700005,7.248,6.7969503
1679933946951,1113935305704469,1.00605,7.26,6.74205
1679933946954,1113935308206623,1.03005,7.1980505,6.7560005
1679933946957,1113935310708994,0.88005006,7.1310005,6.7870502
1679933946959,1113935313211224,1.0129501,7.1620502,6.8760004
1679933946962,1113935315713301,0.9889501,7.2390003,6.7249503
1679933946963,1113935318215532,1.0200001,7.31505,6.7540503
1679933946965,1113935320717686,1.0030501,7.287,6.7849503
1679933946968,1113935323219849,0.95295006,7.2340503,6.7510505
1679933946971,1113935325722003,0.97005004,7.3030505,6.71295
1679933946973,1113935328224387,0.95295006,7.25505,6.6150002
1679933946976,1113935330726541,0.88305,7.3369503,6.77505
1679933946978,1113935333228700,0.95295006,7.24095,6.71295
1679933946980,1113935335730854,0.9289501,7.2580504,6.7320004
1679933946983,1113935338233008,0.897,7.2720003,6.7060504
1679933946985,1113935340735161,0.94605005,7.2670503,6.7969503
1679933946988,1113935343237392,0.97005004,7.1599503,6.6550503
1679933946992,1113935345739546,1.0489501,7.2630005,6.7270503
1679933946994,1113935348241931,0.9889501,7.2670503,6.70305
1679933946996,1113935350744085,0.9580501,7.3390503,6.7990503
1679933946999,1113935353246204,0.92205006,7.2670503,6.7560005
1679933947002,1113935355748358,0.93195003,7.3009505,6.7870502
1679933947003,1113935358250589,0.93705004,7.2720003,6.7900505
1679933947005,1113935360752743,0.9289501,7.3420506,6.7990503
1679933947008,1113935363254897,0.897,7.2840004,6.76095
1679933947011,1113935365757071,1.03005,7.26,6.8230505
1679933947015,1113935368259224,0.915,7.25295,6.852
1679933947016,1113935370761609,0.85395,7.32495,6.8640003
1679933947018,1113935373263532,0.90405005,7.3030505,6.8419504
1679933947021,1113935375765926,0.87495005,7.2510004,6.8539505
1679933947023,1113935378268157,0.90405005,7.2910504,6.9040504
1679933947025,1113935380770233,0.87105006,7.3320003,6.8929505
1679933947031,1113935383272459,0.88995004,7.25505,6.708
1679933947033,1113935385774613,0.86805004,7.29405,6.9210005
1679933947035,1113935388276767,0.89205,7.25505,6.7780504
1679933947036,1113935390779152,0.89505005,7.32705,6.7780504
1679933947039,1113935393281305,0.82995003,7.2310505,6.8640003
1679933947042,1113935395783421,0.83895004,7.2720003,6.9139504
1679933947044,1113935398285575,0.85605,7.34595,6.7579503
1679933947046,1113935400787729,0.86100006,7.3080006,6.76095
1679933947048,1113935403289883,0.87795,7.2910504,6.6990004
1679933947051,1113935405792114,0.91695005,7.3099504,6.7219505
1679933947053,1113935408294527,0.86595005,7.3009505,6.7780504
1679933947055,1113935410796681,0.90795004,7.22205,6.7780504
1679933947058,1113935413298835,0.83895004,7.3060503,6.6790504
1679933947061,1113935415800989,0.89895004,7.35405,6.8250003
1679933947063,1113935418303152,0.97305006,7.2889504,6.6550503
1679933947067,1113935420805305,0.87105006,7.2190504,6.6670504
1679933947069,1113935423307536,0.94905007,7.2169504,6.768
1679933947071,1113935425809690,0.93705004,7.3009505,6.7819505
1679933947074,1113935428311830,0.975,7.32,6.74205
1679933947076,1113935430813984,0.90195006,7.2120004,6.7560005
1679933947079,1113935433316138,0.88305,7.3369503,6.7099504
1679933947082,1113935435818522,0.85395,7.2910504,6.7870502
1679933947084,1113935438320690,0.94905007,7.2840004,6.8089504
1679933947086,1113935440822844,0.86805004,7.32705,6.78
1679933947088,1113935443325075,0.88500005,7.25295,6.70305
1679933947091,1113935445827229,0.915,7.287,6.87795
1679933947093,1113935448329382,0.90795004,7.31505,6.7510505
1679933947096,1113935450831503,0.837,7.1980505,6.83505
1679933947100,1113935453333657,0.88005006,7.2360005,6.7099504
1679933947102,1113935455836042,0.90195006,7.2670503,6.7060504
1679933947105,1113935458338196,0.93900007,7.3560004,6.7849503
1679933947106,1113935460840350,0.89205,7.1959505,6.7390504
1679933947108,1113935463342503,0.88005006,7.1740503,6.6240005
1679933947111,1113935465844734,0.93900007,7.2910504,6.7369504
1679933947113,1113935468346811,0.92700005,7.2510004,6.6910505
1679933947116,1113935470849297,0.88995004,7.28205,6.71295
1679933947119,1113935473351450,0.82305,7.188,6.6150002
1679933947122,1113935475853604,0.82005006,7.32,6.70305
1679933947124,1113935478355758,0.95295006,7.2070503,6.67005
1679933947126,1113935480857940,0.81795,7.21005,6.6049504
1679933947128,1113935483360094,0.78705,7.2340503,6.7870502
1679933947131,1113935485862248,0.88500005,7.143,6.7390504
1679933947134,1113935488364479,0.82305,7.2360005,6.9040504
1679933947135,1113935490866632,0.79905003,7.3440003,6.74205
1679933947138,1113935493369017,0.82005006,7.155,6.7780504
1679933947142,1113935495870940,0.897,7.1860504,6.7579503
1679933947144,1113935498373325,0.88995004,7.15005,6.7219505
1679933947146,1113935500875498,0.84405005,7.1260505,6.6990004
1679933947148,1113935503377728,0.88005006,7.25505,6.6990004
1679933947151,1113935505879882,0.80595005,7.1689506,6.74205
1679933947156,1113935508382036,0.88695,7.25295,6.6870003
1679933947156,1113935510884190,0.90795004,7.00395,6.8179502
1679933947159,1113935513386589,0.91305006,7.143,6.84495
1679933947161,1113935515888743,0.85095006,7.1520004,6.73395
1679933947163,1113935518390897,0.82500005,7.2460504,6.8419504
1679933947165,1113935520893051,0.93900007,7.1689506,6.6889505
1679933947168,1113935523395210,0.91005003,7.2510004,6.7699504
1679933947171,1113935525897364,0.91695005,7.2580504,6.768
1679933947173,1113935528399595,0.89895004,7.14795,6.708
1679933947175,1113935530901748,0.9289501,7.1980505,6.7990503
1679933947179,1113935533404133,0.87495005,7.227,6.7200003
1679933947182,1113935535906287,0.92205006,7.3009505,6.77505
1679933947185,1113935538408210,0.93195003,7.3339505,6.8490005
1679933947186,1113935540910595,0.88305,7.2889504,6.8280005
1679933947188,1113935543412748,0.96300006,7.24095,6.70095
1679933947191,1113935545914974,0.97695005,7.28205,6.7849503
1679933947193,1113935548417128,0.96795005,7.2430506,6.5809503
1679933947196,1113935550919282,0.96105003,7.21005,6.77295
1679933947200,1113935553421436,0.93705004,7.3609505,6.7780504
1679933947202,1113935555923552,0.97305006,7.2649503,6.80205
1679933947203,1113935558425705,0.94095004,7.1929502,6.7369504
1679933947206,1113935560928090,0.96495,7.1329503,6.6840005
1679933947208,1113935563430321,1.00605,7.1790004,6.8160005
1679933947211,1113935565932508,0.91305006,7.1689506,6.8419504
1679933947213,1113935568434585,1.0129501,7.2430506,6.7200003
1679933947218,1113935570936815,1.0009501,7.2289505,6.7969503
1679933947220,1113935573438969,0.99405,7.2289505,6.8089504
1679933947222,1113935575941123,0.94905007,7.22205,6.7870502
1679933947223,1113935578443508,0.93195003,7.22205,6.7870502
1679933947226,1113935580945662,0.90795004,7.2340503,6.84705
1679933947228,1113935583447815,0.96795005,7.2720003,6.7939506
1679933947231,1113935585949969,1.047,7.0729504,6.6910505
1679933947233,1113935588452133,0.95100003,7.2240005,6.6990004
1679933947236,1113935590954287,0.89505005,7.143,6.6870003
1679933947239,1113935593456749,0.91995007,7.2310505,6.7219505
1679933947242,1113935595958672,0.906,7.2910504,6.7219505
1679933947243,1113935598461070,0.93405,7.2580504,6.7560005
1679933947245,1113935600963224,0.86100006,7.1400003,6.7219505
1679933947248,1113935603465378,0.82305,7.1520004,6.62895
1679933947252,1113935605967532,0.84405005,7.25295,6.76095
1679933947255,1113935608469671,0.85905004,7.07805,6.8179502
1679933947256,1113935610971901,0.82305,7.28205,6.708
1679933947259,1113935613474055,0.87495005,7.176,6.873
1679933947261,1113935615976209,0.88695,7.2580504,6.7699504
1679933947265,1113935618478363,0.84195006,7.2310505,6.7699504
1679933947266,1113935620980517,0.85605,7.10895,6.7390504
1679933947268,1113935623482901,0.84405005,7.188,6.78
1679933947271,1113935625985055,0.84900004,7.2030005,6.68205
1679933947273,1113935628487286,0.85605,7.09005,6.8899503
1679933947276,1113935630989450,0.81795,7.18095,6.8230505
1679933947279,1113935633491604,0.83895004,7.1400003,6.8209505
1679933947281,1113935635993758,0.79200006,7.1980505,6.8209505
1679933947283,1113935638495911,0.813,7.0969505,6.7819505
1679933947286,1113935640998065,0.74805003,7.0849504,6.84705
1679933947288,1113935643500450,0.777,7.2030005,6.7660503
1679933947293,1113935646002604,0.76500005,7.227,6.77295
1679933947294,1113935648504758,0.73605,7.1070004,6.76095
1679933947296,1113935651006973,0.82005006,7.09005,6.852
1679933947298,1113935653509050,0.777,7.0519505,6.7560005
1679933947301,1113935656011204,0.78195006,7.1569505,6.74595
1679933947303,1113935658513666,0.78000003,7.0810504,6.86595
1679933947306,1113935661015820,0.82005006,7.143,6.8370004
1679933947308,1113935663517983,0.78705,7.1689506,6.7849503
1679933947311,1113935666020137,0.86595005,7.08795,6.6460505
1679933947313,1113935668522291,0.78705,7.09005,6.7489505
1679933947316,1113935671024445,0.76305,7.0300503,6.84495
1679933947319,1113935673526681,0.81795,7.1400003,6.7990503
1679933947322,1113935676028835,0.87495005,7.011,6.8110504
1679933947324,1113935678530988,0.85095006,7.1599503,6.7540503
1679933947327,1113935681033373,0.837,7.083,6.8569503
1679933947330,1113935683535286,0.92505,7.14795,6.813
1679933947336,1113935686037671,0.83895004,7.0350003,6.70305
1679933947338,1113935688539825,0.84195006,7.0609503,6.7699504
1679933947339,1113935691042055,0.813,7.0420504,6.77505
1679933947340,1113935693544209,0.86100006,7.0420504,6.6940503
1679933947342,1113935696046378,0.90405005,7.083,6.70095
1679933947343,1113935698548532,0.90405005,7.0729504,6.83505
1679933947345,1113935701050686,0.897,6.9559503,6.8160005
1679933947348,1113935703552840,0.915,7.0540504,6.7939506
1679933947351,1113935706055209,0.92205006,6.9750004,6.768
1679933947353,1113935708557440,0.96105003,7.04895,6.8179502
1679933947355,1113935711059517,0.90405005,7.0930505,6.7249503
1679933947359,1113935713561671,0.95295006,7.0230002,6.7440004
1679933947362,1113935716063907,0.94605005,7.1140504,6.7699504
1679933947364,1113935718566061,0.9990001,7.0639505,6.7870502
1679933947368,1113935721068214,1.011,7.01805,6.7510505
1679933947371,1113935723570599,0.915,7.0810504,6.7200003
1679933947372,1113935726072782,0.88005006,7.0230002,6.6990004
1679933947374,1113935728574936,0.92205006,7.1310005,6.6870003
1679933947377,1113935731077090,0.94095004,7.071,6.7219505
1679933947378,1113935733579243,0.89205,7.1790004,6.68205
1679933947381,1113935736081397,0.94095004,7.05705,6.7489505
1679933947383,1113935738583854,0.91695005,7.1599503,6.7390504
1679933947385,1113935741085777,0.93900007,7.0639505,6.7870502
1679933947388,1113935743588161,0.94395006,7.1140504,6.7540503
1679933947391,1113935746090315,0.94905007,7.0999503,6.6990004
1679933947393,1113935748592469,0.92505,7.155,6.7200003
1679933947396,1113935751094613,0.92205006,7.143,6.7099504
1679933947399,1113935753596844,0.88005006,7.1569505,6.7200003
1679933947402,1113935756098998,0.92505,7.0350003,6.675
1679933947405,1113935758601148,0.94905007,6.9870005,6.7510505
1679933947407,1113935761103301,0.906,7.09005,6.6889505
1679933947409,1113935763605455,0.87795,7.01805,6.7699504
1679933947411,1113935766107609,0.79200006,7.0849504,6.768
1679933947413,1113935768609763,0.92700005,7.0810504,6.7489505
1679933947415,1113935771112148,0.90405005,7.1140504,6.6550503
1679933947418,1113935773614378,0.80595005,7.0950003,6.6840005
1679933947421,1113935776116532,0.79200006,7.1260505,6.70095
1679933947423,1113935778618609,0.897,7.1740503,6.6840005
1679933947426,1113935781120825,0.80100006,7.1569505,6.708
1679933947428,1113935783622979,0.777,7.0210505,6.7510505
1679933947431,1113935786125363,0.82995003,7.1239505,6.6510005
1679933947434,1113935788627517,0.768,7.0540504,6.67005
1679933947436,1113935791129657,0.87495005,7.0690503,6.70095
1679933947439,1113935793631811,0.85905004,7.1359506,6.64305
1679933947443,1113935796133965,0.76995003,7.0279503,6.696
1679933947445,1113935798636119,0.75795,7.07595,6.708
1679933947446,1113935801138243,0.83895004,7.0609503,6.8089504
1679933947449,1113935803640705,0.82995003,7.0729504,6.7990503
1679933947452,1113935806142628,0.79905003,7.10895,6.7060504
1679933947454,1113935808644782,0.837,7.0519505,6.6529503
1679933947455,1113935811146936,0.78000003,7.0230002,6.7099504
1679933947458,1113935813649310,0.75795,7.071,6.78
1679933947461,1113935816151464,0.84900004,7.1239505,6.7560005
1679933947463,1113935818653618,0.88305,7.1520004,6.78
1679933947467,1113935821155849,0.93900007,7.1119504,6.7390504
1679933947469,1113935823657994,0.86100006,7.1329503,6.78
1679933947471,1113935826160148,0.915,7.04505,6.74595
1679933947473,1113935828662532,0.92205006,7.143,6.7969503
1679933947476,1113935831164686,0.92205006,7.1050506,6.7440004
1679933947482,1113935833666806,0.93405,7.1239505,6.7660503
1679933947486,1113935838668960,0.873,7.1050506,6.7630506
1679933947487,1113935838832729,0.95595,7.116,6.7920003
1679933947489,1113935841173267,0.99705005,7.2990003,6.852
1679933947490,1113935843675498,1.00605,7.116,6.8590503
1679933947492,1113935846177652,1.0320001,7.176,6.7849503
1679933947494,1113935848679806,1.047,7.155,6.8160005
1679933947496,1113935851182191,0.99705005,7.15005,7.0219502
1679933947499,1113935853684344,1.04205,7.188,6.885
1679933947502,1113935856186498,1.011,7.1790004,6.73005
1679933947503,1113935858688652,1.047,7.1790004,6.78
1679933947506,1113935861190883,1.0849501,7.2430506,6.78
1679933947509,1113935863693037,1.07595,7.2030005,6.73005
1679933947511,1113935866195191,1.0350001,7.248,6.9810004
1679933947513,1113935868697344,1.03995,7.2510004,6.8760004
1679933947517,1113935871199729,1.15005,7.1860504,6.8610005
1679933947520,1113935873701652,1.1380501,7.2580504,6.852
1679933947523,1113935876204037,1.056,7.1959505,6.8950505
1679933947525,1113935878727430,1.0489501,7.1569505,6.8710504
1679933947527,1113935881208430,1.059,7.0660505,6.84495
1679933947529,1113935883710584,1.1329501,7.1640005,6.7990503
1679933947531,1113935886212738,1.0519501,7.1359506,6.87795
1679933947535,1113935888714892,1.116,7.071,7.0069504
1679933947536,1113935891217042,1.1020501,7.0230002,6.8569503
1679933947539,1113935893719426,1.044,7.0210505,6.7849503
1679933947541,1113935896221580,1.059,7.0350003,6.91905
1679933947544,1113935898723734,1.02795,7.07805,6.80205
1679933947546,1113935901225916,1.0320001,6.9679503,6.86595
1679933947550,1113935903728070,1.03995,7.0470004,6.84
1679933947551,1113935906230224,1.056,6.9700503,6.9360003
1679933947555,1113935908732685,1.06095,7.04505,6.8160005
1679933947558,1113935911234839,1.09695,7.0470004,6.9280505
1679933947561,1113935913736993,1.0129501,6.9820504,6.77505
1679933947562,1113935916239147,1.0519501,7.011,6.8970003
1679933947564,1113935918741301,1.04205,6.9919505,6.8880005
1679933947566,1113935921243465,1.0830001,7.0470004,6.95205
1679933947570,1113935923745618,1.07295,6.9919505,6.9480004
1679933947572,1113935926247849,1.08,6.9919505,6.9280505
1679933947574,1113935928750003,1.09695,7.0350003,6.9330006
1679933947576,1113935931252152,1.0129501,7.03695,6.8160005
1679933947579,1113935933754306,1.092,7.01595,6.93795
1679933947582,1113935936256690,1.09695,6.9940505,6.90705
1679933947585,1113935938758844,1.164,7.04505,6.8970003
1679933947586,1113935941260998,1.1520001,7.03695,6.885
1679933947589,1113935943763215,1.1910001,7.14795,6.7630506
1679933947593,1113935946265369,1.1190001,7.0999503,6.7780504
1679933947595,1113935948767523,1.1380501,7.2000003,6.8640003
1679933947599,1113935951269690,1.21395,7.1620502,6.86595
1679933947601,1113935953771844,1.3050001,7.2120004,6.9550505
1679933947602,1113935956273998,1.2240001,7.071,6.9360003
1679933947604,1113935958776383,1.3099501,7.2289505,6.9570003
1679933947606,1113935961278537,1.317,7.176,7.0219502
1679933947609,1113935963780714,1.3050001,7.2070503,6.9600005
1679933947611,1113935966282945,1.31295,7.2340503,7.0270505
1679933947613,1113935968785022,1.21395,7.2430506,7.11
1679933947616,1113935971287253,1.26195,7.2390003,6.9690003
1679933947619,1113935973789638,1.33395,7.28205,7.0069504
1679933947621,1113935976291806,1.33395,7.2910504,6.94005
1679933947623,1113935978793960,1.2580501,7.3489504,7.00995
1679933947626,1113935981296114,1.38705,7.3300505,7.0309505
1679933947633,1113935983798248,1.38495,7.38,6.9810004
1679933947635,1113935986300402,1.3369501,7.2630005,6.972
1679933947637,1113935988802633,1.401,7.34595,6.9979506
1679933947638,1113935991304786,1.3920001,7.3630505,6.9570003
1679933947640,1113935993806940,1.3410001,7.2649503,6.9640503
1679933947642,1113935996309335,1.4110501,7.38,7.0360503
1679933947644,1113935998811258,1.3440001,7.3969502,7.0150504
1679933947646,1113936001313643,1.3270501,7.3750505,6.9670506
1679933947651,1113936003815796,1.31295,7.3630505,6.94005
1679933947652,1113936006318027,1.2889501,7.3489504,6.8640003
1679933947653,1113936008820219,1.317,7.3440003,6.9210005
1679933947656,1113936011322373,1.2600001,7.2460504,6.9810004
1679933947660,1113936013824527,1.332,7.3560004,7.05495
1679933947661,1113936016326681,1.36995,7.2910504,6.8880005
1679933947664,1113936018828825,1.2409501,7.3300505,6.8490005
1679933947668,1113936021331210,1.2049501,7.3009505,6.8539505
1679933947670,1113936023833441,1.2240001,7.31295,6.93795
1679933947673,1113936026335595,1.1209501,7.26,6.7870502
1679933947674,1113936028837687,1.09695,7.2649503,6.9160504
1679933947677,1113936031339917,1.15005,7.25505,6.7780504
1679933947680,1113936033842071,1.143,7.1310005,6.74205
1679933947682,1113936036344225,1.1209501,7.2390003,6.8280005
1679933947684,1113936038846610,1.0879501,7.071,6.7920003
1679933947686,1113936041348769,1.1230501,7.0300503,6.8760004
1679933947689,1113936043850922,1.03995,7.0350003,6.7630506
1679933947691,1113936046353076,1.07805,7.0660505,6.7369504
1679933947694,1113936048855230,0.95595,6.9630003,6.76095
1679933947697,1113936051357403,1.04205,6.9970503,6.77295
1679933947700,1113936053859865,0.93900007,6.9970503,6.7920003
1679933947702,1113936056361788,1.02495,7.0129504,6.6600003
1679933947705,1113936058864172,0.93900007,6.9700503,6.70095
1679933947707,1113936061366345,0.93405,7.0519505,6.8250003
1679933947710,1113936063868499,0.975,6.98505,6.696
1679933947712,1113936066370653,0.94905007,7.0210505,6.8160005
1679933947714,1113936068872884,1.0320001,6.9660006,6.70305
1679933947718,1113936071375003,1.047,7.0639505,6.74595
1679933947719,1113936073877157,0.89895004,7.0210505,6.7219505
1679933947722,1113936076379311,0.9289501,7.011,6.80595
1679933947725,1113936078881465,0.96105003,6.9990005,6.7489505
1679933947726,1113936081383619,0.93405,7.1260505,6.663
1679933947730,1113936083885778,0.975,7.0540504,6.7560005
1679933947732,1113936086388239,1.0200001,7.1119504,6.8710504
1679933947735,1113936088890393,0.94605005,7.1959505,6.6889505
1679933947736,1113936091392547,1.0030501,7.1740503,6.6670504
1679933947740,1113936093894668,1.02795,7.215,6.6550503
1679933947743,1113936096396822,1.0540501,7.1959505,6.636
1679933947745,1113936098898975,1.04205,7.1860504,6.76095
1679933947746,1113936101401360,0.97005004,7.3219504,6.6720004
1679933947752,1113936103903528,1.0710001,7.2340503,6.6910505
1679933947754,1113936106405682,1.095,7.2720003,6.6240005
1679933947755,1113936108907836,1.07595,7.2649503,6.71505
1679933947757,1113936111410066,1.03695,7.3099504,6.6600003
1679933947761,1113936113912220,1.008,7.2750006,6.68205
1679933947762,1113936116414398,1.131,7.28205,6.708
1679933947764,1113936118916552,1.03695,7.3030505,6.7099504
1679933947767,1113936121418706,0.9889501,7.3030505,6.59805
1679933947770,1113936123921090,0.95100003,7.215,6.68205
1679933947772,1113936126423009,1.0489501,7.35405,6.6600003
1679933947774,1113936128925470,0.96300006,7.39905,6.60795
1679933947776,1113936131427624,0.9289501,7.3060503,6.7060504
1679933947782,1113936133929778,0.91005003,7.3630505,6.6390004
1679933947783,1113936136431937,0.873,7.3819504,6.636
1679933947785,1113936138934091,0.873,7.3489504,6.7249503
1679933947787,1113936141436244,0.76305,7.2889504,6.6270003
1679933947789,1113936143938629,0.88305,7.452,6.6169505
1679933947791,1113936146440783,0.93405,7.3729506,6.6480002
1679933947794,1113936148942942,0.87495005,7.3780503,6.71505
1679933947797,1113936151445172,0.87495005,7.3729506,6.6600003
1679933947800,1113936153947326,0.837,7.38705,6.813
1679933947802,1113936156449403,0.88500005,7.35405,6.73005
1679933947803,1113936158951657,0.906,7.3369503,6.696
1679933947806,1113936161454042,0.95100003,7.2990003,6.7990503
1679933947810,1113936163956195,0.88500005,7.3440003,6.7489505
1679933947811,1113936166458349,0.88695,7.3729506,6.7699504
1679933947813,1113936168960503,0.87105006,7.2750006,6.7630506
1679933947818,1113936171462657,0.92505,7.3489504,6.7699504
1679933947821,1113936173964811,0.91695005,7.3320003,6.7390504
1679933947822,1113936176467042,0.93900007,7.2790504,6.70095
1679933947824,1113936178969183,0.99195004,7.3080006,6.74205
1679933947826,1113936181471567,1.06095,7.2649503,6.74595
1679933947832,1113936183973721,1.0159501,7.1520004,6.8089504
1679933947832,1113936186475875,1.0320001,7.1620502,6.73005
1679933947835,1113936188978029,1.0009501,7.2289505,6.7560005
1679933947837,1113936191480249,1.011,7.1520004,6.768
1679933947840,1113936193982403,1.0009501,7.1310005,6.6580505
1679933947842,1113936196484557,1.0900501,7.1790004,6.64305
1679933947844,1113936198986711,1.07805,7.0129504,6.6790504
1679933947846,1113936201488865,1.0009501,7.0609503,6.636
1679933947852,1113936203991019,1.11105,7.04505,6.7540503
1679933947853,1113936206493173,1.1040001,7.0999503,6.7920003
1679933947855,1113936208995538,1.09695,7.0660505,6.6889505
1679933947857,1113936211497769,1.0009501,7.0540504,6.6790504
1679933947860,1113936213999846,1.04205,7.00605,6.6529503
1679933947861,1113936216502077,1.06605,7.07805,6.6889505
1679933947863,1113936219004231,1.07295,7.0540504,6.5880003
1679933947866,1113936221506360,1.1190001,7.1310005,6.5719504
1679933947870,1113936224008745,1.06605,7.05705,6.6240005
1679933947872,1113936226510899,1.02795,7.0660505,6.6190505
1679933947874,1113936229013053,1.0030501,7.0729504,6.531
1679933947877,1113936231515192,1.0710001,7.1280003,6.6049504
1679933947879,1113936234017345,1.056,7.1719503,6.59595
1679933947882,1113936236519499,1.03695,7.0540504,6.576
1679933947883,1113936239021730,1.0900501,7.09005,6.5599504
1679933947886,1113936241523884,1.06605,7.1359506,6.5929503
1679933947890,1113936244026067,0.97005004,7.2430506,6.5119505
1679933947893,1113936246528451,0.9289501,7.1310005,6.6270003
1679933947895,1113936249030605,0.95295006,7.215,6.5140505
1679933947897,1113936251532759,1.03995,7.21005,6.6460505
1679933947900,1113936254034908,0.86295,7.1689506,6.6649504
1679933947901,1113936256537139,0.90795004,7.1640005,6.6270003
1679933947904,1113936259039293,0.9889501,7.1239505,6.6220503
1679933947906,1113936261541446,1.008,7.2510004,6.50505
1679933947910,1113936264043624,0.92505,7.1860504,6.5329504
1679933947911,1113936266545778,0.96300006,7.215,6.5740504
1679933947915,1113936269048163,0.90795004,7.3339505,6.5329504
1679933947918,1113936271550317,0.94905007,7.1860504,6.5860505
1679933947919,1113936274052547,0.98700005,7.1520004,6.67005
1679933947923,1113936276554682,0.88995004,7.1260505,6.5929503
1679933947925,1113936279056836,1.03695,7.0639505,6.6940503
1679933947927,1113936281558990,1.011,7.1400003,6.6529503
1679933947931,1113936284061134,1.0030501,7.1929502,6.6940503
1679933947933,1113936286563288,1.06095,7.15005,6.7920003
1679933947935,1113936289065672,1.07295,7.0969505,6.8160005
1679933947937,1113936291567826,1.164,7.22205,6.83505
1679933947939,1113936294069980,1.107,7.227,6.84495
1679933947941,1113936296572211,1.164,7.1449504,6.9310503
1679933947944,1113936299074288,1.212,7.1599503,7.0290003
1679933947946,1113936301576442,1.15005,7.12095,6.8929505
1679933947952,1113936304078903,1.2859501,7.1190004,6.9949503
1679933947954,1113936306581057,1.2529501,7.2120004,7.0270505
1679933947955,1113936309083211,1.3939501,7.1839504,6.9430504
1679933947957,1113936311585365,1.50405,7.188,7.1580005
1679933947960,1113936314087518,1.416,7.1329503,7.1250005
1679933947962,1113936316589672,1.5109501,7.15005,7.0669503
1679933947963,1113936319091826,1.4640001,7.1620502,7.1659503
1679933947969,1113936321594057,1.53795,7.1790004,6.9550505
1679933947971,1113936324096211,1.52295,7.14795,7.1269503
1679933947974,1113936326598619,1.61205,7.1140504,7.2010503
1679933947975,1113936329100543,1.6170001,7.22205,7.0410004
1679933947978,1113936331602696,1.58595,7.0810504,7.2060003
1679933947980,1113936334105081,1.61205,7.1959505,7.08195
1679933947982,1113936336607302,1.674,7.1790004,7.149
1679933947985,1113936339109456,1.7320501,7.1400003,7.0669503
1679933947986,1113936341611609,1.7389501,7.1140504,7.254
1679933947995,1113936344113763,1.74405,7.1310005,7.1920505
1679933947995,1113936346615917,1.8250501,7.0639505,7.1659503
1679933947995,1113936349118057,1.794,7.0590005,7.1970005
1679933947998,1113936351620211,1.7560501,7.0470004,7.14195
1679933948000,1113936354122595,1.8060001,7.011,7.21605
1679933948002,1113936356624749,1.86405,7.00395,7.25895
1679933948005,1113936359126903,1.84695,7.05705,7.2300005
1679933948007,1113936361629134,1.95,6.9540005,7.2060003
1679933948010,1113936364131288,1.9570501,7.0930505,7.254
1679933948012,1113936366633442,1.9429501,6.9679503,7.3090506
1679933948013,1113936369135810,2.01405,7.01805,7.2640505
1679933948016,1113936371637964,1.9860001,7.0399504,7.1700006
1679933948019,1113936374140118,2.046,6.906,7.31895
1679933948021,1113936376642272,2.15595,6.939,7.221
1679933948023,1113936379144426,2.05995,6.9679503,7.1800504
1679933948026,1113936381646609,2.12505,6.88395,7.3069506
1679933948030,1113936384149070,2.09805,7.0420504,7.22805
1679933948031,1113936386650993,2.15805,7.0810504,7.39305
1679933948034,1113936389153147,2.14395,6.9610505,7.4119506
1679933948038,1113936391655537,2.15295,6.9300003,7.2850504
1679933948041,1113936394157691,2.15805,6.9610505,7.46505
1679933948043,1113936396659844,2.18205,6.8869505,7.35195
1679933948044,1113936399161998,2.223,6.939,7.3740005
1679933948046,1113936401664229,2.2800002,6.8650503,7.2970505
1679933948050,1113936404166383,2.223,6.9580503,7.35195
1679933948051,1113936406668537,2.2440002,6.8050504,7.3159504
1679933948054,1113936409170691,2.26095,6.8509502,7.48395
1679933948056,1113936411672844,2.3400002,6.9540005,7.3759503
1679933948059,1113936414174998,2.29695,6.8599505,7.4670005
1679933948062,1113936416677383,2.2470002,6.91305,7.3450503
1679933948063,1113936419179537,2.32305,6.834,7.39095
1679933948066,1113936421681696,2.2729502,6.7759504,7.4550004
1679933948070,1113936424183849,2.259,6.8269506,7.386
1679933948072,1113936426686080,2.26305,6.73605,7.39305
1679933948074,1113936429188234,2.25195,6.78105,7.25895
1679933948077,1113936431690628,2.2800002,6.8269506,7.35195
1679933948083,1113936434192551,2.21595,6.7930503,7.3120503
1679933948085,1113936436693743,2.1340501,6.8050504,7.28805
1679933948085,1113936439194936,2.14905,6.8310003,7.2900004
1679933948088,1113936441699243,2.21805,6.7170005,7.3570504
1679933948090,1113936444201479,2.223,6.7000504,7.25895
1679933948091,1113936446703633,2.163,6.72795,7.2829504
1679933948094,1113936449205787,2.232,6.7450504,7.3549504
1679933948096,1113936451707940,2.2350001,6.7000504,7.2640505
1679933948100,1113936454210094,2.187,6.834,7.2570004
1679933948103,1113936456712248,2.1649501,6.7720504,7.2400503
1679933948104,1113936459214633,2.08095,6.834,7.2730503
1679933948107,1113936461716787,2.1700501,6.8269506,7.221
1679933948110,1113936464218959,2.0740502,6.879,7.1250005
1679933948112,1113936466721190,2.01405,6.7840505,7.14405
1679933948114,1113936469223344,2.1100502,6.9150004,7.1130004
1679933948119,1113936471725498,2.1010501,6.8959503,7.077
1679933948121,1113936474227657,2.02305,6.8479505,7.1250005
1679933948125,1113936476728849,2.0650501,6.83895,7.03905
1679933948126,1113936479230042,1.96395,6.88395,7.1370006
1679933948127,1113936481734349,1.8750001,6.90105,7.0720506
1679933948131,1113936484236503,1.8079501,6.7639503,7.00995
1679933948132,1113936486738652,1.8970501,6.7909503,6.9979506
1679933948135,1113936489240883,1.9350001,6.88395,7.08405
1679933948136,1113936491743036,1.96395,6.7980003,7.0600505
1679933948139,1113936494245190,1.8540001,6.8100004,7.1700006
1679933948141,1113936496747556,1.8250501,6.9660006,7.0480504
1679933948144,1113936499249710,1.7890501,6.939,7.1460004
1679933948146,1113936501751864,1.8060001,7.0519505,7.0150504
1679933948151,1113936504254017,1.7680501,6.9750004,7.0980005
1679933948152,1113936506756248,1.71,7.0210505,7.1460004
1679933948155,1113936509258402,1.65495,6.978,7.0270505
1679933948158,1113936511760556,1.6860001,6.9919505,6.9880505
1679933948161,1113936514262710,1.5810001,6.9490504,7.0669503
1679933948162,1113936516764873,1.58595,6.9820504,6.9690003
1679933948165,1113936519267026,1.5310501,6.9580503,7.0630503
1679933948167,1113936521769180,1.4779501,6.9420004,6.9690003
1679933948171,1113936524271642,1.5259501,6.9630003,6.945
1679933948173,1113936526773801,1.45905,6.9660006,6.9930005
1679933948175,1113936529275955,1.485,7.0930505,6.8950505
1679933948177,1113936531778108,1.4250001,6.9990005,6.9139504
1679933948179,1113936534280262,1.473,7.0399504,6.97905
1679933948181,1113936536782416,1.4989501,6.9490504,6.9
1679933948185,1113936539284816,1.4320501,6.867,6.94005
1679933948187,1113936541786970,1.33395,6.9630003,7.03905
1679933948190,1113936544289123,1.3369501,6.9220505,6.9619503
1679933948193,1113936546791277,1.2910501,6.91305,6.95205
1679933948194,1113936549293417,1.4059501,6.9990005,7.1010003
1679933948197,1113936551795571,1.4250001,6.7549505,7.0189505
1679933948200,1113936554297802,1.3080001,6.8550005,7.0789504
1679933948203,1113936556800186,1.3440001,6.846,7.0360503
1679933948205,1113936559302340,1.2859501,6.8820004,7.15605
1679933948206,1113936561804494,1.2930001,6.8479505,7.0789504
1679933948210,1113936564306648,1.21905,6.8770504,7.0150504
1679933948211,1113936566808802,1.21905,6.762,7.11
1679933948214,1113936569310956,1.2409501,6.7330503,7.1800504
1679933948216,1113936571813195,1.3369501,6.73605,7.1029506
1679933948220,1113936574315349,1.3990501,6.76695,7.1680503
1679933948221,1113936576817503,1.389,6.7429504,7.1029506
1679933948224,1113936579319657,1.2859501,6.7450504,7.149
1679933948226,1113936581821783,1.3290001,6.7050004,7.1340003
1679933948231,1113936584324168,1.3290001,6.7120504,7.1610003
1679933948233,1113936586826321,1.35105,6.6850505,7.0939503
1679933948235,1113936589328552,1.3579501,6.6660004,7.2400503
1679933948238,1113936591830677,1.3939501,6.64905,7.3639503
1679933948240,1113936594332831,1.41795,6.66405,7.1700006
1679933948242,1113936596834985,1.38705,6.6280503,7.1200504
1679933948244,1113936599337139,1.4130001,6.6109505,7.26105
1679933948246,1113936601839292,1.49205,6.60195,7.1940002
1679933948250,1113936604341658,1.5330001,6.63705,7.1629505
1679933948252,1113936606843812,1.4470501,6.6160502,7.14195
1679933948254,1113936609345966,1.4440501,6.54405,7.2829504
1679933948256,1113936611848196,1.401,6.5869503,7.2180004
1679933948260,1113936614350316,1.3369501,6.49905,7.1509504
1679933948262,1113936616852470,1.3579501,6.46995,7.2690005
1679933948264,1113936619354855,1.3440001,6.3739505,7.209
1679933948269,1113936621857009,1.4080501,6.4630504,7.1509504
1679933948271,1113936624359163,1.5259501,6.45795,7.2760506
1679933948273,1113936626861316,1.5670501,6.36,7.326
1679933948275,1113936629363470,1.5109501,6.3790503,7.2370505
1679933948278,1113936631865624,1.5139501,6.3570004,7.28805
1679933948281,1113936634367778,1.416,6.4099503,7.2370505
1679933948282,1113936636869956,1.4320501,6.36,7.3740005
1679933948284,1113936639372110,1.4610001,6.4339504,7.3330503
1679933948287,1113936641874494,1.5190501,6.34005,7.2850504
1679933948290,1113936644376417,1.57605,6.38595,7.3039503
1679933948292,1113936646878793,1.45395,6.46005,7.3830004
1679933948294,1113936649380947,1.5690001,6.46995,7.3330503
1679933948297,1113936651883178,1.45395,6.4030504,7.3069506
1679933948300,1113936654385331,1.5499501,6.42,7.28805
1679933948302,1113936656887485,1.5640501,6.453,7.4170504
1679933948305,1113936659389648,1.66005,6.4219503,7.3690505
1679933948308,1113936661891802,1.6140001,6.537,7.39095
1679933948310,1113936664393956,1.6380001,6.4960504,7.3639503
1679933948312,1113936666896110,1.7170501,6.5130005,7.4340005
1679933948314,1113936669398571,1.8180001,6.4960504,7.45305
1679933948318,1113936671900648,1.5450001,6.49905,7.45305
1679933948320,1113936674402879,1.53795,6.5730004,7.5199504
1679933948323,1113936676905038,1.60695,6.5869503,7.6369505
1679933948324,1113936679407192,1.5690001,6.6139503,7.5730505
1679933948326,1113936681909345,1.6810501,6.6160502,7.48395
1679933948330,1113936684411730,1.8709501,6.6730504,7.4670005
1679933948332,1113936686913884,1.84905,6.54195,7.5220504
1679933948335,1113936689416048,1.7869501,6.5680504,7.6129503
1679933948338,1113936691918202,1.8750001,6.6450005,7.53
1679933948340,1113936694420355,1.794,6.6060004,7.491
1679933948343,1113936696922509,1.7580001,6.6610503,7.6710005
1679933948345,1113936699424990,1.7220001,6.59205,7.623
1679933948347,1113936701926913,1.7989501,6.6709504,7.4820004
1679933948350,1113936704429298,1.81605,6.7570505,7.4670005
1679933948352,1113936706931451,1.7770501,6.6180005,7.5490503
1679933948354,1113936709433605,1.7370001,6.6280503,7.49805
1679933948359,1113936711935734,1.7389501,6.69705,7.4359503
1679933948360,1113936714437888,1.62195,6.6060004,7.3069506
1679933948362,1113936716940119,1.485,6.7380004,7.3570504
1679933948364,1113936719442273,1.64295,6.681,7.3740005
1679933948367,1113936721944426,1.7340001,6.57,7.3879504
1679933948370,1113936724446580,1.81095,6.6210003,7.3429503
1679933948372,1113936726948965,1.81095,6.537,7.3549504
1679933948377,1113936729451119,1.7989501,6.5149503,7.3830004
1679933948377,1113936731953273,1.7149501,6.4870505,7.4410505
1679933948381,1113936734455426,1.7220001,6.4429502,7.5079503
1679933948383,1113936736957580,1.71,6.5340004,7.4100003
1679933948385,1113936739459811,1.5589501,6.477,7.39305
1679933948387,1113936741962196,1.5469501,6.47205,7.491
1679933948390,1113936744464109,1.50405,6.5059505,7.635
1679933948391,1113936746966493,1.58595,6.5340004,7.3950005
1679933948394,1113936749468647,1.3579501,6.3760505,7.4170504
1679933948397,1113936751970801,1.3960501,6.42,7.5420003
1679933948400,1113936754472979,1.4490001,6.42,7.4790006
1679933948402,1113936756975133,1.44,6.321,7.3810506
1679933948408,1113936759477364,1.55505,6.3810005,7.49805
1679933948408,1113936761979748,1.54305,6.405,7.4700003
1679933948410,1113936764481671,1.4950501,6.3739505,7.46295
1679933948412,1113936766983830,1.401,6.3840003,7.4100003
1679933948414,1113936769486215,1.4760001,6.3450003,7.5130506
1679933948419,1113936771988369,1.3369501,6.1849504,7.458
1679933948421,1113936774490618,1.27005,6.3960004,7.48395
1679933948422,1113936776992772,1.30095,6.3910503,7.6009502
1679933948424,1113936779494926,1.3939501,6.3520503,7.6780505
1679933948426,1113936781997080,1.3770001,6.393,7.6590004
1679933948430,1113936784499234,1.34595,6.3310504,7.5850506
1679933948432,1113936787001431,1.365,6.29295,7.5610504
1679933948435,1113936789503815,1.3630501,6.32595,7.52505
1679933948437,1113936792005969,1.3560001,6.2730002,7.5990005
1679933948440,1113936794508123,1.248,6.3190503,7.5730505
1679933948442,1113936797010253,1.21905,6.3,7.5990005
1679933948444,1113936799512484,1.3270501,6.28305,7.5060005
1679933948447,1113936802014561,1.353,6.3190503,7.5130506
1679933948450,1113936804516791,1.3440001,6.25395,7.5850506
1679933948452,1113936807019176,1.4640001,6.2779503,7.6039505
1679933948455,1113936809521378,1.3579501,6.2449503,7.53
1679933948457,1113936812023532,1.4760001,6.25395,7.5370502
1679933948460,1113936814525686,1.3920001,6.28305,7.623
1679933948462,1113936817027839,1.35105,6.2760005,7.7640004
1679933948464,1113936819529984,1.4280001,6.1969504,7.77405
1679933948466,1113936822032215,1.45395,6.2400002,7.68795
1679933948470,1113936824534369,1.4299501,6.19005,7.767
1679933948472,1113936827036757,1.5160501,6.2590504,7.6590004
1679933948475,1113936829538681,1.4970001,6.23505,7.7310004
1679933948477,1113936832041065,1.48695,6.25395,7.839
1679933948480,1113936834543219,1.3729501,6.3360004,7.7359505
1679933948482,1113936837045373,1.29795,6.2419505,7.7209506
1679933948484,1113936839547604,1.3990501,6.3840003,7.86705
1679933948486,1113936842049757,1.437,6.3910503,7.9540505
1679933948490,1113936844551911,1.5499501,6.26595,7.89795
1679933948493,1113936847054041,1.5690001,6.3640504,7.8510003
1679933948495,1113936849556195,1.57395,6.3,7.8220506
1679933948497,1113936852058349,1.5450001,6.33795,7.8619504
1679933948500,1113936854560734,1.3920001,6.29505,8.04195
1679933948502,1113936857062964,1.49205,6.3289504,7.9819503
1679933948504,1113936859565027,1.4440501,6.3019505,8.03295
1679933948506,1113936862067258,1.6339501,6.333,8.14005
1679933948510,1113936864569412,1.6620001,6.3310504,8.241
1679933948512,1113936867071566,1.605,6.261,8.233951
1679933948514,1113936869573696,1.5520501,6.2689505,8.227051
1679933948519,1113936872076080,1.5690001,6.26595,8.2240505
1679933948521,1113936874578234,1.4970001,6.33795,8.229
1679933948524,1113936877080388,1.54305,6.2260504,8.29395
1679933948526,1113936879582562,1.6309501,6.288,8.191051
1679933948528,1113936882084716,1.7490001,6.2040005,8.398951
1679933948532,1113936884586946,1.7170501,6.18195,8.278951
1679933948535,1113936887089331,1.7389501,6.2040005,8.31
1679933948537,1113936889677422,1.7890501,6.15105,8.44005
1679933948538,1113936892093653,1.8540001,6.144,8.535001
1679933948541,1113936894595807,1.93305,6.0670505,8.574
1679933948543,1113936897097730,2.046,6.0720005,8.52105
1679933948544,1113936899600114,2.022,5.99805,8.63805
1679933948546,1113936902102345,2.055,5.99805,8.646001
1679933948550,1113936904604499,2.019,5.9089503,8.746051
1679933948552,1113936907106653,1.9930501,6.04605,8.77995
1679933948554,1113936909608807,1.93305,5.9620504,8.76105
1679933948557,1113936912110950,2.046,5.931,8.739
1679933948560,1113936914613335,2.1100502,6.0049505,8.575951
1679933948562,1113936917115258,2.11995,5.9430003,8.746051
1679933948564,1113936919617720,2.1700501,5.8950005,8.752951
1679933948569,1113936922119870,2.127,5.8450503,8.586
1679933948571,1113936924622023,2.26305,5.84205,8.713051
1679933948573,1113936927124177,2.42595,5.7559505,8.59095
1679933948576,1113936929626331,2.25195,5.7850504,8.619
1679933948577,1113936932128485,2.3040001,5.6839504,8.6310005
1679933948580,1113936934630888,2.49795,5.73705,8.823
1679933948582,1113936937133041,2.457,5.703,8.63595
1679933948584,1113936939635195,2.29005,5.61,8.47095
1679933948587,1113936942137349,2.436,5.60295,8.434951
1679933948590,1113936944639508,2.46495,5.6340003,8.434951
1679933948592,1113936947141662,2.4499502,5.61495,8.413051
1679933948594,1113936949643893,2.2009501,5.727,8.20695
1679933948598,1113936952146277,2.2039502,5.5740004,8.50695
1679933948601,1113936954648195,2.1049502,5.57595,8.533051
1679933948602,1113936957150580,2.2369502,5.4970503,8.349
1679933948606,1113936959652734,2.11305,5.4900002,8.34195
1679933948608,1113936962154888,2.0020502,5.466,8.20995
1679933948610,1113936964657065,2.187,5.5260005,8.245951
1679933948613,1113936967159296,2.15295,5.52405,8.20695
1679933948614,1113936969661450,2.091,5.58405,8.248051
1679933948619,1113936972163604,1.8679501,5.6269503,8.215051
1679933948622,1113936974665730,2.12895,5.60505,8.337001
1679933948623,1113936977167884,2.08095,5.6599503,8.334001
1679933948624,1113936979670268,2.0020502,5.5930505,8.0449505
1679933948627,1113936982172499,1.9020001,5.58795,8.203051
1679933948630,1113936984674576,1.57605,5.6670003,8.45205
1679933948632,1113936987176807,1.5259501,5.68905,8.382
1679933948635,1113936989678961,1.50195,5.7900004,8.175
1679933948638,1113936992181114,1.4760001,5.6389503,8.04195
1679933948641,1113936994683268,1.5450001,5.742,8.286
1679933948644,1113936997185422,1.5190501,5.73705,8.116051
1679933948646,1113936999687807,1.2930001,5.6119504,7.9750504
1679933948648,1113937002189961,1.19805,5.6959505,8.06595
1679933948651,1113937004692115,1.18095,5.7300005,8.04
1679933948653,1113937007194258,1.04205,5.63205,8.005051
1679933948654,1113937009696489,1.1380501,5.73705,7.8700504
1679933948659,1113937012198566,1.13505,5.7229505,7.96995
1679933948662,1113937014701028,1.143,5.71995,7.8859506
1679933948663,1113937017203204,1.2580501,5.60505,8.23095
1679933948664,1113937019705358,1.3800001,5.50005,8.085
1679933948668,1113937022207512,1.09695,5.6080503,8.002951
1679933948670,1113937024709666,1.13505,5.58405,8.16705
1679933948673,1113937027211907,1.11405,5.61,8.18595
1679933948675,1113937029714061,1.3080001,5.6790004,8.3560505
1679933948678,1113937032216214,1.2910501,5.5090504,8.20005
1679933948685,1113937034718373,1.2070501,5.466,8.083051
1679933948687,1113937037220527,1.26495,5.5069504,8.2240505
1679933948688,1113937039722681,1.284,5.4090004,8.248051
1679933948690,1113937042225066,1.18095,5.4300003,8.272051
1679933948692,1113937044727220,1.26195,5.43795,8.32695
1679933948694,1113937047229373,1.4419501,5.466,8.44695
1679933948695,1113937049731542,1.4059501,5.3710504,8.302951
1679933948697,1113937052233696,1.2430501,5.3710504,8.302951
1679933948699,1113937054735927,1.21905,5.4540005,8.158951
1679933948702,1113937057238311,1.23405,5.4469504,8.42805
1679933948704,1113937059740216,1.365,5.48295,8.514
1679933948707,1113937062242600,1.38705,5.47305,8.524051
1679933948711,1113937064744754,1.54005,5.38005,8.50905
1679933948713,1113937067246908,1.38705,5.3710504,8.454
1679933948714,1113937069749081,1.53495,5.28,8.422951
1679933948719,1113937072251235,1.3410001,5.38005,8.19795
1679933948721,1113937074753465,1.4280001,5.42805,8.385
1679933948724,1113937077255619,1.401,5.4090004,8.611951
1679933948726,1113937079757783,1.4110501,5.418,8.227051
1679933948728,1113937082259937,1.28205,5.385,8.31795
1679933948730,1113937084762322,1.32,5.3820004,8.205
1679933948733,1113937087264475,1.2580501,5.4229503,8.302951
1679933948734,1113937089766629,1.4110501,5.32305,8.31
1679933948737,1113937092268874,1.5310501,5.4019504,8.437051
1679933948740,1113937094771028,1.6789501,5.30595,8.37705
1679933948742,1113937097273182,1.5979501,5.37795,8.239051
1679933948744,1113937099775336,1.62195,5.2170005,8.370001
1679933948747,1113937102277475,1.5469501,5.23605,8.269951
1679933948754,1113937104779860,1.6000501,5.2440004,8.33895
1679933948757,1113937107282014,1.6789501,5.1769505,8.24295
1679933948759,1113937109784168,1.5979501,5.04195,8.23095
1679933948760,1113937112286302,1.44,5.1379504,8.253
1679933948763,1113937114788532,1.4280001,5.0830503,8.301001
1679933948764,1113937117290609,1.401,4.91505,8.03295
1679933948766,1113937119792840,1.404,5.0280004,8.06595
1679933948768,1113937122295225,1.3270501,5.04495,8.19795
1679933948770,1113937124797370,1.53795,4.95405,8.274
1679933948772,1113937127299523,1.6620001,4.8360004,8.205
1679933948774,1113937129801677,1.6720501,4.8630004,8.18595
1679933948777,1113937132303831,1.5949501,4.75005,8.337001
1679933948780,1113937134805980,1.6620001,4.8,8.254951
1679933948782,1113937137308211,1.7560501,4.83195,8.37495
1679933948785,1113937139810365,1.7530501,4.8289504,8.425051
1679933948787,1113937142312518,1.7839501,4.743,8.34195
1679933948790,1113937144814918,1.6360501,4.70895,8.11905
1679933948793,1113937147316841,1.6860001,4.75995,8.3869505
1679933948795,1113937149819226,1.7580001,4.6930504,8.526
1679933948798,1113937152321380,1.96395,4.81005,8.581051
1679933948802,1113937154823614,1.93305,4.7119503,8.59305
1679933948803,1113937157325768,1.8559501,4.6980004,8.62905
1679933948805,1113937159827922,1.9399501,4.6930504,8.535001
1679933948807,1113937162330076,1.88505,4.70895,8.500051
1679933948810,1113937164832230,1.8709501,4.72095,8.655001
1679933948812,1113937167334370,1.8829501,4.70895,8.64105
1679933948814,1113937169836754,1.8370501,4.77405,8.574
1679933948819,1113937172338985,1.81605,4.8240004,8.77005
1679933948822,1113937174841062,1.8250501,4.71705,8.691
1679933948823,1113937177343226,1.9039501,4.84095,8.524051
1679933948825,1113937179845457,1.9930501,4.875,8.734051
1679933948827,1113937182347610,2.1049502,4.7070003,8.59305
1679933948833,1113937184849754,1.9260001,4.7070003,8.610001
1679933948835,1113937187352139,1.9860001,4.72095,8.63595
1679933948838,1113937189854293,2.0020502,4.7980504,8.563951
1679933948840,1113937192356447,1.9159501,4.6980004,8.667001
1679933948843,1113937194858600,1.79595,4.755,8.581051
1679933948844,1113937197360749,1.9039501,4.7140503,8.502001
1679933948846,1113937199862903,1.9470001,4.63005,8.73705
1679933948847,1113937202365365,2.02305,4.58295,8.59305
1679933948850,1113937204867288,1.7410501,4.5799503,8.47095
1679933948852,1113937207369442,1.7010001,4.5589504,8.50395
1679933948854,1113937209871845,1.7220001,4.81995,8.64795
1679933948858,1113937212373768,1.86405,4.6420503,8.65995
1679933948862,1113937214876153,1.93095,4.65,8.6650505
1679933948864,1113937217378384,1.8919501,4.62795,8.646001
1679933948866,1113937219880538,1.899,4.55595,8.53995
1679933948869,1113937222382666,1.6020001,4.58505,8.59305
1679933948871,1113937224884820,1.52295,4.54395,8.667001
1679933948873,1113937227386974,1.61205,4.6090503,8.571
1679933948875,1113937229889118,1.6360501,4.6260004,8.610001
1679933948878,1113937232391272,1.62195,4.5679502,8.76105
1679933948881,1113937234893657,1.59,4.54395,8.55195
1679933948883,1113937237395887,1.64295,4.5799503,8.607
1679933948886,1113937239898041,1.60695,4.46805,8.50695
1679933948888,1113937242400118,1.4800501,4.4869504,8.50695
1679933948890,1113937244902349,1.365,4.4359503,8.467951
1679933948892,1113937247404503,1.4779501,4.43205,8.578951
1679933948895,1113937249906887,1.43505,4.4029503,8.545051
1679933948897,1113937252409027,1.4760001,4.4050503,8.607
1679933948901,1113937254911181,1.6339501,4.42395,8.586
1679933948903,1113937257413335,1.7010001,4.3099504,8.533051
1679933948906,1113937259915489,1.6720501,4.34805,8.542951
1679933948907,1113937262417609,1.7080501,4.27395,8.50905
1679933948910,1113937264919762,1.5259501,4.329,8.538
1679933948912,1113937267422224,1.605,4.3050003,8.455951
1679933948915,1113937269924378,1.5259501,4.2330003,8.545051
1679933948920,1113937272426296,1.5090001,4.2709503,8.51895
1679933948921,1113937274928681,1.57395,4.3240504,8.48505
1679933948924,1113937277430834,1.57095,4.2900004,8.36295
1679933948926,1113937279932988,1.58595,4.28595,8.44695
1679933948928,1113937282435219,1.5160501,4.2109504,8.46105
1679933948931,1113937284937388,1.6099501,4.2520504,8.32005
1679933948933,1113937287439542,1.59,4.257,8.28195
1679933948935,1113937289941696,1.6860001,4.23495,8.562
1679933948937,1113937292443849,1.7340001,4.2400503,8.44905
1679933948940,1113937294946007,1.593,4.314,8.46405
1679933948944,1113937297448469,1.5979501,4.254,8.433001
1679933948945,1113937299950546,1.62195,4.24695,8.401051
1679933948947,1113937302452777,1.6339501,4.2379503,8.370001
1679933948951,1113937304954935,1.74405,4.2190504,8.554951
1679933948952,1113937307457089,1.55505,4.1680503,8.51595
1679933948955,1113937309959243,1.5619501,4.1059504,8.455951
1679933948958,1113937312461397,1.6339501,4.1470504,8.44005
1679933948961,1113937314963787,1.6530001,4.09305,8.44905
1679933948962,1113937317465940,1.60695,4.1059504,8.574
1679933948965,1113937319968094,1.5690001,4.22295,8.50395
1679933948967,1113937322470248,1.6309501,4.1950502,8.490001
1679933948971,1113937324972402,1.6459501,4.2109504,8.512051
1679933948973,1113937327474551,1.7770501,4.20195,8.382
1679933948975,1113937329976782,1.7490001,4.1509504,8.48505
1679933948977,1113937332478935,1.5670501,4.1730003,8.418
1679933948981,1113937334981084,1.6500001,4.20405,8.47605
1679933948983,1113937337483238,1.746,4.1779504,8.3560505
1679933948985,1113937339985700,1.6669501,4.18695,8.554951
1679933948987,1113937342487854,1.6669501,4.23495,8.55
1679933948991,1113937344990007,1.6189501,4.1730003,8.569051
1679933948993,1113937347492181,1.5469501,4.2400503,8.547
1679933948995,1113937349994335,1.557,4.3570504,8.610001
1679933948998,1113937352496489,1.5690001,4.23495,8.740951
1679933949001,1113937354998643,1.60695,4.3429503,8.6980505
1679933949003,1113937357501031,1.5109501,4.3240504,8.667001
1679933949005,1113937360003185,1.57605,4.4149504,8.839951
1679933949007,1113937362505339,1.50195,4.3650002,8.68395
1679933949010,1113937365007493,1.41795,4.39305,8.667001
1679933949012,1113937367509724,1.38195,4.37895,8.731951
1679933949014,1113937370011898,1.401,4.3099504,8.64795
1679933949018,1113937372514282,1.3369501,4.39095,8.50395
1679933949021,1113937375016436,1.284,4.326,8.79195
1679933949023,1113937377518575,1.27005,4.386,8.722051
1679933949025,1113937380020729,1.2600001,4.3099504,8.64795
1679933949027,1113937382522883,1.21905,4.326,8.574
1679933949036,1113937385025036,1.2529501,4.26195,8.62905
1679933949037,1113937387527190,1.28205,4.36905,8.694
1679933949037,1113937390029416,1.27695,4.42395,8.530951
1679933949038,1113937392531570,1.365,4.27605,8.502001
1679933949040,1113937395033724,1.41795,4.2780004,8.569051
1679933949042,1113937397536108,1.4299501,4.20195,8.542951
1679933949045,1113937400038032,1.368,4.17495,8.64795
1679933949047,1113937402540416,1.3270501,4.254,8.67195
1679933949050,1113937405042647,1.401,4.2400503,8.575951
1679933949052,1113937407544801,1.3750501,4.14405,8.68395
1679933949056,1113937410046936,1.26705,4.17105,8.68605
1679933949057,1113937412549089,1.3249501,4.14195,8.74905
1679933949061,1113937415051243,1.4440501,4.09305,8.81295
1679933949062,1113937417553397,1.45395,4.089,8.646001
1679933949065,1113937420055782,1.437,4.08405,8.619
1679933949068,1113937422557931,1.50405,4.116,8.48295
1679933949070,1113937425060085,1.50405,4.02,8.60505
1679933949072,1113937427562315,1.5640501,4.0669503,8.63805
1679933949077,1113937430064392,1.5520501,4.0009503,8.65995
1679933949078,1113937432566638,1.641,4.077,8.701051
1679933949083,1113937435068792,1.7340001,3.9859502,8.59095
1679933949085,1113937437570946,1.7170501,4.0080004,8.610001
1679933949085,1113937440073330,1.6980001,3.96495,8.727
1679933949088,1113937442575484,1.725,4.02495,8.679001
1679933949090,1113937445077623,1.7869501,4.0339503,8.66205
1679933949094,1113937447579777,1.7839501,4.032,8.718
1679933949098,1113937450081931,1.86405,4.06005,8.79195
1679933949098,1113937452584161,1.95,4.08405,8.66205
1679933949101,1113937455086527,1.77495,4.0350003,8.59305
1679933949102,1113937457588450,1.9860001,4.06995,8.872951
1679933949105,1113937460090604,1.9210501,4.08705,8.809051
1679933949107,1113937462592989,2.046,4.1130004,8.847
1679933949110,1113937465095138,2.127,4.06995,8.83695
1679933949112,1113937467597291,2.1460502,4.09305,8.859
1679933949115,1113937470099522,2.09805,4.1989503,8.931001
1679933949118,1113937472601676,2.295,4.17495,8.920951
1679933949122,1113937477603816,2.23005,4.092,8.955001
1679933949124,1113937477706816,2.364,4.2109504,8.988001
1679933949126,1113937480108124,2.3070002,4.221,8.92605
1679933949128,1113937482610277,2.33295,4.1779504,8.95905
1679933949132,1113937485112662,2.4070501,4.104,9.055051
1679933949135,1113937487614816,2.3689501,4.15395,9.049951
1679933949136,1113937490116970,2.469,4.209,8.95905
1679933949137,1113937492619201,2.469,4.1950502,8.94495
1679933949140,1113937495121277,2.4810002,4.14405,8.94705
1679933949142,1113937497623513,2.4190502,4.15395,8.98305
1679933949146,1113937500125667,2.5129502,4.15905,8.9740505
1679933949148,1113937502628052,2.39805,4.14405,9.09795
1679933949150,1113937505130206,2.4840002,4.26195,9.141001
1679933949153,1113937507632359,2.4859502,4.15905,9.010051
1679933949154,1113937510134532,2.4409502,4.2109504,9.0379505
1679933949158,1113937512636686,2.4720001,4.2330003,9.061951
1679933949161,1113937515138840,2.4430501,4.1470504,9.031051
1679933949163,1113937517641056,2.46705,4.12305,8.919001
1679933949168,1113937520143210,2.4019501,4.09905,9.10095
1679933949169,1113937522645594,2.32605,4.15605,9.06
1679933949172,1113937525147517,2.26605,4.092,9.05805
1679933949174,1113937527649902,2.32305,4.12995,9.043051
1679933949176,1113937530152056,2.187,4.0410004,9.09105
1679933949178,1113937532654287,2.1679502,4.05105,9.141001
1679933949180,1113937535156440,2.1769502,4.0009503,9.12705
1679933949183,1113937537658589,2.19405,4.1200504,9.10095
1679933949185,1113937540160743,2.187,4.02495,9.11505
1679933949187,1113937542662897,2.223,4.06995,9.160951
1679933949190,1113937545165051,2.256,4.1200504,9.165
1679933949192,1113937547667205,2.187,4.08405,9.10305
1679933949195,1113937550169662,2.2060502,4.0740004,9.12705
1679933949198,1113937552671739,2.11995,4.1080503,9.06
1679933949203,1113937555173893,2.14905,4.1659503,9.0379505
1679933949205,1113937557676124,2.1319501,3.9960003,9.153001
1679933949206,1113937560178307,2.11305,3.9810002,8.979
1679933949208,1113937562680460,2.14395,4.09305,9.06495
1679933949212,1113937565182845,2.08605,4.09905,9.14595
1679933949214,1113937567684999,2.18895,4.1470504,9.019051
1679933949215,1113937570187153,2.08095,4.15395,9.0
1679933949218,1113937572689307,2.1460502,4.0459504,8.967
1679933949220,1113937575191460,2.05005,4.1470504,8.98305
1679933949222,1113937577693614,2.091,4.1389503,8.835
1679933949227,1113937580195845,2.11695,4.2109504,9.012
1679933949228,1113937582697994,2.21595,4.197,9.0070505
1679933949230,1113937585200379,2.08395,4.23,9.028951
1679933949232,1113937587702532,2.0380502,4.20405,8.94705
1679933949235,1113937590204686,2.0670002,4.15605,8.98095
1679933949239,1113937592706836,2.0740502,4.2190504,8.94705
1679933949241,1113937595208990,2.046,4.1659503,9.019051
1679933949244,1113937597711221,2.0400002,4.30695,9.06705
1679933949246,1113937600213375,2.0670002,4.1470504,8.871
1679933949248,1113937602715523,1.9810501,4.116,9.019051
1679933949252,1113937605217677,2.01,4.116,9.07005
1679933949254,1113937607720062,1.9429501,4.1800504,8.95905
1679933949255,1113937610221985,1.9350001,4.12305,9.052951
1679933949257,1113937612724370,2.0329502,4.1680503,8.976001
1679933949261,1113937615226648,1.9069501,4.1200504,9.085951
1679933949262,1113937617728802,1.9519501,4.14195,8.99295
1679933949265,1113937620230879,1.9429501,4.1059504,8.988001
1679933949267,1113937622733110,1.9380001,4.1730003,9.02595
1679933949271,1113937625235283,1.9740001,4.089,9.05805
1679933949272,1113937627737437,1.9470001,4.09905,9.010051
1679933949275,1113937630239821,1.9759501,4.1989503,8.91195
1679933949278,1113937632741975,1.8559501,4.12995,8.847
1679933949282,1113937635244134,1.9399501,4.1080503,8.967
1679933949285,1113937637746288,1.9279501,4.12305,9.02595
1679933949286,1113937640248519,1.8679501,4.05795,8.952001
1679933949288,1113937642750672,1.8870001,4.15605,8.928
1679933949290,1113937645252850,1.9020001,4.1389503,8.986051
1679933949292,1113937647755004,1.96905,4.2330003,9.02595
1679933949295,1113937650257158,1.9159501,4.08405,9.012
1679933949297,1113937652759312,1.9380001,4.1800504,8.93505
1679933949303,1113937655261697,1.8540001,4.2070503,8.93505
1679933949304,1113937657763840,1.95,4.14405,9.019051
1679933949313,1113937660265994,1.8750001,4.1389503,8.84895
1679933949314,1113937662768225,1.9780501,4.18305,8.955001
1679933949314,1113937665270379,2.01,4.18305,8.95005
1679933949314,1113937667772552,2.01195,4.18995,9.0379505
1679933949316,1113937670274706,2.08395,4.293,8.90205
1679933949320,1113937672777090,1.9860001,4.20195,8.98095
1679933949323,1113937675278142,2.046,4.2829504,8.991
1679933949323,1113937677779221,2.046,4.14405,9.11505
1679933949326,1113937680283528,2.1010501,4.2109504,9.12705
1679933949328,1113937682785682,2.1720002,4.34805,9.04605
1679933949330,1113937685287835,2.163,4.1730003,9.06
1679933949332,1113937687790076,2.14905,4.19205,9.12195
1679933949335,1113937690292230,2.09295,4.17105,9.06705
1679933949337,1113937692794615,2.184,4.149,9.117001
1679933949340,1113937695296769,2.1679502,4.221,9.048
1679933949342,1113937697798922,2.26605,4.14195,9.18
1679933949345,1113937700301090,2.2060502,4.18305,9.12705
1679933949347,1113937702803244,2.2009501,4.1389503,9.1369505
1679933949350,1113937705305475,2.295,4.03905,9.184951
1679933949352,1113937707807629,2.33295,4.07205,9.21105
1679933949356,1113937710309759,2.2800002,4.13205,9.108001
1679933949359,1113937712811912,2.25195,4.1130004,9.05805
1679933949361,1113937715314066,2.32605,4.0800004,9.043051
1679933949364,1113937717816220,2.3110502,4.12305,9.031051
1679933949365,1113937720318605,2.2800002,4.08705,8.95695
1679933949368,1113937722820841,2.3710501,4.17495,9.031051
1679933949370,1113937725322917,2.38995,4.13205,9.022051
1679933949372,1113937727825148,2.283,4.1470504,9.043051
1679933949375,1113937730327302,2.295,4.16295,8.964001
1679933949377,1113937732829431,2.3160002,4.1059504,8.872951
1679933949380,1113937735331816,2.39805,4.1350503,8.99295
1679933949382,1113937737833969,2.3449502,4.0960503,8.81805
1679933949385,1113937740336123,2.25195,4.06005,8.896951
1679933949387,1113937742838277,2.3809502,4.05105,8.842051
1679933949390,1113937745340431,2.39805,4.07205,8.920951
1679933949394,1113937747842585,2.3160002,4.09905,8.92605
1679933949396,1113937750344816,2.29695,4.05105,8.842051
1679933949398,1113937752847219,2.3040001,4.14195,8.8279505
1679933949402,1113937755349142,2.292,4.1470504,8.8279505
1679933949403,1113937757851527,2.19405,4.09305,8.81805
1679933949405,1113937760353681,2.2350001,4.197,8.896951
1679933949407,1113937762855835,2.08395,4.07205,8.878051
1679933949410,1113937765358007,2.2080002,4.09905,8.82495
1679933949413,1113937767860238,2.11695,4.09905,8.98095
1679933949416,1113937770362392,2.1769502,4.1509504,8.80095
1679933949418,1113937772864546,2.11695,4.0800004,9.06
1679933949420,1113937775366705,2.1370502,4.1200504,8.976001
1679933949422,1113937777868859,2.08905,4.02705,9.010051
1679933949426,1113937780371243,2.0050502,4.0020003,8.98305
1679933949428,1113937782873166,2.019,4.0740004,8.9740505
1679933949432,1113937785375522,2.01405,4.0800004,9.12495
1679933949435,1113937787877753,1.9879501,4.149,8.99505
1679933949436,1113937790379907,2.0380502,4.0470004,9.09105
1679933949438,1113937792882060,2.0770502,4.053,9.196951
1679933949441,1113937795384195,2.0329502,4.089,9.201
1679933949443,1113937797886349,2.0359502,4.11795,9.205951
1679933949445,1113937800388734,2.115,3.9810002,9.25395
1679933949448,1113937802890888,2.0380502,3.9550502,9.187051
1679933949450,1113937805393036,2.05305,4.056,9.333
1679933949452,1113937807895190,2.0719502,4.05795,9.13395
1679933949455,1113937810397421,2.1049502,4.089,9.288
1679933949457,1113937812899498,2.11305,3.969,9.22305
1679933949460,1113937815401960,2.151,4.089,9.285001
1679933949463,1113937817904089,2.1990001,4.0669503,9.240001
1679933949465,1113937820406013,2.15595,3.9480002,9.21105
1679933949469,1113937822908397,2.17995,4.0009503,9.273001
1679933949472,1113937825410546,2.184,3.92895,9.151051
1679933949474,1113937827912700,2.2080002,3.9529502,9.23505
1679933949476,1113937830414854,2.2369502,3.8860502,9.229951
1679933949478,1113937832917084,2.2420502,4.0410004,9.232051
1679933949481,1113937835419248,2.259,4.0080004,9.148951
1679933949483,1113937837921633,2.223,4.053,9.24405
1679933949485,1113937840423556,2.29695,3.9619503,9.204
1679933949487,1113937842925710,2.319,4.032,9.153001
1679933949490,1113937845428095,2.3449502,3.9,9.12495
1679933949493,1113937847930325,2.25405,4.02,9.11505
1679933949495,1113937850432402,2.29695,3.96495,9.12495
1679933949498,1113937852934633,2.223,3.9619503,9.153001
1679933949500,1113937855436787,2.17995,3.9529502,9.09795
1679933949503,1113937857938941,2.22795,3.9,9.12495
1679933949506,1113937860441085,2.17995,3.936,9.07905
1679933949508,1113937862943238,2.21805,3.9310503,8.955001
1679933949510,1113937865445623,2.15295,3.86595,9.10995
1679933949512,1113937867947777,2.2080002,3.8190002,9.052951
1679933949515,1113937870449931,2.11995,3.8899503,9.096001
1679933949518,1113937872952085,2.09805,3.8620503,9.05805
1679933949521,1113937875454315,2.14905,3.831,9.03405
1679933949523,1113937877956402,2.1720002,3.831,9.04605
1679933949525,1113937880458864,2.08905,3.7180502,9.11505
1679933949527,1113937882961018,2.1769502,3.8040001,9.0379505
1679933949530,1113937885463172,2.09295,3.6720002,8.991
1679933949532,1113937887965325,2.01195,3.7420502,8.98095
1679933949535,1113937890467479,2.1079502,3.7729502,9.129001
1679933949537,1113937892969633,2.08395,3.7159503,9.151051
1679933949540,1113937895471787,2.1769502,3.76605,9.08895
1679933949544,1113937897974018,2.1100502,3.7159503,9.08895
1679933949546,1113937900476187,2.15595,3.69405,9.031051
1679933949548,1113937902978340,2.1370502,3.696,8.99505
1679933949552,1113937905480725,2.1750002,3.69405,9.14595
1679933949553,1113937907982648,2.1409502,3.7369502,9.120001
1679933949556,1113937910485033,2.15595,3.6679502,9.172951
1679933949558,1113937912987274,2.14905,3.68895,9.11295
1679933949561,1113937915489427,2.1100502,3.6649501,9.09405
1679933949563,1113937917991581,2.1319501,3.6439502,9.10095
1679933949565,1113937920493735,2.223,3.6529503,9.307051
1679933949568,1113937922995889,2.1319501,3.6169503,9.285001
1679933949571,1113937925498033,2.1409502,3.5650501,9.3
1679933949574,1113937928000417,2.23005,3.5430002,9.333
1679933949576,1113937930502571,2.1720002,3.5530503,9.402
1679933949578,1113937933004725,2.259,3.4330502,9.4140005
1679933949582,1113937935506889,2.33505,3.4740002,9.405001
1679933949584,1113937938009120,2.364,3.4380002,9.474
1679933949586,1113937940511274,2.3089502,3.4330502,9.40005
1679933949588,1113937943013427,2.5099502,3.41595,9.517051
1679933949590,1113937945515792,2.5530002,3.38295,9.517051
1679933949593,1113937948017946,2.592,3.3439503,9.450001
1679933949595,1113937950519869,2.5080001,3.3780003,9.457951
1679933949598,1113937953022254,2.6539502,3.387,9.460051
1679933949602,1113937955524484,2.7139502,3.2650502,9.45495
1679933949603,1113937958026638,2.80005,3.3040502,9.472051
1679933949605,1113937960528792,2.80995,3.2749503,9.622951
1679933949608,1113937963030946,2.9940002,3.3370502,9.616051
1679933949611,1113937965533120,3.0040503,3.3300002,9.5460005
1679933949613,1113937968035274,3.0349503,3.3630002,9.69495
1679933949615,1113937970537658,3.17595,3.3420002,9.646951
1679933949619,1113937973039812,3.21405,3.31605,9.502951
1679933949622,1113937975542057,3.25305,3.3040502,9.625051
1679933949624,1113937978044134,3.24795,3.3439503,9.655951
1679933949625,1113937980546288,3.28605,3.3439503,9.514951
1679933949628,1113937983048518,3.3360002,3.2050502,9.54405
1679933949630,1113937985550672,3.32205,3.2749503,9.5460005
1679933949637,1113937988053047,3.21,3.282,9.51
1679933949638,1113937990555201,3.1980002,3.3319502,9.489
1679933949640,1113937993057355,3.1590002,3.2370002,9.537001
1679933949642,1113937995559508,3.2050502,3.282,9.489
1679933949644,1113937998061662,3.1999502,3.2290502,9.54405
1679933949645,1113938000563840,3.01605,3.249,9.549001
1679933949648,1113938003066071,3.08295,3.2440503,9.549001
1679933949651,1113938005568456,3.11595,3.1669502,9.498
1679933949653,1113938008070379,3.1230001,3.14295,9.41205
1679933949659,1113938010572749,3.17595,3.0280502,9.43095
1679933949659,1113938013074903,3.1590002,3.07605,9.325951
1679933949661,1113938015577057,3.04905,3.009,9.297001
1679933949663,1113938018079211,3.15405,3.141,9.28005
1679933949665,1113938020581442,3.1210501,3.10695,9.181951
1679933949668,1113938023083576,3.13995,3.1890001,9.156
1679933949671,1113938025585730,3.0349503,3.14595,9.03405
1679933949673,1113938028087884,2.9650502,3.246,8.86095
1679933949675,1113938030590038,2.67105,3.2320502,8.77005
1679933949679,1113938033092158,2.50305,3.1960502,8.78895
1679933949681,1113938035594542,2.26305,3.1339502,8.77305
1679933949683,1113938038096696,1.9860001,3.1669502,8.878051
1679933949685,1113938040598850,1.761,3.0499501,8.78895
1679933949688,1113938043101081,1.365,2.9970002,8.677051
1679933949690,1113938045603148,1.1020501,2.9989502,8.51595
1679933949695,1113938048105379,0.76305,2.8609502,8.578951
1679933949696,1113938050607763,0.54195005,2.87505,8.467951
1679933949698,1113938053109917,0.28395,2.8870502,8.557051
1679933949702,1113938055612071,-0.006,2.6590502,8.42805
1679933949703,1113938058114225,-0.26205,2.6110501,8.514
1679933949705,1113938060616379,-0.483,2.628,8.44695
1679933949709,1113938063118533,-0.63795,2.6190002,8.500051
1679933949711,1113938065620677,-0.86295,2.5729501,8.611951
1679933949713,1113938068122908,-1.05495,2.6110501,8.634001
1679933949715,1113938070625062,-1.1359501,2.559,8.74905
1679933949719,1113938073127447,-1.4119501,2.4169502,8.740951
1679933949722,1113938075629370,-1.524,2.535,8.928
1679933949724,1113938078131754,-1.6680001,2.50605,8.928
1679933949726,1113938080633908,-1.7350501,2.47005,8.844001
1679933949729,1113938083136062,-1.7380501,2.6520002,9.031051
1679933949732,1113938085638288,-1.845,2.628,9.0720005
1679933949736,1113938088140442,-1.86195,2.60205,8.991
1679933949737,1113938090642596,-1.8649501,2.73795,9.10995
1679933949738,1113938093144749,-1.7860501,2.568,9.156
1679933949741,1113938095646898,-1.8190501,2.66895,9.028951
1679933949743,1113938098149052,-1.7659501,2.6500502,9.12495
1679933949745,1113938100651437,-1.7569501,2.736,9.096001
1679933949748,1113938103153591,-1.6710001,2.6569502,9.144
1679933949751,1113938105655744,-1.6710001,2.6520002,9.12495
1679933949753,1113938108157970,-1.6150501,2.6209502,9.08895
1679933949755,1113938110660124,-1.4430001,2.7499502,9.120001
1679933949758,1113938113162201,-1.2750001,2.6230502,8.94705
1679933949764,1113938115664668,-1.17495,2.6950502,9.160951
1679933949764,1113938118166821,-0.966,2.60205,8.979
1679933949765,1113938120668975,-0.83505005,2.7139502,9.015
1679933949770,1113938123171129,-0.48000002,2.664,8.96205
1679933949772,1113938125673283,-0.32505003,2.7190502,9.14595
1679933949774,1113938128175446,-0.16605,2.6860502,9.024
1679933949776,1113938130677677,-0.05595,2.72895,9.09795
1679933949778,1113938133179830,0.17595,2.7259502,8.9740505
1679933949783,1113938135681984,0.35595003,2.6950502,9.1699505
1679933949783,1113938138184138,0.47100002,2.77005,9.024
1679933949785,1113938140686292,0.65295005,2.7,9.153001
1679933949788,1113938143188446,0.897,2.7910502,9.24195
1679933949791,1113938145690830,1.0180501,2.8170002,9.18
1679933949793,1113938148193061,1.1400001,2.7240002,9.261001
1679933949795,1113938150695114,1.1710501,2.868,9.29205
1679933949798,1113938153197345,1.4110501,2.7910502,9.32295
1679933949803,1113938155699499,1.48695,2.91105,9.331051
1679933949804,1113938158201663,1.6140001,2.9280002,9.42405
1679933949807,1113938160703816,1.6890001,2.88,9.41205
1679933949809,1113938163206201,1.7370001,2.8609502,9.502951
1679933949812,1113938165708355,1.8010501,2.8939502,9.4459505
1679933949813,1113938168210485,1.9570501,3.009,9.393001
1679933949815,1113938170712639,1.9710001,2.94405,9.43095
1679933949818,1113938173214793,2.1010501,2.9659503,9.5130005
1679933949821,1113938175716946,2.15595,3.04305,9.537001
1679933949823,1113938178219177,2.127,2.9160001,9.55095
1679933949825,1113938180721340,2.223,2.98005,9.570001
1679933949827,1113938183223494,2.2470002,2.9950502,9.67605
1679933949830,1113938185725878,2.196,2.9899502,9.61305
1679933949833,1113938188228032,2.283,3.0259502,9.61095
1679933949835,1113938190730215,2.3760002,2.9610002,9.654
1679933949838,1113938193232369,2.232,3.07605,9.73305
1679933949841,1113938195734600,2.21295,3.0550501,9.703951
1679933949845,1113938198236754,2.364,3.21495,9.795
1679933949846,1113938200738927,2.1409502,3.246,9.805051
1679933949848,1113938203241080,2.1750002,3.3919501,9.931951
1679933949853,1113938205743234,2.29005,3.354,10.012951
1679933949854,1113938208245388,2.127,3.3610501,10.03695
1679933949855,1113938210747542,2.1100502,3.4429502,10.07505
1679933949858,1113938213249937,2.184,3.3679502,10.02495
1679933949863,1113938215752167,2.11995,3.4399502,10.044001
1679933949864,1113938218254321,1.99995,3.4279501,10.044001
1679933949866,1113938220756475,2.0050502,3.4780502,10.047001
1679933949868,1113938223258629,1.9590001,3.5500503,10.114051
1679933949871,1113938225760783,1.84695,3.5719502,10.03695
1679933949873,1113938228263167,1.7920501,3.5359502,9.979951
1679933949875,1113938230765321,1.7010001,3.6079502,9.931951
1679933949880,1113938233267451,1.7050501,3.56205,9.9529505
1679933949887,1113938235769605,1.5280501,3.58905,9.831
1679933949888,1113938238271759,1.5469501,3.61995,9.819
1679933949890,1113938240773913,1.4680501,3.59805,9.70905
1679933949891,1113938243276138,1.3939501,3.5689502,9.702001
1679933949893,1113938245778292,1.3750501,3.45195,9.658951
1679933949894,1113938248280446,1.3270501,3.45,9.634951
1679933949895,1113938250782600,1.32,3.45,9.642
1679933949898,1113938253284985,1.27005,3.4429502,9.441
1679933949903,1113938255787157,1.1590501,3.3010502,9.55095
1679933949903,1113938258289311,1.0849501,3.3730502,9.3810005
1679933949906,1113938260791465,1.06605,3.2389503,9.508051
1679933949908,1113938263293696,1.0180501,3.2220001,9.405001
1679933949911,1113938265795773,1.0200001,3.1309502,9.357
1679933949913,1113938268298004,0.94605005,3.22005,9.352051
1679933949915,1113938270800388,0.89895004,3.2340002,9.229951
1679933949921,1113938273302542,0.96495,3.1930501,9.18
1679933949924,1113938275803619,0.93705004,3.117,9.144
1679933949924,1113938278304696,0.96105003,3.1339502,9.163051
1679933949927,1113938280809004,0.90195006,3.17895,9.108001
1679933949928,1113938283311157,0.94605005,3.1620002,9.06
1679933949931,1113938285813388,0.9289501,3.1960502,9.061951
1679933949933,1113938288315552,0.85095006,3.1890001,9.084001
1679933949935,1113938290817706,0.96105003,3.1890001,8.93295
1679933949938,1113938293320091,0.94095004,3.081,8.97105
1679933949941,1113938295822014,0.93195003,3.186,9.08895
1679933949943,1113938298324163,1.0849501,3.177,9.05805
1679933949945,1113938300826547,1.008,3.213,9.043051
1679933949948,1113938303328701,1.02495,3.1600502,8.93295
1679933949950,1113938305830932,1.0710001,3.081,8.96895
1679933949953,1113938308333081,1.24605,3.17895,8.943001
1679933949957,1113938310835234,1.2220501,3.1960502,8.923051
1679933949961,1113938313337388,1.21695,3.17895,9.06
1679933949963,1113938315839542,1.27695,3.213,8.955001
1679933949965,1113938318341937,1.3750501,3.0550501,9.043051
1679933949966,1113938320844091,1.416,3.2250001,9.024
1679933949969,1113938323346244,1.53495,3.34695,9.085951
1679933949971,1113938325848398,1.6360501,3.3679502,9.12495
1679933949973,1113938328350552,1.713,3.2700002,9.049951
1679933949975,1113938330852783,1.81095,3.39,9.061951
1679933949978,1113938333354937,1.9710001,3.41895,9.003
1679933949981,1113938335857321,2.0070002,3.38295,8.884951
1679933949983,1113938338359475,2.16,3.38295,8.93505
1679933949986,1113938340861643,2.19405,3.486,9.048
1679933949988,1113938343363797,2.1990001,3.5770502,8.896951
1679933949991,1113938345865951,2.26605,3.5530503,9.048
1679933949994,1113938348368105,2.3160002,3.6720002,9.07005
1679933949996,1113938350870331,2.3430002,3.7159503,9.11295
1679933949999,1113938353372485,2.4720001,3.61995,8.991
1679933950001,1113938355874639,2.4120002,3.7110002,9.08895
1679933950003,1113938358377024,2.43405,3.759,8.943001
1679933950007,1113938360878947,2.592,3.76095,8.998051
1679933950009,1113938363381105,2.5480502,3.80205,9.016951
1679933950011,1113938365883566,2.63205,3.72795,9.08895
1679933950013,1113938368385720,2.6470501,3.7900503,9.049951
1679933950016,1113938370887874,2.70195,3.76605,9.07905
1679933950018,1113938373390042,2.70705,3.7510502,9.073951
1679933950021,1113938375892196,2.7570002,3.8230503,9.184951
1679933950023,1113938378394350,2.74005,3.6799502,9.217951
1679933950025,1113938380896503,2.7450001,3.759,9.08895
1679933950028,1113938383398888,2.6590502,3.6700501,9.163051
1679933950034,1113938385901042,2.7109501,3.5839503,9.27105
1679933950035,1113938388403273,2.7829502,3.6030002,9.240001
1679933950036,1113938390905350,2.7139502,3.6049502,9.28005
1679933950039,1113938393407489,2.76195,3.55695,9.28005
1679933950042,1113938395909720,2.69895,3.426,9.316051
1679933950044,1113938398412105,2.7540002,3.4690502,9.321
1679933950045,1113938400914259,2.69895,3.3679502,9.34305
1679933950048,1113938403416413,2.59905,3.42105,9.14595
1679933950052,1113938405918580,2.52705,3.39,9.165
1679933950054,1113938408420734,2.53695,3.3709502,9.28995
1679933950056,1113938410922888,2.50095,3.31605,9.252001
1679933950058,1113938413425042,2.4430501,3.2320502,9.175051
1679933950061,1113938415927278,2.30205,3.31995,9.141001
1679933950063,1113938418429432,2.22795,3.28395,9.165
1679933950065,1113938420931585,2.25195,3.2340002,9.1369505
1679933950070,1113938423433725,2.21295,3.2749503,9.184951
1679933950073,1113938425936110,2.17995,3.3970501,9.117001
1679933950074,1113938428438033,2.15595,3.37995,9.196951
1679933950077,1113938430940418,2.12505,3.45195,9.184951
1679933950081,1113938433442633,2.06205,3.426,9.1369505
1679933950083,1113938435944787,1.9740001,3.459,9.156
1679933950085,1113938438446941,1.9069501,3.4279501,9.14595
1679933950087,1113938440949095,1.983,3.5650501,9.031051
1679933950088,1113938443451249,1.8400501,3.59295,9.144
1679933950091,1113938445953614,1.84395,3.6010501,9.05805
1679933950093,1113938448455768,1.7389501,3.5740502,9.010051
1679933950096,1113938450957922,1.6890001,3.59295,9.13395
1679933950098,1113938453460076,1.6860001,3.5839503,9.07905
1679933950101,1113938455962307,1.62195,3.6079502,9.160951
1679933950103,1113938458464374,1.5640501,3.555,8.99295
1679933950107,1113938460966528,1.64295,3.56205,9.019051
1679933950110,1113938463468989,1.45905,3.52905,9.085951
1679933950112,1113938465970922,1.4970001,3.4980001,9.153001
1679933950114,1113938468473307,1.57605,3.52395,9.09105
1679933950116,1113938470975461,1.53795,3.5070002,9.05805
1679933950119,1113938473477614,1.5190501,3.4980001,9.1369505
1679933950126,1113938475978676,1.4470501,3.45,9.06705
1679933950126,1113938478479753,1.4250001,3.4740002,9.08895
1679933950130,1113938480984138,1.4130001,3.4690502,8.998051
1679933950132,1113938483486292,1.4610001,3.41595,8.99295
1679933950134,1113938485988446,1.45395,3.5100002,9.096001
1679933950136,1113938488490600,1.5280501,3.4039502,9.148951
1679933950138,1113938490992753,1.5109501,3.41595,9.144
1679933950138,1113938493495138,1.60695,3.41595,9.06705
1679933950142,1113938495997292,1.7580001,3.35595,9.0720005
1679933950144,1113938498499523,1.7080501,3.459,9.120001
1679933950146,1113938501001686,1.7389501,3.4780502,9.07905
1679933950148,1113938503503840,1.7770501,3.48795,9.1060505
1679933950153,1113938506005994,1.8559501,3.5100002,9.08895
1679933950154,1113938508508148,1.8870001,3.62895,8.998051
1679933950156,1113938511010533,1.9549501,3.5740502,9.11295
1679933950161,1113938513512686,2.0650501,3.59295,9.0
1679933950162,1113938516014840,1.9930501,3.6439502,8.976001
1679933950164,1113938518516994,2.1049502,3.7009501,9.040951
1679933950166,1113938521019225,2.01,3.76605,8.98305
1679933950168,1113938523521278,2.1010501,3.7489502,9.061951
1679933950171,1113938526023509,1.983,3.8040001,9.019051
1679933950173,1113938528525893,2.079,3.7560003,9.049951
1679933950175,1113938531028047,2.019,3.7920003,9.11295
1679933950178,1113938533530201,2.0359502,3.76605,9.085951
1679933950183,1113938536032369,2.11995,3.7159503,8.97105
1679933950184,1113938538534523,2.0050502,3.7129502,9.055051
1679933950186,1113938541036677,2.08905,3.69405,9.012
1679933950188,1113938543538907,2.0740502,3.7039502,9.153001
1679933950191,1113938546041071,2.091,3.7510502,9.06705
1679933950193,1113938548543225,2.1049502,3.627,9.028951
1679933950196,1113938551045379,2.1390002,3.7680001,9.1369505
1679933950200,1113938553547778,2.163,3.76305,9.12195
1679933950202,1113938556049931,2.15595,3.7800002,9.120001
1679933950204,1113938558552085,2.18205,3.8140502,9.022051
1679933950206,1113938561054239,2.163,3.8380501,9.1390505
1679933950209,1113938563556393,2.15805,3.76305,9.06
1679933950211,1113938566058643,2.15295,3.8190002,9.117001
1679933950214,1113938568560797,2.187,3.8089502,9.06495
1679933950216,1113938571063181,2.12505,3.9190502,9.03405
1679933950220,1113938573565350,2.26095,3.8590503,9.12495
1679933950223,1113938576067273,2.2060502,3.76095,9.07695
1679933950224,1113938578569658,2.17995,3.8500502,9.204
1679933950226,1113938581071812,2.1390002,3.9120002,9.187051
1679933950228,1113938583573965,2.1679502,3.9,9.165
1679933950231,1113938586076196,2.1750002,3.8740501,9.22305
1679933950233,1113938588578350,2.22795,3.8520002,9.285001
1679933950236,1113938591080504,2.2350001,3.8400002,9.325951
1679933950239,1113938593582658,2.21595,3.7920003,9.261001
1679933950241,1113938596084831,2.15595,3.7849503,9.337951
1679933950243,1113938598586984,2.2440002,3.7009501,9.477
1679933950246,1113938601089446,2.26605,3.66,9.364051
1679933950248,1113938603591600,2.2060502,3.62895,9.35505
1679933950251,1113938606093677,2.2729502,3.6439502,9.493951
1679933950254,1113938608595908,2.19405,3.5500503,9.41895
1679933950257,1113938611098061,2.2440002,3.55995,9.481951
1679933950259,1113938613600215,2.319,3.4620001,9.453
1679933950262,1113938616102369,2.4120002,3.45,9.40695
1679933950263,1113938618604788,2.49105,3.4450502,9.4789505
1679933950266,1113938621106942,2.52495,3.486,9.54405
1679933950268,1113938623609095,2.505,3.423,9.498
1679933950271,1113938626111249,2.5480502,3.4380002,9.4480505
1679933950273,1113938628613422,2.5510502,3.3679502,9.369
1679933950276,1113938631115576,2.5080001,3.4069502,9.39105
1679933950280,1113938633617807,2.53695,3.486,9.309
1679933950286,1113938636119961,2.63895,3.4350002,9.325951
1679933950286,1113938638622345,2.6779501,3.4330502,9.43095
1679933950287,1113938641124499,2.59605,3.35595,9.316051
1679933950288,1113938643626653,2.604,3.41595,9.24195
1679933950291,1113938646128807,2.5510502,3.4330502,9.25395
1679933950294,1113938648631038,2.60805,3.4330502,9.346951
1679933950296,1113938651133191,2.55795,3.3919501,9.345
1679933950298,1113938653635345,2.6590502,3.5340002,9.337951
1679933950301,1113938656137499,2.60805,3.52395,9.30405
1679933950304,1113938658639653,2.66295,3.41895,9.40005
1679933950306,1113938661141778,2.6560502,3.48795,9.40005
1679933950308,1113938663643932,2.7139502,3.45195,9.35505
1679933950311,1113938666146316,2.66295,3.627,9.457951
1679933950313,1113938668648547,2.7139502,3.5359502,9.28005
1679933950316,1113938671150701,2.6749501,3.5050502,9.43395
1679933950320,1113938673652778,2.70705,3.5170503,9.319051
1679933950323,1113938676155009,2.7229502,3.5460002,9.41895
1679933950324,1113938678657162,2.73105,3.5650501,9.369
1679933950326,1113938681159528,2.69895,3.591,9.345
1679933950329,1113938683661682,2.7499502,3.65595,9.364051
1679933950333,1113938686163836,2.628,3.5770502,9.309
1679933950334,1113938688665990,2.6869502,3.59805,9.307051
1679933950337,1113938691168144,2.7640502,3.5839503,9.3810005
1679933950339,1113938693670306,2.67105,3.69195,9.285001
1679933950341,1113938696172460,2.6250002,3.6439502,9.361951
1679933950343,1113938698674922,2.6470501,3.6460502,9.394951
1679933950346,1113938701176845,2.7109501,3.6649501,9.40005
1679933950349,1113938703678971,2.56995,3.7159503,9.352051
1679933950351,1113938706181355,2.5840502,3.5719502,9.498
1679933950353,1113938708683509,2.5459502,3.6990001,9.472051
1679933950356,1113938711185663,2.59905,3.6049502,9.450001
1679933950360,1113938713687870,2.59395,3.696,9.450001
1679933950362,1113938716190024,2.4810002,3.6529503,9.469951
1679933950364,1113938718692178,2.4859502,3.58905,9.346951
1679933950365,1113938721194331,2.4790502,3.6700501,9.38805
1679933950370,1113938723696456,2.4409502,3.7440002,9.319051
1679933950376,1113938726198610,2.53695,3.65805,9.38805
1679933950376,1113938731200995,2.46705,3.59295,9.39795
1679933950379,1113938731362225,2.42595,3.591,9.33495
1679933950381,1113938733705297,2.46705,3.4830003,9.340051
1679933950383,1113938736207528,2.4720001,3.555,9.417001
1679933950385,1113938738709605,2.39295,3.49305,9.38595
1679933950386,1113938741211836,2.4720001,3.4110003,9.325951
1679933950391,1113938743713990,2.3430002,3.4740002,9.364051
1679933950393,1113938746216374,2.4409502,3.4470003,9.38595
1679933950394,1113938748718528,2.4739501,3.354,9.22305
1679933950395,1113938751220682,2.4409502,3.3630002,9.249001
1679933950400,1113938753722836,2.52195,3.2650502,9.208051
1679933950402,1113938756224990,2.4859502,3.31605,9.15795
1679933950404,1113938758727144,2.49795,3.3439503,9.216001
1679933950407,1113938761229374,2.4720001,3.3610501,9.0720005
1679933950410,1113938763731528,2.5819502,3.2959502,9.165
1679933950412,1113938766233913,2.57505,3.2250001,9.049951
1679933950413,1113938768735817,2.5819502,3.2989502,9.09795
1679933950416,1113938771238202,2.5459502,3.3349502,9.10305
1679933950419,1113938773740355,2.63895,3.2940001,9.02595
1679933950423,1113938776242509,2.6490002,3.2940001,9.07005
1679933950425,1113938778744754,2.6560502,3.2719502,9.055051
1679933950426,1113938781246908,2.57505,3.37995,9.061951
1679933950429,1113938783749062,2.5770001,3.28395,9.085951
1679933950432,1113938786251216,2.604,3.2650502,9.049951
1679933950433,1113938788753350,2.49795,3.3370502,9.07005
1679933950437,1113938791255504,2.53395,3.3589501,8.952001
1679933950439,1113938793757889,2.565,3.2650502,9.055051
1679933950441,1113938796260043,2.496,3.3229501,9.02595
1679933950445,1113938798762192,2.4769502,3.3079503,8.96895
1679933950446,1113938801264422,2.4790502,3.32505,9.061951
1679933950449,1113938803766576,2.42205,3.2650502,9.10995
1679933950452,1113938806268653,2.4169502,3.213,8.955001
1679933950453,1113938808770884,2.4,3.15,9.141001
1679933950455,1113938811273254,2.4499502,3.177,9.05805
1679933950459,1113938813775407,2.4049501,3.246,9.07695
1679933950462,1113938816277561,2.4409502,3.1650002,9.108001
1679933950464,1113938818779715,2.469,3.1650002,9.0720005
1679933950466,1113938821281874,2.364,3.2029502,9.11505
