system_ts_ms, sensor_ts_ns, accX, accY, accZ
1680020111294,1200099646326855,-2.83905,3.1000502,8.80605
1680020111295,1200099648829239,-2.808,3.0979502,8.61705
1680020111296,1200099651331393,-2.8129501,3.07395,8.586
1680020111299,1200099653833855,-2.76495,3.21495,8.62905
1680020111301,1200099656336070,-2.7910502,3.1909502,8.682
1680020111319,1200099658838455,-2.8230002,3.18405,8.6650505
1680020111320,1200099661340609,-2.83695,3.186,8.59305
1680020111321,1200099663842840,-2.7870002,3.07095,8.62395
1680020111321,1200099666345234,-2.70495,3.114,8.526
1680020111322,1200099668847465,-2.811,3.1240501,8.583
1680020111322,1200099671349850,-2.73195,3.1380002,8.64795
1680020111323,1200099673852080,-2.7820501,3.0979502,8.63595
1680020111323,1200099676354465,-2.8609502,3.14805,8.64795
1680020111324,1200099678856705,-2.7840002,3.1600502,8.68605
1680020111335,1200099681358859,-2.811,3.1669502,8.62395
1680020111335,1200099683861243,-2.87805,3.1579502,8.6310005
1680020111336,1200099686363705,-2.8129501,3.14295,8.731951
1680020111337,1200099688865936,-2.8150501,3.14595,8.598001
1680020111337,1200099691368123,-2.808,3.078,8.80395
1680020111347,1200099693870508,-2.8270502,3.1240501,8.655001
1680020111347,1200099696372970,-2.7940502,3.1240501,8.586
1680020111348,1200099698875200,-2.73195,3.1690502,8.6959505
1680020111349,1200099701377595,-2.7580502,3.10995,8.62905
1680020111356,1200099703879749,-2.8150501,3.141,8.734051
1680020111356,1200099706380855,-2.7550502,3.05205,8.764951
1680020111356,1200099708881970,-2.7120001,3.07395,8.6959505
1680020111357,1200099711386816,-2.6809502,3.1600502,8.59305
1680020111359,1200099713888970,-2.7150002,3.07395,8.775001
1680020111361,1200099716391200,-2.70495,3.0949502,8.734051
1680020111363,1200099718893585,-2.5729501,3.08295,8.706
1680020111366,1200099721395797,-2.6520002,3.1020002,8.667001
1680020111373,1200099723897951,-2.65995,3.14295,8.67195
1680020111373,1200099726400412,-2.6239502,3.14805,8.854051
1680020111373,1200099728902797,-2.67405,3.1600502,8.79195
1680020111376,1200099731405028,-2.6550002,3.17895,8.76105
1680020111378,1200099733907157,-2.6839502,3.1050003,8.667001
1680020111381,1200099736409542,-2.6260502,3.0949502,8.79405
1680020111383,1200099738911773,-2.538,3.114,8.68395
1680020111389,1200099741414234,-2.559,3.1600502,8.775001
1680020111391,1200099743916388,-2.5879502,3.14295,8.727
1680020111392,1200099746418773,-2.631,3.117,8.821051
1680020111394,1200099748921004,-2.499,3.177,8.75805
1680020111396,1200099751423388,-2.5450501,3.14295,8.79705
1680020111399,1200099753925532,-2.66205,3.0690002,8.718
1680020111401,1200099756427763,-2.6520002,3.078,8.94495
1680020111407,1200099758930224,-2.631,3.2220001,8.91195
1680020111407,1200099761432609,-2.56905,3.114,8.775001
1680020111408,1200099763934830,-2.5900502,3.0259502,8.787001
1680020111411,1200099766436984,-2.5399501,3.0690002,8.872951
1680020111413,1200099768939368,-2.5519502,3.0670502,8.81295
1680020111416,1200099771441599,-2.60505,3.0589502,8.916
1680020111422,1200099773944046,-2.5540502,3.117,8.863951
1680020111423,1200099776446430,-2.6170502,3.1339502,8.93805
1680020111425,1200099778948584,-2.6089501,3.15,8.84895
1680020111427,1200099781450815,-2.60505,3.0640502,8.76795
1680020111430,1200099783953181,-2.56605,3.0880501,8.967
1680020111432,1200099786455411,-2.5849502,3.0310502,8.875951
1680020111434,1200099788957873,-2.607,3.0550501,8.82495
1680020111439,1200099791460027,-2.67405,3.1380002,8.98305
1680020111439,1200099793962411,-2.62905,3.0930002,8.8279505
1680020111441,1200099796464618,-2.70495,3.1620002,8.904
1680020111444,1200099798967003,-2.6430001,3.0499501,8.979
1680020111447,1200099801469157,-2.76705,3.11205,8.868
1680020111450,1200099803971618,-2.6500502,2.9899502,8.904
1680020111451,1200099806473834,-2.7630002,2.9899502,8.98095
1680020111456,1200099808976218,-2.7870002,2.9520001,8.878051
1680020111457,1200099811478372,-2.7840002,3.00195,8.91405
1680020111459,1200099813980603,-2.772,2.94,8.73705
1680020111463,1200099816483003,-2.74095,2.9659503,8.751
1680020111464,1200099818985234,-2.7769501,3.0619502,8.81595
1680020111466,1200099821487618,-2.73405,2.9920502,8.821051
1680020111472,1200099823989849,-2.736,3.0259502,8.67405
1680020111473,1200099826492234,-2.7550502,3.0570002,8.719951
1680020111473,1200099828994391,-2.8200002,2.94405,8.6959505
1680020111476,1200099831496622,-2.667,2.9869502,8.710051
1680020111479,1200099833999007,-2.8630502,3.07395,8.691
1680020111481,1200099836501468,-2.7550502,3.01395,8.574
1680020111483,1200099839003699,-2.77005,3.04005,8.77995
1680020111488,1200099841505863,-2.8459501,2.97105,8.7630005
1680020111489,1200099844008248,-2.76495,2.9659503,8.752951
1680020111491,1200099846510478,-2.8540502,2.9490001,8.80095
1680020111494,1200099849012863,-2.7820501,3.009,8.775001
1680020111496,1200099851515325,-2.77005,3.07095,8.727
1680020111500,1200099854017555,-2.7820501,3.009,8.74905
1680020111502,1200099856519709,-2.7550502,2.9850001,8.634001
1680020111510,1200099859022075,-2.74095,3.01605,8.607
1680020111512,1200099861524306,-2.7150002,3.0310502,8.619
1680020111513,1200099864026690,-2.76495,3.03795,8.646001
1680020111514,1200099866528921,-2.6449502,2.9299502,8.718
1680020111515,1200099869031306,-2.736,3.01605,8.6959505
1680020111516,1200099871533507,-2.676,3.0640502,8.6310005
1680020111523,1200099874035892,-2.70495,3.00195,8.595
1680020111524,1200099876538046,-2.607,3.08295,8.68605
1680020111525,1200099879040277,-2.6119502,3.07395,8.67
1680020111526,1200099881542724,-2.5540502,3.081,8.599951
1680020111529,1200099884045109,-2.5570502,3.1600502,8.583
1680020111531,1200099886547263,-2.5810502,3.1720502,8.740951
1680020111533,1200099889049493,-2.595,3.153,8.67405
1680020111538,1200099891551911,-2.5830002,3.2290502,8.62905
1680020111540,1200099894054142,-2.59695,3.1669502,8.706
1680020111542,1200099896556296,-2.63805,3.15,8.68605
1680020111544,1200099899058757,-2.63805,3.21495,8.691
1680020111546,1200099901561142,-2.63805,3.1690502,8.76105
1680020111550,1200099904063392,-2.66895,3.1600502,8.61705
1680020111557,1200099906565545,-2.6550002,3.186,8.710051
1680020111558,1200099909067930,-2.676,3.177,8.706
1680020111558,1200099911570161,-2.6479502,3.2629502,8.8279505
1680020111559,1200099914072618,-2.5570502,3.17895,8.8279505
1680020111561,1200099916574772,-2.5810502,3.3610501,8.84895
1680020111564,1200099919077234,-2.62905,3.3130503,8.81295
1680020111566,1200099921579388,-2.60505,3.34905,8.764951
1680020111572,1200099924081772,-2.5810502,3.32505,8.91405
1680020111573,1200099926583979,-2.5759501,3.3970501,8.95005
1680020111575,1200099929086441,-2.6430001,3.3610501,8.99295
1680020111578,1200099931588825,-2.64105,3.3349502,9.055051
1680020111580,1200099934090983,-2.5930502,3.3079503,8.923051
1680020111582,1200099936593214,-2.63805,3.3420002,9.201
1680020111583,1200099939095598,-2.5759501,3.25605,9.028951
1680020111589,1200099941597829,-2.5570502,3.39,9.1060505
1680020111590,1200099944100214,-2.5930502,3.2700002,9.012
1680020111591,1200099946602451,-2.49405,3.1960502,9.07005
1680020111594,1200099949104835,-2.403,3.2770503,8.967
1680020111596,1200099951607066,-2.53005,3.2410502,8.93505
1680020111599,1200099954109220,-2.5500002,3.1309502,9.1390505
1680020111601,1200099956611609,-2.4109502,3.0619502,9.0379505
1680020111606,1200099959114071,-2.56095,3.114,9.120001
1680020111607,1200099961616302,-2.4820502,3.04695,9.061951
1680020111609,1200099964118456,-2.4109502,3.0570002,8.986051
1680020111613,1200099966620854,-2.4540002,2.9950502,9.06705
1680020111614,1200099969123085,-2.3700001,3.0859501,8.97105
1680020111616,1200099971625470,-2.41995,3.01095,9.06705
1680020111622,1200099974127623,-2.43195,3.0259502,9.06495
1680020111623,1200099976630085,-2.3460002,2.9560502,8.95005
1680020111623,1200099979132292,-2.4469502,2.98305,8.799001
1680020111626,1200099981634446,-2.4109502,3.0040503,8.851951
1680020111630,1200099984136830,-2.463,2.9520001,8.952001
1680020111631,1200099986639061,-2.4799502,2.94705,8.81295
1680020111633,1200099989141446,-2.4510002,2.973,8.839951
1680020111638,1200099991643686,-2.4540002,2.8819501,8.839951
1680020111639,1200099994146071,-2.4490502,2.83905,8.65995
1680020111641,1200099996648302,-2.523,2.9230502,8.81295
1680020111644,1200099999150695,-2.56395,2.8200002,8.691
1680020111646,1200100001652926,-2.56095,2.8249502,8.703
1680020111651,1200100004155311,-2.56905,2.8489501,8.746051
1680020111656,1200100006657542,-2.64105,2.9280002,8.734051
1680020111657,1200100009188003,-2.6500502,2.90805,8.727
1680020111658,1200100011662157,-2.80095,2.9200501,8.646001
1680020111660,1200100014164542,-2.73195,2.877,8.634001
1680020111662,1200100016666696,-2.844,2.8960502,8.655001
1680020111664,1200100019168926,-2.8609502,2.9560502,8.587951
1680020111666,1200100021671383,-2.93805,2.9850001,8.63595
1680020111670,1200100024173767,-2.9209502,2.94405,8.514
1680020111671,1200100026675998,-2.94195,3.0949502,8.703
1680020111673,1200100029178152,-2.94,2.9610002,8.658
1680020111676,1200100031680556,-2.9850001,2.9490001,8.562
1680020111679,1200100034182786,-2.98095,3.0690002,8.65305
1680020111681,1200100036685248,-2.90895,3.01605,8.533051
1680020111684,1200100039187402,-2.94705,3.15,8.61495
1680020111688,1200100041689814,-2.9490001,3.10695,8.646001
1680020111690,1200100044192045,-2.90895,3.11205,8.655001
1680020111692,1200100046694430,-2.8150501,3.1740003,8.599951
1680020111694,1200100049196584,-2.8300502,3.114,8.610001
1680020111696,1200100051698815,-2.8849502,3.14295,8.611951
1680020111699,1200100054201291,-2.84205,3.186,8.64105
1680020111701,1200100056703676,-2.80095,3.141,8.578951
1680020111703,1200100059205830,-2.72895,3.1620002,8.667001
1680020111706,1200100061708060,-2.7240002,3.213,8.743951
1680020111711,1200100064210435,-2.703,3.2370002,8.68605
1680020111712,1200100066712666,-2.808,3.21,8.734051
1680020111714,1200100069215050,-2.66205,3.2629502,8.646001
1680020111716,1200100071717281,-2.631,3.2080503,8.67195
1680020111720,1200100074219666,-2.6569502,3.21495,8.751
1680020111721,1200100076721907,-2.63805,3.25305,8.694
1680020111725,1200100079224291,-2.6520002,3.21705,8.77005
1680020111728,1200100081726445,-2.63805,3.3010502,8.74905
1680020111730,1200100084228911,-2.667,3.2320502,8.740951
1680020111732,1200100086731141,-2.53005,3.3730502,8.722051
1680020111734,1200100089233526,-2.5140002,3.3280501,8.715
1680020111736,1200100091735757,-2.43705,3.3079503,8.77995
1680020111739,1200100094237911,-2.5159502,3.3319502,8.7289505
1680020111741,1200100096740320,-2.535,3.354,8.734051
1680020111744,1200100099242782,-2.5399501,3.3130503,8.821051
1680020111746,1200100101745012,-2.403,3.354,8.878051
1680020111750,1200100104247397,-2.463,3.28695,8.799001
1680020111752,1200100106749546,-2.32695,3.2680502,8.859
1680020111754,1200100109251777,-2.47005,3.2629502,8.764951
1680020111758,1200100111754161,-2.36505,3.28695,8.998051
1680020111759,1200100114256392,-2.3080502,3.2050502,8.799001
1680020111763,1200100116758777,-2.32905,3.3010502,8.967
1680020111764,1200100119261008,-2.2810502,3.2440503,8.890051
1680020111766,1200100121763392,-2.3050501,3.1930501,8.928
1680020111769,1200100124265623,-2.2810502,3.1260002,8.95695
1680020111771,1200100126767777,-2.298,3.1690502,8.821051
1680020111774,1200100129270146,-2.29095,3.1240501,8.91195
1680020111776,1200100131772608,-2.229,3.0550501,8.875951
1680020111779,1200100134274762,-2.19,3.10695,8.904
1680020111781,1200100136776993,-2.2360501,3.10695,8.955001
1680020111784,1200100139279363,-2.2450502,3.1309502,9.048
1680020111786,1200100141781594,-2.2740002,3.0330002,8.96205
1680020111790,1200100144283979,-2.193,3.0670502,9.031051
1680020111792,1200100146786209,-2.2429502,3.04695,8.97105
1680020111794,1200100149288618,-2.35995,2.9970002,9.003
1680020111797,1200100151790849,-2.2050002,2.9659503,8.920951
1680020111801,1200100154293233,-2.2360501,2.97495,8.89995
1680020111802,1200100156795464,-2.3050501,3.03795,8.847
1680020111804,1200100159297584,-2.253,3.045,8.866051
1680020111807,1200100161800046,-2.2759502,3.04005,8.866051
1680020111810,1200100164302430,-2.3100002,2.8939502,8.887951
1680020111811,1200100166804661,-2.4109502,2.9970002,8.719951
1680020111814,1200100169307046,-2.3389502,3.05205,8.82495
1680020111817,1200100171809199,-2.40105,2.98005,8.67
1680020111819,1200100174311430,-2.38695,3.0190501,8.78895
1680020111821,1200100176813892,-2.391,2.94705,8.74905
1680020111824,1200100179316276,-2.463,3.04695,8.751
1680020111826,1200100181818430,-2.4130502,2.9950502,8.832001
1680020111830,1200100184320661,-2.6520002,2.94405,8.557051
1680020111832,1200100186823046,-2.5900502,3.0499501,8.78205
1680020111834,1200100189325276,-2.67195,3.05205,8.67195
1680020111838,1200100191827411,-2.69805,3.081,8.722051
1680020111841,1200100194329873,-2.69595,2.9989502,8.722051
1680020111843,1200100196832257,-2.6910002,3.0550501,8.6980505
1680020111844,1200100199334488,-2.7150002,3.0619502,8.74905
1680020111847,1200100201836642,-2.7480001,3.1309502,8.776951
1680020111850,1200100204339013,-2.8249502,3.0589502,8.682
1680020111852,1200100206841243,-2.7840002,3.21,8.799001
1680020111854,1200100209343705,-2.91105,3.1309502,8.64795
1680020111856,1200100211845859,-2.8230002,3.2650502,8.502001
1680020111859,1200100214348214,-2.74095,3.31995,8.667001
1680020111861,1200100216850445,-2.799,3.2719502,8.51595
1680020111864,1200100219352830,-2.772,3.3130503,8.689051
1680020111866,1200100221854984,-2.70795,3.2580001,8.619
1680020111870,1200100224357450,-2.76495,3.32505,8.607
1680020111872,1200100226859681,-2.8200002,3.31995,8.634001
1680020111878,1200100229362066,-2.8200002,3.3319502,8.583
1680020111879,1200100231864219,-2.7120001,3.4069502,8.490001
1680020111881,1200100234366672,-2.7199502,3.4620001,8.59095
1680020111882,1200100236868903,-2.69805,3.4330502,8.64795
1680020111884,1200100239371287,-2.6860502,3.4740002,8.50695
1680020111886,1200100241873441,-2.7199502,3.5670002,8.538
1680020111889,1200100244375672,-2.7510002,3.4980001,8.53995
1680020111892,1200100246878057,-2.7220502,3.5790002,8.595
1680020111893,1200100249380287,-2.73195,3.5380502,8.61495
1680020111896,1200100251882672,-2.7510002,3.5689502,8.62395
1680020111898,1200100254384903,-2.6880002,3.5689502,8.739
1680020111901,1200100256887287,-2.74095,3.5340002,8.64795
1680020111903,1200100259389416,-2.69595,3.62895,8.722051
1680020111906,1200100261891647,-2.772,3.6010501,8.7289505
1680020111910,1200100264394109,-2.736,3.4279501,8.77995
1680020111913,1200100266896469,-2.76495,3.5460002,8.715
1680020111915,1200100269398623,-2.73405,3.5479503,8.81295
1680020111928,1200100271900854,-2.7220502,3.38295,8.655001
1680020111929,1200100274403239,-2.7600002,3.39,8.634001
1680020111929,1200100276905469,-2.7199502,3.522,8.83695
1680020111929,1200100279407854,-2.63295,3.459,8.839951
1680020111930,1200100281910085,-2.74095,3.486,8.83005
1680020111930,1200100284412469,-2.6239502,3.3970501,8.751
1680020111931,1200100286914700,-2.63595,3.426,8.92605
1680020111934,1200100289417090,-2.6170502,3.3679502,8.856
1680020111936,1200100291919320,-2.5500002,3.4110003,8.952001
1680020111939,1200100294421474,-2.676,3.2650502,8.81805
1680020111941,1200100296923936,-2.667,3.2440503,8.856
1680020111944,1200100299426349,-2.59695,3.1960502,8.8279505
1680020111946,1200100301928580,-2.6239502,3.141,8.895
1680020111951,1200100304430965,-2.6089501,3.0589502,8.883
1680020111953,1200100306933119,-2.5570502,3.0640502,8.799001
1680020111955,1200100309435355,-2.4870002,3.1600502,8.79705
1680020111958,1200100311937816,-2.56395,3.0880501,8.79705
1680020111961,1200100314440201,-2.5420501,3.0880501,8.80395
1680020111963,1200100316942355,-2.502,3.117,8.77305
1680020111964,1200100319444585,-2.5399501,3.05205,8.740951
1680020111967,1200100321946955,-2.53305,3.0900002,8.81595
1680020111969,1200100324449186,-2.5540502,3.1050003,8.76105
1680020111971,1200100326951570,-2.53305,3.045,8.734051
1680020111974,1200100329453801,-2.49195,3.10695,8.7289505
1680020111979,1200100331956186,-2.5849502,3.0330002,8.62395
1680020111980,1200100334458417,-2.6209502,3.0499501,8.658
1680020111982,1200100336960570,-2.6170502,3.0670502,8.67405
1680020111984,1200100339462955,-2.65995,3.0550501,8.658
1680020111989,1200100341965162,-2.6239502,3.141,8.60505
1680020111992,1200100344467623,-2.6809502,3.0670502,8.646001
1680020111994,1200100346969777,-2.7199502,3.10695,8.722051
1680020111996,1200100349472162,-2.77905,2.9560502,8.646001
1680020112000,1200100351974360,-2.86995,3.081,8.667001
1680020112001,1200100354476744,-2.8150501,3.05205,8.655001
1680020112002,1200100356978898,-2.8870502,2.94405,8.53995
1680020112004,1200100359481360,-2.9280002,2.9350502,8.563951
1680020112007,1200100361983590,-2.9610002,2.97795,8.533051
1680020112009,1200100364485979,-2.9209502,2.97795,8.65005
1680020112011,1200100366988210,-3.045,3.00195,8.677051
1680020112014,1200100369490364,-3.0169501,3.0550501,8.68395
1680020112017,1200100371992748,-3.0210001,2.98305,8.607
1680020112020,1200100374495191,-3.0289502,2.9590502,8.610001
1680020112022,1200100376997422,-3.01395,3.0550501,8.569051
1680020112026,1200100379499806,-2.9970002,3.0229502,8.734051
1680020112028,1200100382001960,-2.98305,3.00195,8.6650505
1680020112031,1200100384504196,-2.9929502,3.01605,8.727
1680020112033,1200100387006580,-3.012,3.009,8.722051
1680020112037,1200100389509042,-2.9260502,3.0640502,8.64795
1680020112038,1200100392011273,-2.8560002,3.0349503,8.62695
1680020112040,1200100394513427,-2.8920002,3.1000502,8.689051
1680020112042,1200100397015787,-2.8459501,3.08295,8.79195
1680020112044,1200100399518018,-2.8180501,3.114,8.715
1680020112048,1200100402020403,-2.8129501,2.98305,8.79405
1680020112050,1200100404522633,-2.7460501,3.153,8.713051
1680020112052,1200100407025013,-2.772,3.078,8.658
1680020112054,1200100409527244,-2.6910002,3.1380002,8.78205
1680020112058,1200100412029398,-2.6520002,3.117,8.823
1680020112060,1200100414531782,-2.65995,3.114,8.74905
1680020112063,1200100417034003,-2.6860502,3.1669502,8.80095
1680020112065,1200100419536388,-2.5420501,3.1579502,8.751
1680020112067,1200100422038618,-2.6239502,3.21,8.7630005
1680020112071,1200100424541003,-2.63595,3.1930501,8.694
1680020112072,1200100427043234,-2.5830002,3.21,8.68605
1680020112074,1200100429545652,-2.6809502,3.22005,8.78205
1680020112078,1200100432047806,-2.595,3.14805,8.707951
1680020112080,1200100434550037,-2.5420501,3.3300002,8.6310005
1680020112082,1200100437052499,-2.49,3.21495,8.715
1680020112084,1200100439554907,-2.538,3.3319502,8.842051
1680020112087,1200100442057138,-2.523,3.3919501,8.740951
1680020112089,1200100444559292,-2.5159502,3.3990002,8.68395
1680020112092,1200100447061676,-2.53305,3.3730502,8.842051
1680020112094,1200100449563907,-2.5900502,3.3990002,8.895
1680020112097,1200100452066374,-2.4510002,3.3439503,8.93505
1680020112102,1200100454568758,-2.4469502,3.38505,8.83005
1680020112103,1200100457070912,-2.5210502,3.459,8.872951
1680020112105,1200100459573127,-2.4420002,3.45705,8.811001
1680020112107,1200100462075512,-2.4490502,3.5050502,8.884951
1680020112111,1200100464577742,-2.3820002,3.38505,8.713051
1680020112112,1200100467080204,-2.43195,3.3060002,8.751
1680020112114,1200100469582358,-2.4510002,3.3370502,8.752951
1680020112118,1200100472084704,-2.4780002,3.3589501,8.776951
1680020112120,1200100474586935,-2.523,3.3630002,8.67195
1680020112122,1200100477089320,-2.56095,3.3589501,8.740951
1680020112124,1200100479591474,-2.559,3.3280501,8.77995
1680020112128,1200100482093931,-2.6500502,3.2440503,8.743951
1680020112130,1200100484596162,-2.70495,3.1669502,8.677051
1680020112131,1200100487098547,-2.73405,3.213,8.682
1680020112134,1200100489600700,-2.64105,3.14805,8.68395
1680020112139,1200100492102931,-2.676,3.2250001,8.682
1680020112141,1200100494605316,-2.703,3.21495,8.68605
1680020112143,1200100497107547,-2.667,3.3130503,8.62395
1680020112145,1200100499609931,-2.6430001,3.2629502,8.62395
1680020112148,1200100502112162,-2.6089501,3.1189501,8.566951
1680020112151,1200100504614565,-2.73195,3.141,8.581051
1680020112153,1200100507116795,-2.66895,3.2580001,8.587951
1680020112155,1200100509618949,-2.6790001,3.1930501,8.66205
1680020112157,1200100512121334,-2.70795,3.1890001,8.530951
1680020112159,1200100514623795,-2.66205,3.07395,8.52795
1680020112162,1200100517126031,-2.70495,3.141,8.49495
1680020112164,1200100519628185,-2.6089501,3.14295,8.434951
1680020112167,1200100522130570,-2.67405,3.117,8.455951
1680020112169,1200100524632800,-2.71005,3.1690502,8.53995
1680020112171,1200100527135214,-2.72895,3.1720502,8.607
1680020112176,1200100529637676,-2.7439501,3.0949502,8.50905
1680020112178,1200100532139830,-2.7550502,3.153,8.611951
1680020112180,1200100534642060,-2.7240002,3.1960502,8.512051
1680020112183,1200100537144459,-2.7120001,3.15,8.490001
1680020112184,1200100539646690,-2.7960002,3.1240501,8.51595
1680020112188,1200100542149074,-2.69595,3.2920501,8.490001
1680020112191,1200100544651305,-2.80605,3.1890001,8.49705
1680020112193,1200100547153709,-2.7150002,3.2989502,8.575951
1680020112195,1200100549655939,-2.74095,3.2320502,8.722051
1680020112197,1200100552158324,-2.7270002,3.3349502,8.566951
1680020112199,1200100554660555,-2.72895,3.3319502,8.554951
1680020112202,1200100557162709,-2.67195,3.3630002,8.751
1680020112204,1200100559665093,-2.69595,3.31095,8.682
1680020112208,1200100562167555,-2.65995,3.423,8.61705
1680020112209,1200100564669786,-2.7240002,3.35595,8.694
1680020112213,1200100567171940,-2.5930502,3.39,8.691
1680020112215,1200100569674348,-2.6839502,3.4039502,8.578951
1680020112218,1200100572176579,-2.73195,3.387,8.655001
1680020112220,1200100574678733,-2.70495,3.4429502,8.6650505
1680020112222,1200100577181194,-2.64105,3.4350002,8.77005
1680020112225,1200100579683579,-2.6550002,3.4039502,8.883
1680020112228,1200100582185810,-2.66205,3.3060002,8.77005
1680020112230,1200100584687964,-2.6790001,3.4039502,8.81805
1680020112232,1200100587190348,-2.64105,3.3679502,8.80605
1680020112234,1200100589692579,-2.6449502,3.354,8.821051
1680020112238,1200100592195036,-2.70495,3.3709502,8.78205
1680020112240,1200100594697189,-2.5420501,3.3730502,8.809051
1680020112242,1200100597199574,-2.6550002,3.25605,8.854051
1680020112245,1200100599701805,-2.595,3.21,8.923051
1680020112247,1200100602204189,-2.6569502,3.2250001,8.920951
1680020112253,1200100604706324,-2.631,3.1960502,8.83005
1680020112254,1200100607208786,-2.676,3.1579502,8.80095
1680020112256,1200100609711017,-2.72895,3.1549501,8.77995
1680020112258,1200100612213411,-2.631,3.1690502,8.875951
1680020112260,1200100614715642,-2.60505,3.081,8.8279505
1680020112262,1200100617217796,-2.664,3.213,8.86095
1680020112265,1200100619720180,-2.59695,3.15,8.81805
1680020112268,1200100622222642,-2.6260502,3.1650002,8.82495
1680020112271,1200100624724858,-2.69295,3.1380002,8.80395
1680020112272,1200100627227242,-2.65995,2.9610002,8.875951
1680020112274,1200100629729396,-2.559,3.0550501,8.643001
1680020112280,1200100632231643,-2.535,3.114,8.81805
1680020112282,1200100634734028,-2.5500002,3.18405,8.7289505
1680020112283,1200100637236258,-2.56395,3.1050003,8.743951
1680020112284,1200100639738720,-2.6860502,3.2050502,8.751
1680020112289,1200100642240888,-2.535,3.18405,8.701051
1680020112291,1200100644743272,-2.559,3.2050502,8.715
1680020112292,1200100647245503,-2.5110002,3.21,8.73705
1680020112294,1200100649747888,-2.5830002,3.2290502,8.80095
1680020112298,1200100652250042,-2.56605,3.2220001,8.764951
1680020112299,1200100654752522,-2.5159502,3.2629502,8.76105
1680020112302,1200100657254753,-2.535,3.2320502,8.6650505
1680020112305,1200100659757138,-2.571,3.3300002,8.78505
1680020112308,1200100662259291,-2.60505,3.2749503,8.7289505
1680020112311,1200100664761551,-2.631,3.34695,8.752951
1680020112313,1200100667263936,-2.631,3.426,8.77005
1680020112314,1200100669766397,-2.56905,3.2920501,8.715
1680020112320,1200100672268551,-2.7220502,3.2650502,8.764951
1680020112321,1200100674770792,-2.76495,3.2920501,8.76795
1680020112326,1200100677273177,-2.7769501,3.4330502,8.598001
1680020112327,1200100679775330,-2.7600002,3.2719502,8.752951
1680020112329,1200100682277561,-2.8150501,3.32505,8.77305
1680020112330,1200100684780023,-2.87295,3.3919501,8.701051
1680020112332,1200100687282426,-2.9020503,3.38505,8.72505
1680020112334,1200100689784657,-2.8510501,3.45,8.7630005
1680020112338,1200100692286811,-2.90595,3.4140003,8.715
1680020112340,1200100694789196,-2.9569502,3.4279501,8.731951
1680020112342,1200100697291431,-2.9640002,3.3610501,8.655001
1680020112345,1200100699793893,-2.9280002,3.3319502,8.776951
1680020112348,1200100702296278,-3.0640502,3.31995,8.81595
1680020112351,1200100704798431,-3.048,3.25605,8.694
1680020112353,1200100707300652,-3.009,3.3709502,8.76105
1680020112355,1200100709803037,-2.9929502,3.35595,8.707951
1680020112358,1200100712305268,-2.9929502,3.2770503,8.77005
1680020112360,1200100714807652,-2.91105,3.4140003,8.610001
1680020112364,1200100717309859,-2.96895,3.31995,8.554951
1680020112365,1200100719812244,-3.012,3.34905,8.53995
1680020112368,1200100722314474,-2.9610002,3.3990002,8.67
1680020112370,1200100724816859,-2.9659503,3.3439503,8.622001
1680020112372,1200100727319013,-2.98305,3.2290502,8.667001
1680020112374,1200100729821273,-2.9539502,3.3439503,8.619
1680020112378,1200100732323734,-3.0210001,3.2370002,8.466001
1680020112380,1200100734826119,-2.9520001,3.2220001,8.59305
1680020112382,1200100737328273,-2.9209502,3.3660002,8.455951
1680020112385,1200100739830503,-2.97795,3.3730502,8.547
1680020112388,1200100742332902,-2.8920002,3.34695,8.575951
1680020112390,1200100744835133,-2.9160001,3.4140003,8.50905
1680020112392,1200100747337517,-2.90895,3.3949502,8.535001
1680020112395,1200100749839753,-2.8920002,3.3589501,8.47305
1680020112398,1200100752341907,-2.88,3.5530503,8.530951
1680020112401,1200100754844292,-2.8300502,3.459,8.533051
1680020112403,1200100757346753,-2.7889502,3.3750002,8.547
1680020112405,1200100759849003,-2.868,3.5119503,8.60505
1680020112408,1200100762351388,-2.7439501,3.5070002,8.619
1680020112410,1200100764853542,-2.8819501,3.4639502,8.67195
1680020112412,1200100767355772,-2.7600002,3.52905,8.689051
1680020112414,1200100769858157,-2.664,3.49005,8.655001
1680020112418,1200100772360618,-2.67405,3.4090502,8.718
1680020112420,1200100774862849,-2.6190002,3.4450502,8.746051
1680020112422,1200100777365003,-2.63805,3.45405,8.667001
1680020112424,1200100779867388,-2.5830002,3.423,8.72505
1680020112428,1200100782369618,-2.64105,3.4330502,8.703
1680020112430,1200100784871970,-2.60205,3.354,8.677051
1680020112432,1200100787374201,-2.5830002,3.459,8.776951
1680020112435,1200100789876586,-2.53005,3.4279501,8.811001
1680020112439,1200100792378825,-2.5810502,3.38505,8.895
1680020112441,1200100794881210,-2.6119502,3.4090502,8.76795
1680020112443,1200100797383441,-2.538,3.3970501,8.868
1680020112445,1200100799885595,-2.6239502,3.3630002,8.872951
1680020112448,1200100802387979,-2.6239502,3.3420002,8.847
1680020112450,1200100804890426,-2.52795,3.3679502,8.863951
1680020112453,1200100807392656,-2.56395,3.3750002,8.844001
1680020112455,1200100809894810,-2.50605,3.3280501,8.77005
1680020112458,1200100812397195,-2.571,3.3280501,8.823
1680020112459,1200100814899426,-2.5780501,3.2389503,8.81595
1680020112462,1200100817401805,-2.5540502,3.1930501,8.718
1680020112466,1200100819904036,-2.5879502,3.2290502,8.727
1680020112468,1200100822406421,-2.60505,3.2719502,8.610001
1680020112472,1200100824908652,-2.65995,3.21495,8.679001
1680020112473,1200100827411002,-2.6239502,3.2629502,8.689051
1680020112477,1200100829913156,-2.6209502,3.213,8.689051
1680020112479,1200100832415387,-2.69295,3.2250001,8.607
1680020112481,1200100834917848,-2.70495,3.1600502,8.78895
1680020112483,1200100837420233,-2.7940502,3.2629502,8.63805
1680020112485,1200100839922363,-2.8249502,3.0930002,8.562
1680020112488,1200100842424594,-2.8990502,3.2250001,8.63595
1680020112490,1200100844926978,-2.8900502,3.117,8.610001
1680020112492,1200100847429209,-2.8969502,3.1579502,8.610001
1680020112494,1200100849931570,-2.96895,3.0670502,8.64795
1680020112498,1200100852433800,-2.98305,3.1309502,8.55195
1680020112500,1200100854936185,-2.9640002,3.114,8.48805
1680020112502,1200100857438416,-3.081,3.05205,8.524051
1680020112505,1200100859940814,-3.1219501,3.07095,8.542951
1680020112508,1200100862443045,-3.108,3.0349503,8.42805
1680020112512,1200100864945199,-2.9970002,3.0310502,8.47305
1680020112514,1200100867447661,-3.0360003,3.0280502,8.466001
1680020112516,1200100869950055,-3.048,2.9520001,8.48505
1680020112520,1200100872452286,-3.072,3.08295,8.478001
1680020112521,1200100874954440,-3.0310502,3.177,8.442
1680020112523,1200100877456824,-3.0000002,3.01395,8.538
1680020112525,1200100879959055,-2.96895,3.114,8.51895
1680020112528,1200100882461527,-2.94705,3.117,8.50695
1680020112530,1200100884963681,-2.9209502,3.153,8.559
1680020112532,1200100887466065,-2.84205,3.141,8.634001
1680020112534,1200100889968296,-2.80305,3.10695,8.530951
1680020112538,1200100892470705,-2.9659503,3.18405,8.598001
1680020112540,1200100894972858,-2.772,3.2220001,8.61705
1680020112546,1200100897475320,-2.80095,3.3079503,8.646001
1680020112547,1200100899977551,-2.8150501,3.1650002,8.6650505
1680020112548,1200100902479925,-2.8660502,3.2220001,8.68395
1680020112552,1200100904982079,-2.7220502,3.2220001,8.583
1680020112554,1200100907484310,-2.775,3.31605,8.581051
1680020112556,1200100909986695,-2.7580502,3.1890001,8.65305
1680020112559,1200100912489146,-2.77905,3.2050502,8.547
1680020112561,1200100914991300,-2.6790001,3.25605,8.689051
1680020112562,1200100917493531,-2.703,3.28395,8.581051
1680020112564,1200100919995915,-2.5810502,3.3319502,8.599951
1680020112567,1200100922498146,-2.7529502,3.28695,8.7289505
1680020112569,1200100925000320,-2.60205,3.32505,8.677051
1680020112572,1200100927502782,-2.6260502,3.2749503,8.78895
1680020112574,1200100930005166,-2.5930502,3.3420002,8.75595
1680020112578,1200100932507397,-2.6449502,3.2340002,8.811001
1680020112580,1200100935009546,-2.631,3.31605,8.78505
1680020112583,1200100937511930,-2.5780501,3.4110003,8.746051
1680020112586,1200100940014161,-2.6119502,3.25305,8.80095
1680020112589,1200100942516546,-2.56605,3.3370502,8.77995
1680020112592,1200100945018781,-2.59995,3.3300002,8.868
1680020112597,1200100947521165,-2.535,3.1960502,8.81595
1680020112597,1200100950023396,-2.56905,3.25605,8.83005
1680020112599,1200100952525781,-2.5780501,3.3280501,8.787001
1680020112600,1200100955028026,-2.535,3.3280501,8.775001
1680020112602,1200100957530411,-2.538,3.3589501,8.80605
1680020112604,1200100960032642,-2.5810502,3.2940001,8.80095
1680020112608,1200100962535026,-2.499,3.3439503,8.80095
1680020112610,1200100965037257,-2.45895,3.28905,8.93295
1680020112612,1200100967539661,-2.5180502,3.31605,8.866051
1680020112615,1200100970041815,-2.535,3.318,8.80095
1680020112618,1200100972544045,-2.5210502,3.2250001,8.731951
1680020112619,1200100975046507,-2.52795,3.2220001,8.734051
1680020112622,1200100977548892,-2.4780002,3.318,8.78505
1680020112626,1200100980051122,-2.607,3.249,8.62395
1680020112628,1200100982553276,-2.535,3.17895,8.61705
1680020112631,1200100985055656,-2.6089501,3.1669502,8.61705
1680020112633,1200100987557887,-2.56395,3.2410502,8.75595
1680020112635,1200100990060348,-2.63295,3.117,8.55
1680020112637,1200100992562502,-2.7840002,3.153,8.611951
1680020112639,1200100995064887,-2.67405,3.153,8.554951
1680020112642,1200100997567136,-2.7550502,3.10995,8.63805
1680020112645,1200101000069290,-2.80605,3.078,8.535001
1680020112648,1200101002571675,-2.8230002,3.1050003,8.667001
1680020112650,1200101005073906,-2.88,3.01095,8.50905
1680020112652,1200101007576382,-2.904,3.045,8.42805
1680020112654,1200101010078536,-2.9880002,3.1309502,8.63595
1680020112658,1200101012580921,-2.9299502,3.0280502,8.658
1680020112661,1200101015083152,-3.01395,3.0949502,8.542951
1680020112664,1200101017585521,-2.94705,3.0259502,8.514
1680020112666,1200101020087675,-2.9950502,3.14805,8.545051
1680020112668,1200101022590137,-2.9160001,3.0589502,8.6310005
1680020112672,1200101025092367,-2.9280002,3.0349503,8.524051
1680020112673,1200101027594752,-2.9970002,3.0880501,8.60295
1680020112676,1200101030096974,-2.8300502,3.10995,8.61705
1680020112678,1200101032599128,-2.9350502,3.0670502,8.607
1680020112680,1200101035101512,-2.8300502,3.081,8.607
1680020112682,1200101037603974,-2.90595,3.1669502,8.59305
1680020112685,1200101040106204,-2.8920002,3.1000502,8.72505
1680020112688,1200101042608343,-2.868,3.15,8.66205
1680020112690,1200101045110728,-2.808,3.07095,8.706
1680020112693,1200101047612959,-2.8200002,3.14805,8.6650505
1680020112695,1200101050115343,-2.7120001,3.1930501,8.646001
1680020112698,1200101052617800,-2.7270002,3.1620002,8.7630005
1680020112702,1200101055119954,-2.775,3.3060002,8.719951
1680020112704,1200101057622185,-2.7439501,3.3300002,8.751
1680020112705,1200101060124569,-2.5879502,3.2680502,8.646001
1680020112708,1200101062626800,-2.5810502,3.31095,8.719951
1680020112713,1200101065129181,-2.60205,3.34695,8.658
1680020112713,1200101067631411,-2.60205,3.34905,8.79405
1680020112715,1200101070133796,-2.5780501,3.28905,8.856
1680020112718,1200101072636017,-2.49195,3.354,8.79705
1680020112720,1200101075138401,-2.49,3.3990002,8.81805
1680020112724,1200101077640555,-2.538,3.4780502,8.691
1680020112725,1200101080142786,-2.5500002,3.4980001,8.682
1680020112728,1200101082645171,-2.50605,3.4830003,8.752951
1680020112730,1200101085147622,-2.5729501,3.4309502,8.77305
1680020112732,1200101087649776,-2.5780501,3.45195,8.598001
1680020112736,1200101090152007,-2.5810502,3.52605,8.871
1680020112741,1200101092654396,-2.6449502,3.4710002,8.799001
1680020112742,1200101095156550,-2.5450501,3.6100502,8.83695
1680020112745,1200101097658781,-2.571,3.5479503,8.80395
1680020112746,1200101100161243,-2.571,3.5380502,8.78895
1680020112748,1200101102663627,-2.56395,3.5740502,8.896951
1680020112751,1200101105165771,-2.60205,3.56205,8.98095
1680020112753,1200101107668002,-2.6479502,3.4830003,8.986051
1680020112754,1200101110170386,-2.538,3.52395,8.964001
1680020112758,1200101112672617,-2.56905,3.5050502,8.991
1680020112759,1200101115175002,-2.41995,3.6049502,9.019051
1680020112762,1200101117677233,-2.394,3.3919501,9.0
1680020112765,1200101120179617,-2.38395,3.35595,9.0070505
1680020112768,1200101122681848,-2.45595,3.4279501,8.97105
1680020112770,1200101125184233,-2.4799502,3.2920501,8.9740505
1680020112772,1200101127686386,-2.43705,3.4759502,8.83695
1680020112776,1200101130188848,-2.45895,3.4090502,8.842051
1680020112779,1200101132691079,-2.4780002,3.28695,8.854051
1680020112780,1200101135193463,-2.4850502,3.39,8.856
1680020112783,1200101137695598,-2.4420002,3.39,8.83005
1680020112785,1200101140197829,-2.4799502,3.2029502,8.81805
1680020112788,1200101142700214,-2.463,3.1669502,8.866051
1680020112792,1200101145202675,-2.5140002,3.1930501,8.743951
1680020112794,1200101147704906,-2.5399501,3.2989502,8.64795
1680020112794,1200101150207080,-2.5519502,3.1669502,8.6980505
1680020112798,1200101152709464,-2.5570502,3.1219501,8.746051
1680020112800,1200101155211695,-2.4870002,3.0900002,8.694
1680020112803,1200101157714080,-2.56095,3.1380002,8.75805
1680020112805,1200101160216316,-2.5500002,3.114,8.746051
1680020112808,1200101162718700,-2.5830002,3.0949502,8.60505
1680020112810,1200101165220931,-2.6449502,3.0690002,8.727
1680020112813,1200101167723316,-2.5900502,3.1290002,8.64105
1680020112816,1200101170225565,-2.65995,3.1600502,8.575951
1680020112818,1200101172727719,-2.69595,3.1020002,8.710051
1680020112820,1200101175230104,-2.739,3.15,8.658
1680020112822,1200101177732565,-2.6910002,3.0979502,8.53995
1680020112825,1200101180234796,-2.772,3.1290002,8.599951
1680020112828,1200101182736945,-2.74095,3.1240501,8.64105
1680020112831,1200101185239330,-2.8200002,3.0880501,8.581051
1680020112833,1200101187741560,-2.844,3.1890001,8.6310005
1680020112836,1200101190243945,-2.80095,3.03795,8.512051
1680020112839,1200101192746205,-2.8660502,3.0690002,8.61495
1680020112840,1200101195248589,-2.9020503,3.186,8.542951
1680020112844,1200101197750820,-2.83695,3.2050502,8.61705
1680020112845,1200101200253205,-2.8609502,3.2440503,8.574
1680020112848,1200101202755330,-2.86995,3.249,8.571
1680020112853,1200101205257561,-2.9280002,3.3079503,8.64795
1680020112854,1200101207760022,-2.9640002,3.32505,8.598001
1680020112857,1200101210262407,-2.8200002,3.3280501,8.575951
1680020112859,1200101212764557,-2.80095,3.3610501,8.643001
1680020112861,1200101215266787,-2.775,3.3919501,8.619
1680020112863,1200101217769172,-2.7940502,3.354,8.557051
1680020112865,1200101220271403,-2.73195,3.4140003,8.655001
1680020112868,1200101222773782,-2.667,3.3660002,8.65005
1680020112870,1200101225276013,-2.6880002,3.4069502,8.562
1680020112872,1200101227778398,-2.5500002,3.4350002,8.599951
1680020112875,1200101230280628,-2.6550002,3.4620001,8.68395
1680020112878,1200101232783013,-2.59995,3.4380002,8.74905
1680020112879,1200101235285167,-2.5159502,3.4330502,8.607
1680020112882,1200101237787398,-2.5759501,3.3970501,8.76105
1680020112885,1200101240289859,-2.5090501,3.486,8.76795
1680020112889,1200101242792249,-2.49405,3.459,8.731951
1680020112891,1200101245294480,-2.4780002,3.555,8.731951
1680020112893,1200101247796634,-2.45595,3.5340002,8.78895
1680020112895,1200101250299018,-2.52795,3.48795,8.706
1680020112898,1200101252801249,-2.5519502,3.522,8.81295
1680020112900,1200101255303714,-2.56605,3.59805,8.65995
1680020112902,1200101257805868,-2.64105,3.6390002,8.677051
1680020112905,1200101260308253,-2.5930502,3.5070002,8.94495
1680020112908,1200101262810484,-2.5420501,3.5770502,8.80395
1680020112911,1200101265312835,-2.6449502,3.6319501,8.866051
1680020112913,1200101267814989,-2.6190002,3.5740502,8.83005
1680020112915,1200101270317451,-2.5159502,3.5410502,8.890051
1680020112918,1200101272819682,-2.60205,3.5340002,8.94705
1680020112920,1200101275322066,-2.5759501,3.4950001,8.80395
1680020112922,1200101277824210,-2.5830002,3.4620001,8.955001
1680020112927,1200101280326672,-2.63295,3.486,9.012
1680020112929,1200101282828902,-2.523,3.3990002,8.952001
1680020112931,1200101285331056,-2.4799502,3.4090502,9.003
1680020112933,1200101287833446,-2.4799502,3.3229501,9.10305
1680020112935,1200101290335677,-2.4510002,3.3130503,9.003
1680020112938,1200101292838061,-2.49705,3.2050502,8.93505
1680020112940,1200101295340292,-2.3820002,3.14805,8.979
1680020112943,1200101297842677,-2.3460002,3.249,9.0379505
1680020112945,1200101300344902,-2.2720501,3.2050502,8.979
1680020112948,1200101302847287,-2.36505,3.1050003,8.835
1680020112951,1200101305349518,-2.3050501,3.0589502,8.89995
1680020112953,1200101307851672,-2.334,3.1669502,8.83695
1680020112955,1200101310354056,-2.36295,2.9680502,8.7630005
1680020112958,1200101312856518,-2.2669501,3.05205,8.61705
1680020112960,1200101315358749,-2.33205,3.1020002,8.752951
1680020112964,1200101317860887,-2.4540002,3.0040503,8.68395
1680020112966,1200101320363272,-2.36505,3.0040503,8.707951
1680020112968,1200101322865503,-2.4130502,3.01395,8.64105
1680020112970,1200101325367657,-2.41995,3.0229502,8.63805
1680020112972,1200101327870118,-2.523,2.9899502,8.587951
1680020112975,1200101330372532,-2.502,3.009,8.619
1680020112978,1200101332874763,-2.5849502,3.078,8.598001
1680020112980,1200101335376916,-2.5159502,3.0670502,8.59305
1680020112983,1200101337879301,-2.5879502,2.94195,8.563951
1680020112985,1200101340381541,-2.6089501,2.9659503,8.571
1680020112989,1200101342884002,-2.60205,2.9920502,8.610001
1680020112994,1200101345386156,-2.5830002,2.9200501,8.63595
1680020112994,1200101347888541,-2.69805,2.9560502,8.569051
1680020112995,1200101350390791,-2.6910002,2.94,8.559
1680020112998,1200101352893175,-2.71005,2.98305,8.467951
1680020113003,1200101355395329,-2.7199502,2.9539502,8.535001
1680020113004,1200101357897791,-2.77005,3.078,8.557051
1680020113005,1200101360400041,-2.7910502,3.04695,8.559
1680020113008,1200101362902426,-2.7769501,3.00705,8.559
1680020113011,1200101365404657,-2.8129501,2.9989502,8.524051
1680020113012,1200101367906811,-2.8849502,3.081,8.50905
1680020113015,1200101370409195,-2.832,3.2050502,8.52105
1680020113018,1200101372911681,-2.8920002,3.153,8.43
1680020113020,1200101375413912,-2.8230002,3.21495,8.530951
1680020113023,1200101377916065,-2.844,3.1930501,8.598001
1680020113025,1200101380418450,-2.799,3.2650502,8.571
1680020113028,1200101382920661,-2.7940502,3.28395,8.559
1680020113031,1200101385423045,-2.8579502,3.3750002,8.535001
1680020113033,1200101387925276,-2.7870002,3.2599502,8.61705
1680020113035,1200101390427661,-2.7240002,3.3709502,8.68605
1680020113041,1200101392929902,-2.7270002,3.3439503,8.598001
1680020113042,1200101395432286,-2.6479502,3.41895,8.739
1680020113044,1200101397934517,-2.703,3.426,8.634001
1680020113045,1200101400436902,-2.70495,3.4140003,8.63595
1680020113048,1200101402939061,-2.63805,3.4330502,8.682
1680020113050,1200101405441522,-2.5900502,3.52605,8.706
1680020113053,1200101407943753,-2.60205,3.4429502,8.739
1680020113055,1200101410446137,-2.49405,3.5460002,8.66205
1680020113058,1200101412948291,-2.535,3.5100002,8.68395
1680020113060,1200101415450522,-2.56905,3.5050502,8.67
1680020113062,1200101417952907,-2.56395,3.55995,8.72505
1680020113065,1200101420455368,-2.526,3.5359502,8.79405
1680020113068,1200101422957522,-2.49195,3.5650501,8.715
1680020113070,1200101425459753,-2.4870002,3.5790002,8.734051
1680020113073,1200101427962137,-2.47305,3.555,8.809051
1680020113077,1200101430464291,-2.50605,3.4429502,8.701051
1680020113079,1200101432966536,-2.5780501,3.4639502,8.61705
1680020113081,1200101435468998,-2.5450501,3.3990002,8.823
1680020113083,1200101437971382,-2.5830002,3.3589501,8.743951
1680020113085,1200101440473536,-2.5159502,3.4399502,8.727
1680020113088,1200101442975767,-2.5450501,3.4470003,8.679001
1680020113090,1200101445478157,-2.5830002,3.28695,8.799001
1680020113092,1200101447980387,-2.5900502,3.426,8.731951
1680020113095,1200101450482772,-2.5470002,3.318,8.74905
1680020113098,1200101452985003,-2.65995,3.3679502,8.66205
1680020113102,1200101455487377,-2.5470002,3.31995,8.655001
1680020113103,1200101457989608,-2.595,3.2719502,8.6959505
1680020113105,1200101460491993,-2.607,3.141,8.682
1680020113108,1200101462994224,-2.5729501,3.1740003,8.713051
1680020113112,1200101465496377,-2.6089501,3.0949502,8.739
1680020113115,1200101467998858,-2.59995,3.2010002,8.51895
1680020113116,1200101470501243,-2.5930502,3.1669502,8.599951
1680020113120,1200101473003473,-2.70495,3.1549501,8.530951
1680020113121,1200101475505627,-2.664,3.1240501,8.55195
1680020113125,1200101478008017,-2.6520002,3.10995,8.574
1680020113125,1200101480510248,-2.66895,3.081,8.62695
1680020113128,1200101483012709,-2.6910002,3.07095,8.581051
1680020113130,1200101485515094,-2.6880002,3.14295,8.50395
1680020113133,1200101488017248,-2.6839502,3.177,8.545051
1680020113135,1200101490519469,-2.844,3.05205,8.49195
1680020113140,1200101493021854,-2.83695,3.07095,8.542951
1680020113141,1200101495524085,-2.73195,3.117,8.569051
1680020113143,1200101498026469,-2.8579502,3.1360502,8.694
1680020113145,1200101500528700,-2.8489501,3.1980002,8.62905
1680020113149,1200101503031060,-2.88,3.0589502,8.60505
1680020113153,1200101505533291,-2.80605,3.14595,8.63805
1680020113154,1200101508035444,-2.8609502,3.081,8.61495
1680020113157,1200101510537810,-2.8560002,3.0229502,8.706
1680020113162,1200101513040272,-2.8900502,3.1189501,8.62905
1680020113163,1200101515542502,-2.83695,3.1930501,8.62905
1680020113163,1200101518044656,-2.799,3.1960502,8.701051
1680020113165,1200101520547041,-2.7769501,3.249,8.68395
1680020113173,1200101523049238,-2.76495,3.25605,8.63805
1680020113173,1200101525551622,-2.7940502,3.3300002,8.682
1680020113173,1200101528053776,-2.8270502,3.2650502,8.6980505
1680020113175,1200101530556238,-2.72895,3.3280501,8.64105
1680020113178,1200101533058454,-2.7270002,3.31605,8.694
1680020113180,1200101535560839,-2.7460501,3.39,8.610001
1680020113182,1200101538062993,-2.69805,3.3349502,8.689051
1680020113185,1200101540565224,-2.7480001,3.426,8.718
1680020113191,1200101543067622,-2.7120001,3.4110003,8.65305
1680020113193,1200101545568737,-2.7529502,3.4279501,8.599951
1680020113193,1200101548069854,-2.74095,3.3370502,8.60505
1680020113195,1200101550574468,-2.73195,3.3630002,8.63805
1680020113198,1200101553076853,-2.74095,3.4069502,8.562
1680020113200,1200101555579084,-2.7550502,3.45195,8.646001
1680020113202,1200101558081497,-2.74095,3.3919501,8.59305
1680020113205,1200101560583728,-2.7600002,3.35595,8.599951
1680020113208,1200101563086113,-2.7940502,3.4639502,8.610001
1680020113210,1200101565588344,-2.7439501,3.459,8.64795
1680020113212,1200101568090709,-2.80305,3.41595,8.575951
1680020113215,1200101570592863,-2.844,3.3949502,8.545051
1680020113218,1200101573095094,-2.8560002,3.4780502,8.610001
1680020113220,1200101575597555,-2.87805,3.5020502,8.610001
1680020113223,1200101578099925,-2.9350502,3.522,8.655001
1680020113227,1200101580602156,-2.80305,3.45405,8.610001
1680020113230,1200101583104310,-2.868,3.4039502,8.60295
1680020113232,1200101585606694,-2.835,3.3589501,8.6959505
1680020113234,1200101588108930,-2.808,3.3589501,8.847
1680020113236,1200101590611392,-2.808,3.4330502,8.775001
1680020113238,1200101593113545,-2.8249502,3.28695,8.811001
1680020113240,1200101595615930,-2.7439501,3.41595,8.811001
1680020113243,1200101598118161,-2.7220502,3.282,8.81595
1680020113245,1200101600620526,-2.676,3.3780003,8.883
1680020113248,1200101603122680,-2.63295,3.41595,8.919001
1680020113251,1200101605624911,-2.56395,3.41895,8.859
1680020113252,1200101608127373,-2.631,3.3420002,8.809051
1680020113255,1200101610629757,-2.5399501,3.3970501,8.919001
1680020113258,1200101613131930,-2.5420501,3.3010502,8.823
1680020113260,1200101615634161,-2.5420501,3.354,8.872951
1680020113264,1200101618136545,-2.46795,3.2680502,8.887951
1680020113266,1200101620638771,-2.5570502,3.2749503,8.839951
1680020113269,1200101623141156,-2.4850502,3.32505,8.80605
1680020113271,1200101625643387,-2.39895,3.21,8.892
1680020113273,1200101628145771,-2.535,3.2629502,8.871
1680020113275,1200101630648002,-2.5110002,3.2989502,8.863951
1680020113278,1200101633150171,-2.4469502,3.3349502,8.919001
1680020113280,1200101635652556,-2.4870002,3.2770503,8.80605
1680020113283,1200101638155017,-2.5500002,3.18405,8.883
1680020113285,1200101640657248,-2.5759501,3.3280501,8.74905
1680020113288,1200101643159397,-2.63295,3.2749503,8.658
1680020113290,1200101645661781,-2.595,3.141,8.79195
1680020113293,1200101648164012,-2.53005,3.1960502,8.78205
1680020113295,1200101650666397,-2.5729501,3.1620002,8.7289505
1680020113299,1200101653168603,-2.53005,3.2220001,8.722051
1680020113303,1200101655670988,-2.5930502,3.2650502,8.722051
1680020113304,1200101658173219,-2.559,3.249,8.599951
1680020113305,1200101660675604,-2.5540502,3.25605,8.64795
1680020113309,1200101663177843,-2.6239502,3.1219501,8.611951
1680020113312,1200101665679997,-2.59995,3.2719502,8.60295
1680020113313,1200101668182382,-2.7270002,3.1260002,8.63595
1680020113315,1200101670684843,-2.67195,3.2320502,8.61495
1680020113319,1200101673187074,-2.74095,3.213,8.562
1680020113320,1200101675689469,-2.7529502,3.1669502,8.67
1680020113324,1200101678191623,-2.7580502,3.0670502,8.535001
1680020113325,1200101680693853,-2.7169502,3.1600502,8.59305
1680020113329,1200101683196238,-2.8660502,3.1930501,8.542951
1680020113330,1200101685698689,-2.844,3.1650002,8.51595
1680020113333,1200101688200920,-2.832,3.1960502,8.562
1680020113335,1200101690703074,-3.04305,3.18405,8.545051
1680020113340,1200101693205459,-2.9299502,3.1360502,8.50395
1680020113342,1200101695707676,-2.9520001,3.14805,8.48295
1680020113345,1200101698210060,-2.9539502,3.141,8.514
1680020113346,1200101700712291,-2.8969502,3.1339502,8.581051
1680020113349,1200101703214676,-3.0000002,3.177,8.4210005
1680020113352,1200101705716920,-2.904,3.0229502,8.52105
1680020113353,1200101708219074,-2.8990502,3.1740003,8.490001
1680020113355,1200101710721459,-2.9020503,3.1380002,8.397
1680020113359,1200101713223690,-2.844,3.1669502,8.433001
1680020113361,1200101715726151,-2.90895,3.1579502,8.569051
1680020113363,1200101718228291,-2.77905,3.2650502,8.586
1680020113365,1200101720730676,-2.76705,3.1930501,8.49705
1680020113368,1200101723232906,-2.73195,3.22005,8.559
1680020113370,1200101725735291,-2.844,3.2920501,8.542951
1680020113373,1200101728237445,-2.83695,3.3709502,8.533051
1680020113377,1200101730739887,-2.8300502,3.1909502,8.571
1680020113379,1200101733242118,-2.74095,3.34905,8.533051
1680020113381,1200101735744503,-2.77905,3.38505,8.59095
1680020113383,1200101738246690,-2.77005,3.4069502,8.49495
1680020113385,1200101740748920,-2.7529502,3.3949502,8.557051
1680020113389,1200101743251305,-2.7840002,3.3679502,8.500051
1680020113391,1200101745753536,-2.74095,3.4470003,8.512051
1680020113393,1200101748255920,-2.74095,3.5500503,8.547
1680020113395,1200101750758146,-2.772,3.4810503,8.535001
1680020113398,1200101753260531,-2.799,3.5119503,8.571
1680020113400,1200101755762762,-2.7199502,3.6370502,8.60505
1680020113403,1200101758264915,-2.6520002,3.5790002,8.79195
1680020113405,1200101760767300,-2.664,3.55995,8.77305
1680020113410,1200101763269758,-2.6239502,3.4690502,8.78895
1680020113411,1200101765771988,-2.5570502,3.5310001,8.866051
1680020113415,1200101768274373,-2.53305,3.5839503,8.92605
1680020113417,1200101770776541,-2.4850502,3.5839503,9.019051
1680020113420,1200101773278772,-2.43,3.52395,9.0
1680020113422,1200101775781156,-2.298,3.5430002,8.88
1680020113423,1200101778283618,-2.3460002,3.49005,8.96205
1680020113425,1200101780785849,-2.3080502,3.4090502,8.90205
1680020113429,1200101783287988,-2.22405,3.4399502,8.986051
1680020113431,1200101785790373,-2.19705,3.31995,9.108001
1680020113433,1200101788292604,-2.19,3.3300002,8.919001
1680020113435,1200101790794988,-2.229,3.4090502,8.94495
1680020113438,1200101793297454,-2.2429502,3.3919501,8.871
1680020113441,1200101795799608,-2.157,3.2680502,8.93505
1680020113443,1200101798301839,-2.2720501,3.2370002,8.77995
1680020113445,1200101800804223,-2.1330001,3.3010502,8.821051
1680020113448,1200101803306363,-2.08995,3.3280501,8.78895
1680020113452,1200101805808825,-2.19,3.31095,8.835
1680020113454,1200101808310978,-2.18805,3.3130503,8.751
1680020113456,1200101810813209,-2.226,3.2680502,8.68605
1680020113459,1200101813315589,-2.3100002,3.2680502,8.581051
1680020113461,1200101815817820,-2.21895,3.2389503,8.595
1680020113462,1200101818320204,-2.3119502,3.18405,8.64105
1680020113465,1200101820822435,-2.4850502,3.153,8.586
1680020113469,1200101823324844,-2.499,3.1050003,8.599951
1680020113471,1200101825827074,-2.523,3.21495,8.478001
1680020113473,1200101828329459,-2.6569502,3.114,8.64795
1680020113475,1200101830831613,-2.60505,3.141,8.563951
1680020113478,1200101833333844,-2.74095,3.117,8.49195
1680020113480,1200101835836305,-2.8540502,3.1579502,8.545051
1680020113482,1200101838338690,-2.8819501,3.1909502,8.586
1680020113485,1200101840840844,-2.8510501,3.05205,8.478001
1680020113489,1200101843343074,-2.93805,3.0880501,8.437051
1680020113491,1200101845845459,-2.9539502,3.1000502,8.418
1680020113493,1200101848347690,-2.9490001,3.0640502,8.48505
1680020113495,1200101850850151,-2.94195,3.1600502,8.46405
1680020113498,1200101853352305,-3.048,3.0880501,8.50905
1680020113500,1200101855854690,-3.0190501,3.0190501,8.49195
1680020113503,1200101858356936,-3.0190501,3.1219501,8.530951
1680020113505,1200101860859320,-2.97105,3.17895,8.581051
1680020113509,1200101863361551,-2.9160001,3.1579502,8.59305
1680020113511,1200101865863936,-2.94195,3.1909502,8.478001
1680020113513,1200101868366166,-2.8969502,3.1690502,8.599951
1680020113515,1200101870868584,-2.9209502,3.21705,8.526
1680020113519,1200101873370815,-2.8540502,3.3040502,8.55195
1680020113521,1200101875872969,-2.8150501,3.3370502,8.559
1680020113523,1200101878375339,-2.7960002,3.2580001,8.622001
1680020113527,1200101880877801,-2.8270502,3.41595,8.578951
1680020113530,1200101883380032,-2.6910002,3.37995,8.64795
1680020113531,1200101885882186,-2.8300502,3.3709502,8.67405
1680020113534,1200101888384570,-2.73405,3.4090502,8.710051
1680020113536,1200101890886801,-2.739,3.41595,8.689051
1680020113538,1200101893389186,-2.71005,3.45705,8.67
1680020113540,1200101895891339,-2.571,3.4780502,8.706
1680020113544,1200101898393791,-2.5810502,3.4090502,8.74905
1680020113546,1200101900896022,-2.595,3.5359502,8.83695
1680020113549,1200101903398406,-2.56605,3.5500503,8.73705
1680020113551,1200101905900560,-2.5729501,3.4399502,8.751
1680020113553,1200101908402791,-2.49405,3.5410502,8.83005
1680020113555,1200101910905171,-2.42295,3.5809503,8.73705
1680020113558,1200101913407401,-2.523,3.6079502,8.821051
1680020113561,1200101915909786,-2.43,3.59295,8.811001
1680020113564,1200101918412046,-2.4420002,3.7129502,8.84895
1680020113566,1200101920914430,-2.4109502,3.6010501,8.940001
1680020113569,1200101923416661,-2.5110002,3.5650501,8.99505
1680020113571,1200101925918815,-2.4130502,3.6439502,9.010051
1680020113573,1200101928421277,-2.45595,3.7800002,8.931001
1680020113577,1200101930923627,-2.394,3.6720002,8.916
1680020113579,1200101933425858,-2.403,3.68895,9.096001
1680020113581,1200101935928243,-2.32905,3.663,9.06
1680020113583,1200101938430396,-2.3050501,3.6010501,9.040951
1680020113586,1200101940932627,-2.427,3.6510003,9.015
1680020113589,1200101943435085,-2.3170502,3.62895,9.048
1680020113592,1200101945937469,-2.3149502,3.55695,8.904
1680020113594,1200101948439700,-2.29095,3.5839503,9.04605
1680020113596,1200101950941854,-2.20005,3.49005,9.036
1680020113598,1200101953444239,-2.20005,3.4690502,8.809051
1680020113602,1200101955946469,-2.1660001,3.45195,8.93805
1680020113605,1200101958448931,-2.217,3.45705,8.86095
1680020113607,1200101960951085,-2.1349502,3.41895,8.952001
1680020113609,1200101963453468,-2.19,3.39,8.7630005
1680020113611,1200101965955699,-2.1780002,3.4399502,8.811001
1680020113613,1200101968458084,-2.226,3.3370502,8.722051
1680020113616,1200101970960238,-2.2360501,3.3780003,8.776951
1680020113618,1200101973462468,-2.25705,3.45405,8.73705
1680020113620,1200101975964926,-2.25,3.3630002,8.701051
1680020113623,1200101978467311,-2.21895,3.4399502,8.61705
1680020113625,1200101980969464,-2.2480502,3.35595,8.64795
1680020113629,1200101983471694,-2.3359501,3.31095,8.59095
1680020113631,1200101985974079,-2.3700001,3.41895,8.63805
1680020113634,1200101988476310,-2.43,3.1650002,8.55
1680020113635,1200101990978694,-2.47005,3.3349502,8.610001
1680020113640,1200101993480921,-2.5420501,3.2050502,8.514
1680020113642,1200101995983306,-2.499,3.1620002,8.583
1680020113645,1200101998485536,-2.6839502,3.1219501,8.61705
1680020113646,1200102000987690,-2.6809502,3.117,8.559
1680020113650,1200102003490080,-2.83695,3.114,8.646001
1680020113653,1200102005992541,-2.91105,3.15,8.607
1680020113655,1200102008494772,-2.9610002,3.1650002,8.667001
1680020113656,1200102010996926,-2.96895,3.1930501,8.66205
1680020113659,1200102013499311,-3.0550501,3.1549501,8.743951
1680020113661,1200102016001527,-2.96895,3.1309502,8.7630005
1680020113663,1200102018503912,-3.072,3.14295,8.76795
1680020113666,1200102021006143,-2.9899502,3.21,8.598001
1680020113669,1200102023508527,-3.0880501,3.1650002,8.67195
1680020113671,1200102026010758,-3.0210001,3.14595,8.599951
1680020113673,1200102028513143,-3.1050003,3.1930501,8.68395
1680020113677,1200102031015297,-2.97105,3.249,8.703
1680020113680,1200102033517527,-3.00495,3.31095,8.68605
1680020113682,1200102036019989,-2.97105,3.2940001,8.63595
1680020113684,1200102038522374,-2.98305,3.2320502,8.619
1680020113686,1200102041024527,-2.87805,3.3750002,8.607
1680020113688,1200102043526758,-2.808,3.4980001,8.68395
1680020113691,1200102046029143,-2.77005,3.3949502,8.63595
1680020113693,1200102048531379,-2.7169502,3.4660501,8.598001
1680020113696,1200102051033763,-2.69295,3.4810503,8.764951
1680020113699,1200102053535994,-2.64105,3.4759502,8.706
1680020113701,1200102056038379,-2.66205,3.5100002,8.722051
1680020113703,1200102058540609,-2.5780501,3.55695,8.77005
1680020113706,1200102061042994,-2.5420501,3.56205,8.557051
1680020113710,1200102063545225,-2.5110002,3.5650501,8.751
1680020113711,1200102066047379,-2.50395,3.591,8.734051
1680020113715,1200102068549867,-2.499,3.6510003,8.62905
1680020113717,1200102071052252,-2.42295,3.69405,8.710051
1680020113720,1200102073554483,-2.391,3.6649501,8.667001
1680020113722,1200102076056637,-2.35605,3.6460502,8.715
1680020113723,1200102078559021,-2.38395,3.6720002,8.710051
1680020113726,1200102081061224,-2.45895,3.6700501,8.701051
1680020113729,1200102083563685,-2.3479502,3.73005,8.63595
1680020113731,1200102086065839,-2.4469502,3.7039502,8.80095
1680020113733,1200102088568224,-2.427,3.7060502,8.707951
1680020113735,1200102091070431,-2.4130502,3.7510502,8.67
1680020113738,1200102093572815,-2.4439502,3.6169503,8.722051
1680020113740,1200102096074969,-2.4469502,3.6990001,8.7630005
1680020113744,1200102098577431,-2.4150002,3.6820502,8.80395
1680020113746,1200102101079685,-2.5090501,3.759,8.64795
1680020113750,1200102103582070,-2.33205,3.7510502,8.6959505
1680020113754,1200102106084224,-2.43,3.759,8.811001
1680020113756,1200102108586455,-2.33205,3.759,8.77305
1680020113758,1200102111088830,-2.367,3.8160002,8.940001
1680020113760,1200102113591061,-2.36295,3.6700501,8.734051
1680020113762,1200102116093446,-2.427,3.6370502,8.77005
1680020113764,1200102118595677,-2.4109502,3.65805,8.740951
1680020113766,1200102121098061,-2.4490502,3.6370502,8.68395
1680020113768,1200102123600215,-2.42505,3.5740502,8.7289505
1680020113770,1200102126102446,-2.3359501,3.59805,8.68395
1680020113773,1200102128604830,-2.35995,3.6030002,8.8279505
1680020113775,1200102131107292,-2.3820002,3.6010501,8.77005
1680020113778,1200102133609446,-2.394,3.5809503,8.776951
1680020113780,1200102136111682,-2.4130502,3.5500503,8.81295
1680020113783,1200102138614066,-2.4150002,3.69405,8.740951
1680020113785,1200102141116297,-2.4799502,3.52905,8.682
1680020113791,1200102143618696,-2.50605,3.5020502,8.689051
1680020113793,1200102146121157,-2.4109502,3.4660501,8.667001
1680020113802,1200102148623311,-2.39895,3.4069502,8.7289505
1680020113803,1200102151125542,-2.38905,3.41595,8.65005
1680020113803,1200102153627926,-2.43495,3.45,8.65995
1680020113803,1200102156130157,-2.41995,3.4350002,8.7289505
1680020113803,1200102158632311,-2.523,3.3370502,8.73705
1680020113806,1200102161134773,-2.4420002,3.3300002,8.61705
1680020113808,1200102163637157,-2.502,3.2629502,8.76105
1680020113812,1200102166139388,-2.5780501,3.3319502,8.599951
1680020113813,1200102168641542,-2.62905,3.186,8.578951
1680020113816,1200102171143926,-2.60205,3.3349502,8.52105
1680020113819,1200102173646157,-2.7120001,3.25095,8.48505
1680020113821,1200102176148619,-2.832,3.2440503,8.571
1680020113823,1200102178650992,-2.73195,3.17895,8.50395
1680020113830,1200102181153146,-2.7910502,3.3130503,8.50905
1680020113832,1200102183655387,-2.77905,3.2220001,8.434951
1680020113833,1200102186157772,-2.7550502,3.186,8.502001
1680020113835,1200102188660002,-2.8150501,3.2680502,8.49705
1680020113837,1200102191162156,-2.88,3.1980002,8.500051
1680020113840,1200102193664618,-2.868,3.2290502,8.578951
1680020113841,1200102196167002,-2.8150501,3.28005,8.575951
1680020113845,1200102198669233,-2.8939502,3.2719502,8.478001
1680020113846,1200102201171387,-2.9020503,3.2599502,8.409
1680020113849,1200102203673772,-2.8180501,3.31605,8.404051
1680020113851,1200102206176002,-2.7960002,3.2650502,8.44695
1680020113853,1200102208678459,-2.8609502,3.3949502,8.47995
1680020113856,1200102211180613,-2.775,3.426,8.512051
1680020113858,1200102213682997,-2.775,3.3949502,8.47305
1680020113862,1200102216185228,-2.799,3.426,8.51595
1680020113864,1200102218687603,-2.66895,3.3970501,8.49195
1680020113868,1200102221189757,-2.70495,3.4399502,8.559
1680020113872,1200102223692218,-2.69805,3.4110003,8.52105
1680020113873,1200102226194449,-2.6500502,3.4380002,8.571
1680020113875,1200102228696834,-2.70795,3.5140502,8.65305
1680020113876,1200102231198983,-2.607,3.4639502,8.562
1680020113879,1200102233701214,-2.64105,3.5410502,8.59095
1680020113881,1200102236203599,-2.60205,3.6529503,8.574
1680020113883,1200102238706060,-2.5780501,3.5959501,8.60295
1680020113886,1200102241208214,-2.5729501,3.5479503,8.538
1680020113889,1200102243710445,-2.5879502,3.5670002,8.55
1680020113892,1200102246212830,-2.5500002,3.6460502,8.67405
1680020113893,1200102248715060,-2.5450501,3.65805,8.740951
1680020113896,1200102251217238,-2.50605,3.6439502,8.67
1680020113899,1200102253719700,-2.4820502,3.6130502,8.83005
1680020113902,1200102256222084,-2.4469502,3.6720002,8.80605
1680020113904,1200102258724315,-2.4510002,3.7060502,8.62395
1680020113908,1200102261226690,-2.45595,3.58905,8.79705
1680020113912,1200102263728844,-2.4540002,3.5839503,8.854051
1680020113912,1200102266231074,-2.403,3.627,8.775001
1680020113914,1200102268733459,-2.43195,3.5839503,8.842051
1680020113918,1200102271235921,-2.42505,3.68895,8.851951
1680020113919,1200102273738156,-2.253,3.65805,8.868
1680020113921,1200102276240310,-2.2999501,3.5860503,8.93295
1680020113923,1200102278742695,-2.3410501,3.5380502,8.884951
1680020113929,1200102281244926,-2.38905,3.6390002,8.80395
1680020113930,1200102283747329,-2.3359501,3.6079502,8.890051
1680020113932,1200102286249560,-2.28795,3.56205,8.90205
1680020113934,1200102288751945,-2.322,3.5689502,8.97105
1680020113937,1200102291254175,-2.3029501,3.62505,8.93505
1680020113943,1200102293756555,-2.29095,3.4999502,8.809051
1680020113945,1200102296258709,-2.2429502,3.5460002,8.93505
1680020113946,1200102298760940,-2.29305,3.5119503,8.93295
1680020113947,1200102301263401,-2.25705,3.5140502,8.86095
1680020113951,1200102303765786,-2.14695,3.522,8.94705
1680020113953,1200102306267935,-2.19705,3.41595,8.77305
1680020113954,1200102308770166,-2.1349502,3.39,8.92605
1680020113956,1200102311272550,-2.229,3.3970501,8.743951
1680020113959,1200102313774781,-2.2740002,3.3610501,8.887951
1680020113962,1200102316277166,-2.2789502,3.4350002,8.844001
1680020113964,1200102318779377,-2.3359501,3.3370502,8.854051
1680020113966,1200102321281762,-2.32005,3.45195,8.83695
1680020113969,1200102323783993,-2.4780002,3.4069502,8.719951
1680020113971,1200102326286147,-2.56605,3.3780003,8.8279505
1680020113973,1200102328788531,-2.502,3.25605,8.734051
1680020113978,1200102331290979,-2.5830002,3.35205,8.667001
1680020113980,1200102333793133,-2.5900502,3.42105,8.73705
1680020113982,1200102336295363,-2.63805,3.3970501,8.63595
1680020113984,1200102338797752,-2.703,3.35595,8.706
1680020113986,1200102341300214,-2.66205,3.4140003,8.571
1680020113989,1200102343802367,-2.7120001,3.3349502,8.610001
1680020113991,1200102346304598,-2.799,3.318,8.566951
1680020113994,1200102348806983,-2.7769501,3.4450502,8.569051
1680020113996,1200102351309195,-2.7889502,3.3040502,8.422951
1680020113999,1200102353811348,-2.739,3.34905,8.502001
1680020114001,1200102356313733,-2.8230002,3.3970501,8.370001
1680020114003,1200102358816195,-2.7769501,3.41895,8.47605
1680020114006,1200102361318430,-2.73195,3.28695,8.50395
1680020114009,1200102363820584,-2.71005,3.41895,8.478001
1680020114012,1200102366322969,-2.8180501,3.4279501,8.398951
1680020114016,1200102368825200,-2.62905,3.38295,8.418
1680020114019,1200102371327579,-2.74095,3.4279501,8.442
1680020114021,1200102373829810,-2.6260502,3.42105,8.442
1680020114022,1200102376332195,-2.631,3.5340002,8.547
1680020114024,1200102378834425,-2.63805,3.555,8.502001
1680020114026,1200102381336810,-2.69805,3.423,8.418
1680020114030,1200102383838969,-2.73405,3.4710002,8.42805
1680020114031,1200102386341200,-2.72895,3.4429502,8.502001
1680020114033,1200102388843661,-2.6209502,3.4350002,8.48295
1680020114036,1200102391346046,-2.73405,3.55695,8.583
1680020114038,1200102393848205,-2.676,3.48795,8.434951
1680020114041,1200102396350435,-2.63805,3.5719502,8.47605
1680020114044,1200102398852820,-2.6520002,3.4999502,8.55
1680020114047,1200102401355051,-2.6170502,3.6480002,8.413051
1680020114051,1200102403857435,-2.6119502,3.795,8.50395
1680020114053,1200102406359666,-2.5759501,3.6990001,8.55195
1680020114055,1200102408862051,-2.63295,3.5689502,8.571
1680020114058,1200102411364282,-2.7199502,3.6439502,8.569051
1680020114061,1200102413866401,-2.6449502,3.6870003,8.607
1680020114062,1200102416368786,-2.56095,3.591,8.59095
1680020114064,1200102418871017,-2.5420501,3.696,8.607
1680020114066,1200102421373478,-2.49195,3.65595,8.689051
1680020114070,1200102423875858,-2.53005,3.61995,8.78895
1680020114071,1200102426378012,-2.4850502,3.56205,8.752951
1680020114074,1200102428880243,-2.427,3.6409502,8.799001
1680020114077,1200102431382627,-2.502,3.59295,8.707951
1680020114079,1200102433884858,-2.39595,3.66,8.734051
1680020114081,1200102436387344,-2.43,3.62895,8.689051
1680020114084,1200102438889497,-2.4130502,3.627,8.691
1680020114086,1200102441391882,-2.3029501,3.5959501,8.75595
1680020114090,1200102443894113,-2.35095,3.5530503,8.811001
1680020114092,1200102446396502,-2.4109502,3.5839503,8.892
1680020114095,1200102448898656,-2.4180002,3.6010501,8.78505
1680020114096,1200102451401118,-2.3749502,3.555,8.847
1680020114099,1200102453903349,-2.41995,3.5740502,8.77305
1680020114101,1200102456405733,-2.3149502,3.59295,8.77305
1680020114106,1200102458907853,-2.4109502,3.6169503,8.75595
1680020114107,1200102461410084,-2.4540002,3.59805,8.79195
1680020114110,1200102463912469,-2.41995,3.5689502,8.76795
1680020114113,1200102466414930,-2.47005,3.5839503,8.710051
1680020114115,1200102468917084,-2.4060001,3.6319501,8.63595
1680020114116,1200102471419315,-2.4510002,3.6010501,8.64105
1680020114120,1200102473921699,-2.4180002,3.6130502,8.6650505
1680020114122,1200102476423930,-2.41995,3.5050502,8.682
1680020114124,1200102478926084,-2.3770502,3.48795,8.775001
1680020114128,1200102481428550,-2.502,3.6799502,8.752951
1680020114130,1200102483930935,-2.538,3.5860503,8.727
1680020114132,1200102486433166,-2.5470002,3.55695,8.743951
1680020114134,1200102488935320,-2.4390001,3.4830003,8.619
1680020114136,1200102491437704,-2.53305,3.5380502,8.6650505
1680020114139,1200102493939930,-2.6809502,3.49305,8.67405
1680020114141,1200102496442315,-2.73405,3.45405,8.622001
1680020114143,1200102498944546,-2.6860502,3.486,8.61705
1680020114146,1200102501446930,-2.6880002,3.4980001,8.569051
1680020114150,1200102503949180,-2.664,3.38505,8.586
1680020114152,1200102506451334,-2.76495,3.5050502,8.599951
1680020114154,1200102508953718,-2.6809502,3.49005,8.526
1680020114156,1200102511455949,-2.72895,3.5100002,8.63595
1680020114158,1200102513958411,-2.6520002,3.5860503,8.575951
1680020114162,1200102516460810,-2.73405,3.56205,8.581051
1680020114165,1200102518962964,-2.6809502,3.5530503,8.51895
1680020114168,1200102521465195,-2.6209502,3.5719502,8.49195
1680020114171,1200102523967580,-2.676,3.4759502,8.443951
1680020114172,1200102526469840,-2.6569502,3.55995,8.53995
1680020114174,1200102528972302,-2.595,3.522,8.59095
1680020114176,1200102531474456,-2.6569502,3.59295,8.49195
1680020114179,1200102533976840,-2.56395,3.6030002,8.437051
1680020114181,1200102536479071,-2.66205,3.6679502,8.44905
1680020114184,1200102538981470,-2.6170502,3.6030002,8.53995
1680020114186,1200102541483701,-2.667,3.6720002,8.610001
1680020114190,1200102543986085,-2.67405,3.663,8.599951
1680020114191,1200102546488316,-2.5090501,3.7110002,8.599951
1680020114194,1200102548990701,-2.5450501,3.6679502,8.598001
1680020114196,1200102551492931,-2.63595,3.6480002,8.701051
1680020114198,1200102553995085,-2.463,3.62505,8.611951
1680020114202,1200102556497479,-2.41995,3.69405,8.6959505
1680020114204,1200102558999710,-2.4820502,3.6720002,8.65995
1680020114206,1200102561502171,-2.41995,3.69405,8.7289505
1680020114209,1200102564004325,-2.4490502,3.76095,8.713051
1680020114212,1200102566506710,-2.38395,3.8190002,8.752951
1680020114214,1200102569008935,-2.4850502,3.8470502,8.64795
1680020114216,1200102571511320,-2.4780002,3.9430501,8.67
1680020114219,1200102574013474,-2.4510002,3.9,8.689051
1680020114221,1200102576515935,-2.4540002,3.8950503,8.7289505
1680020114224,1200102579018138,-2.38905,3.76605,8.866051
1680020114226,1200102581520523,-2.47005,3.8089502,8.79195
1680020114230,1200102584022677,-2.3820002,3.76605,8.93505
1680020114231,1200102586524907,-2.38695,3.7870502,8.907001
1680020114234,1200102589027292,-2.334,3.6990001,8.976001
1680020114236,1200102591529782,-2.1780002,3.696,8.93295
1680020114241,1200102594031935,-2.1760502,3.69405,8.823
1680020114243,1200102596534166,-2.2720501,3.7009501,8.892
1680020114244,1200102599036533,-2.2360501,3.6990001,8.821051
1680020114247,1200102601538764,-2.1709502,3.6840003,8.84895
1680020114250,1200102604040917,-2.14695,3.6820502,8.79195
1680020114252,1200102606543379,-2.0730002,3.6529503,8.81295
1680020114254,1200102609045764,-2.118,3.6130502,8.75805
1680020114256,1200102611547974,-2.14995,3.5860503,8.72505
1680020114259,1200102614050128,-2.1019502,3.5670002,8.799001
1680020114262,1200102616552513,-2.1420002,3.59805,8.694
1680020114263,1200102619054744,-2.23095,3.5740502,8.634001
1680020114266,1200102621557104,-2.23305,3.55695,8.571
1680020114270,1200102624059335,-2.2690501,3.5770502,8.63595
1680020114272,1200102626561720,-2.286,3.62505,8.599951
1680020114276,1200102629063950,-2.35305,3.591,8.50905
1680020114279,1200102631566330,-2.3389502,3.45405,8.47605
1680020114282,1200102634068484,-2.38395,3.4980001,8.598001
1680020114283,1200102636570715,-2.32695,3.5410502,8.571
1680020114285,1200102639073176,-2.5420501,3.4639502,8.45895
1680020114287,1200102641575561,-2.4420002,3.5050502,8.547
1680020114289,1200102644077788,-2.6239502,3.5430002,8.514
1680020114291,1200102646579941,-2.59695,3.6030002,8.49195
1680020114293,1200102649082326,-2.5570502,3.4639502,8.454
1680020114296,1200102651584557,-2.631,3.5959501,8.409
1680020114299,1200102654087018,-2.7580502,3.45405,8.533051
1680020114302,1200102656589412,-2.8200002,3.5100002,8.49195
1680020114304,1200102659091566,-2.8660502,3.4780502,8.49705
1680020114306,1200102661593797,-2.8630502,3.486,8.44695
1680020114312,1200102664096167,-2.832,3.4620001,8.47995
1680020114313,1200102666598398,-2.8150501,3.6030002,8.50695
1680020114315,1200102669100783,-2.835,3.4999502,8.52795
1680020114320,1200102671603013,-2.9020503,3.5410502,8.349
1680020114322,1200102674105398,-2.7820501,3.6460502,8.563951
1680020114324,1200102676607624,-2.799,3.5719502,8.557051
1680020114325,1200102679109778,-2.772,3.5670002,8.51895
1680020114328,1200102681612162,-2.7199502,3.6870003,8.49495
1680020114330,1200102684114624,-2.69805,3.627,8.49195
1680020114332,1200102686616855,-2.7199502,3.62505,8.425051
1680020114334,1200102689118970,-2.6170502,3.6130502,8.526
1680020114336,1200102691621354,-2.6569502,3.6720002,8.47305
1680020114339,1200102694123585,-2.56395,3.6340501,8.526
1680020114341,1200102696625970,-2.64105,3.62505,8.500051
1680020114345,1200102699128185,-2.5090501,3.8070002,8.48805
1680020114347,1200102701630570,-2.4420002,3.61995,8.49705
1680020114351,1200102704132801,-2.56095,3.72495,8.443951
1680020114354,1200102706635185,-2.4469502,3.6679502,8.559
1680020114357,1200102709137339,-2.4820502,3.6370502,8.401051
1680020114358,1200102711639570,-2.43195,3.732,8.514
1680020114361,1200102714141955,-2.38905,3.69405,8.562
1680020114362,1200102716644416,-2.43195,3.6700501,8.526
1680020114364,1200102719146570,-2.4490502,3.7180502,8.578951
1680020114368,1200102721648792,-2.4469502,3.72495,8.59095
1680020114370,1200102724151176,-2.43495,3.7369502,8.41605
1680020114372,1200102726653330,-2.43705,3.7350001,8.502001
1680020114374,1200102729155561,-2.4150002,3.7369502,8.731951
1680020114380,1200102731658023,-2.4180002,3.7780502,8.49495
1680020114381,1200102734160407,-2.3440502,3.7849503,8.587951
1680020114382,1200102736662638,-2.3770502,3.864,8.595
1680020114384,1200102739164792,-2.2999501,3.9409502,8.55
1680020114386,1200102741667176,-2.43495,3.86595,8.557051
1680020114393,1200102744169411,-2.3790002,3.9259503,8.634001
1680020114394,1200102746671873,-2.36295,3.9379501,8.53995
1680020114395,1200102749174257,-2.32395,3.8419502,8.55195
1680020114398,1200102751676421,-2.42295,3.9259503,8.535001
1680020114400,1200102754178652,-2.3080502,3.9430501,8.557051
1680020114402,1200102756681037,-2.322,3.8760002,8.6980505
1680020114404,1200102759183267,-2.4420002,3.80205,8.703
1680020114407,1200102761685652,-2.43495,3.732,8.66205
1680020114409,1200102764187902,-2.43495,3.8160002,8.6980505
1680020114411,1200102766690286,-2.262,3.7489502,8.66205
1680020114414,1200102769192517,-2.28795,3.7350001,8.559
1680020114417,1200102771694902,-2.253,3.7680001,8.73705
1680020114429,1200102774197070,-2.18805,3.69195,8.60295
1680020114429,1200102776699300,-2.1090002,3.6169503,8.64795
1680020114429,1200102779201762,-2.11095,3.56205,8.587951
1680020114429,1200102781704147,-2.18505,3.6319501,8.598001
1680020114431,1200102784206310,-2.05095,3.61995,8.48805
1680020114433,1200102786708541,-2.2360501,3.6079502,8.51595
1680020114435,1200102789210926,-2.094,3.5770502,8.52795
1680020114438,1200102791713157,-2.12805,3.519,8.3869505
1680020114440,1200102794215541,-2.025,3.6390002,8.48805
1680020114441,1200102796717786,-2.1379502,3.5740502,8.490001
1680020114444,1200102799220171,-2.15895,3.5719502,8.37705
1680020114446,1200102801722401,-2.193,3.5860503,8.41605
1680020114450,1200102804224555,-2.1709502,3.6390002,8.241
1680020114451,1200102806726940,-2.2669501,3.591,8.34405
1680020114454,1200102809229440,-2.32905,3.62895,8.33205
1680020114457,1200102811731671,-2.4130502,3.5839503,8.24295
1680020114459,1200102814233825,-2.4540002,3.6010501,8.32995
1680020114461,1200102816736210,-2.47005,3.52905,8.25
1680020114466,1200102819238444,-2.4750001,3.5479503,8.30595
1680020114468,1200102821740598,-2.5159502,3.62895,8.17905
1680020114472,1200102824243060,-2.6260502,3.6529503,8.20695
1680020114473,1200102826745444,-2.70495,3.69405,8.241
1680020114475,1200102829247675,-2.7529502,3.6529503,8.18595
1680020114479,1200102831749791,-2.772,3.68895,8.257951
1680020114480,1200102834252176,-2.91105,3.7560003,8.253
1680020114481,1200102836754406,-2.9569502,3.7489502,8.203051
1680020114484,1200102839256868,-2.9260502,3.6870003,8.3869505
1680020114486,1200102841759022,-2.973,3.7560003,8.31495
1680020114489,1200102844261420,-3.0360003,3.8419502,8.3890505
1680020114491,1200102846763651,-2.96895,3.864,8.48295
1680020114495,1200102849266036,-3.03795,3.8230503,8.611951
1680020114497,1200102851768267,-3.0169501,3.8160002,8.49195
1680020114501,1200102854270651,-3.117,3.7830002,8.60505
1680020114505,1200102856772882,-3.0259502,3.9450002,8.575951
1680020114506,1200102859275267,-2.976,3.8160002,8.703
1680020114508,1200102861777502,-3.0550501,3.8830502,8.68395
1680020114513,1200102864279656,-2.9950502,3.8950503,8.77305
1680020114514,1200102866782118,-2.9160001,3.8539503,8.619
1680020114515,1200102869284502,-2.8459501,3.9739501,8.66205
1680020114516,1200102871786733,-2.799,3.9,8.787001
1680020114521,1200102874289134,-2.80605,3.9139502,8.739
1680020114523,1200102876791288,-2.6550002,3.86595,8.72505
1680020114524,1200102879293518,-2.7150002,3.9259503,8.731951
1680020114526,1200102881795980,-2.59995,3.936,8.62905
1680020114529,1200102884298109,-2.5900502,3.8899503,8.655001
1680020114531,1200102886800494,-2.5159502,3.8809502,8.667001
1680020114534,1200102889302724,-2.4180002,3.9240003,8.607
1680020114537,1200102891805109,-2.2480502,3.9100502,8.559
1680020114541,1200102894307263,-2.3149502,4.02705,8.595
1680020114543,1200102896809724,-2.2069502,3.9409502,8.587951
1680020114545,1200102899311955,-2.2429502,3.96705,8.512051
1680020114548,1200102901814340,-2.16195,4.017,8.63805
1680020114551,1200102904316494,-2.1330001,3.9859502,8.583
1680020114553,1200102906818700,-2.1330001,4.0080004,8.646001
1680020114557,1200102909321085,-2.20005,3.9769502,8.59095
1680020114559,1200102911823546,-2.20005,3.9499502,8.545051
1680020114562,1200102914325700,-2.07495,3.9450002,8.454
1680020114563,1200102916827917,-2.07795,3.969,8.694
1680020114565,1200102919330302,-2.02305,3.8830502,8.68605
1680020114567,1200102921832533,-2.08995,3.9169502,8.622001
1680020114569,1200102924334686,-2.01495,3.9240003,8.611951
1680020114571,1200102926837148,-1.8859501,3.831,8.538
1680020114574,1200102929339557,-1.9890001,3.9,8.583
1680020114578,1200102931841787,-1.90005,3.8740501,8.44005
1680020114581,1200102934343941,-1.9410001,3.7870502,8.49495
1680020114583,1200102936846326,-1.98195,3.8740501,8.526
1680020114585,1200102939348538,-1.9339501,3.7780502,8.554951
1680020114587,1200102941850922,-1.9530001,3.79905,8.48505
1680020114592,1200102944353153,-1.9720501,3.7369502,8.466001
1680020114593,1200102946855538,-1.98195,3.8209503,8.41605
1680020114595,1200102949357768,-2.02305,3.7510502,8.413051
1680020114596,1200102951860143,-2.02305,3.79905,8.437051
1680020114599,1200102954362297,-1.99995,3.6820502,8.325001
1680020114601,1200102956864528,-2.193,3.7440002,8.401051
1680020114604,1200102959366989,-2.1780002,3.69405,8.257951
1680020114606,1200102961869384,-2.18295,3.69405,8.3220005
1680020114609,1200102964371615,-2.15895,3.6460502,8.24295
1680020114611,1200102966873768,-2.217,3.7039502,8.215051
1680020114615,1200102969376153,-2.25,3.6700501,8.227051
1680020114618,1200102971878393,-2.32905,3.72495,8.19495
1680020114620,1200102974380854,-2.40105,3.68895,8.088
1680020114622,1200102976883008,-2.43495,3.7440002,8.154
1680020114624,1200102979385393,-2.403,3.7009501,8.083051
1680020114626,1200102981887624,-2.4850502,3.7680001,8.15205
1680020114630,1200102984389984,-2.53305,3.79905,8.0449505
1680020114631,1200102986892215,-2.676,3.69195,8.116051
1680020114634,1200102989394600,-2.5900502,3.8500502,8.089951
1680020114636,1200102991896830,-2.6089501,3.7399502,8.05395
1680020114639,1200102994399225,-2.71005,3.8760002,8.149051
1680020114642,1200102996901456,-2.703,3.8779502,8.083051
1680020114645,1200102999403610,-2.772,3.8260503,8.266951
1680020114647,1200103001905994,-2.76495,3.8830502,8.158951
1680020114650,1200103004408278,-2.8459501,3.8520002,8.17905
1680020114653,1200103006910740,-2.83905,3.8740501,8.109
1680020114655,1200103009412893,-2.832,3.8569503,8.1
1680020114658,1200103011915297,-2.80305,3.8419502,8.17395
1680020114661,1200103014417528,-2.8200002,3.8470502,8.15205
1680020114663,1200103016919912,-2.80605,3.83505,8.170051
1680020114664,1200103019422066,-2.7940502,3.9259503,8.19795
1680020114666,1200103021924528,-2.7220502,3.8899503,8.19795
1680020114670,1200103024426739,-2.7600002,3.8710501,8.248051
1680020114672,1200103026929123,-2.7199502,3.9019501,8.167951
1680020114674,1200103029431277,-2.6880002,3.8520002,8.286
1680020114678,1200103031933508,-2.7199502,3.8400002,8.397
1680020114681,1200103034435892,-2.6910002,3.9220502,8.433001
1680020114682,1200103036938374,-2.60205,3.8209503,8.45205
1680020114684,1200103039440528,-2.60205,3.8520002,8.409
1680020114686,1200103041942759,-2.52795,3.9100502,8.325001
1680020114691,1200103044445132,-2.4130502,3.8899503,8.55195
1680020114692,1200103046947363,-2.4850502,3.9190502,8.490001
1680020114695,1200103049449517,-2.41995,3.8899503,8.45205
1680020114696,1200103051951978,-2.43495,3.9259503,8.50695
1680020114699,1200103054454363,-2.36505,3.99795,8.41605
1680020114701,1200103056956536,-2.322,3.96495,8.406
1680020114704,1200103059458767,-2.3029501,4.0339503,8.394
1680020114708,1200103061961151,-2.2450502,4.05795,8.554951
1680020114711,1200103064463382,-2.0989501,4.0009503,8.52795
1680020114713,1200103066965844,-2.085,3.9550502,8.409
1680020114715,1200103069467997,-1.9939501,3.9930003,8.37705
1680020114716,1200103071970382,-1.9440001,4.053,8.47095
1680020114720,1200103074472613,-1.8790501,4.07205,8.434951
1680020114722,1200103076974998,-1.9480501,3.9859502,8.49195
1680020114724,1200103079477243,-1.7880001,4.149,8.65995
1680020114729,1200103081979397,-1.8790501,4.0740004,8.587951
1680020114731,1200103084481859,-1.8769501,4.0740004,8.581051
1680020114733,1200103086984243,-1.7950501,4.07205,8.559
1680020114735,1200103089486488,-1.797,4.09305,8.55
1680020114737,1200103091988642,-1.8430501,4.0470004,8.502001
1680020114740,1200103094491027,-1.7209501,4.0279503,8.51895
1680020114742,1200103096993257,-1.7590501,4.0410004,8.538
1680020114745,1200103099495719,-1.5990001,4.1059504,8.569051
1680020114748,1200103101997859,-1.6609501,4.1350503,8.50695
1680020114750,1200103104500243,-1.59405,4.1059504,8.50395
1680020114752,1200103107002474,-1.6350001,4.0669503,8.52795
1680020114754,1200103109504859,-1.6009501,4.077,8.48805
1680020114758,1200103112007095,-1.5630001,4.1610003,8.44905
1680020114760,1200103114509479,-1.5649501,4.1509504,8.49705
1680020114763,1200103117011710,-1.59195,4.2259502,8.562
1680020114767,1200103119514123,-1.5799501,4.18995,8.466001
1680020114769,1200103122016353,-1.6990501,4.17495,8.48805
1680020114771,1200103124518507,-1.5679501,4.3450503,8.51895
1680020114772,1200103127020892,-1.62495,4.2709503,8.47605
1680020114774,1200103129523353,-1.6300501,4.254,8.52105
1680020114779,1200103132025594,-1.66305,4.26195,8.530951
1680020114780,1200103134527748,-1.6660501,4.23,8.545051
1680020114782,1200103137030133,-1.67805,4.2379503,8.443951
1680020114784,1200103139532363,-1.7539501,4.1800504,8.44905
1680020114789,1200103142034488,-1.8910501,4.2780004,8.48295
1680020114794,1200103144536950,-1.9030501,4.3170004,8.4210005
1680020114796,1200103147039334,-1.9290001,4.33605,8.44005
1680020114796,1200103149541565,-1.9030501,4.242,8.535001
1680020114799,1200103152043719,-2.0710502,4.3500004,8.466001
1680020114801,1200103154546123,-2.12295,4.257,8.346001
1680020114803,1200103157048353,-2.16405,4.3050003,8.397
1680020114805,1200103159550738,-2.1660001,4.26405,8.48505
1680020114807,1200103162052969,-2.253,4.3309503,8.47605
1680020114810,1200103164555334,-2.25495,4.3170004,8.398951
1680020114812,1200103167057565,-2.4109502,4.293,8.443951
1680020114814,1200103169559950,-2.43705,4.3980002,8.47995
1680020114818,1200103172062104,-2.4060001,4.4029503,8.4210005
1680020114820,1200103174564329,-2.367,4.4029503,8.581051
1680020114822,1200103177066791,-2.538,4.36005,8.392051
1680020114824,1200103179569176,-2.5159502,4.48395,8.535001
1680020114828,1200103182071329,-2.52795,4.49205,8.433001
1680020114830,1200103184573560,-2.53005,4.43895,8.514
1680020114833,1200103187075945,-2.463,4.5270004,8.422951
1680020114835,1200103189578176,-2.5729501,4.58295,8.490001
1680020114838,1200103192080637,-2.4750001,4.551,8.47605
1680020114842,1200103194582772,-2.5500002,4.611,8.526
1680020114843,1200103197085157,-2.4850502,4.61595,8.535001
1680020114845,1200103199587387,-2.38905,4.6090503,8.49195
1680020114848,1200103202089772,-2.45895,4.578,8.502001
1680020114850,1200103204592003,-2.29605,4.6590004,8.433001
1680020114852,1200103207094397,-2.334,4.66905,8.49495
1680020114854,1200103209596628,-2.265,4.62795,8.47305
1680020114858,1200103212099013,-2.286,4.6930504,8.490001
1680020114863,1200103214601244,-2.22105,4.67595,8.425051
1680020114866,1200103217103397,-2.22105,4.6980004,8.46405
1680020114868,1200103219605767,-2.2050002,4.8289504,8.392051
1680020114870,1200103222107998,-2.1780002,4.7689505,8.358001
1680020114872,1200103224610459,-2.15895,4.848,8.34195
1680020114873,1200103227112844,-2.229,4.83405,8.265
1680020114875,1200103229614988,-2.14695,4.91505,8.262
1680020114879,1200103232117219,-2.1349502,4.8679504,8.269951
1680020114881,1200103234619603,-2.16405,4.8240004,8.33895
1680020114883,1200103237121834,-2.08005,4.83195,8.35095
1680020114885,1200103239624224,-1.9600501,4.7790003,8.442
1680020114887,1200103242126454,-2.0659502,4.7839503,8.34195
1680020114890,1200103244628839,-1.968,4.75005,8.41605
1680020114892,1200103247131070,-1.9750501,4.7410502,8.301001
1680020114895,1200103249633224,-1.9290001,4.73295,8.47095
1680020114898,1200103252135570,-2.0059502,4.6260004,8.51895
1680020114900,1200103254638032,-1.9219501,4.6639504,8.398951
1680020114903,1200103257140186,-1.8430501,4.67805,8.41605
1680020114905,1200103259642416,-1.9200001,4.6210504,8.394
1680020114907,1200103262144801,-1.8769501,4.683,8.437051
1680020114910,1200103264647032,-1.7659501,4.6330504,8.49195
1680020114912,1200103267149186,-1.7899501,4.6639504,8.410951
1680020114916,1200103269651647,-1.66305,4.638,8.467951
1680020114919,1200103272154032,-1.58895,4.6540504,8.358001
1680020114921,1200103274656263,-1.55805,4.7260504,8.530951
1680020114923,1200103277158417,-1.62705,4.6399503,8.502001
1680020114924,1200103279660801,-1.536,4.6090503,8.47995
1680020114927,1200103282163032,-1.644,4.6330504,8.530951
1680020114929,1200103284665488,-1.7209501,4.62795,8.346001
1680020114931,1200103287167642,-1.7569501,4.662,8.394
1680020114934,1200103289670027,-1.6800001,4.6470003,8.368051
1680020114938,1200103292172258,-1.7380501,4.7310004,8.394
1680020114940,1200103294674637,-1.692,4.67805,8.43
1680020114943,1200103297176791,-1.7230501,4.6660504,8.394
1680020114945,1200103299679022,-1.6849501,4.69995,8.41605
1680020114948,1200103302181484,-1.8049501,4.7070003,8.3560505
1680020114951,1200103304683868,-1.8600001,4.7190003,8.413051
1680020114954,1200103307186099,-1.8960001,4.70505,8.361
1680020114957,1200103309688253,-1.93605,4.7260504,8.358001
1680020114959,1200103312190661,-2.0370002,4.70505,8.404051
1680020114961,1200103314692892,-2.08005,4.7719502,8.410951
1680020114963,1200103317195354,-2.16195,4.7449503,8.31795
1680020114965,1200103319697508,-2.2840502,4.7569504,8.437051
1680020114969,1200103322199907,-2.2069502,4.7839503,8.32005
1680020114970,1200103324702138,-2.28795,4.75995,8.392051
1680020114972,1200103327204523,-2.2999501,4.7910004,8.35095
1680020114974,1200103329706753,-2.322,4.77705,8.433001
1680020114980,1200103332209113,-2.35605,4.7719502,8.370001
1680020114981,1200103334711344,-2.28795,4.71705,8.30595
1680020114982,1200103337213728,-2.26005,4.72905,8.272051
1680020114985,1200103339715959,-2.3389502,4.7530503,8.233951
1680020114988,1200103342218113,-2.20005,4.743,8.28405
1680020114992,1200103344720494,-2.23095,4.7070003,8.19795
1680020114995,1200103347222955,-2.18505,4.8630004,8.227051
1680020114996,1200103349725186,-2.1780002,4.839,8.095051
1680020114998,1200103352227571,-2.07495,4.8169503,8.170051
1680020115001,1200103354729724,-1.9939501,4.77405,8.187
1680020115002,1200103357231950,-2.05605,4.75995,8.097
1680020115004,1200103359734335,-2.0370002,4.83405,8.04195
1680020115008,1200103362236796,-2.0269501,4.92705,8.023951
1680020115010,1200103364738950,-1.9600501,4.839,8.15205
1680020115013,1200103367241181,-1.8600001,4.79295,8.052
1680020115015,1200103369743571,-1.8379501,4.9009504,8.148001
1680020115018,1200103372245724,-1.8240001,4.8169503,8.06805
1680020115020,1200103374747955,-1.9270501,4.9300504,8.109
1680020115022,1200103377250340,-1.8859501,4.9510503,8.05605
1680020115025,1200103379752551,-1.8330001,4.9080005,7.9939504
1680020115030,1200103382254935,-1.8330001,4.9489503,8.028001
1680020115032,1200103384757166,-1.89795,4.9110003,7.9990506
1680020115034,1200103387259566,-1.8570001,4.91295,7.932
1680020115036,1200103389761796,-1.881,5.0230503,7.96995
1680020115039,1200103392264181,-1.8379501,4.9080005,7.9150505
1680020115040,1200103394766412,-1.9219501,4.9729505,8.035951
1680020115042,1200103397268796,-1.9120501,4.9510503,8.017051
1680020115052,1200103399770935,-1.8769501,4.9110003,7.9009504
1680020115053,1200103402273166,-1.8910501,4.899,8.005051
1680020115053,1200103404775628,-1.8930001,4.9830003,7.827
1680020115053,1200103407278012,-1.8190501,4.9510503,7.8240004
1680020115054,1200103409780272,-1.9050001,4.87995,7.8169503
1680020115058,1200103412282426,-1.9579501,5.004,7.6519504
1680020115059,1200103414784810,-2.0070002,5.0400004,7.7790003
1680020115062,1200103417287041,-2.1040502,4.9350004,7.76205
1680020115066,1200103419789546,-2.05095,4.9560003,7.7830505
1680020115068,1200103422291700,-2.08005,5.08605,7.8100505
1680020115071,1200103424794084,-2.0659502,5.05695,7.7569504
1680020115073,1200103427296315,-2.082,5.1120005,7.7569504
1680020115075,1200103429798469,-2.0970001,5.11905,7.7500505
1680020115078,1200103432300864,-2.043,5.0400004,7.7860503
1680020115080,1200103434803325,-2.0320501,5.08995,7.93695
1680020115082,1200103437305556,-2.0320501,5.0929503,7.8120003
1680020115084,1200103439807710,-1.9650002,5.0929503,7.8480005
1680020115088,1200103442310118,-1.89795,5.11905,7.7160006
1680020115089,1200103444812349,-1.8649501,5.10195,7.8409505
1680020115092,1200103447314734,-1.9939501,5.136,7.7830505
1680020115095,1200103449816964,-1.8019501,5.1600003,7.7089505
1680020115098,1200103452319354,-1.8379501,5.1480002,7.8360004
1680020115100,1200103454821585,-1.74495,5.19105,7.7500505
1680020115105,1200103457323969,-1.7659501,5.23605,7.932
1680020115106,1200103459826123,-1.7659501,5.157,7.8550506
1680020115111,1200103462328325,-1.6710001,5.2510505,7.7310004
1680020115112,1200103464830710,-1.6489501,5.208,7.8700504
1680020115113,1200103467333171,-1.6009501,5.1930003,7.8960004
1680020115115,1200103469835325,-1.5649501,5.2440004,7.9219503
1680020115118,1200103472337556,-1.7020501,5.23605,7.9819503
1680020115120,1200103474839917,-1.6510501,5.1720004,7.9420505
1680020115124,1200103477342147,-1.6830001,5.21505,7.9939504
1680020115125,1200103479844301,-1.6300501,5.1979504,8.002951
1680020115129,1200103482346763,-1.6470001,5.29605,8.04195
1680020115131,1200103484849161,-1.7260501,5.3179502,8.1
1680020115132,1200103487351392,-1.7160001,5.3179502,8.217
1680020115136,1200103489853777,-1.6830001,5.3419504,8.29395
1680020115138,1200103492356007,-1.6540501,5.3970003,8.19795
1680020115142,1200103494858151,-1.659,5.3490005,8.28405
1680020115143,1200103497360613,-1.6900501,5.466,8.337001
1680020115145,1200103499862998,-1.67805,5.4469504,8.358001
1680020115148,1200103502365151,-1.55295,5.4540005,8.401051
1680020115151,1200103504867613,-1.6030501,5.4040504,8.49705
1680020115153,1200103507369806,-1.575,5.4760504,8.47995
1680020115155,1200103509872037,-1.5409501,5.43795,8.47605
1680020115161,1200103512374498,-1.5960001,5.4469504,8.490001
1680020115161,1200103514876883,-1.55805,5.361,8.533051
1680020115162,1200103517379032,-1.59405,5.42595,8.542951
1680020115164,1200103519881262,-1.43595,5.44005,8.599951
1680020115169,1200103522383647,-1.44105,5.51205,8.55
1680020115170,1200103524885801,-1.4310001,5.478,8.569051
1680020115174,1200103527388032,-1.46895,5.3299503,8.61495
1680020115175,1200103529890493,-1.3450501,5.51205,8.52795
1680020115179,1200103532392878,-1.3300501,5.44005,8.433001
1680020115181,1200103534895032,-1.3620001,5.4349504,8.512051
1680020115183,1200103537397291,-1.29495,5.47095,8.35095
1680020115185,1200103539899676,-1.383,5.538,8.52105
1680020115188,1200103542401907,-1.3759501,5.45895,8.33895
1680020115193,1200103544904291,-1.31805,5.52405,8.32005
1680020115195,1200103547406517,-1.3039501,5.4949503,8.42805
1680020115196,1200103549908902,-1.23705,5.4019504,8.325001
1680020115199,1200103552411133,-1.2709501,5.4970503,8.33895
1680020115200,1200103554913286,-1.23705,5.5360503,8.260051
1680020115204,1200103557415671,-1.29495,5.55495,8.0449505
1680020115206,1200103559918133,-1.2199501,5.5260005,8.21895
1680020115209,1200103562420363,-1.2919501,5.48295,8.1
1680020115210,1200103564922517,-1.383,5.50005,8.203051
1680020115212,1200103567424902,-1.3060501,5.48295,8.03505
1680020115218,1200103569927142,-1.36905,5.505,8.17905
1680020115220,1200103572429526,-1.3740001,5.4570003,8.149051
1680020115221,1200103574931757,-1.3420501,5.44005,8.08005
1680020115223,1200103577434142,-1.3450501,5.3440504,8.088
1680020115225,1200103579936372,-1.43595,5.433,8.128051
1680020115228,1200103582438738,-1.40505,5.3970003,8.08005
1680020115230,1200103584940892,-1.4170501,5.39895,8.113951
1680020115232,1200103587443123,-1.3759501,5.30595,8.137051
1680020115234,1200103589945584,-1.36905,5.33505,8.029051
1680020115238,1200103592447964,-1.43595,5.3899503,8.017051
1680020115240,1200103594950195,-1.4569501,5.406,8.02095
1680020115242,1200103597452348,-1.4260501,5.3490005,8.076
1680020115245,1200103599954733,-1.3879501,5.4640503,8.145
1680020115248,1200103602456969,-1.386,5.37795,8.00895
1680020115251,1200103604959353,-1.4929501,5.3869505,8.236051
1680020115255,1200103607461584,-1.43595,5.4540005,8.088
1680020115257,1200103609963969,-1.45305,5.47305,8.19495
1680020115263,1200103612466181,-1.5079501,5.478,8.149051
1680020115264,1200103615107334,-1.55805,5.5210505,8.05395
1680020115265,1200103617470796,-1.5480001,5.5260005,8.191051
1680020115267,1200103619972950,-1.5630001,5.54295,8.17905
1680020115269,1200103622475411,-1.5820501,5.5960503,8.083051
1680020115270,1200103624977796,-1.6489501,5.58795,8.161051
1680020115272,1200103627480022,-1.6540501,5.6290503,8.08005
1680020115275,1200103629982406,-1.5439501,5.63595,8.170051
1680020115278,1200103632484560,-1.6320001,5.67495,8.182051
1680020115280,1200103634986791,-1.6849501,5.7250504,8.01
1680020115282,1200103637489234,-1.64205,5.7130504,8.193001
1680020115284,1200103639991387,-1.71405,5.75895,8.16705
1680020115288,1200103642493772,-1.5960001,5.742,8.134951
1680020115291,1200103644996003,-1.67805,5.80905,8.142
1680020115293,1200103647498396,-1.7260501,5.8710003,8.191051
1680020115295,1200103650000550,-1.6060501,5.87295,8.167951
1680020115298,1200103652503012,-1.572,5.76795,8.148001
1680020115300,1200103655005243,-1.539,5.8609505,8.128051
1680020115302,1200103657507627,-1.536,5.802,8.2240505
1680020115304,1200103660009772,-1.5600001,5.8710003,8.31
1680020115308,1200103662512003,-1.51995,5.7970505,8.205
1680020115311,1200103665014388,-1.5460501,5.83995,8.30595
1680020115312,1200103667516618,-1.4430001,5.8900504,8.116051
1680020115314,1200103670019003,-1.42095,5.802,8.19795
1680020115318,1200103672521234,-1.3950001,5.8350005,8.301001
1680020115320,1200103675023618,-1.3810501,5.8780503,8.236051
1680020115322,1200103677525849,-1.40505,5.8879504,8.30805
1680020115325,1200103680027983,-1.371,5.9500504,8.361
1680020115330,1200103682530368,-1.4479501,5.9209504,8.35095
1680020115331,1200103685032829,-1.4140501,5.9089503,8.262
1680020115333,1200103687535060,-1.3450501,5.931,8.272051
1680020115335,1200103690037431,-1.3279501,5.8500004,8.262
1680020115338,1200103692539584,-1.43595,5.89305,8.154
1680020115339,1200103695041815,-1.40205,5.8609505,8.191051
1680020115342,1200103697544200,-1.35405,5.9089503,8.253
1680020115345,1200103700046675,-1.3950001,5.847,8.17905
1680020115348,1200103702548829,-1.3879501,5.8300505,8.158951
1680020115351,1200103705051060,-1.3660501,5.859,8.217
1680020115352,1200103707553445,-1.2900001,5.75895,8.17395
1680020115354,1200103710055675,-1.43805,5.859,8.03505
1680020115358,1200103712558060,-1.4569501,5.8450503,8.089951
1680020115360,1200103715060291,-1.4170501,5.8110003,7.9939504
1680020115362,1200103717562675,-1.3420501,5.8159504,7.89795
1680020115366,1200103720064906,-1.43295,5.8690505,7.8840003
1680020115369,1200103722567301,-1.42095,5.74905,7.932
1680020115371,1200103725069532,-1.4980501,5.8279505,7.9939504
1680020115372,1200103727571685,-1.4929501,5.74695,8.005051
1680020115375,1200103730074147,-1.5289501,5.7730503,8.001
1680020115378,1200103732576547,-1.62495,5.73705,7.965
1680020115380,1200103735078777,-1.59405,5.8279505,8.001
1680020115382,1200103737580931,-1.5439501,5.7229505,7.9990506
1680020115385,1200103740083316,-1.59195,5.7900004,7.9420505
1680020115388,1200103742585547,-1.608,5.77005,7.8430505
1680020115391,1200103745087922,-1.5820501,5.78205,7.8619504
1680020115393,1200103747590153,-1.62495,5.63595,7.8550506
1680020115395,1200103750092538,-1.6150501,5.8330503,7.8820505
1680020115398,1200103752594768,-1.608,5.71995,7.79295
1680020115400,1200103755096922,-1.51995,5.754,7.7830505
1680020115403,1200103757599307,-1.6009501,5.79405,7.7830505
1680020115406,1200103760101538,-1.6200001,5.7970505,7.6780505
1680020115408,1200103762603999,-1.5960001,5.6580005,7.6470003
1680020115411,1200103765106153,-1.70895,5.6940002,7.6800003
1680020115413,1200103767608538,-1.5460501,5.77005,7.6660504
1680020115415,1200103770110768,-1.572,5.7660003,7.66095
1680020115418,1200103772613153,-1.7260501,5.7780004,7.7190003
1680020115420,1200103775115287,-1.5700501,5.742,7.6519504
1680020115422,1200103777617748,-1.6369501,5.7559505,7.6420503
1680020115425,1200103780119979,-1.6540501,5.73705,7.68795
1680020115428,1200103782622364,-1.62495,5.7130504,7.66095
1680020115431,1200103785124513,-1.5820501,5.74695,7.6470003
1680020115433,1200103787626743,-1.74495,5.7990003,7.5820503
1680020115435,1200103790129128,-1.7689501,5.6670003,7.6470003
1680020115438,1200103792631590,-1.692,5.7630005,7.6489506
1680020115441,1200103795133835,-1.7830501,5.775,7.7119503
1680020115443,1200103797635989,-1.7209501,5.79195,7.6159506
1680020115446,1200103800138374,-1.7899501,5.8180504,7.5270004
1680020115448,1200103802640605,-1.8859501,5.715,7.5270004
1680020115450,1200103805142989,-1.8739501,5.7109504,7.5540004
1680020115452,1200103807645239,-1.8430501,5.6410503,7.5540004
1680020115455,1200103810147624,-1.8739501,5.682,7.63005
1680020115458,1200103812649854,-1.8409501,5.6940002,7.668
1680020115461,1200103815152239,-1.9080001,5.6410503,7.6369505
1680020115462,1200103817654470,-1.9219501,5.6580005,7.6470003
1680020115467,1200103820156614,-1.9120501,5.68905,7.5660005
1680020115470,1200103822658998,-1.845,5.71995,7.5919504
1680020115472,1200103825161460,-1.83105,5.70795,7.6249504
1680020115473,1200103827663691,-1.8859501,5.598,7.69995
1680020115475,1200103830166061,-1.9440001,5.6959505,7.4719505
1680020115480,1200103832668215,-1.8739501,5.61495,7.5990005
1680020115481,1200103835170446,-1.9080001,5.60295,7.6849504
1680020115483,1200103837672825,-1.8409501,5.61,7.5750003
1680020115485,1200103840175287,-1.797,5.5189505,7.5319505
1680020115488,1200103842677441,-1.8859501,5.6580005,7.6540504
1680020115490,1200103845179672,-1.8409501,5.5480504,7.53
1680020115492,1200103847682056,-1.7590501,5.5740004,7.623
1680020115495,1200103850184215,-1.7500501,5.5789504,7.70205
1680020115498,1200103852686446,-1.7809501,5.5999503,7.635
1680020115500,1200103855188907,-1.7590501,5.5090504,7.6920004
1680020115502,1200103857691292,-1.70895,5.54295,7.6830006
1680020115505,1200103860193446,-1.7500501,5.5669503,7.6330504
1680020115508,1200103862695677,-1.7500501,5.493,7.6519504
1680020115512,1200103865198061,-1.7380501,5.51205,7.668
1680020115513,1200103867700292,-1.7160001,5.4619503,7.68795
1680020115516,1200103870202662,-1.6849501,5.5530005,7.6729503
1680020115520,1200103872704892,-1.659,5.5090504,7.6159506
1680020115523,1200103875206085,-1.70595,5.45205,7.6039505
1680020115523,1200103877707278,-1.6470001,5.466,7.6470003
1680020115525,1200103880211662,-1.6470001,5.5410004,7.52505
1680020115529,1200103882714051,-1.59405,5.4949503,7.59705
1680020115530,1200103885216282,-1.575,5.5740004,7.5270004
1680020115532,1200103887718744,-1.5769501,5.493,7.7190003
1680020115535,1200103890220898,-1.5480001,5.47095,7.66095
1680020115538,1200103892723296,-1.58895,5.48295,7.6639504
1680020115540,1200103895225527,-1.4650501,5.4970503,7.7089505
1680020115542,1200103897727912,-1.491,5.4949503,7.8360004
1680020115545,1200103900230142,-1.4929501,5.4619503,7.7449503
1680020115548,1200103902732527,-1.51005,5.4300003,7.83405
1680020115551,1200103905234758,-1.371,5.45205,7.7380505
1680020115554,1200103907737142,-1.3980001,5.54505,7.7640004
1680020115556,1200103910239373,-1.4070001,5.4900002,7.9030504
1680020115560,1200103912741783,-1.3260001,5.5090504,7.9270506
1680020115562,1200103915244014,-1.386,5.5069504,7.9510503
1680020115563,1200103917746398,-1.3090501,5.5189505,7.8910503
1680020115565,1200103920248629,-1.4569501,5.55495,7.8600006
1680020115568,1200103922750778,-1.3470001,5.53305,7.8700504
1680020115570,1200103925253162,-1.33305,5.5960503,7.9200006
1680020115574,1200103927755624,-1.3950001,5.63205,8.005051
1680020115575,1200103930257855,-1.4599501,5.5690503,7.9129505
1680020115578,1200103932759975,-1.383,5.5930505,8.073
1680020115580,1200103935262359,-1.3950001,5.5480504,8.052
1680020115582,1200103937764590,-1.419,5.6290503,8.01
1680020115585,1200103940266975,-1.4089501,5.48295,8.10705
1680020115588,1200103942769205,-1.33305,5.58795,8.104051
1680020115592,1200103945271595,-1.4929501,5.5620003,8.167951
1680020115595,1200103947773826,-1.4670001,5.48295,8.097
1680020115596,1200103950276210,-1.3759501,5.5999503,8.04195
1680020115599,1200103952778388,-1.5480001,5.445,8.18595
1680020115600,1200103955280619,-1.43595,5.4900002,8.035951
1680020115602,1200103957783081,-1.47195,5.4210005,8.182051
1680020115605,1200103960285234,-1.5799501,5.4570003,8.274
1680020115608,1200103962787619,-1.5079501,5.433,8.191051
1680020115610,1200103965289840,-1.6060501,5.41095,8.253
1680020115612,1200103967792224,-1.572,5.3749504,8.203051
1680020115615,1200103970294378,-1.5409501,5.4210005,8.29395
1680020115618,1200103972796609,-1.70595,5.3869505,8.30595
1680020115620,1200103975299090,-1.6969501,5.42805,8.31
1680020115623,1200103977801474,-1.6110001,5.43795,8.241
1680020115625,1200103980303705,-1.6060501,5.406,8.272051
1680020115629,1200103982805859,-1.59195,5.4900002,8.28405
1680020115632,1200103985308258,-1.5340501,5.43795,8.368051
1680020115633,1200103987810489,-1.5340501,5.517,8.32995
1680020115635,1200103990312951,-1.4959501,5.418,8.349
1680020115639,1200103992815105,-1.524,5.385,8.245951
1680020115640,1200103995317489,-1.42095,5.4640503,8.215051
1680020115643,1200103997819734,-1.39995,5.466,8.349
1680020115645,1200104000322119,-1.4290501,5.4810004,8.28405
1680020115648,1200104002824272,-1.4140501,5.4420004,8.155951
1680020115650,1200104005326734,-1.3590001,5.53095,8.205
1680020115652,1200104007828970,-1.383,5.565,8.2240505
1680020115654,1200104010331354,-1.43595,5.466,8.104051
1680020115658,1200104012833585,-1.3230001,5.48505,8.14005
1680020115660,1200104015335739,-1.4650501,5.478,8.175
1680020115662,1200104017838124,-1.45305,5.5069504,8.076
1680020115666,1200104020340595,-1.536,5.433,8.028001
1680020115669,1200104022842826,-1.4449501,5.52405,8.089951
1680020115681,1200104025345211,-1.5169501,5.406,7.9609504
1680020115681,1200104027847388,-1.4650501,5.4690003,7.8859506
1680020115681,1200104030349619,-1.4569501,5.4420004,7.86495
1680020115681,1200104032852004,-1.4860501,5.47095,7.8
1680020115681,1200104035354465,-1.51995,5.5360503,7.76205
1680020115682,1200104037856619,-1.4260501,5.5810504,7.6900506
1680020115685,1200104040358854,-1.5169501,5.6080503,7.6210504
1680020115688,1200104042861239,-1.6470001,5.6119504,7.6420503
1680020115690,1200104045363469,-1.6110001,5.5020003,7.7500505
1680020115692,1200104047865623,-1.55595,5.5290003,7.7640004
1680020115695,1200104050368017,-1.6200001,5.4949503,7.7380505
1680020115698,1200104052870478,-1.62495,5.41095,7.8150005
1680020115700,1200104055372709,-1.6390501,5.4040504,7.8120003
1680020115704,1200104057874863,-1.69395,5.3320503,7.8
1680020115706,1200104060377239,-1.5679501,5.208,7.77405
1680020115709,1200104062879469,-1.62495,5.2650003,7.7380505
1680020115712,1200104065381854,-1.692,5.3320503,7.7830505
1680020115713,1200104067884085,-1.5840001,5.2600503,7.6900506
1680020115715,1200104070386469,-1.6470001,5.24805,7.8240004
1680020115719,1200104072888685,-1.6200001,5.229,7.7479506
1680020115720,1200104075390839,-1.5820501,5.2270503,7.728
1680020115722,1200104077893224,-1.6830001,5.3419504,7.7430005
1680020115725,1200104080395455,-1.66305,5.26305,7.7260504
1680020115728,1200104082897902,-1.5700501,5.32305,7.7520003
1680020115730,1200104085400056,-1.6660501,5.29395,7.827
1680020115733,1200104087902441,-1.5289501,5.23605,7.8120003
1680020115734,1200104090404671,-1.59195,5.2909503,7.8619504
1680020115738,1200104092907056,-1.55295,5.3299503,7.7830505
1680020115741,1200104095409214,-1.55295,5.373,7.8220506
1680020115743,1200104097911675,-1.5769501,5.3440504,7.8190503
1680020115745,1200104100413906,-1.58895,5.4040504,7.8169503
1680020115748,1200104102916320,-1.5840001,5.38005,7.9579506
1680020115751,1200104105418550,-1.455,5.4469504,7.8460503
1680020115753,1200104107920704,-1.5460501,5.38005,7.93695
1680020115755,1200104110423089,-1.52205,5.39895,7.9129505
1680020115758,1200104112925551,-1.4479501,5.42805,8.005051
1680020115761,1200104115427776,-1.5289501,5.3490005,7.9939504
1680020115762,1200104117929930,-1.59405,5.4300003,8.06595
1680020115765,1200104120432315,-1.51995,5.3629503,7.9800005
1680020115768,1200104122934546,-1.5480001,5.4469504,8.052
1680020115772,1200104125436897,-1.5409501,5.4229503,8.11905
1680020115773,1200104127939128,-1.5319501,5.433,7.9939504
1680020115775,1200104130441513,-1.5600001,5.3560505,8.092051
1680020115780,1200104132943743,-1.5600001,5.4210005,8.13
1680020115782,1200104135446113,-1.4290501,5.4760504,8.08005
1680020115783,1200104137948344,-1.5169501,5.2840505,8.23095
1680020115785,1200104140450728,-1.62705,5.4210005,8.170051
1680020115788,1200104142952882,-1.5679501,5.36595,8.14005
1680020115791,1200104145455344,-1.55295,5.3710504,8.116051
1680020115793,1200104147957561,-1.5169501,5.4420004,8.191051
1680020115796,1200104150459945,-1.5409501,5.394,8.017051
1680020115798,1200104152962099,-1.491,5.41095,8.113951
1680020115800,1200104155464330,-1.55295,5.44995,8.092051
1680020115802,1200104157966714,-1.4500501,5.4090004,8.11905
1680020115805,1200104160469185,-1.43595,5.4469504,8.191051
1680020115811,1200104162971339,-1.4449501,5.4160504,8.112
1680020115812,1200104165473570,-1.4170501,5.4210005,8.101951
1680020115813,1200104167975954,-1.419,5.36805,8.13
1680020115818,1200104170478089,-1.3740001,5.35395,8.182051
1680020115820,1200104172980320,-1.4260501,5.36595,8.061001
1680020115822,1200104175482781,-1.3110001,5.36595,8.092051
1680020115823,1200104177985166,-1.3740001,5.4040504,8.095051
1680020115825,1200104180487320,-1.3399501,5.4619503,8.18595
1680020115828,1200104182989551,-1.2390001,5.3749504,8.137051
1680020115831,1200104185491935,-1.3039501,5.35395,8.18595
1680020115833,1200104187994166,-1.24395,5.4090004,8.181001
1680020115835,1200104190496320,-1.2079501,5.478,8.19495
1680020115838,1200104192998781,-1.2270001,5.5090504,7.9939504
1680020115840,1200104195501161,-1.2610501,5.54295,8.104051
1680020115845,1200104198003392,-1.24395,5.4900002,8.10705
1680020115846,1200104200505546,-1.4070001,5.4810004,8.101951
1680020115850,1200104203007887,-1.23195,5.4229503,8.083051
1680020115851,1200104205510118,-1.27995,5.41095,8.149051
1680020115854,1200104208012580,-1.2610501,5.3440504,8.29605
1680020115856,1200104210514733,-1.28505,5.36805,8.10705
1680020115859,1200104213017118,-1.23705,5.3149505,8.035951
1680020115861,1200104215519349,-1.2229501,5.38005,8.10705
1680020115863,1200104218021733,-1.21305,5.34705,8.19495
1680020115865,1200104220523964,-1.266,5.4760504,7.9939504
1680020115869,1200104223026349,-1.3260001,5.3970003,8.04
1680020115871,1200104225528551,-1.383,5.42595,8.059051
1680020115873,1200104228030935,-1.39005,5.33505,8.116051
1680020115875,1200104230533166,-1.3660501,5.33895,7.93905
1680020115878,1200104233035551,-1.2229501,5.385,8.023951
1680020115880,1200104235537704,-1.21305,5.3250003,7.8790503
1680020115883,1200104238040161,-1.1220001,5.2270503,7.9579506
1680020115885,1200104240542392,-1.09605,5.3320503,7.9510503
1680020115888,1200104243044776,-1.24695,5.3920503,7.8360004
1680020115892,1200104245546930,-1.33305,5.3440504,7.7980504
1680020115893,1200104248049186,-1.386,5.3419504,7.767
1680020115896,1200104250551571,-1.4070001,5.41095,7.6519504
1680020115898,1200104253054032,-1.3110001,5.39895,7.7040005
1680020115900,1200104255556186,-1.3399501,5.3370004,7.7089505
1680020115903,1200104258058417,-1.386,5.29395,7.66095
1680020115905,1200104260560806,-1.47405,5.256,7.6920004
1680020115908,1200104263063037,-1.4170501,5.30595,7.6399503
1680020115910,1200104265565422,-1.5409501,5.2650003,7.668
1680020115912,1200104268067576,-1.4569501,5.34705,7.5990005
1680020115915,1200104270570037,-1.52205,5.3419504,7.6039505
1680020115918,1200104273072268,-1.67295,5.268,7.52505
1680020115920,1200104275574653,-1.7350501,5.44995,7.7479506
1680020115922,1200104278076807,-1.848,5.3590503,7.62795
1680020115925,1200104280579037,-1.8570001,5.466,7.6210504
1680020115930,1200104283081412,-1.881,5.4090004,7.5919504
1680020115931,1200104285583643,-1.8769501,5.47305,7.6129503
1680020115933,1200104288086027,-1.9080001,5.51205,7.6009502
1680020115935,1200104290588258,-1.83105,5.3509502,7.5919504
1680020115938,1200104293090643,-1.8529501,5.517,7.6590004
1680020115940,1200104295592797,-1.8409501,5.5069504,7.6780505
1680020115942,1200104298095027,-1.8090001,5.4970503,7.7860503
1680020115945,1200104300597489,-1.917,5.538,7.6420503
1680020115949,1200104303099879,-1.8769501,5.6269503,7.8820505
1680020115951,1200104305602032,-1.8499501,5.51205,7.8169503
1680020115953,1200104308104263,-1.7740501,5.57205,7.8030005
1680020115955,1200104310606648,-1.7230501,5.57595,7.8120003
1680020115958,1200104313108903,-1.6540501,5.6839504,7.9300504
1680020115960,1200104315611287,-1.6680001,5.6580005,7.8960004
1680020115963,1200104318113518,-1.62495,5.6839504,7.9560003
1680020115967,1200104320615898,-1.5480001,5.7250504,8.023951
1680020115969,1200104323118128,-1.5120001,5.6959505,7.8409505
1680020115971,1200104325620282,-1.5460501,5.7109504,7.9420505
1680020115973,1200104328122667,-1.51005,5.6410503,7.9540505
1680020115975,1200104330624898,-1.48395,5.6719503,7.9870505
1680020115978,1200104333127340,-1.3759501,5.67705,7.90605
1680020115980,1200104335629725,-1.42095,5.58405,7.9849505
1680020115982,1200104338131879,-1.3399501,5.7010503,8.064
1680020115985,1200104340634109,-1.4290501,5.61495,7.9870505
1680020115988,1200104343136508,-1.3759501,5.6200504,8.016001
1680020115991,1200104345638739,-1.383,5.55495,8.005051
1680020115992,1200104348141123,-1.3620001,5.61495,7.9080005
1680020115995,1200104350643354,-1.39005,5.52405,8.029051
1680020115998,1200104353145739,-1.3090501,5.466,7.9489503
1680020116000,1200104355647970,-1.3279501,5.4900002,7.8859506
1680020116004,1200104358150354,-1.24395,5.48505,7.9489503
1680020116006,1200104360652508,-1.2610501,5.4570003,7.9729505
1680020116009,1200104363154970,-1.3060501,5.4019504,7.8169503
1680020116011,1200104365657195,-1.194,5.418,7.8150005
1680020116012,1200104368159580,-1.29495,5.4349504,7.7880006
1680020116015,1200104370661811,-1.3930501,5.373,7.8600006
1680020116018,1200104373163965,-1.2390001,5.36595,7.8289504
1680020116020,1200104375666349,-1.2079501,5.3920503,7.8510003
1680020116022,1200104378168831,-1.2900001,5.385,7.93905
1680020116025,1200104380671062,-1.33305,5.3490005,7.7860503
1680020116028,1200104383173215,-1.2709501,5.256,7.7359505
1680020116030,1200104385675600,-1.2040501,5.313,7.8310504
1680020116032,1200104388177811,-1.2229501,5.2770004,7.7980504
1680020116035,1200104390679965,-1.28295,5.2270503,7.8310504
1680020116038,1200104393182426,-1.23,5.229,7.7550006
1680020116042,1200104395684811,-1.2040501,5.33505,7.7710505
1680020116044,1200104398187062,-1.1509501,5.28,7.7830505
1680020116046,1200104400689215,-1.23,5.3509502,7.6969504
1680020116049,1200104403191600,-1.266,5.3749504,7.80495
1680020116051,1200104405693831,-1.2390001,5.4040504,7.7790003
1680020116053,1200104408196215,-1.2780001,5.3869505,7.7860503
1680020116055,1200104410698441,-1.28505,5.44005,7.8700504
1680020116058,1200104413200826,-1.21305,5.36805,7.8619504
1680020116060,1200104415703057,-1.1920501,5.4210005,7.8550506
1680020116062,1200104418205441,-1.2229501,5.29605,7.7980504
1680020116065,1200104420707595,-1.2250501,5.4019504,7.8960004
1680020116069,1200104423209811,-1.2060001,5.4019504,7.8460503
1680020116070,1200104425712272,-1.23,5.394,7.8859506
1680020116072,1200104428214657,-1.35195,5.55,7.9560003
1680020116075,1200104430716811,-1.31805,5.4880505,7.8790503
1680020116080,1200104433219033,-1.218,5.538,7.8529506
1680020116081,1200104435721494,-1.3879501,5.4970503,7.8619504
1680020116083,1200104438223879,-1.3399501,5.5740004,7.7569504
1680020116085,1200104440726033,-1.47195,5.5930505,7.7569504
1680020116088,1200104443228263,-1.4670001,5.5960503,7.7760005
1680020116090,1200104445730648,-1.4569501,5.6650505,7.7140503
1680020116093,1200104448232879,-1.4670001,5.5789504,7.73295
1680020116095,1200104450735263,-1.4860501,5.48295,7.7260504
1680020116098,1200104453237508,-1.4790001,5.5690503,7.7569504
1680020116100,1200104455739893,-1.47195,5.622,7.73295
1680020116102,1200104458242047,-1.4599501,5.5810504,7.7830505
1680020116106,1200104460744277,-1.52205,5.5090504,7.7569504
1680020116109,1200104463246681,-1.5990001,5.61495,7.7160006
1680020116111,1200104465749143,-1.59405,5.63205,7.9009504
1680020116113,1200104468251297,-1.55595,5.6530504,7.8240004
1680020116117,1200104470753555,-1.64205,5.622,7.8430505
1680020116120,1200104473255940,-1.623,5.63595,7.8619504
1680020116122,1200104475758171,-1.6830001,5.57205,7.9009504
1680020116123,1200104478260325,-1.6510501,5.5690503,7.8169503
1680020116126,1200104480762786,-1.6300501,5.58795,7.93905
1680020116128,1200104483265158,-1.6320001,5.58795,7.8360004
1680020116130,1200104485767388,-1.623,5.5909505,7.9030504
1680020116133,1200104488269773,-1.6350001,5.598,7.9729505
1680020116135,1200104490771927,-1.5679501,5.7010503,7.93905
1680020116138,1200104493274163,-1.5600001,5.6989503,7.9339504
1680020116140,1200104495776547,-1.6009501,5.67,8.023951
1680020116144,1200104498279009,-1.575,5.715,8.03295
1680020116146,1200104500781240,-1.539,5.6940002,8.05395
1680020116149,1200104503283397,-1.4770501,5.7060003,8.02305
1680020116152,1200104505785781,-1.503,5.63205,8.095051
1680020116156,1200104508288012,-1.383,5.6940002,8.073
1680020116157,1200104510790166,-1.36395,5.622,8.061001
1680020116159,1200104513292632,-1.4070001,5.6839504,7.9890003
1680020116162,1200104515795017,-1.4119501,5.68905,8.016001
1680020116163,1200104518297248,-1.2780001,5.67495,7.977
1680020116166,1200104520799632,-1.14405,5.6119504,7.99695
1680020116168,1200104523301863,-1.1029501,5.67705,7.99695
1680020116170,1200104525803999,-1.17495,5.60295,7.99695
1680020116172,1200104528306461,-1.08405,5.73495,8.073
1680020116175,1200104530808845,-1.065,5.622,7.965
1680020116178,1200104533311076,-1.146,5.742,7.9420505
1680020116180,1200104535813243,-1.2060001,5.6389503,7.9870505
1680020116183,1200104538315627,-1.12395,5.703,7.9870505
1680020116185,1200104540817858,-1.04805,5.73495,7.8120003
1680020116189,1200104543320320,-1.0669501,5.64795,7.9249506
1680020116192,1200104545822489,-1.04805,5.76795,7.9129505
1680020116196,1200104548324873,-0.84405005,5.6460004,7.8510003
1680020116197,1200104550827104,-0.90195006,5.7130504,7.8580503
1680020116199,1200104553329258,-0.99495006,5.66295,7.9030504
1680020116201,1200104555831642,-1.08405,5.61,7.8409505
1680020116203,1200104558334123,-1.0530001,5.5810504,7.8529506
1680020116206,1200104560836354,-1.04505,5.5810504,7.79295
1680020116208,1200104563338508,-1.0330501,5.54505,7.8940506
1680020116211,1200104565840892,-1.0570501,5.53095,7.9630504
1680020116213,1200104568343118,-1.04805,5.53305,7.8619504
1680020116216,1200104570845503,-1.0189501,5.4760504,7.86495
1680020116218,1200104573347656,-1.12695,5.4469504,7.75995
1680020116220,1200104575850118,-1.146,5.4229503,7.6969504
1680020116223,1200104578352359,-1.1700001,5.4570003,7.6660504
1680020116226,1200104580854743,-1.1700001,5.5410004,7.7640004
1680020116230,1200104583356974,-1.1890501,5.4540005,7.6009502
1680020116233,1200104585859128,-1.16505,5.52405,7.5820503
1680020116234,1200104588361533,-1.251,5.5530005,7.5730505
1680020116236,1200104590863994,-1.36395,5.64405,7.623
1680020116239,1200104593366225,-1.2870001,5.505,7.5150003
1680020116240,1200104595868379,-1.335,5.5740004,7.6399503
1680020116243,1200104598370763,-1.40505,5.5690503,7.6660504
1680020116246,1200104600873003,-1.4260501,5.61495,7.5850506
1680020116248,1200104603375388,-1.5270001,5.7250504,7.6210504
1680020116251,1200104605877849,-1.47195,5.715,7.6830006
1680020116253,1200104608380003,-1.5870001,5.77995,7.7260504
1680020116255,1200104610882234,-1.5319501,5.67,7.7209506
1680020116258,1200104613384629,-1.6489501,5.78205,7.7860503
1680020116261,1200104615886859,-1.5840001,5.7630005,7.6849504
1680020116263,1200104618389244,-1.6710001,5.7850504,7.6759505
1680020116267,1200104620891461,-1.728,5.64795,7.7550006
1680020116271,1200104623393845,-1.67805,5.77005,7.6090503
1680020116273,1200104625896076,-1.7209501,5.73705,7.7479506
1680020116274,1200104628398461,-1.692,5.8450503,7.79295
1680020116276,1200104630900615,-1.70895,5.82105,7.8120003
1680020116279,1200104633402830,-1.5990001,5.7730503,7.8580503
1680020116280,1200104635905215,-1.5460501,5.7390003,7.8480005
1680020116284,1200104638407677,-1.4670001,5.7900004,7.8240004
1680020116286,1200104640909830,-1.55295,5.76105,7.965
1680020116289,1200104643412051,-1.5289501,5.754,7.9729505
1680020116290,1200104645914436,-1.55295,5.6910005,7.8820505
1680020116293,1200104648416667,-1.5480001,5.77995,8.03505
1680020116306,1200104650918820,-1.42095,5.80905,7.8889503
1680020116306,1200104653421282,-1.39995,5.6670003,7.9870505
1680020116306,1200104655923687,-1.419,5.74905,8.167951
1680020116306,1200104658425917,-1.48395,5.8609505,7.9939504
1680020116307,1200104660928071,-1.4290501,5.7510004,8.088
1680020116310,1200104663430465,-1.386,5.8780503,8.154
1680020116311,1200104665932696,-1.2420001,5.8180504,8.03505
1680020116313,1200104668435157,-1.2970501,5.7300005,8.236051
1680020116316,1200104670937311,-1.2390001,5.8300505,8.18595
1680020116318,1200104673439696,-1.21095,5.75895,8.088
1680020116320,1200104675941941,-1.14405,5.715,8.134951
1680020116323,1200104678444326,-1.1920501,5.79195,8.221951
1680020116325,1200104680946480,-1.1509501,5.7900004,8.301001
1680020116328,1200104683448941,-1.029,5.8300505,8.128051
1680020116330,1200104685951172,-0.95205003,5.802,8.236051
1680020116333,1200104688453557,-0.94500005,5.7109504,8.30595
1680020116335,1200104690955788,-1.0500001,5.74695,8.28195
1680020116338,1200104693458172,-1.1920501,5.7559505,8.19795
1680020116342,1200104695960330,-1.1149501,5.74695,8.262
1680020116345,1200104698462792,-1.074,5.6989503,8.2240505
1680020116346,1200104700965022,-1.1010001,5.6239505,8.092051
1680020116352,1200104703467407,-1.04505,5.7180004,8.149051
1680020116352,1200104705969619,-1.00695,5.6509504,8.128051
1680020116354,1200104708471773,-1.14405,5.6509504,8.073
1680020116357,1200104710974157,-1.0309501,5.703,8.113951
1680020116359,1200104713476388,-1.04295,5.622,8.170051
1680020116362,1200104715978773,-1.0000501,5.5860004,7.9870505
1680020116363,1200104718481003,-0.93795,5.6719503,7.9870505
1680020116365,1200104720983388,-0.96900004,5.622,8.133
1680020116368,1200104723485619,-0.933,5.5020003,7.9510503
1680020116370,1200104725987773,-0.94995004,5.5909505,7.9459505
1680020116373,1200104728490143,-0.99300003,5.4880505,7.9870505
1680020116376,1200104730992605,-0.98595005,5.54505,7.9219503
1680020116380,1200104733494836,-0.94995004,5.5620003,7.8220506
1680020116382,1200104735996990,-0.92295,5.53305,7.8700504
1680020116384,1200104738499374,-1.06005,5.61495,7.8790503
1680020116385,1200104741001605,-0.95205003,5.6580005,7.7880006
1680020116389,1200104743503990,-1.05495,5.68905,7.8
1680020116391,1200104746006220,-0.9979501,5.742,7.7479506
1680020116393,1200104748508605,-1.0020001,5.8180504,7.83405
1680020116396,1200104751010835,-1.14795,5.83995,7.6420503
1680020116398,1200104753513219,-1.1200501,5.859,7.5850506
1680020116400,1200104756015373,-1.1200501,5.8639503,7.6519504
1680020116403,1200104758517604,-1.1410501,5.931,7.6450505
1680020116406,1200104761020017,-1.16295,6.0030003,7.6540504
1680020116408,1200104763522401,-1.2250501,5.9550004,7.6129503
1680020116412,1200104766024555,-1.3420501,5.94495,7.668
1680020116414,1200104768526786,-1.47405,5.9670005,7.63005
1680020116417,1200104771029166,-1.491,5.979,7.6470003
1680020116420,1200104773531397,-1.524,5.9670005,7.73295
1680020116422,1200104776033859,-1.4860501,5.907,7.6450505
1680020116423,1200104778536013,-1.59195,5.9929504,7.63005
1680020116425,1200104781038397,-1.6369501,5.9290504,7.6330504
1680020116429,1200104783540608,-1.5700501,5.92605,7.6800003
1680020116431,1200104786042993,-1.59195,5.8999505,7.7359505
1680020116433,1200104788545146,-1.70895,5.9500504,7.6639504
1680020116437,1200104791047377,-1.692,5.8110003,7.7140503
1680020116440,1200104793549839,-1.6660501,5.85195,7.7830505
1680020116441,1200104796052238,-1.5990001,5.8780503,7.7380505
1680020116443,1200104798554469,-1.58895,5.8350005,7.6129503
1680020116446,1200104801056623,-1.644,5.83995,7.7260504
1680020116449,1200104803559008,-1.5439501,5.8330503,7.7400002
1680020116451,1200104806061247,-1.4119501,5.8830004,7.7809505
1680020116455,1200104808563709,-1.55595,5.9550004,7.8220506
1680020116457,1200104811066094,-1.36905,5.8060503,7.8169503
1680020116460,1200104813568247,-1.35405,5.8350005,7.7359505
1680020116462,1200104816070464,-1.5079501,5.8759503,7.7980504
1680020116464,1200104818572849,-1.3759501,5.78205,7.73295
1680020116466,1200104821075003,-1.386,5.9209504,7.6369505
