system_ts_ms, sensor_ts_ns, gyrX, gyrY, gyrZ
1679930463941,1110452295870974,-0.0055,-0.0262625,-0.0067375
1679930463943,1110452298373051,-0.0055,-0.022275,-0.0097624995
1679930463945,1110452300875205,-0.0034375,-0.01925,-0.010725
1679930463948,1110452303377051,-0.0034375,-0.0133375,-0.010725
1679930463950,1110452305879219,-4.125E-4,-0.00825,-0.0097624995
1679930463952,1110452308381373,-0.001375,-0.006325,-0.011825
1679930463962,1110452310883296,-0.0034375,0.00275,-0.016775
1679930463962,1110452313385373,-0.001375,0.0037125,-0.0177375
1679930463963,1110452315887291,5.5E-4,0.0067375,-0.0207625
1679930463963,1110452318389368,5.5E-4,0.0097624995,-0.0207625
1679930463965,1110452320891522,-0.0034375,0.0077,-0.022824999
1679930463969,1110452323393440,-4.125E-4,0.0116875,-0.021724999
1679930463973,1110452325895594,0.0015125,0.004675,-0.021724999
1679930463974,1110452328397671,0.0026125,0.005775,-0.0237875
1679930463976,1110452330899594,0.003575,-0.0023375,-0.0207625
1679930463977,1110452333401671,0.0015125,-0.006325,-0.0188375
1679930463980,1110452335903575,-0.001375,-0.006325,-0.0188375
1679930463982,1110452338405652,-0.001375,-0.0103124995,-0.0177375
1679930463985,1110452340907882,-0.001375,-0.0143,-0.0158125
1679930463989,1110452343409729,-4.125E-4,-0.0182875,-0.011825
1679930463990,1110452345911887,-4.125E-4,-0.0213125,-0.0127875
1679930463992,1110452348413964,-0.001375,-0.0253,-0.0127875
1679930463995,1110452350915887,5.5E-4,-0.0292875,-0.016775
1679930463997,1110452353417964,0.0026125,-0.03025,-0.0158125
1679930464000,1110452355919887,0.0026125,-0.03025,-0.0158125
1679930464002,1110452358422286,0.003575,-0.0363,-0.0198
1679930464007,1110452360924132,0.003575,-0.033275,-0.0198
1679930464008,1110452363426286,0.0015125,-0.039325,-0.0207625
1679930464011,1110452365928229,0.0015125,-0.0433125,-0.022824999
1679930464013,1110452368430306,0.0015125,-0.038225,-0.02475
1679930464015,1110452370932229,0.0015125,-0.041249998,-0.0268125
1679930464017,1110452373434383,0.0026125,-0.039325,-0.0287375
1679930464020,1110452375936460,-0.0034375,-0.038225,-0.0298375
1679930464023,1110452378438652,-0.007425,-0.0353375,-0.0317625
1679930464025,1110452380940498,5.5E-4,-0.033275,-0.0317625
1679930464028,1110452383442652,0.0015125,-0.0312125,-0.02585
1679930464030,1110452385944575,-0.0044,-0.0292875,-0.02475
1679930464033,1110452388446652,-0.0034375,-0.0213125,-0.022824999
1679930464035,1110452390948830,-4.125E-4,-0.01925,-0.02585
1679930464042,1110452393450753,0.0015125,-0.0202125,-0.02475
1679930464042,1110452395952830,5.5E-4,-0.0182875,-0.021724999
1679930464046,1110452398454719,0.0015125,-0.0133375,-0.0188375
1679930464047,1110452400956873,0.003575,-0.0072875,-0.0188375
1679930464048,1110452403458949,0.0045375,-0.006325,-0.0188375
1679930464050,1110452405960873,0.003575,-0.0072875,-0.0188375
1679930464053,1110452408463026,5.5E-4,-0.006325,-0.0198
1679930464058,1110452410965132,5.5E-4,-0.0033,-0.0177375
1679930464058,1110452413467055,-4.125E-4,-0.0023375,-0.016775
1679930464060,1110452415969132,-0.0044,6.875E-4,-0.0198
1679930464063,1110452418471286,-0.0055,0.0017875,-0.0188375
1679930464066,1110452420973209,-0.0044,0.00275,-0.016775
1679930464068,1110452423475286,-0.001375,0.00275,-0.01485
1679930464071,1110452425977209,-0.001375,0.0067375,-0.01485
1679930464075,1110452428479363,-0.0034375,0.005775,-0.01485
1679930464076,1110452430981445,5.5E-4,0.0037125,-0.011825
1679930464078,1110452433483599,-0.0034375,0.004675,-0.011825
1679930464082,1110452435985522,-0.0064625,0.0037125,-0.010725
1679930464084,1110452438487599,0.0015125,0.00275,-0.0088
1679930464086,1110452440989527,-4.125E-4,0.0037125,-0.0097624995
1679930464091,1110452443491604,-0.0034375,-2.75E-4,-0.0078375
1679930464091,1110452445993758,-0.0044,-0.0033,-0.0078375
1679930464093,1110452448495681,-0.0044,-0.005225,-0.0097624995
1679930464096,1110452450997834,-0.0064625,-0.005225,-0.0097624995
1679930464098,1110452453499911,-0.007425,-0.0072875,-0.0048125
1679930464100,1110452456001834,-0.01045,-0.006325,-0.0048125
1679930464102,1110452458503911,-0.012375,-0.0092124995,-0.00385
1679930464108,1110452461005820,-0.0114124995,-0.00825,-8.25E-4
1679930464108,1110452463507897,-0.0154,-0.006325,2.75E-4
1679930464111,1110452466010051,-0.018424999,-0.0033,0.0012375
1679930464113,1110452468512204,-0.0165,-0.0072875,-8.25E-4
1679930464116,1110452471014127,-0.0165,-0.0092124995,-0.0017875
1679930464120,1110452473516204,-0.0193875,-0.011275,0.0012375
1679930464128,1110452476018128,-0.0144375,-0.0133375,0.0031625
1679930464129,1110452478520204,-0.018424999,-0.0182875,0.0031625
1679930464130,1110452481022119,-0.0154,-0.0213125,0.0061875
1679930464132,1110452483524272,-0.0165,-0.0243375,0.00715
1679930464133,1110452486026426,-0.0165,-0.01925,0.005225
1679930464133,1110452488528503,-0.012375,-0.0213125,0.0042625
1679930464136,1110452491030426,-0.013475,-0.0243375,0.00715
1679930464141,1110452493532507,-0.013475,-0.027224999,0.0092124995
1679930464141,1110452496034430,-0.012375,-0.027224999,0.00715
1679930464143,1110452498536584,-0.01045,-0.0292875,0.00715
1679930464147,1110452501038661,-0.012375,-0.0262625,0.00715
1679930464148,1110452503540811,-0.0094875,-0.027224999,0.00715
1679930464151,1110452506042734,-0.007425,-0.0262625,0.0061875
1679930464153,1110452508544580,-0.007425,-0.027224999,0.00825
1679930464158,1110452511046734,-0.0055,-0.0292875,0.00825
1679930464159,1110452513548811,-0.0044,-0.0323125,0.00715
1679930464161,1110452516050734,5.5E-4,-0.0342375,0.00825
1679930464163,1110452518552888,0.0066,-0.0323125,0.0092124995
1679930464166,1110452521054965,0.0105875,-0.033275,0.00825
1679930464168,1110452523557119,0.01155,-0.033275,0.010175
1679930464176,1110452526059027,0.0105875,-0.03025,0.0092124995
1679930464177,1110452528561104,0.01155,-0.0292875,0.00825
1679930464177,1110452531063027,0.01155,-0.0262625,0.00825
1679930464178,1110452533565181,0.0105875,-0.0202125,0.00715
1679930464181,1110452536067248,0.0105875,-0.0182875,0.00715
1679930464183,1110452538569172,0.0075625,-0.017324999,0.00715
1679930464186,1110452541071249,0.003575,-0.016224999,0.011275
1679930464192,1110452543573402,5.5E-4,-0.011275,0.010175
1679930464193,1110452546075305,0.0015125,-0.0103124995,0.011275
1679930464195,1110452548577382,5.5E-4,-0.0103124995,0.0122375
1679930464196,1110452551079536,-0.001375,-0.0042625,0.0132
1679930464199,1110452553581459,-0.0044,-0.0012375,0.015262499
1679930464201,1110452556083536,-0.0034375,0.0017875,0.0122375
1679930464203,1110452558585459,-0.001375,0.0017875,0.0122375
1679930464208,1110452561087536,5.5E-4,-0.0012375,0.0122375
1679930464209,1110452563589690,-0.0034375,-2.75E-4,0.0122375
1679930464211,1110452566091854,-0.0064625,0.0017875,0.0171875
1679930464213,1110452568593777,-4.125E-4,6.875E-4,0.0202125
1679930464216,1110452571095623,0.0015125,-0.0023375,0.016224999
1679930464218,1110452573597777,0.0026125,-0.0033,0.0171875
1679930464220,1110452576099637,0.0015125,-0.0023375,0.01925
1679930464225,1110452578602022,0.003575,-2.75E-4,0.0171875
1679930464225,1110452581103945,0.009625,-2.75E-4,0.01925
1679930464228,1110452583606022,0.008525,0.0017875,0.0171875
1679930464233,1110452586107926,0.0105875,-0.0023375,0.0202125
1679930464234,1110452588610003,0.009625,0.0017875,0.022275
1679930464235,1110452591111926,0.009625,0.00275,0.021175
1679930464242,1110452593614311,0.009625,0.004675,0.021175
1679930464243,1110452596116234,0.0045375,0.0067375,0.021175
1679930464244,1110452598618335,0.0045375,0.0067375,0.022275
1679930464246,1110452601120258,5.5E-4,0.010725,0.022275
1679930464248,1110452603622335,5.5E-4,0.010725,0.0202125
1679930464250,1110452606124258,-0.001375,0.0067375,0.022275
1679930464253,1110452608626330,-0.0064625,0.00275,0.0232375
1679930464258,1110452611128560,-0.0094875,0.0017875,0.022275
1679930464259,1110452613630637,-0.012375,-2.75E-4,0.0242
1679930464261,1110452616132560,-0.0144375,6.875E-4,0.0281875
1679930464263,1110452618634642,-0.0154,-2.75E-4,0.0281875
1679930464266,1110452621136565,-0.0165,-0.005225,0.02915
1679930464270,1110452623638642,-0.0174625,-0.006325,0.027224999
1679930464275,1110452626140565,-0.0204875,-0.0092124995,0.02915
1679930464276,1110452628642729,-0.0174625,-0.011275,0.032175
1679930464277,1110452631144883,-0.0154,-0.0133375,0.0281875
1679930464279,1110452633646729,-0.0165,-0.0202125,0.0281875
1679930464281,1110452636148883,-0.0174625,-0.0253,0.02915
1679930464283,1110452638650960,-0.018424999,-0.0262625,0.03025
1679930464286,1110452641152892,-0.0154,-0.027224999,0.0312125
1679930464291,1110452643655046,-0.0144375,-0.027224999,0.03025
1679930464292,1110452646157123,-0.0154,-0.033275,0.0312125
1679930464293,1110452648659046,-0.0154,-0.0372625,0.03025
1679930464296,1110452651161210,-0.013475,-0.0372625,0.0312125
1679930464298,1110452653663056,-0.0174625,-0.0372625,0.0312125
1679930464301,1110452656165210,-0.018424999,-0.038225,0.03025
1679930464303,1110452658667287,-0.013475,-0.0312125,0.0312125
1679930464308,1110452661169465,-0.01045,-0.0342375,0.027224999
1679930464309,1110452663671388,-0.012375,-0.0353375,0.02915
1679930464311,1110452666173465,-0.012375,-0.0312125,0.0281875
1679930464314,1110452668675619,-0.01045,-0.0323125,0.0281875
1679930464316,1110452671177542,-0.007425,-0.0312125,0.027224999
1679930464319,1110452673679633,-0.0055,-0.0312125,0.0262625
1679930464327,1110452676181786,-0.0064625,-0.0342375,0.0251625
1679930464328,1110452678683709,-0.0064625,-0.0342375,0.022275
1679930464330,1110452681185786,-0.0064625,-0.0323125,0.01925
1679930464331,1110452683687709,-0.007425,-0.03025,0.0171875
1679930464333,1110452686189796,-0.01045,-0.0312125,0.0171875
1679930464334,1110452688691950,-0.012375,-0.0342375,0.015262499
1679930464335,1110452691193796,-0.0083875,-0.0292875,0.014162499
1679930464338,1110452693696027,-0.007425,-0.027224999,0.0122375
1679930464341,1110452696198099,-0.01045,-0.0202125,0.011275
1679930464345,1110452698700022,-0.013475,-0.017324999,0.011275
1679930464346,1110452701202099,-0.0114124995,-0.0143,0.0122375
1679930464348,1110452703704022,-0.0094875,-0.0122375,0.010175
1679930464350,1110452706206099,-0.0114124995,-0.00825,0.00825
1679930464353,1110452708708253,-0.0094875,-0.0072875,0.00825
1679930464355,1110452711210407,-0.0064625,-0.006325,0.00715
1679930464358,1110452713712349,-0.0055,-0.0012375,0.0061875
1679930464363,1110452716214426,-4.125E-4,-0.0023375,0.005225
1679930464364,1110452718716349,-4.125E-4,-0.0023375,0.005225
1679930464366,1110452721218426,-0.001375,-2.75E-4,0.0061875
1679930464368,1110452723720320,-0.001375,-2.75E-4,0.0022
1679930464371,1110452726222705,-4.125E-4,-0.0023375,0.0012375
1679930464373,1110452728724628,-4.125E-4,-0.0023375,0.0042625
1679930464377,1110452731226705,-0.001375,-0.0012375,2.75E-4
1679930464383,1110452733728657,5.5E-4,0.0017875,-0.00275
1679930464385,1110452736230734,-0.001375,-2.75E-4,2.75E-4
1679930464385,1110452738732657,-0.0064625,0.0017875,0.0012375
1679930464386,1110452741234734,-0.0064625,6.875E-4,0.0031625
1679930464389,1110452743736887,-0.0064625,-2.75E-4,0.0012375
1679930464391,1110452746239032,-0.0055,0.0017875,0.0012375
1679930464395,1110452748740878,-0.001375,6.875E-4,-0.0017875
1679930464397,1110452751243032,-4.125E-4,6.875E-4,2.75E-4
1679930464398,1110452753744955,-0.0044,-0.0042625,-0.00385
1679930464401,1110452756247046,-0.001375,-0.0072875,-0.0048125
1679930464403,1110452758748969,-4.125E-4,-0.0103124995,-0.0048125
1679930464406,1110452761251123,5.5E-4,-0.011275,-0.0067375
1679930464409,1110452763753200,-0.0044,-0.0103124995,-0.0078375
1679930464411,1110452766255075,-0.0044,-0.0143,-0.0097624995
1679930464413,1110452768757152,-0.001375,-0.0143,-0.0078375
1679930464416,1110452771259383,-0.0044,-0.015262499,-0.0078375
1679930464421,1110452773761229,-0.0044,-0.0202125,-0.005775
1679930464423,1110452776263397,-0.001375,-0.0202125,-0.0078375
1679930464424,1110452778765474,-0.001375,-0.0213125,-0.0097624995
1679930464426,1110452781267397,-0.0034375,-0.0202125,-0.0078375
1679930464430,1110452783769474,-0.0055,-0.0202125,-0.0088
1679930464431,1110452786271628,-0.0044,-0.017324999,-0.011825
1679930464434,1110452788773545,-0.001375,-0.01925,-0.0088
1679930464436,1110452791275622,-0.0044,-0.0213125,-0.0097624995
1679930464438,1110452793777776,-0.0034375,-0.016224999,-0.0097624995
1679930464441,1110452796279699,-0.001375,-0.0133375,-0.0097624995
1679930464444,1110452798781748,-0.0034375,-0.0122375,-0.010725
1679930464447,1110452801283671,-0.007425,-0.0133375,-0.0097624995
1679930464449,1110452803785825,-0.007425,-0.015262499,-0.011825
1679930464451,1110452806287902,-0.0055,-0.0122375,-0.0127875
1679930464454,1110452808790055,-0.0044,-0.017324999,-0.011825
1679930464458,1110452811291869,-0.0034375,-0.015262499,-0.0127875
1679930464459,1110452813794022,-0.0034375,-0.0122375,-0.011825
1679930464462,1110452816295945,0.0026125,-0.0103124995,-0.0127875
1679930464464,1110452818798022,0.0026125,-0.0103124995,-0.0158125
1679930464466,1110452821300176,-0.001375,-0.00825,-0.01485
1679930464469,1110452823802113,-0.001375,-0.006325,-0.016775
1679930464471,1110452826304190,-4.125E-4,-0.005225,-0.01485
1679930464474,1110452828806344,-4.125E-4,-0.005225,-0.0177375
1679930464476,1110452831308190,-4.125E-4,-0.0023375,-0.0177375
1679930464479,1110452833810335,-0.001375,0.0017875,-0.0207625
1679930464481,1110452836312489,-4.125E-4,-0.0012375,-0.0198
1679930464484,1110452838814412,0.003575,6.875E-4,-0.022824999
1679930464486,1110452841316489,0.003575,0.0017875,-0.022824999
1679930464488,1110452843818440,0.0066,0.0017875,-0.02475
1679930464491,1110452846320594,0.0066,0.00275,-0.02585
1679930464495,1110452848822440,0.0055,-0.0012375,-0.0287375
1679930464496,1110452851324594,0.0026125,-2.75E-4,-0.0317625
1679930464498,1110452853826748,-4.125E-4,-0.0012375,-0.02585
1679930464501,1110452856328825,-0.001375,-2.75E-4,-0.0268125
1679930464504,1110452858830748,0.0015125,-0.0023375,-0.0287375
1679930464506,1110452861332825,-0.0044,-0.0012375,-0.027775
1679930464508,1110452863834748,-0.0034375,0.00275,-0.027775
1679930464511,1110452866336911,-0.001375,0.0037125,-0.0287375
1679930464513,1110452868838757,-0.0044,0.0037125,-0.0268125
1679930464516,1110452871341141,-0.0044,0.0097624995,-0.027775
1679930464519,1110452873843065,-0.0083875,0.0077,-0.02585
1679930464521,1110452876345151,-0.0064625,0.0097624995,-0.0237875
1679930464523,1110452878847075,-0.0064625,0.0077,-0.027775
1679930464526,1110452881349151,-0.0064625,0.010725,-0.0268125
1679930464528,1110452883851075,-0.0064625,0.0097624995,-0.0268125
1679930464533,1110452886353459,-0.0044,0.005775,-0.02585
1679930464534,1110452888855305,-0.0064625,0.00275,-0.0298375
1679930464536,1110452891357459,-0.0083875,0.0017875,-0.0287375
1679930464539,1110452893859382,-0.0034375,0.0037125,-0.02585
1679930464541,1110452896361459,5.5E-4,0.00275,-0.027775
1679930464544,1110452898863415,-0.0034375,-0.0023375,-0.0298375
1679930464546,1110452901365492,-0.0055,-0.0092124995,-0.02475
1679930464548,1110452903867646,-0.0083875,-0.006325,-0.0237875
1679930464551,1110452906369569,-0.007425,-0.00825,-0.032725
1679930464554,1110452908871641,-0.0083875,-0.0122375,-0.02585
1679930464556,1110452911373795,-0.0094875,-0.0103124995,-0.0237875
1679930464558,1110452913875718,-0.012375,-0.0092124995,-0.022824999
1679930464561,1110452916377795,-0.01045,-0.0122375,-0.0237875
1679930464566,1110452918879959,-0.012375,-0.005225,-0.02475
1679930464571,1110452921381882,-0.0114124995,-0.0103124995,-0.021724999
1679930464571,1110452923883959,-0.01045,-0.011275,-0.022824999
1679930464573,1110452926385882,-0.0114124995,-0.00825,-0.022824999
1679930464574,1110452928887969,-0.01045,-0.0103124995,-0.0237875
1679930464576,1110452931390123,-0.012375,-0.0103124995,-0.022824999
1679930464578,1110452933892046,-0.013475,-0.0092124995,-0.0237875
1679930464581,1110452936394200,-0.0154,-0.011275,-0.02585
1679930464583,1110452938896277,-0.0114124995,-0.011275,-0.02475
1679930464585,1110452941398233,-0.013475,-0.0143,-0.02585
1679930464588,1110452943900310,-0.0165,-0.0122375,-0.02475
1679930464591,1110452946402233,-0.013475,-0.0122375,-0.0268125
1679930464593,1110452948904386,-0.0114124995,-0.0122375,-0.0268125
1679930464596,1110452951406444,-0.012375,-0.0122375,-0.02475
1679930464598,1110452953908598,-0.01045,-0.0133375,-0.027775
1679930464601,1110452956410444,-0.0094875,-0.011275,-0.0298375
1679930464603,1110452958912598,-0.01045,-0.0103124995,-0.02585
1679930464608,1110452961414516,-0.0083875,-0.011275,-0.02475
1679930464610,1110452963916670,-0.007425,-0.0092124995,-0.02585
1679930464612,1110452966418747,-0.0083875,-0.005225,-0.02475
1679930464614,1110452968920670,-0.0094875,-0.00825,-0.02475
1679930464617,1110452971422747,-0.007425,-0.006325,-0.0237875
1679930464620,1110452973924704,-0.007425,-0.006325,-0.022824999
1679930464622,1110452976426781,-0.0083875,-2.75E-4,-0.021724999
1679930464623,1110452978928935,-0.0064625,-0.0042625,-0.0207625
1679930464626,1110452981431089,-0.0083875,-0.0033,-0.0207625
1679930464628,1110452983933012,-0.0083875,-0.0023375,-0.0198
1679930464631,1110452986435127,-0.007425,6.875E-4,-0.0198
1679930464634,1110452988937050,-0.007425,-2.75E-4,-0.0198
1679930464637,1110452991439204,-0.007425,0.0017875,-0.0177375
1679930464640,1110452993941055,-0.0064625,-2.75E-4,-0.0188375
1679930464642,1110452996443209,-0.0034375,0.00275,-0.0188375
1679930464647,1110452998945363,-0.0034375,6.875E-4,-0.0188375
1679930464647,1110453001447440,5.5E-4,0.0017875,-0.0158125
1679930464649,1110453003949363,5.5E-4,6.875E-4,-0.0177375
1679930464651,1110453006451440,-4.125E-4,-0.0012375,-0.021724999
1679930464654,1110453008953363,0.0015125,-0.0012375,-0.022824999
1679930464657,1110453011455440,5.5E-4,-0.0023375,-0.021724999
1679930464658,1110453013957593,5.5E-4,-0.0023375,-0.0207625
1679930464664,1110453016459713,5.5E-4,-2.75E-4,-0.0207625
1679930464665,1110453018961636,0.0015125,-0.005225,-0.0198
1679930464666,1110453021463713,5.5E-4,-0.0033,-0.0158125
1679930464668,1110453023965636,-0.0034375,-2.75E-4,-0.0158125
1679930464671,1110453026467713,0.0026125,6.875E-4,-0.0177375
1679930464674,1110453028969834,0.0026125,0.004675,-0.0177375
1679930464677,1110453031471757,0.0015125,0.0037125,-0.0158125
1679930464678,1110453033973834,0.0015125,0.005775,-0.0177375
1679930464683,1110453036475988,-4.125E-4,0.005775,-0.0188375
1679930464684,1110453038977906,0.0015125,0.010725,-0.0177375
1679930464686,1110453041479983,-0.0034375,0.0097624995,-0.0177375
1679930464688,1110453043981906,-0.0055,0.010725,-0.0207625
1679930464693,1110453046484060,-0.0044,0.010725,-0.0188375
1679930464693,1110453048986214,-0.001375,0.0116875,-0.016775
1679930464698,1110453051488045,-4.125E-4,0.0097624995,-0.0177375
1679930464698,1110453053990199,-4.125E-4,0.0067375,-0.016775
1679930464701,1110453056492276,-0.001375,0.004675,-0.01485
1679930464704,1110453058994199,-0.0034375,0.0037125,-0.010725
1679930464706,1110453061496291,-0.001375,0.0017875,-0.0078375
1679930464708,1110453063998445,-0.001375,-2.75E-4,-0.0088
1679930464713,1110453066500368,-4.125E-4,-0.0023375,-0.0067375
1679930464715,1110453069002445,0.0015125,-0.0042625,-0.00275
1679930464716,1110453071504339,-0.001375,-0.0023375,-0.00275
1679930464720,1110453074006493,-0.0034375,-0.0042625,-8.25E-4
1679930464723,1110453076508570,-0.0034375,-0.005225,-0.00275
1679930464725,1110453079010723,-0.0034375,-0.00825,-0.0017875
1679930464727,1110453081512622,-4.125E-4,-0.0103124995,-8.25E-4
1679930464731,1110453084014699,-4.125E-4,-0.0122375,0.0022
1679930464732,1110453086516623,0.0026125,-0.0122375,0.0031625
1679930464734,1110453089018699,0.0026125,-0.015262499,-8.25E-4
1679930464736,1110453091520623,0.003575,-0.011275,-8.25E-4
1679930464739,1110453094022771,0.0075625,-0.0122375,2.75E-4
1679930464742,1110453096524925,0.003575,-0.0122375,2.75E-4
1679930464744,1110453099027002,0.0026125,-0.0133375,2.75E-4
1679930464746,1110453101528925,0.003575,-0.016224999,2.75E-4
1679930464749,1110453104030978,0.0066,-0.0182875,0.0012375
1679930464751,1110453106532901,0.0055,-0.0133375,0.0031625
1679930464755,1110453109034978,0.0055,-0.015262499,0.0042625
1679930464758,1110453111536901,0.0045375,-0.015262499,0.0031625
1679930464761,1110453114039271,0.0045375,-0.011275,0.0042625
1679930464765,1110453116541117,0.003575,-0.0103124995,0.0042625
1679930464765,1110453119043271,0.0045375,-0.0103124995,0.0061875
1679930464766,1110453121545194,0.003575,-0.006325,0.00715
1679930464769,1110453124047271,5.5E-4,-0.0092124995,0.0061875
1679930464771,1110453126549199,-0.0034375,-0.0092124995,0.00715
1679930464773,1110453129051353,-4.125E-4,-0.0042625,0.00825
1679930464776,1110453131553507,0.0015125,-0.0042625,0.0061875
1679930464778,1110453134055584,0.0015125,-0.006325,0.005225
1679930464782,1110453136557518,0.0015125,-0.006325,0.0061875
1679930464784,1110453139059595,0.003575,-0.006325,0.005225
1679930464786,1110453141561518,0.0045375,-0.005225,0.005225
1679930464788,1110453144063595,0.0055,-0.0072875,0.0061875
1679930464793,1110453146565738,0.003575,-0.005225,0.00825
1679930464795,1110453149067662,0.0026125,-0.005225,0.0092124995
1679930464797,1110453151569739,-4.125E-4,-0.006325,0.00715
1679930464799,1110453154071662,5.5E-4,-0.0023375,0.0061875
1679930464802,1110453156574031,0.002475,0.0017875,0.005225
1679930464805,1110453159075954,0.0045375,0.004675,0.00715
1679930464806,1110453161578031,0.0045375,-2.75E-4,0.0061875
1679930464809,1110453164079954,0.002475,-0.0012375,0.00715
1679930464811,1110453166582031,0.0015125,0.0067375,0.0042625
1679930464814,1110453169083926,0.0055,0.0067375,0.0031625
1679930464817,1110453171586003,0.0066,0.00275,0.0031625
1679930464820,1110453174088157,0.0045375,0.0017875,-8.25E-4
1679930464822,1110453176590311,0.0045375,0.0037125,-8.25E-4
1679930464823,1110453179092157,0.0015125,0.0067375,0.0012375
1679930464826,1110453181594306,-4.125E-4,0.0077,0.0012375
1679930464829,1110453184096229,-0.0034375,0.004675,-8.25E-4
1679930464833,1110453186598306,-0.0055,0.0037125,0.0012375
1679930464834,1110453189100460,-0.0064625,0.0077,0.0022
1679930464836,1110453191602402,-0.008525,0.01375,0.0031625
1679930464838,1110453194104479,-0.0094875,0.01375,0.0042625
1679930464841,1110453196606633,-0.0125124995,0.0127875,0.005225
1679930464843,1110453199108479,-0.0174625,0.0077,0.0022
1679930464846,1110453201610642,-0.019524999,0.010725,0.0012375
1679930464849,1110453204112565,-0.0165,0.0077,-0.0017875
1679930464851,1110453206614719,-0.0204875,0.0077,-0.00385
1679930464854,1110453209116796,-0.019524999,0.0067375,-0.00385
1679930464856,1110453211618719,-0.024475,0.004675,-0.00385
1679930464859,1110453214120872,-0.024475,0.004675,-0.005775
1679930464861,1110453216622949,-0.0235125,0.0067375,-0.0097624995
1679930464864,1110453219124873,-0.024475,0.0067375,-0.0097624995
1679930464866,1110453221626949,-0.0275,0.0097624995,-0.0097624995
1679930464873,1110453224129089,-0.0284625,0.010725,-0.010725
1679930464874,1110453226631012,-0.029424999,0.0127875,-0.0158125
1679930464876,1110453229133089,-0.0264,0.01375,-0.0177375
1679930464877,1110453231635012,-0.029424999,0.0127875,-0.0188375
1679930464880,1110453234137166,-0.029424999,0.015675,-0.0198
1679930464881,1110453236638998,-0.029424999,0.014712499,-0.021724999
1679930464884,1110453239141383,-0.0264,0.014712499,-0.021724999
1679930464886,1110453241643306,-0.0254375,0.021724999,-0.021724999
1679930464891,1110453244145383,-0.024475,0.0226875,-0.021724999
1679930464892,1110453246647320,-0.0264,0.027775,-0.022824999
1679930464894,1110453249149397,-0.0224125,0.0317625,-0.0237875
1679930464898,1110453251651320,-0.0235125,0.0306625,-0.0237875
1679930464898,1110453254153474,-0.024475,0.026675,-0.022824999
1679930464901,1110453256655551,-0.0235125,0.027775,-0.022824999
1679930464905,1110453259157705,-0.0264,0.027775,-0.022824999
1679930464910,1110453261659628,-0.0284625,0.026675,-0.02475
1679930464911,1110453264161705,-0.0275,0.02475,-0.0268125
1679930464915,1110453266663614,-0.029424999,0.026675,-0.0268125
1679930464915,1110453269165691,-0.029424999,0.0207625,-0.02585
1679930464916,1110453271667845,-0.029424999,0.0187,-0.0237875
1679930464920,1110453274169768,-0.0284625,0.0187,-0.02585
1679930464923,1110453276671849,-0.024475,0.0127875,-0.022824999
1679930464925,1110453279174003,-0.0254375,0.0067375,-0.02475
1679930464926,1110453281675926,-0.0284625,6.875E-4,-0.021724999
1679930464930,1110453284178003,-0.0284625,-0.0023375,-0.022824999
1679930464931,1110453286679926,-0.0284625,-0.0042625,-0.0207625
1679930464934,1110453289182089,-0.024475,-0.006325,-0.022824999
1679930464936,1110453291684243,-0.0264,-0.0092124995,-0.022824999
1679930464939,1110453294186089,-0.0275,-0.0103124995,-0.021724999
1679930464941,1110453296688243,-0.0254375,-0.011275,-0.022824999
1679930464945,1110453299190301,-0.0235125,-0.011275,-0.0207625
1679930464947,1110453301692224,-0.0224125,-0.0103124995,-0.022824999
1679930464949,1110453304194301,-0.0224125,-0.017324999,-0.0237875
1679930464953,1110453306696455,-0.0235125,-0.015262499,-0.022824999
1679930464954,1110453309198378,-0.0235125,-0.0133375,-0.0237875
1679930464957,1110453311700522,-0.02145,-0.016224999,-0.0237875
1679930464959,1110453314202368,-0.0204875,-0.015262499,-0.022824999
1679930464961,1110453316704522,-0.019524999,-0.0122375,-0.0237875
1679930464964,1110453319206599,-0.0174625,-0.005225,-0.02475
1679930464967,1110453321708748,-0.0165,-0.0012375,-0.02475
1679930464971,1110453324210671,-0.0144375,0.0017875,-0.02475
1679930464972,1110453326712748,-0.0144375,0.0037125,-0.0237875
1679930464974,1110453329214671,-0.0144375,0.0067375,-0.02585
1679930464977,1110453331716758,-0.0144375,0.01375,-0.0268125
1679930464981,1110453334218681,-0.013475,0.014712499,-0.02585
1679930464983,1110453336720835,-0.0125124995,0.0177375,-0.027775
1679930464985,1110453339222912,-0.0165,0.021724999,-0.022824999
1679930464986,1110453341724839,-0.0154,0.0207625,-0.02475
1679930464989,1110453344226916,-0.0174625,0.0226875,-0.02475
1679930464991,1110453346729070,-0.019524999,0.021724999,-0.021724999
1679930464994,1110453349231223,-0.0165,0.0226875,-0.021724999
1679930464996,1110453351733138,-0.018424999,0.0226875,-0.021724999
1679930464999,1110453354235214,-0.018424999,0.0207625,-0.0207625
1679930465001,1110453356737138,-0.0174625,0.0237875,-0.0207625
1679930465004,1110453359239214,-0.0165,0.0177375,-0.0198
1679930465006,1110453361741138,-0.018424999,0.015675,-0.021724999
1679930465009,1110453364243296,-0.0204875,0.0097624995,-0.022824999
1679930465011,1110453366745450,-0.02145,0.0097624995,-0.021724999
1679930465014,1110453369247527,-0.0224125,0.0037125,-0.0237875
1679930465016,1110453371749473,-0.0254375,0.0037125,-0.02475
1679930465020,1110453374251550,-0.0275,0.0077,-0.0237875
1679930465023,1110453376753473,-0.029424999,0.0037125,-0.0237875
1679930465024,1110453379255627,-0.030524999,0.004675,-0.0268125
1679930465026,1110453381757704,-0.032449998,0.0037125,-0.02585
1679930465029,1110453384259872,-0.035475,0.004675,-0.022824999
1679930465031,1110453386761795,-0.035475,0.004675,-0.022824999
1679930465033,1110453389263872,-0.035475,0.004675,-0.0198
1679930465036,1110453391765795,-0.0364375,0.0067375,-0.0188375
1679930465039,1110453394267891,-0.0334125,0.0127875,-0.0177375
1679930465041,1110453396769814,-0.032449998,0.015675,-0.011825
1679930465044,1110453399271968,-0.0364375,0.0187,-0.010725
1679930465048,1110453401774045,-0.0314875,0.0226875,-0.010725
1679930465048,1110453404276214,-0.0314875,0.0237875,-0.010725
1679930465051,1110453406778137,-0.0334125,0.026675,-0.0088
1679930465054,1110453409280214,-0.029424999,0.0317625,-0.0078375
1679930465058,1110453411782137,-0.030524999,0.0306625,-0.0078375
1679930465060,1110453414284214,-0.0314875,0.032725,-0.010725
1679930465062,1110453416786368,-0.0314875,0.0306625,-0.0158125
1679930465064,1110453419288291,-0.0284625,0.0306625,-0.011825
1679930465067,1110453421790444,-0.029424999,0.0317625,-0.010725
1679930465069,1110453424292521,-0.0334125,0.027775,-0.0097624995
1679930465072,1110453426794458,-0.0364375,0.0237875,-0.0078375
1679930465074,1110453429296535,-0.032449998,0.021724999,-0.0088
1679930465076,1110453431798689,-0.032449998,0.0196625,-0.0067375
1679930465079,1110453434300612,-0.0334125,0.015675,-0.005775
1679930465081,1110453436802704,-0.035475,0.0116875,-0.0048125
1679930465084,1110453439304627,-0.0334125,0.0067375,-0.0048125
1679930465086,1110453441806704,-0.032449998,0.00275,-0.00275
1679930465089,1110453444308858,-0.0314875,-2.75E-4,-0.00275
1679930465092,1110453446810723,-0.0284625,0.0017875,-8.25E-4
1679930465096,1110453449312954,-0.0275,0.0017875,0.0012375
1679930465098,1110453451815031,-0.0224125,-2.75E-4,-8.25E-4
1679930465099,1110453454316954,-0.0174625,-0.0042625,-0.0017875
1679930465101,1110453456819031,-0.018424999,-0.0042625,-0.0017875
1679930465105,1110453459320968,-0.0144375,-0.0042625,-0.00275
1679930465107,1110453461823045,-0.013475,-0.0023375,-0.00385
1679930465109,1110453464325199,-0.0144375,-0.0023375,-0.0067375
1679930465111,1110453466827353,-0.0125124995,-0.0012375,-0.0097624995
1679930465114,1110453469329296,-0.0114124995,0.0037125,-0.010725
1679930465116,1110453471831373,-0.0154,0.00275,-0.0097624995
1679930465119,1110453474333296,-0.0114124995,0.005775,-0.0097624995
1679930465122,1110453476835363,-0.0094875,0.0097624995,-0.0097624995
1679930465124,1110453479337286,-0.008525,0.0067375,-0.01485
1679930465126,1110453481839670,-0.007425,0.0097624995,-0.016775
1679930465133,1110453484341594,-0.008525,0.015675,-0.0198
1679930465133,1110453486843670,-0.0094875,0.016775,-0.0188375
1679930465135,1110453489345594,-0.0094875,0.0177375,-0.0207625
1679930465137,1110453491847670,-0.013475,0.0177375,-0.0237875
1679930465140,1110453494349594,-0.0144375,0.0177375,-0.022824999
1679930465142,1110453496851670,-0.0174625,0.0226875,-0.02475
1679930465144,1110453499353809,-0.0174625,0.026675,-0.021724999
1679930465148,1110453501855963,-0.019524999,0.0317625,-0.022824999
1679930465150,1110453504357809,-0.018424999,0.0317625,-0.0237875
1679930465152,1110453506859963,-0.024475,0.03575,-0.021724999
1679930465154,1110453509361891,-0.0224125,0.043725,-0.0207625
1679930465156,1110453511863968,-0.02145,0.048675,-0.0237875
1679930465159,1110453514366122,-0.0235125,0.048675,-0.022824999
1679930465161,1110453516868045,-0.0254375,0.054725,-0.0237875
1679930465164,1110453519370127,-0.0254375,0.0537625,-0.02475
1679930465167,1110453521872281,-0.0254375,0.0556875,-0.0237875
1679930465174,1110453524374127,-0.0254375,0.0567875,-0.02475
1679930465175,1110453526876281,-0.0264,0.059675,-0.02475
1679930465176,1110453529378204,-0.0254375,0.05775,-0.02475
1679930465178,1110453531880358,-0.0284625,0.0556875,-0.022824999
1679930465181,1110453534382435,-0.029424999,0.0517,-0.02585
1679930465182,1110453536884358,-0.029424999,0.048675,-0.02475
1679930465184,1110453539386435,-0.0284625,0.043725,-0.0237875
1679930465187,1110453541888570,-0.0284625,0.0397375,-0.022824999
1679930465190,1110453544390724,-0.029424999,0.0367125,-0.022824999
1679930465198,1110453546892570,-0.0275,0.0317625,-0.021724999
1679930465198,1110453549394493,-0.0275,0.027775,-0.0207625
1679930465198,1110453551896647,-0.0275,0.0187,-0.0198
1679930465199,1110453554398724,-0.0264,0.01375,-0.0158125
1679930465201,1110453556900647,-0.0264,0.0097624995,-0.0158125
1679930465203,1110453559402800,-0.0224125,0.0017875,-0.0088
1679930465207,1110453561904886,-0.0235125,-0.006325,-0.0088
1679930465210,1110453564407040,-0.0235125,-0.0092124995,-0.0088
1679930465212,1110453566908886,-0.0224125,-0.0143,-0.005775
1679930465214,1110453569411040,-0.018424999,-0.016224999,-0.0067375
1679930465216,1110453571912963,-0.013475,-0.022275,-0.0097624995
1679930465220,1110453574415026,-0.0165,-0.0253,-0.010725
1679930465221,1110453576917180,-0.0174625,-0.0323125,-0.0127875
1679930465224,1110453579419103,-0.018424999,-0.0353375,-0.0127875
1679930465227,1110453581921180,-0.02145,-0.039325,-0.0177375
1679930465232,1110453584423310,-0.029424999,-0.038225,-0.0188375
1679930465232,1110453586925156,-0.0314875,-0.041249998,-0.022824999
1679930465234,1110453589427310,-0.035475,-0.039325,-0.0207625
1679930465236,1110453591929464,-0.040425,-0.0323125,-0.0198
1679930465242,1110453594431387,-0.0444125,-0.03025,-0.016775
1679930465242,1110453596933464,-0.040425,-0.0262625,-0.01485
1679930465246,1110453599435387,-0.041525,-0.0253,-0.0078375
1679930465247,1110453601937464,-0.0444125,-0.015262499,-0.005775
1679930465250,1110453604439618,-0.046475,-0.0092124995,-0.0017875
1679930465252,1110453606941454,-0.0484,-0.005225,2.75E-4
1679930465255,1110453609443685,-0.0504625,-0.005225,0.0022
1679930465257,1110453611945762,-0.0534875,-0.0042625,0.0022
1679930465260,1110453614447685,-0.0495,-0.0012375,0.0022
1679930465262,1110453616949762,-0.046475,0.0017875,0.0012375
1679930465265,1110453619451675,-0.046475,0.005775,0.0031625
1679930465267,1110453621953752,-0.0455125,0.0067375,0.0022
1679930465272,1110453624455901,-0.046475,0.010725,0.0012375
1679930465273,1110453626957825,-0.0444125,0.01375,2.75E-4
1679930465275,1110453629459978,-0.0474375,0.0116875,-0.00385
1679930465277,1110453631962055,-0.0474375,0.015675,-0.005775
1679930465283,1110453634463963,-0.052525,0.01375,-0.00385
1679930465283,1110453636966040,-0.0554125,0.01375,-0.005775
1679930465285,1110453639467963,-0.0565125,0.015675,-0.00385
1679930465286,1110453641970117,-0.0565125,0.016775,-0.005775
1679930465290,1110453644472194,-0.057475,0.021724999,-0.0048125
1679930465292,1110453646974117,-0.0605,0.0226875,-0.005775
1679930465293,1110453649476306,-0.0584375,0.021724999,-0.005775
1679930465297,1110453651978383,-0.062425,0.021724999,-0.005775
1679930465300,1110453654480306,-0.0644875,0.0177375,-0.0067375
1679930465302,1110453656982383,-0.0594,0.016775,-0.005775
1679930465304,1110453659484546,-0.0584375,0.010725,-0.0088
1679930465307,1110453661986469,-0.0614625,-0.0022,-0.0088
1679930465310,1110453664488546,-0.0603625,-0.0072875,-0.0127875
1679930465311,1110453666990700,-0.0614625,-0.0072875,-0.0158125
1679930465314,1110453669492633,-0.062425,-0.0103124995,-0.016775
1679930465317,1110453671994710,-0.0603625,-0.0143,-0.016775
1679930465322,1110453674496864,-0.0584375,-0.0132,-0.0177375
1679930465324,1110453676998787,-0.0603625,-0.016224999,-0.016775
1679930465326,1110453679500874,-0.0594,-0.017324999,-0.01485
1679930465327,1110453682002797,-0.0594,-0.016224999,-0.0127875
1679930465331,1110453684504874,-0.0603625,-0.017324999,-0.0127875
1679930465332,1110453687007028,-0.0554125,-0.015262499,-0.010725
1679930465334,1110453689508960,-0.0554125,-0.017324999,-0.010725
1679930465336,1110453692011113,-0.0504625,-0.016224999,-0.0127875
1679930465342,1110453694513190,-0.0523875,-0.0122375,-0.010725
1679930465343,1110453697015113,-0.0504625,-0.0122375,-0.010725
1679930465344,1110453699517190,-0.0534875,-0.0122375,-0.011825
1679930465346,1110453702019104,-0.0493625,-0.0132,-0.011825
1679930465350,1110453704521180,-0.0484,-0.0122375,-0.01485
1679930465351,1110453707023334,-0.0484,-0.011275,-0.0188375
1679930465354,1110453709525257,-0.0504625,-0.0122375,-0.0177375
1679930465360,1110453712027397,-0.0504625,-0.0122375,-0.0198
1679930465361,1110453714529474,-0.0493625,-0.0092124995,-0.0177375
1679930465363,1110453717031397,-0.0523875,-0.0092124995,-0.0177375
1679930465364,1110453719533474,-0.0523875,-0.00825,-0.016775
1679930465366,1110453722035628,-0.0534875,-0.0022,-0.016775
1679930465372,1110453724537503,-0.0504625,6.875E-4,-0.0127875
1679930465372,1110453727039580,-0.0444125,0.0067375,-0.010725
1679930465374,1110453729541503,-0.043449998,0.0097624995,-0.010725
1679930465377,1110453732043580,-0.043449998,0.0177375,-0.011825
1679930465380,1110453734545734,-0.043449998,0.0198,-0.0127875
1679930465382,1110453737047893,-0.0424875,0.027775,-0.010725
1679930465385,1110453739549739,-0.0444125,0.0317625,-0.0127875
1679930465387,1110453742051893,-0.046475,0.032725,-0.010725
1679930465392,1110453744553806,-0.0484,0.0336875,-0.01485
1679930465392,1110453747055883,-0.0504625,0.0347875,-0.016775
1679930465398,1110453749557806,-0.057475,0.0367125,-0.016775
1679930465399,1110453752059960,-0.0603625,0.037675,-0.0177375
1679930465401,1110453754562037,-0.0633875,0.0347875,-0.0198
1679930465402,1110453757064229,-0.0664125,0.0297,-0.0188375
1679930465404,1110453759566076,-0.0743875,0.027775,-0.0177375
1679930465408,1110453762068229,-0.0743875,0.0237875,-0.0177375
1679930465411,1110453764570153,-0.0754875,0.0198,-0.01485
1679930465412,1110453767072210,-0.0804375,0.0177375,-0.010725
1679930465414,1110453769574363,-0.0814,0.01375,-0.011825
1679930465417,1110453772076286,-0.0834625,0.0116875,-0.0088
1679930465420,1110453774578363,-0.0814,0.0097624995,-0.0067375
1679930465422,1110453777080286,-0.078375,0.0037125,-0.0048125
1679930465424,1110453779582455,-0.0814,-2.75E-4,-0.0048125
1679930465426,1110453782084532,-0.0823625,-0.0022,-0.00385
1679930465434,1110453784586686,-0.0853875,-0.0033,2.75E-4
1679930465434,1110453787088613,-0.0864875,-0.006325,0.0022
1679930465435,1110453789590690,-0.0864875,-0.0092124995,0.0012375
1679930465437,1110453792092613,-0.0804375,-0.0103124995,0.0031625
1679930465441,1110453794594767,-0.0814,-0.0132,0.005225
1679930465442,1110453797096613,-0.079475,-0.0103124995,0.010175
1679930465444,1110453799598763,-0.079475,-0.0132,0.011275
1679930465448,1110453802100917,-0.078375,-0.0143,0.011275
1679930465450,1110453804602994,-0.0774125,-0.0213125,0.0132
1679930465452,1110453807104917,-0.079475,-0.0292875,0.0132
1679930465454,1110453809606998,-0.0823625,-0.0342375,0.014162499
1679930465457,1110453812108921,-0.0804375,-0.0372625,0.015262499
1679930465462,1110453814611075,-0.0834625,-0.0422125,0.0171875
1679930465463,1110453817112921,-0.0834625,-0.0482625,0.0171875
1679930465465,1110453819615281,-0.0834625,-0.052249998,0.0251625
1679930465467,1110453822117204,-0.0884125,-0.0583,0.0251625
1679930465473,1110453824619281,-0.091437496,-0.060225,0.027224999
1679930465473,1110453827121204,-0.08745,-0.0622875,0.0312125
1679930465475,1110453829623286,-0.0834625,-0.066275,0.032175
1679930465477,1110453832125209,-0.0853875,-0.0682,0.033275
1679930465480,1110453834627363,-0.0823625,-0.0702625,0.033275
1679930465482,1110453837129439,-0.079475,-0.069299996,0.0281875
1679930465484,1110453839631593,-0.0774125,-0.0752125,0.03025
1679930465488,1110453842133511,-0.0774125,-0.077275,0.027224999
1679930465490,1110453844635588,-0.0774125,-0.0752125,0.0242
1679930465492,1110453847137511,-0.0754875,-0.0752125,0.022275
1679930465494,1110453849639588,-0.07645,-0.066275,0.0251625
1679930465497,1110453852141718,-0.0774125,-0.066275,0.0242
1679930465501,1110453854643641,-0.0754875,-0.0642125,0.0242
1679930465502,1110453857145718,-0.073425,-0.0592625,0.0242
1679930465504,1110453859647872,-0.0724625,-0.055275,0.0251625
1679930465508,1110453862149790,-0.0743875,-0.055275,0.027224999
1679930465511,1110453864651867,-0.0754875,-0.052249998,0.0251625
1679930465512,1110453867154021,-0.0694375,-0.0512875,0.027224999
1679930465514,1110453869655944,-0.0633875,-0.044275,0.0262625
1679930465517,1110453872158021,-0.056375,-0.039325,0.0251625
1679930465520,1110453874659940,-0.0534875,-0.0342375,0.0281875
1679930465523,1110453877162017,-0.0523875,-0.0323125,0.03025
1679930465524,1110453879664171,-0.0493625,-0.03025,0.0262625
1679930465527,1110453882166094,-0.043449998,-0.028324999,0.02915
1679930465530,1110453884668252,-0.043449998,-0.022275,0.0281875
1679930465532,1110453887170329,-0.0413875,-0.0122375,0.0281875
1679930465534,1110453889672252,-0.0413875,-0.0092124995,0.02915
1679930465537,1110453892174329,-0.0374,-0.0022,0.0262625
1679930465540,1110453894676272,-0.0394625,0.0037125,0.0242
1679930465542,1110453897178426,-0.0374,0.0077,0.0242
1679930465547,1110453899680503,-0.0303875,0.015675,0.0232375
1679930465547,1110453902182656,-0.0303875,0.0198,0.0202125
1679930465550,1110453904684593,-0.0273625,0.0237875,0.0171875
1679930465552,1110453907186670,-0.023375,0.02475,0.015262499
1679930465554,1110453909688593,-0.02145,0.0308,0.015262499
1679930465557,1110453912190747,-0.0224125,0.03575,0.014162499
1679930465560,1110453914692824,-0.02145,0.0347875,0.0092124995
1679930465562,1110453917194761,-0.02145,0.037675,0.0042625
1679930465564,1110453919696838,-0.0264,0.0407,0.0092124995
1679930465567,1110453922198992,-0.0224125,0.043725,0.0092124995
1679930465570,1110453924700915,-0.0193875,0.0427625,0.00825
1679930465572,1110453927202978,-0.0254375,0.043725,0.011275
1679930465574,1110453929705132,-0.0273625,0.038775,0.014162499
1679930465577,1110453932207055,-0.0264,0.0427625,0.0122375
1679930465581,1110453934709132,-0.0264,0.043725,0.015262499
1679930465583,1110453937211069,-0.0264,0.0397375,0.014162499
1679930465585,1110453939713146,-0.0254375,0.0367125,0.01925
1679930465587,1110453942215300,-0.0254375,0.038775,0.021175
1679930465590,1110453944717223,-0.0264,0.0407,0.0202125
1679930465592,1110453947219377,-0.0284625,0.0367125,0.01925
1679930465594,1110453949721454,-0.0273625,0.032725,0.021175
1679930465598,1110453952223377,-0.0273625,0.0297,0.022275
1679930465600,1110453954725454,-0.023375,0.026675,0.021175
1679930465601,1110453957227377,-0.02145,0.0207625,0.01925
1679930465604,1110453959729445,-0.02145,0.015675,0.0171875
1679930465607,1110453962231676,-0.0193875,0.010725,0.015262499
1679930465610,1110453964733522,-0.0163625,0.010725,0.0132
1679930465612,1110453967235676,-0.0144375,-0.0012375,0.00825
1679930465614,1110453969737766,-0.0144375,-0.0042625,0.0042625
1679930465617,1110453972239690,-0.0154,-0.006325,0.0031625
1679930465622,1110453974741766,-0.018424999,-0.0072875,0.0022
1679930465623,1110453977243920,-0.02145,-0.0103124995,2.75E-4
1679930465625,1110453979745819,-0.024475,-0.0143,-8.25E-4
1679930465627,1110453982247973,-0.0254375,-0.016224999,2.75E-4
1679930465630,1110453984750050,-0.024475,-0.015262499,0.0012375
1679930465631,1110453987251973,-0.0254375,-0.0122375,0.0031625
1679930465634,1110453989754050,-0.023375,-0.0092124995,0.0042625
1679930465636,1110453992255993,-0.024475,-0.00825,0.0031625
1679930465640,1110453994758147,-0.0224125,-0.006325,0.0022
1679930465641,1110453997260224,-0.024475,-0.0042625,0.005225
1679930465644,1110453999762378,-0.024475,-0.0022,0.0031625
1679930465647,1110454002264224,-0.0264,6.875E-4,2.75E-4
1679930465650,1110454004766378,-0.0303875,-0.0042625,2.75E-4
1679930465651,1110454007268301,-0.0273625,-0.0022,-0.0048125
1679930465654,1110454009770378,-0.0273625,-0.0033,-0.0088
1679930465660,1110454012272513,-0.0364375,-0.0072875,-0.011825
1679930465662,1110454014774436,-0.0364375,-0.00825,-0.011825
1679930465663,1110454017276513,-0.0394625,-0.0092124995,-0.0127875
1679930465665,1110454019778667,-0.0413875,-0.0103124995,-0.011825
1679930465667,1110454022280513,-0.043449998,-0.0092124995,-0.010725
1679930465672,1110454024782648,-0.0444125,-0.0132,-0.011825
1679930465673,1110454027284802,-0.0444125,-0.015262499,-0.010725
1679930465674,1110454029786725,-0.045375,-0.017324999,-0.0088
1679930465677,1110454032288802,-0.0484,-0.017324999,-0.0078375
1679930465680,1110454034790725,-0.0474375,-0.017324999,-0.005775
1679930465682,1110454037292806,-0.0493625,-0.022275,-0.0067375
1679930465684,1110454039794729,-0.054449998,-0.0262625,-0.0048125
1679930465687,1110454042296806,-0.057475,-0.0292875,-0.0017875
1679930465691,1110454044799036,-0.0534875,-0.03025,-0.0017875
1679930465692,1110454047301123,-0.0584375,-0.033275,-0.0017875
1679930465696,1110454049803046,-0.056375,-0.0363,-0.0017875
1679930465697,1110454052305123,-0.054449998,-0.0323125,-0.0048125
1679930465700,1110454054807046,-0.056375,-0.0323125,-0.00385
1679930465702,1110454057309123,-0.057475,-0.0342375,-0.00385
1679930465704,1110454059811065,-0.056375,-0.033275,-0.0048125
1679930465707,1110454062313219,-0.054449998,-0.033275,-0.0048125
1679930465710,1110454064815373,-0.057475,-0.03025,-0.0067375
1679930465712,1110454067317450,-0.0603625,-0.028324999,-0.0078375
1679930465717,1110454069819373,-0.0603625,-0.028324999,-0.0088
1679930465717,1110454072321450,-0.0603625,-0.0323125,-0.0097624995
1679930465719,1110454074823373,-0.0594,-0.03025,-0.0088
1679930465722,1110454077325527,-0.0584375,-0.0292875,-0.0067375
1679930465724,1110454079827590,-0.0603625,-0.027224999,-0.0067375
1679930465727,1110454082329513,-0.057475,-0.0262625,-0.0078375
1679930465730,1110454084831667,-0.054449998,-0.028324999,-0.005775
1679930465734,1110454087333513,-0.0554125,-0.0292875,-0.005775
1679930465735,1110454089835652,-0.0554125,-0.027224999,-0.00275
1679930465737,1110454092337729,-0.057475,-0.0352,-0.0048125
1679930465740,1110454094839883,-0.054449998,-0.03025,-0.005775
1679930465742,1110454097341806,-0.0504625,-0.0323125,-0.0067375
1679930465745,1110454099843883,-0.0474375,-0.03025,-0.0067375
1679930465747,1110454102345811,-0.0444125,-0.0253,-0.0088
1679930465750,1110454104847965,-0.0444125,-0.0262625,-0.0097624995
1679930465752,1110454107350041,-0.0424875,-0.0242,-0.011825
1679930465756,1110454109851965,-0.0444125,-0.0213125,-0.0127875
1679930465758,1110454112354104,-0.0493625,-0.022275,-0.0158125
1679930465760,1110454114856181,-0.0493625,-0.0182875,-0.01485
1679930465763,1110454117358104,-0.0474375,-0.01925,-0.01485
1679930465765,1110454119860181,-0.0484,-0.0143,-0.01485
1679930465767,1110454122362335,-0.0484,-0.0122375,-0.0158125
1679930465772,1110454124864258,-0.0474375,-0.0072875,-0.01485
1679930465774,1110454127366335,-0.0493625,6.875E-4,-0.011825
1679930465775,1110454129868258,-0.0474375,-2.75E-4,-0.0097624995
1679930465777,1110454132370402,-0.0444125,-0.0022,-0.0097624995
1679930465781,1110454134872479,-0.0474375,6.875E-4,-0.01485
1679930465782,1110454137374633,-0.0474375,0.00275,-0.0067375
1679930465785,1110454139876556,-0.0474375,0.0037125,-0.0048125
1679930465787,1110454142378633,-0.0493625,0.0017875,-0.0078375
1679930465790,1110454144880542,-0.0493625,0.00275,-0.0078375
1679930465792,1110454147382619,-0.0493625,0.00275,-0.0067375
1679930465795,1110454149884542,-0.0493625,0.00275,-0.005775
1679930465797,1110454152386696,-0.0474375,0.0017875,-0.00385
1679930465800,1110454154888806,-0.0484,0.0017875,-0.00385
1679930465802,1110454157390960,-0.0444125,0.00275,-0.00275
1679930465804,1110454159892883,-0.0444125,-2.75E-4,-0.00275
1679930465809,1110454162394916,-0.045375,-0.0042625,-0.00385
1679930465811,1110454164896839,-0.0444125,-0.0072875,-0.0048125
1679930465813,1110454167398916,-0.045375,-0.0092124995,-0.00275
1679930465815,1110454169900839,-0.046475,-0.011275,-0.0048125
1679930465821,1110454172403223,-0.043449998,-0.0143,-0.00385
1679930465821,1110454174905080,-0.045375,-0.015262499,-0.00275
1679930465822,1110454177407233,-0.046475,-0.017324999,-0.0017875
1679930465824,1110454179909156,-0.045375,-0.0182875,-0.00385
1679930465827,1110454182411233,-0.0474375,-0.0243375,-0.005775
1679930465830,1110454184913156,-0.0484,-0.0243375,-0.005775
1679930465832,1110454187415309,-0.0474375,-0.01925,-0.005775
1679930465834,1110454189917463,-0.0444125,-0.0122375,-0.0078375
1679930465837,1110454192419540,-0.0474375,-0.011275,-0.005775
1679930465840,1110454194921406,-0.0474375,-0.00825,-0.005775
1679930465842,1110454197423560,-0.0484,-0.0092124995,-0.005775
1679930465846,1110454199925483,-0.0484,-0.006325,-0.005775
1679930465847,1110454202427560,-0.046475,-0.0072875,-0.0048125
1679930465850,1110454204929728,-0.0474375,-0.0042625,-0.005775
1679930465852,1110454207431651,-0.0504625,-0.0033,-0.00385
1679930465855,1110454209933805,-0.0474375,0.0037125,-0.005775
1679930465857,1110454212435651,-0.046475,0.0037125,-0.0067375
1679930465860,1110454214937810,-0.046475,0.0097624995,-0.0048125
1679930465862,1110454217439887,-0.045375,0.0077,-0.0048125
1679930465865,1110454219942041,-0.043449998,0.0077,-0.00275
1679930465867,1110454222443964,-0.043449998,0.0127875,-0.00385
1679930465870,1110454224946046,-0.043449998,0.0097624995,-0.00385
1679930465872,1110454227447969,-0.0383625,0.0127875,-0.005775
1679930465874,1110454229950123,-0.0413875,0.0116875,-0.00385
1679930465877,1110454232451969,-0.043449998,0.01375,-0.00385
1679930465880,1110454234954123,-0.043449998,0.0127875,-0.0067375
1679930465883,1110454237456306,-0.0444125,0.010725,-0.005775
1679930465885,1110454239958382,-0.0444125,0.0017875,-0.0067375
1679930465887,1110454242460306,-0.0424875,0.0077,-0.005775
1679930465890,1110454244962382,-0.043449998,0.0097624995,-0.00385
1679930465891,1110454247464306,-0.043449998,0.0077,-0.0017875
1679930465894,1110454249966458,-0.0444125,0.0037125,-8.25E-4
1679930465897,1110454252468305,-0.043449998,0.0067375,-8.25E-4
1679930465900,1110454254970689,-0.040425,0.004675,2.75E-4
1679930465902,1110454257472612,-0.0374,0.005775,0.0012375
1679930465904,1110454259974699,-0.0374,0.010725,0.0022
1679930465906,1110454262476622,-0.0374,0.0067375,2.75E-4
1679930465910,1110454264978699,-0.0334125,0.0097624995,2.75E-4
1679930465912,1110454267480622,-0.0364375,0.0097624995,0.0012375
1679930465914,1110454269982766,-0.032449998,0.0067375,-0.0017875
1679930465917,1110454272484843,-0.0303875,0.014712499,-0.0017875
1679930465923,1110454274986997,-0.0314875,0.015675,-0.0017875
1679930465927,1110454277487977,-0.029424999,0.01375,-0.00385
1679930465927,1110454279988940,-0.0273625,0.0177375,-0.0017875
1679930465927,1110454282492940,-0.0273625,0.02475,-0.0048125
1679930465930,1110454284995017,-0.023375,0.027775,-0.00385
1679930465931,1110454287497248,-0.0174625,0.02475,-0.00385
1679930465934,1110454289999094,-0.013475,0.027775,-0.0067375
1679930465937,1110454292501247,-0.0174625,0.0306625,-0.0067375
1679930465940,1110454295003093,-0.0154,0.0317625,-0.005775
1679930465942,1110454297505247,-0.0154,0.032725,-0.0067375
1679930465945,1110454300007401,-0.012375,0.0306625,-0.0067375
1679930465947,1110454302509493,-0.0154,0.032725,-0.0067375
1679930465950,1110454305011416,-0.0165,0.0297,-0.005775
1679930465952,1110454307513493,-0.013475,0.02475,-0.0048125
1679930465954,1110454310015416,-0.0144375,0.0207625,-0.0067375
1679930465960,1110454312517469,-0.0154,0.021724999,-0.005775
1679930465962,1110454315019622,-0.0165,0.016775,-0.0097624995
1679930465963,1110454317521546,-0.0165,0.01375,-0.0067375
1679930465965,1110454320023699,-0.0174625,0.015675,-0.0078375
1679930465969,1110454322525776,-0.0165,0.0097624995,-0.0078375
1679930465973,1110454325027680,-0.0083875,0.004675,-0.0067375
1679930465973,1110454327529757,-0.0114124995,0.00275,-0.010725
1679930465974,1110454330031911,-0.0174625,-0.0023375,-0.010725
1679930465978,1110454332533834,-0.0174625,-0.00825,-0.0088
1679930465981,1110454335035911,-0.0193875,-0.0072875,-0.0078375
1679930465982,1110454337538084,-0.0193875,-0.0143,-0.0067375
1679930465985,1110454340040007,-0.024475,-0.0182875,-0.0048125
1679930465987,1110454342542084,-0.024475,-0.0213125,-0.0048125
1679930465993,1110454345043988,-0.024475,-0.0213125,-0.0017875
1679930465994,1110454347546142,-0.023375,-0.0213125,0.0012375
1679930465998,1110454350048219,-0.024475,-0.0253,-8.25E-4
1679930465999,1110454352550142,-0.023375,-0.027224999,0.0012375
1679930466001,1110454355052219,-0.024475,-0.0292875,0.0012375
1679930466002,1110454357554392,-0.023375,-0.028324999,-8.25E-4
1679930466005,1110454360056315,-0.0264,-0.0323125,2.75E-4
1679930466007,1110454362558392,-0.023375,-0.033275,0.0022
1679930466010,1110454365060546,-0.02145,-0.0342375,0.0012375
1679930466012,1110454367562469,-0.0224125,-0.0312125,0.0012375
1679930466014,1110454370064565,-0.0254375,-0.0323125,0.0022
1679930466017,1110454372566488,-0.0254375,-0.033275,0.0012375
1679930466020,1110454375068565,-0.0224125,-0.03025,0.0022
1679930466024,1110454377570700,-0.0224125,-0.0292875,0.0042625
1679930466025,1110454380072623,-0.0254375,-0.027224999,0.0042625
1679930466027,1110454382574776,-0.0264,-0.0262625,0.0042625
1679930466030,1110454385076853,-0.0204875,-0.028324999,0.0042625
1679930466034,1110454387578752,-0.024475,-0.022275,0.005225
1679930466035,1110454390080829,-0.0224125,-0.027224999,0.0042625
1679930466037,1110454392582752,-0.0174625,-0.028324999,0.0042625
1679930466040,1110454395084829,-0.0174625,-0.0262625,0.0031625
1679930466042,1110454397587060,-0.018424999,-0.027224999,2.75E-4
1679930466044,1110454400088901,-0.018424999,-0.0262625,0.0022
1679930466047,1110454402591055,-0.0174625,-0.0312125,0.0031625
1679930466050,1110454405093132,-0.0154,-0.0292875,-8.25E-4
1679930466052,1110454407595055,-0.0174625,-0.028324999,-0.00275
1679930466054,1110454410097084,-0.0193875,-0.0262625,-8.25E-4
1679930466057,1110454412599007,-0.023375,-0.0253,-0.0017875
1679930466060,1110454415101392,-0.023375,-0.01925,-0.00385
1679930466062,1110454417603315,-0.0284625,-0.022275,-0.0048125
1679930466065,1110454420105382,-0.0284625,-0.016224999,-0.0067375
1679930466067,1110454422607305,-0.0264,-0.0092124995,-0.005775
1679930466074,1110454425109382,-0.0264,-0.0072875,-0.0067375
1679930466075,1110454427611305,-0.0264,-0.0042625,-0.005775
1679930466077,1110454430113459,-0.024475,-0.0033,-0.005775
1679930466078,1110454432615536,-0.024475,0.00275,-0.00275
1679930466082,1110454435117690,-0.024475,0.004675,-0.00385
1679930466083,1110454437619536,-0.023375,0.005775,-0.00385
1679930466085,1110454440121690,-0.024475,0.0116875,-0.00385
1679930466087,1110454442623627,-0.0254375,0.0177375,-0.00275
1679930466090,1110454445125704,-0.0273625,0.021724999,-0.0048125
1679930466092,1110454447627857,-0.0303875,0.0226875,-0.005775
1679930466095,1110454450129781,-0.0314875,0.027775,-0.0048125
1679930466097,1110454452631857,-0.0314875,0.0287375,-0.00385
1679930466100,1110454455134011,-0.0334125,0.0287375,-0.005775
1679930466102,1110454457635857,-0.0374,0.0306625,-0.0048125
1679930466105,1110454460138011,-0.0383625,0.032725,-0.00275
1679930466109,1110454462640165,-0.0413875,0.032725,-0.0067375
1679930466111,1110454465142088,-0.0444125,0.0336875,-0.0048125
1679930466113,1110454467644165,-0.0444125,0.03575,-0.00385
1679930466115,1110454470146088,-0.0474375,0.032725,-0.0048125
1679930466117,1110454472648165,-0.0484,0.0297,-0.00385
1679930466121,1110454475150088,-0.0474375,0.02475,-0.0048125
1679930466122,1110454477652165,-0.046475,0.02475,-0.005775
1679930466125,1110454480154396,-0.0504625,0.016775,-0.00385
1679930466127,1110454482656473,-0.0495,0.0127875,-0.0048125
1679930466130,1110454485158430,-0.046475,0.010725,-0.0048125
1679930466132,1110454487660276,-0.046475,0.005775,-0.00385
1679930466135,1110454490162661,-0.046475,0.0017875,-0.00275
1679930466137,1110454492664608,-0.0474375,-2.75E-4,-0.0017875
1679930466141,1110454495166685,-0.0495,-0.0012375,-0.00275
1679930466142,1110454497668608,-0.0504625,6.875E-4,-8.25E-4
1679930466147,1110454500170685,-0.0474375,-0.0033,0.0042625
1679930466148,1110454502672603,-0.0495,-0.0042625,0.0031625
1679930466151,1110454505174680,-0.0474375,-0.00825,0.0031625
1679930466152,1110454507676834,-0.043449998,-0.0103124995,0.0022
1679930466155,1110454510178988,-0.0424875,-0.0133375,0.005225
1679930466157,1110454512680911,-0.0413875,-0.0133375,0.0061875
1679930466160,1110454515183007,-0.0394625,-0.015262499,0.0061875
1679930466163,1110454517684930,-0.035475,-0.0143,0.00715
1679930466165,1110454520187007,-0.0303875,-0.0182875,0.00715
1679930466168,1110454522688930,-0.0284625,-0.01925,0.00715
1679930466171,1110454525191069,-0.029424999,-0.015262499,0.0061875
1679930466173,1110454527693223,-0.0284625,-0.0143,0.0061875
1679930466174,1110454530195300,-0.0273625,-0.015262499,0.0061875
1679930466177,1110454532697223,-0.0273625,-0.015262499,0.0061875
1679930466180,1110454535199295,-0.024475,-0.011275,0.0061875
1679930466184,1110454537701218,-0.0224125,-0.0092124995,0.0042625
1679930466186,1110454540203372,-0.0204875,-0.0042625,0.0042625
1679930466188,1110454542705449,-0.018424999,-0.005225,0.0031625
1679930466190,1110454545207353,-0.013475,-0.0033,2.75E-4
1679930466192,1110454547709507,-0.013475,-2.75E-4,-0.0048125
1679930466195,1110454550211584,-0.01045,0.00275,-0.0088
1679930466197,1110454552713507,-0.01045,0.005775,-0.010725
1679930466200,1110454555215598,-0.0064625,0.0037125,-0.01485
1679930466202,1110454557717752,-0.0055,0.005775,-0.0177375
1679930466206,1110454560219675,-0.0083875,0.0077,-0.016775
1679930466208,1110454562721752,-0.0083875,0.0097624995,-0.016775
1679930466210,1110454565223656,-0.013475,0.0116875,-0.016775
1679930466212,1110454567725810,-0.013475,0.016775,-0.0127875
1679930466215,1110454570227887,-0.012375,0.0177375,-0.010725
1679930466217,1110454572730041,-0.0165,0.0207625,-0.010725
1679930466222,1110454575231998,-0.0174625,0.0226875,-0.0078375
1679930466224,1110454577734075,-0.0174625,0.026675,-0.0078375
1679930466225,1110454580235998,-0.0174625,0.0237875,-0.005775
1679930466228,1110454582738075,-0.0165,0.0237875,-0.00385
1679930466232,1110454585239998,-0.013475,0.0237875,-0.00385
1679930466233,1110454587742147,-0.0144375,0.0226875,-8.25E-4
1679930466236,1110454590244300,-0.0165,0.016775,-0.0017875
1679930466238,1110454592746377,-0.0204875,0.0127875,-0.0048125
1679930466241,1110454595248300,-0.02145,0.0116875,-0.00385
1679930466243,1110454597750377,-0.0193875,0.005775,-0.0048125
1679930466250,1110454600252300,-0.0224125,0.00275,-0.00385
1679930466251,1110454602754377,-0.0254375,-0.0023375,-0.0048125
1679930466253,1110454605256300,-0.0264,-0.0072875,-0.0067375
1679930466254,1110454607758670,-0.0254375,-0.011275,-0.0088
1679930466255,1110454610260593,-0.023375,-0.0133375,-0.0097624995
1679930466259,1110454612762670,-0.0204875,-0.017324999,-0.0088
1679930466262,1110454615264593,-0.018424999,-0.0243375,-0.0097624995
1679930466264,1110454617766670,-0.0193875,-0.027224999,-0.0088
1679930466266,1110454620268593,-0.0154,-0.0353375,-0.0067375
1679930466268,1110454622770747,-0.0154,-0.0363,-0.0088
1679930466271,1110454625272901,-0.0174625,-0.044275,-0.00385
1679930466273,1110454627774978,-0.0174625,-0.0463375,-0.00385
1679930466275,1110454630276882,-0.0193875,-0.050325,-0.0017875
1679930466278,1110454632778959,-0.02145,-0.0482625,-0.0017875
1679930466281,1110454635280882,-0.0204875,-0.0463375,0.0012375
1679930466283,1110454637782959,-0.02145,-0.044275,-0.00385
1679930466285,1110454640285113,-0.0204875,-0.0372625,-0.00275
1679930466288,1110454642787036,-0.0204875,-0.033275,-8.25E-4
1679930466290,1110454645289190,-0.024475,-0.0312125,2.75E-4
1679930466293,1110454647791036,-0.0224125,-0.0253,0.0012375
1679930466298,1110454650293161,-0.0193875,-0.0213125,-8.25E-4
1679930466299,1110454652795238,-0.018424999,-0.0253,0.0012375
1679930466302,1110454655297161,-0.0144375,-0.022275,0.0022
1679930466302,1110454657799314,-0.007425,-0.017324999,-0.00385
1679930466307,1110454660301372,-4.125E-4,-0.0143,-0.0048125
1679930466308,1110454662803295,-0.001375,-0.011275,-0.0078375
1679930466311,1110454665305449,-0.0053625,-0.0072875,-0.0088
1679930466312,1110454667807296,-0.0053625,-0.0012375,-0.0127875
1679930466315,1110454670309449,-0.007425,0.004675,-0.0097624995
1679930466318,1110454672811623,-0.00935,0.005775,-0.010725
1679930466321,1110454675313700,-0.01045,0.0067375,-0.01485
1679930466324,1110454677815623,-0.0114124995,0.0097624995,-0.0067375
1679930466326,1110454680317700,-0.0114124995,0.0077,-0.005775
1679930466327,1110454682819854,-0.0144375,0.0067375,-0.0067375
1679930466332,1110454685321762,-0.0154,0.0067375,-0.0048125
1679930466334,1110454687823839,-0.0144375,0.0037125,0.0022
1679930466336,1110454690325993,-0.0154,-0.0042625,-0.0017875
1679930466337,1110454692827839,-0.0144375,-0.005225,-0.005775
1679930466341,1110454695330013,-0.00935,-0.006325,-0.0048125
1679930466342,1110454697831936,-0.0064625,-0.006325,-0.0067375
1679930466345,1110454700334090,-0.0034375,-0.00825,-0.0048125
1679930466348,1110454702836167,0.00165,-0.011275,-0.00385
1679930466351,1110454705338090,0.0026125,-0.011275,-0.005775
1679930466353,1110454707840167,0.0026125,-0.0103124995,-0.005775
1679930466355,1110454710342090,0.0045375,-0.0092124995,-0.0078375
1679930466358,1110454712844244,5.5E-4,-0.0092124995,-0.0097624995
1679930466360,1110454715346340,-0.0034375,-0.0092124995,-0.0097624995
1679930466362,1110454717848493,-0.0034375,-0.006325,-0.011825
1679930466365,1110454720350417,-4.125E-4,-0.00825,-0.0067375
1679930466368,1110454722852493,-4.125E-4,-0.0042625,-0.0048125
1679930466372,1110454725354407,-0.001375,-0.0042625,-0.005775
1679930466375,1110454727856483,-0.0034375,-0.0042625,-0.0048125
1679930466377,1110454730358407,-4.125E-4,-0.0122375,-0.0017875
1679930466378,1110454732860560,0.00165,-0.015262499,-8.25E-4
1679930466381,1110454735362714,0.003575,-0.017324999,-8.25E-4
1679930466383,1110454737864810,0.0075625,-0.0242,-8.25E-4
1679930466385,1110454740366733,0.0075625,-0.028324999,-8.25E-4
1679930466387,1110454742868810,0.009625,-0.0292875,0.0012375
1679930466391,1110454745370733,0.009625,-0.0323125,-8.25E-4
1679930466393,1110454747872902,0.0075625,-0.0292875,-8.25E-4
1679930466395,1110454750374979,0.0075625,-0.0292875,2.75E-4
1679930466398,1110454752876902,0.0026125,-0.028324999,2.75E-4
1679930466400,1110454755379056,0.00165,-0.022275,0.0012375
1679930466403,1110454757881133,-4.125E-4,-0.016224999,0.005225
1679930466406,1110454760383013,-0.0044,-0.0132,0.0122375
1679930466409,1110454762885090,-0.0064625,-0.011275,0.011275
1679930466412,1110454765387013,-0.0064625,-0.0122375,0.0132
1679930466413,1110454767889152,-0.007425,-0.0122375,0.0171875
1679930466415,1110454770391229,-0.00935,-0.0143,0.015262499
1679930466418,1110454772893383,-0.00935,-0.016224999,0.016224999
1679930466420,1110454775395306,-0.007425,-0.0182875,0.0132
1679930466423,1110454777897383,-0.0064625,-0.0213125,0.015262499
1679930466426,1110454780399301,-0.00935,-0.0242,0.015262499
1679930466428,1110454782901455,-0.01045,-0.0213125,0.015262499
1679930466431,1110454785403532,-0.0053625,-0.022275,0.01925
1679930466433,1110454787905455,-0.007425,-0.0262625,0.016224999
1679930466436,1110454790407532,-0.00935,-0.0213125,0.0171875
1679930466438,1110454792909685,-0.0083875,-0.028324999,0.021175
1679930466443,1110454795411608,-0.0083875,-0.0253,0.01925
1679930466450,1110454797913685,-0.0064625,-0.0253,0.0202125
1679930466450,1110454800415858,-0.007425,-0.0242,0.022275
1679930466450,1110454802917781,-0.0053625,-0.027224999,0.0242
1679930466451,1110454805419858,-0.0034375,-0.022275,0.0242
1679930466453,1110454807921781,-0.0044,-0.0202125,0.0232375
1679930466455,1110454810423858,-0.0053625,-0.01925,0.021175
1679930466457,1110454812926017,-0.001375,-0.017324999,0.022275
1679930466460,1110454815427940,-0.001375,-0.0143,0.0242
1679930466464,1110454817930094,-0.001375,-0.0122375,0.0251625
1679930466465,1110454820432171,5.5E-4,-0.0132,0.0262625
1679930466468,1110454822934099,5.5E-4,-0.0122375,0.0262625
1679930466471,1110454825436176,-0.001375,-0.006325,0.0262625
1679930466473,1110454827938099,-0.001375,-0.0072875,0.027224999
1679930466474,1110454830440253,-0.0034375,-0.005225,0.0281875
1679930466477,1110454832942431,-0.0034375,-0.005225,0.03025
1679930466480,1110454835444508,5.5E-4,-0.0042625,0.0312125
1679930466484,1110454837946431,-0.001375,-0.0012375,0.0281875
1679930466486,1110454840448508,-0.0034375,-2.75E-4,0.03025
1679930466487,1110454842950411,-0.001375,-0.0022,0.02915
1679930466490,1110454845452488,-4.125E-4,0.00275,0.0281875
1679930466493,1110454847954411,-0.0034375,0.0037125,0.0262625
1679930466498,1110454850456795,-0.001375,0.00275,0.0251625
1679930466499,1110454852958632,-4.125E-4,0.00275,0.021175
1679930466501,1110454855460785,-4.125E-4,0.00275,0.0171875
1679930466502,1110454857962709,-0.0044,-2.75E-4,0.01925
1679930466505,1110454860464786,-4.125E-4,0.00275,0.01925
1679930466508,1110454862966700,-0.0053625,0.0037125,0.01925
1679930466513,1110454865468853,-0.0083875,0.00275,0.0202125
1679930466514,1110454867970930,-0.0114124995,0.0067375,0.0202125
1679930466515,1110454870472853,-0.013475,0.0127875,0.0171875
1679930466518,1110454872974934,-0.0144375,0.0116875,0.0171875
1679930466523,1110454875476857,-0.01045,0.0097624995,0.016224999
1679930466524,1110454877979011,-0.01045,0.014712499,0.01925
1679930466526,1110454880481165,-0.01045,0.014712499,0.016224999
1679930466528,1110454882982997,-0.0083875,0.0127875,0.0171875
1679930466531,1110454885485151,-0.0083875,0.0127875,0.0122375
1679930466533,1110454887987228,-0.007425,0.0127875,0.0092124995
1679930466535,1110454890489151,-0.007425,0.0116875,0.0061875
1679930466537,1110454892991305,-0.007425,0.010725,0.0061875
1679930466540,1110454895493391,-0.007425,0.010725,0.010175
1679930466542,1110454897995314,-0.007425,0.010725,0.00825
1679930466545,1110454900497468,-0.0053625,0.010725,0.0092124995
1679930466547,1110454902999314,-0.0064625,0.005775,0.00825
1679930466551,1110454905501468,-0.001375,0.005775,0.00715
1679930466552,1110454908003545,5.5E-4,0.004675,0.0092124995
1679930466557,1110454910505699,-0.001375,0.004675,0.00825
1679930466559,1110454913007594,5.5E-4,0.004675,0.00825
1679930466563,1110454915509671,0.003575,0.0067375,0.00825
1679930466564,1110454918011594,0.0026125,0.0037125,0.0061875
1679930466565,1110454920513671,0.0045375,0.00275,0.0061875
1679930466567,1110454923015825,0.00165,6.875E-4,0.0061875
1679930466571,1110454925518050,5.5E-4,-0.0042625,0.005225
1679930466575,1110454928019974,0.00165,-0.0033,0.0042625
1679930466576,1110454930522050,0.0026125,-0.006325,0.0022
1679930466579,1110454933023974,-0.001375,-0.0072875,0.0022
1679930466581,1110454935526050,-4.125E-4,-0.00825,0.0012375
1679930466583,1110454938028204,-4.125E-4,-0.0092124995,0.0042625
1679930466587,1110454940530050,5.5E-4,-0.00825,0.0031625
1679930466588,1110454943032281,0.0026125,-0.0072875,0.0012375
1679930466590,1110454945534372,0.0045375,-0.0092124995,0.0031625
1679930466593,1110454948036295,0.0075625,-0.006325,0.0022
1679930466598,1110454950538372,0.009625,-0.00825,0.0022
1679930466599,1110454953040295,0.01155,-0.0092124995,2.75E-4
1679930466601,1110454955542362,0.0075625,-0.0072875,-0.0017875
1679930466603,1110454958044516,0.0045375,-0.0072875,-0.00385
1679930466607,1110454960546439,0.0056375,6.875E-4,-0.0017875
1679930466608,1110454963048593,-0.001375,0.00275,-0.0017875
1679930466611,1110454965550656,-0.0053625,0.00275,-0.0017875
1679930466616,1110454968052579,-0.0064625,0.010725,-0.00275
1679930466617,1110454970554656,-0.013475,0.0116875,-0.0017875
1679930466618,1110454973056579,-0.0174625,0.010725,0.0031625
1679930466621,1110454975558728,-0.0144375,0.010725,0.0022
1679930466623,1110454978060805,-0.018424999,0.005775,0.0031625
1679930466625,1110454980562728,-0.0193875,6.875E-4,0.0061875
1679930466627,1110454983064882,-0.0193875,-0.0042625,0.0061875
1679930466630,1110454985566959,-0.02145,-0.005225,0.00715
1679930466636,1110454988068872,-0.0224125,-0.0143,0.00825
1679930466637,1110454990570949,-0.0224125,-0.0202125,0.00825
1679930466639,1110454993073103,-0.023375,-0.0253,0.0092124995
1679930466641,1110454995575256,-0.0264,-0.0292875,0.00825
1679930466642,1110454998077103,-0.0273625,-0.0323125,0.0092124995
1679930466645,1110455000579002,-0.0334125,-0.041249998,0.010175
1679930466648,1110455003081155,-0.0303875,-0.044275,0.0122375
1679930466651,1110455005583232,-0.0303875,-0.0462,0.0132
1679930466653,1110455008085155,-0.03135,-0.0482625,0.014162499
1679930466655,1110455010587319,-0.0303875,-0.0532125,0.014162499
1679930466657,1110455013089396,-0.03135,-0.0583,0.0132
1679930466661,1110455015591550,-0.0334125,-0.0572,0.0132
1679930466664,1110455018093396,-0.035475,-0.0592625,0.0132
1679930466665,1110455020595555,-0.0374,-0.0642125,0.0132
1679930466668,1110455023097478,-0.0284625,-0.0642125,0.011275
1679930466672,1110455025599632,-0.0264,-0.066275,0.010175
1679930466675,1110455028101709,-0.03135,-0.066275,0.015262499
1679930466676,1110455030603627,-0.0273625,-0.0653125,0.016224999
1679930466678,1110455033105704,-0.024475,-0.061325,0.015262499
1679930466681,1110455035607627,-0.0254375,-0.0622875,0.010175
1679930466682,1110455038109704,-0.0254375,-0.061325,0.010175
1679930466685,1110455040611858,-0.0273625,-0.0583,0.014162499
1679930466688,1110455043114021,-0.0254375,-0.0543125,0.014162499
1679930466691,1110455045615944,-0.0254375,-0.049225,0.0132
1679930466693,1110455048118021,-0.0264,-0.0512875,0.015262499
1679930466697,1110455050619944,-0.0224125,-0.044275,0.0132
1679930466698,1110455053122036,-0.0254375,-0.0352,0.011275
1679930466701,1110455055623959,-0.0273625,-0.033275,0.0132
1679930466702,1110455058126113,-0.0273625,-0.0372625,0.010175
1679930466705,1110455060628190,-0.024475,-0.0352,0.00825
1679930466709,1110455063130103,-0.02145,-0.03025,0.00825
1679930466712,1110455065632257,-0.018424999,-0.0253,0.011275
1679930466714,1110455068134333,-0.018424999,-0.022275,0.0122375
1679930466715,1110455070636487,-0.018424999,-0.017324999,0.0122375
1679930466718,1110455073138410,-0.018424999,-0.0132,0.0132
1679930466721,1110455075640497,-0.0174625,-0.0072875,0.014162499
1679930466723,1110455078142420,-0.0154,-0.0033,0.015262499
1679930466727,1110455080644497,-0.0144375,0.0017875,0.01925
1679930466728,1110455083146651,-0.013475,6.875E-4,0.0171875
1679930466730,1110455085648810,-0.0144375,0.00275,0.016224999
1679930466733,1110455088150733,-0.0154,0.004675,0.01925
1679930466736,1110455090652810,-0.0174625,0.0067375,0.021175
1679930466739,1110455093154733,-0.0224125,0.0017875,0.0232375
1679930466741,1110455095656786,-0.023375,6.875E-4,0.022275
1679930466743,1110455098158709,-0.023375,0.0017875,0.0251625
1679930466747,1110455100660786,-0.02145,0.00275,0.027224999
1679930466748,1110455103163017,-0.0254375,-0.005225,0.02915
1679930466751,1110455105665079,-0.024475,-0.0033,0.033275
1679930466753,1110455108167002,-0.0224125,-0.015262499,0.032175
1679930466756,1110455110669079,-0.02035,-0.01925,0.033275
1679930466758,1110455113171002,-0.02035,-0.022275,0.0361625
1679930466761,1110455115673074,-0.0224125,-0.0253,0.0391875
1679930466763,1110455118174997,-0.02145,-0.03025,0.0391875
1679930466765,1110455120677151,-0.023375,-0.0342375,0.0391875
1679930466768,1110455123179305,-0.0224125,-0.041249998,0.0391875
1679930466771,1110455125681382,-0.02035,-0.041249998,0.04015
1679930466773,1110455128183305,-0.0193875,-0.0462,0.04015
1679930466775,1110455130685382,-0.018424999,-0.0482625,0.041249998
1679930466778,1110455133187305,-0.0174625,-0.0512875,0.0422125
1679930466782,1110455135689458,-0.0174625,-0.0512875,0.041249998
1679930466785,1110455138191540,-0.0163625,-0.049225,0.0422125
1679930466787,1110455140693694,-0.0163625,-0.0532125,0.0462
1679930466789,1110455143195617,-0.0144375,-0.055275,0.043175
1679930466791,1110455145697463,-0.0114124995,-0.0583,0.041249998
1679930466793,1110455148199617,-0.012375,-0.052249998,0.04015
1679930466797,1110455150701694,-0.0154,-0.055275,0.04015
1679930466798,1110455153203848,-0.013475,-0.0543125,0.043175
1679930466801,1110455155705771,-0.0114124995,-0.052249998,0.04015
1679930466803,1110455158207848,-0.0125124995,-0.049225,0.0391875
1679930466805,1110455160710026,-0.0094875,-0.044275,0.0391875
1679930466808,1110455163211949,-0.008525,-0.044275,0.0391875
1679930466811,1110455165713795,-0.01045,-0.038225,0.0391875
1679930466814,1110455168216180,-0.0094875,-0.0372625,0.038225
1679930466816,1110455170718098,-0.008525,-0.0353375,0.04015
1679930466818,1110455173220175,-0.007425,-0.0323125,0.0361625
1679930466823,1110455175722098,-0.007425,-0.028324999,0.038225
1679930466824,1110455178224175,-0.0034375,-0.0253,0.038225
1679930466826,1110455180726325,-0.0055,-0.0253,0.0361625
1679930466828,1110455183228248,-0.0034375,-0.0213125,0.033275
1679930466831,1110455185730402,0.0015125,-0.01925,0.0361625
1679930466833,1110455188232479,5.5E-4,-0.0133375,0.0361625
1679930466835,1110455190734402,5.5E-4,-0.00935,0.0361625
1679930466838,1110455193236503,5.5E-4,-0.0133375,0.0361625
1679930466841,1110455195738426,5.5E-4,-0.0133375,0.0342375
1679930466843,1110455198240503,-4.125E-4,-0.011275,0.0342375
1679930466845,1110455200742656,-0.0015125,-0.0133375,0.0391875
1679930466848,1110455203244575,-4.125E-4,-0.0133375,0.04015
1679930466851,1110455205746728,-0.0015125,-0.0103124995,0.041249998
1679930466853,1110455208248805,-0.0055,-0.006325,0.044275
1679930466856,1110455210750728,-0.007425,-0.00935,0.041249998
1679930466860,1110455213252795,-0.007425,-0.0122375,0.043175
1679930466862,1110455215754718,-0.0094875,-0.0122375,0.0471625
1679930466864,1110455218256872,-0.0154,-0.0103124995,0.0471625
1679930466865,1110455220759026,-0.0165,-0.016224999,0.0482625
1679930466868,1110455223260872,-0.018424999,-0.01925,0.0471625
1679930466871,1110455225763026,-0.018424999,-0.022275,0.052249998
1679930466873,1110455228265103,-0.02145,-0.0292875,0.0532125
1679930466875,1110455230767026,-0.024475,-0.0363,0.049225
1679930466878,1110455233269117,-0.02145,-0.041249998,0.0532125
1679930466881,1110455235771271,-0.0224125,-0.041249998,0.055275
1679930466883,1110455238273194,-0.019524999,-0.050325,0.054175
1679930466885,1110455240775271,-0.0204875,-0.05335,0.052249998
1679930466888,1110455243277416,-0.0165,-0.05335,0.052249998
1679930466891,1110455245779339,-0.0174625,-0.05335,0.0501875
1679930466893,1110455248281416,-0.0154,-0.0512875,0.0501875
1679930466898,1110455250783339,-0.0144375,-0.052249998,0.0482625
1679930466899,1110455253285425,-0.0144375,-0.0512875,0.0482625
1679930466902,1110455255787579,-0.0165,-0.0512875,0.0462
1679930466903,1110455258289502,-0.0165,-0.049225,0.043175
1679930466906,1110455260791579,-0.0165,-0.04235,0.0482625
1679930466908,1110455263293733,-0.0224125,-0.044275,0.0501875
1679930466911,1110455265795652,-0.0235125,-0.0433125,0.0482625
1679930466914,1110455268297805,-0.0224125,-0.038225,0.0482625
1679930466916,1110455270799652,-0.0204875,-0.038225,0.0501875
1679930466919,1110455273301819,-0.0224125,-0.04235,0.0501875
1679930466922,1110455275803896,-0.0204875,-0.04235,0.052249998
1679930466923,1110455278306050,-0.02145,-0.041249998,0.0501875
1679930466925,1110455280807973,-0.02145,-0.041249998,0.0501875
1679930466928,1110455283310050,-0.0224125,-0.0433125,0.0471625
1679930466931,1110455285811959,-0.0235125,-0.0452375,0.0462
1679930466934,1110455288314113,-0.0204875,-0.0452375,0.0462
1679930466936,1110455290815959,-0.0204875,-0.0452375,0.043175
1679930466938,1110455293318113,-0.0204875,-0.0452375,0.0422125
1679930466941,1110455295820262,-0.0204875,-0.0433125,0.04015
1679930466943,1110455298322339,-0.0204875,-0.039325,0.04015
1679930466947,1110455300824262,-0.018424999,-0.039325,0.0391875
1679930466950,1110455303326339,-0.019524999,-0.038225,0.0391875
1679930466952,1110455305828262,-0.0174625,-0.0363,0.0391875
1679930466954,1110455308330334,-0.0144375,-0.0372625,0.038225
1679930466956,1110455310832257,-0.0174625,-0.0363,0.0342375
1679930466959,1110455313334642,-0.018424999,-0.033275,0.0342375
1679930466960,1110455315836565,-0.018424999,-0.0342375,0.0342375
1679930466965,1110455318338632,-0.0235125,-0.0363,0.032175
1679930466966,1110455320840555,-0.02145,-0.0372625,0.033275
1679930466968,1110455323342632,-0.0254375,-0.0342375,0.032175
1679930466973,1110455325844781,-0.0275,-0.033275,0.032175
1679930466975,1110455328346704,-0.030524999,-0.03025,0.032175
1679930466977,1110455330848781,-0.0284625,-0.0262625,0.0312125
1679930466978,1110455333350934,-0.0314875,-0.0253,0.0312125
1679930466981,1110455335852858,-0.0385,-0.0262625,0.0342375
1679930466983,1110455338354934,-0.035475,-0.02035,0.0342375
1679930466987,1110455340856858,-0.0394625,-0.0182875,0.033275
1679930466989,1110455343358934,-0.040425,-0.016224999,0.0342375
1679930466991,1110455345861088,-0.0424875,-0.0133375,0.0312125
1679930466993,1110455348363032,-0.0444125,-0.016224999,0.0312125
1679930466998,1110455350865186,-0.046475,-0.016224999,0.0281875
1679930466999,1110455353367263,-0.0474375,-0.02035,0.0281875
1679930467002,1110455355869186,-0.0474375,-0.0213125,0.03025
1679930467003,1110455358371263,-0.0495,-0.027224999,0.02915
1679930467007,1110455360873166,-0.052525,-0.028324999,0.03025
1679930467013,1110455363375320,-0.052525,-0.03135,0.0281875
1679930467014,1110455365877397,-0.052525,-0.0353375,0.0281875
1679930467016,1110455368379320,-0.052525,-0.038225,0.0262625
1679930467017,1110455370881474,-0.054449998,-0.04235,0.0281875
1679930467018,1110455373383551,-0.054449998,-0.0473,0.02915
1679930467021,1110455375885474,-0.054449998,-0.05335,0.0312125
1679930467025,1110455378387599,-0.057475,-0.0543125,0.032175
1679930467027,1110455380889676,-0.0554125,-0.0583,0.02915
1679930467028,1110455383391599,-0.0565125,-0.06325,0.0312125
1679930467031,1110455385893676,-0.0534875,-0.0592625,0.03025
1679930467033,1110455388395599,-0.052525,-0.0583,0.03025
1679930467036,1110455390897758,-0.0484,-0.0622875,0.03025
1679930467038,1110455393399835,-0.0484,-0.0592625,0.032175
1679930467041,1110455395901989,-0.0495,-0.061325,0.032175
1679930467045,1110455398403912,-0.052525,-0.0672375,0.02915
1679930467048,1110455400905970,-0.0534875,-0.069299996,0.02915
1679930467049,1110455403408123,-0.0565125,-0.066275,0.0281875
1679930467052,1110455405909970,-0.057475,-0.06435,0.027224999
1679930467053,1110455408412123,-0.0584375,-0.0653125,0.0281875
1679930467056,1110455410914277,-0.0565125,-0.0672375,0.0281875
1679930467058,1110455413416104,-0.0614625,-0.06325,0.02915
1679930467061,1110455415918258,-0.063525,-0.061325,0.0281875
1679930467064,1110455418420181,-0.06545,-0.0592625,0.027224999
1679930467068,1110455420922258,-0.0694375,-0.0583,0.03025
1679930467074,1110455423424181,-0.0694375,-0.0543125,0.02915
1679930467074,1110455425926253,-0.0715,-0.0543125,0.0312125
1679930467074,1110455428428484,-0.073425,-0.05335,0.02915
1679930467075,1110455430930561,-0.074525,-0.050325,0.02915
1679930467077,1110455433432484,-0.074525,-0.0452375,0.033275
1679930467081,1110455435934566,-0.0754875,-0.044275,0.0372625
1679930467085,1110455438436489,-0.074525,-0.0452375,0.0342375
1679930467086,1110455440938566,-0.07645,-0.0452375,0.0342375
1679930467088,1110455443440720,-0.074525,-0.0433125,0.0361625
1679930467090,1110455445942647,-0.073425,-0.041249998,0.038225
1679930467093,1110455448444724,-0.0715,-0.039325,0.0391875
1679930467096,1110455450946647,-0.0724625,-0.0342375,0.0391875
1679930467098,1110455453448811,-0.068475,-0.0323125,0.0391875
1679930467101,1110455455950965,-0.0704,-0.038225,0.038225
1679930467103,1110455458453042,-0.0694375,-0.038225,0.0372625
1679930467107,1110455460954965,-0.06545,-0.041249998,0.0342375
1679930467109,1110455463457037,-0.06545,-0.0463375,0.0342375
1679930467111,1110455465958960,-0.0664125,-0.0482625,0.04015
1679930467115,1110455468461037,-0.0644875,-0.0512875,0.041249998
1679930467116,1110455470962960,-0.0664125,-0.0512875,0.04015
1679930467119,1110455473465344,-0.068475,-0.05335,0.041249998
1679930467125,1110455475967191,-0.068475,-0.052249998,0.043175
1679930467126,1110455478469344,-0.068475,-0.050325,0.0462
1679930467127,1110455480971267,-0.0664125,-0.05335,0.0482625
1679930467129,1110455483473339,-0.0644875,-0.0512875,0.0471625
1679930467132,1110455485975262,-0.06545,-0.0543125,0.049225
1679930467133,1110455488477416,-0.06545,-0.0592625,0.049225
1679930467136,1110455490979493,-0.0644875,-0.0573375,0.054175
1679930467140,1110455493481662,-0.0614625,-0.0543125,0.0532125
1679930467141,1110455495983508,-0.0605,-0.055275,0.0482625
1679930467143,1110455498485662,-0.0584375,-0.05335,0.0501875
1679930467146,1110455500987585,-0.0605,-0.0573375,0.049225
1679930467148,1110455503489662,-0.0594,-0.05335,0.0482625
1679930467151,1110455505991825,-0.062425,-0.05335,0.049225
1679930467155,1110455508493748,-0.0605,-0.0463375,0.0471625
1679930467159,1110455510995907,-0.0614625,-0.0452375,0.0471625
1679930467160,1110455513497984,-0.0594,-0.044275,0.049225
1679930467162,1110455515999907,-0.0584375,-0.0433125,0.049225
1679930467164,1110455518501984,-0.0614625,-0.0433125,0.054175
1679930467166,1110455521004138,-0.062425,-0.0433125,0.052249998
1679930467168,1110455523506061,-0.0605,-0.041249998,0.052249998
1679930467171,1110455526008138,-0.0594,-0.0372625,0.055275
1679930467174,1110455528510061,-0.062425,-0.033275,0.0581625
1679930467176,1110455531012215,-0.0594,-0.03135,0.0572
1679930467178,1110455533514061,-0.0584375,-0.03135,0.0572
1679930467181,1110455536016229,-0.0565125,-0.0262625,0.055275
1679930467183,1110455538518383,-0.054449998,-0.0243375,0.0611875
1679930467185,1110455541020459,-0.0504625,-0.01925,0.0611875
1679930467188,1110455543522383,-0.046475,-0.0182875,0.060225
1679930467191,1110455546024488,-0.0444125,-0.016224999,0.0572
1679930467193,1110455548526412,-0.0455125,-0.017324999,0.060225
1679930467197,1110455551028565,-0.043449998,-0.017324999,0.0572
1679930467199,1110455553530412,-0.0394625,-0.0182875,0.060225
1679930467202,1110455556032796,-0.0385,-0.022275,0.0572
1679930467203,1110455558534719,-0.0385,-0.0253,0.0581625
1679930467206,1110455561036796,-0.0374,-0.0292875,0.060225
1679930467208,1110455563538719,-0.0374,-0.0353375,0.0611875
1679930467211,1110455566040796,-0.0394625,-0.038225,0.0611875
1679930467216,1110455568542705,-0.0455125,-0.044275,0.060225
1679930467217,1110455571044859,-0.0455125,-0.050325,0.0642125
1679930467218,1110455573546936,-0.046475,-0.0543125,0.0642125
1679930467221,1110455576049090,-0.046475,-0.0622875,0.0702625
1679930467223,1110455578551013,-0.0474375,-0.066275,0.0672375
1679930467226,1110455581053085,-0.0504625,-0.072325,0.0691625
1679930467228,1110455583555008,-0.0495,-0.0782375,0.071225
1679930467232,1110455586057085,-0.0484,-0.0842875,0.071225
1679930467235,1110455588559239,-0.0455125,-0.08635,0.0672375
1679930467236,1110455591061138,-0.0444125,-0.0952875,0.0691625
1679930467238,1110455593563292,-0.0484,-0.1023,0.0691625
1679930467241,1110455596065369,-0.0495,-0.10725,0.0691625
1679930467243,1110455598567292,-0.0484,-0.1123375,0.0672375
1679930467247,1110455601069369,-0.0495,-0.113299996,0.0691625
1679930467249,1110455603571311,-0.0534875,-0.113299996,0.0721875
1679930467251,1110455606073465,-0.0534875,-0.11825,0.07315
1679930467253,1110455608575618,-0.0554125,-0.1203125,0.071225
1679930467256,1110455611077465,-0.0584375,-0.11825,0.07315
1679930467258,1110455613579604,-0.0594,-0.11935,0.07315
1679930467261,1110455616081681,-0.0605,-0.11935,0.07425
1679930467264,1110455618583604,-0.063525,-0.121275,0.077275
1679930467266,1110455621085758,-0.068475,-0.11825,0.0782375
1679930467268,1110455623587839,-0.06545,-0.121275,0.0792
1679930467275,1110455626089762,-0.06545,-0.121275,0.0812625
1679930467276,1110455628591839,-0.0694375,-0.121275,0.082225
1679930467277,1110455631093762,-0.0715,-0.1172875,0.088275
1679930467278,1110455633595931,-0.0715,-0.116325,0.088275
1679930467281,1110455636098008,-0.0715,-0.115225,0.088275
1679930467283,1110455638599931,-0.068475,-0.116325,0.088275
1679930467288,1110455641102008,-0.0664125,-0.116325,0.088275
1679930467289,1110455643604171,-0.062425,-0.1093125,0.087175
1679930467292,1110455646106094,-0.0614625,-0.10725,0.08525
1679930467293,1110455648608248,-0.0594,-0.0983125,0.087175
1679930467296,1110455651110325,-0.0584375,-0.09735,0.08525
1679930467298,1110455653612253,-0.057475,-0.091299996,0.0862125
1679930467301,1110455656114330,-0.0594,-0.0842875,0.0862125
1679930467303,1110455658616253,-0.0605,-0.0803,0.087175
1679930467307,1110455661118330,-0.062425,-0.077275,0.0862125
1679930467310,1110455663620475,-0.0644875,-0.07425,0.087175
1679930467312,1110455666122629,-0.0644875,-0.0683375,0.089237496
1679930467315,1110455668624552,-0.0633875,-0.066275,0.0902
1679930467316,1110455671126629,-0.068475,-0.0642125,0.0911625
1679930467318,1110455673628552,-0.0664125,-0.060225,0.0902
1679930467322,1110455676130720,-0.0664125,-0.060225,0.0922625
1679930467323,1110455678632566,-0.068475,-0.060225,0.0911625
1679930467326,1110455681134720,-0.0664125,-0.061325,0.0911625
1679930467329,1110455683636873,-0.0694375,-0.066275,0.0911625
1679930467331,1110455686138920,-0.0664125,-0.06325,0.093225
1679930467333,1110455688640843,-0.06545,-0.060225,0.09625
1679930467336,1110455691142920,-0.06545,-0.06325,0.0972125
1679930467339,1110455693644843,-0.068475,-0.0622875,0.0972125
1679930467341,1110455696146906,-0.068475,-0.0642125,0.1021625
1679930467343,1110455698649060,-0.068475,-0.0653125,0.098175
1679930467347,1110455701151214,-0.0694375,-0.0683375,0.099275
1679930467349,1110455703653137,-0.068475,-0.0752125,0.098175
1679930467352,1110455706155195,-0.068475,-0.077275,0.09625
1679930467353,1110455708657118,-0.0664125,-0.0803,0.09515
1679930467356,1110455711159195,-0.06545,-0.0862125,0.0941875
1679930467359,1110455713661118,-0.0694375,-0.091299996,0.0922625
1679930467361,1110455716163272,-0.0715,-0.0922625,0.0941875
1679930467364,1110455718665334,-0.0704,-0.09625,0.0972125
1679930467366,1110455721167488,-0.0724625,-0.1032625,0.099275
1679930467368,1110455723669411,-0.0785125,-0.104225,0.100237496
1679930467372,1110455726171488,-0.0804375,-0.1082125,0.1032625
1679930467373,1110455728673397,-0.0804375,-0.110275,0.1032625
1679930467376,1110455731175551,-0.082499996,-0.111237496,0.1032625
1679930467378,1110455733677628,-0.079475,-0.1142625,0.1032625
1679930467381,1110455736179551,-0.0853875,-0.113299996,0.10725
1679930467385,1110455738681729,-0.0853875,-0.111237496,0.1082125
1679930467386,1110455741183806,-0.0834625,-0.1142625,0.1051875
1679930467388,1110455743685652,-0.0864875,-0.110275,0.1021625
1679930467391,1110455746187806,-0.0864875,-0.1023,0.10615
1679930467393,1110455748689959,-0.091437496,-0.100237496,0.1051875
1679930467396,1110455751191891,-0.095425,-0.1023,0.1032625
1679930467398,1110455753693968,-0.091437496,-0.1013375,0.10725
1679930467401,1110455756195891,-0.0944625,-0.0983125,0.10725
1679930467403,1110455758698045,-0.0944625,-0.094325,0.1082125
1679930467406,1110455761200137,-0.0974875,-0.091299996,0.109175
1679930467409,1110455763702291,-0.0963875,-0.08525,0.110275
1679930467411,1110455766204214,-0.095425,-0.0812625,0.111237496
1679930467414,1110455768706291,-0.0994125,-0.0812625,0.1142625
1679930467416,1110455771208204,-0.0994125,-0.0793375,0.120175
1679930467418,1110455773710281,-0.0994125,-0.071225,0.1232
1679930467422,1110455776212204,-0.0994125,-0.0653125,0.122237496
1679930467425,1110455778714358,-0.101475,-0.060225,0.1232
1679930467427,1110455781216536,-0.102437496,-0.0532125,0.1271875
1679930467428,1110455783718613,-0.1054625,-0.049225,0.12815
1679930467431,1110455786220536,-0.1073875,-0.0452375,0.132275
1679930467433,1110455788722613,-0.1054625,-0.0372625,0.131175
1679930467436,1110455791224536,-0.1084875,-0.0292875,0.131175
1679930467439,1110455793726608,-0.1115125,-0.0262625,0.1332375
1679930467441,1110455796228531,-0.1144,-0.0262625,0.132275
1679930467443,1110455798730916,-0.1155,-0.0182875,0.1362625
1679930467447,1110455801232762,-0.1164625,-0.0133375,0.1381875
1679930467449,1110455803734916,-0.1144,-0.0103124995,0.13915
1679930467451,1110455806236839,-0.1144,-0.0042625,0.142175
1679930467453,1110455808738916,-0.1144,-0.005225,0.1461625
1679930467456,1110455811240844,-0.1194875,-0.0033,0.1452
1679930467460,1110455813742998,-0.1183875,-0.00825,0.1472625
1679930467464,1110455816245074,-0.1194875,-0.0103124995,0.15015
1679930467465,1110455818747228,-0.1225125,-0.0143,0.153175
1679930467467,1110455821249074,-0.1225125,-0.0202125,0.15015
1679930467468,1110455823751242,-0.12045,-0.0253,0.153175
1679930467471,1110455826253165,-0.123475,-0.033275,0.1582625
1679930467473,1110455828755319,-0.12045,-0.041249998,0.16225
1679930467476,1110455831257396,-0.1225125,-0.049225,0.164175
1679930467479,1110455833759315,-0.123475,-0.0573375,0.1662375
1679930467482,1110455836261392,-0.1225125,-0.0653125,0.1692625
1679930467484,1110455838763315,-0.1225125,-0.0702625,0.1711875
1679930467486,1110455841265700,-0.1194875,-0.077275,0.1711875
1679930467489,1110455843767517,-0.1183875,-0.082225,0.1742125
1679930467492,1110455846269671,-0.1183875,-0.0842875,0.175175
1679930467493,1110455848771594,-0.113437496,-0.0873125,0.176275
1679930467499,1110455851273696,-0.1073875,-0.0952875,0.175175
1679930467502,1110455853775619,-0.102437496,-0.09625,0.175175
1679930467503,1110455856277696,-0.0974875,-0.093225,0.170225
1679930467504,1110455858779850,-0.0944625,-0.09625,0.170225
1679930467506,1110455861282004,-0.0895125,-0.100237496,0.1711875
1679930467509,1110455863783850,-0.08745,-0.100237496,0.17215
1679930467511,1110455866286023,-0.0834625,-0.0972125,0.17215
1679930467515,1110455868787946,-0.082499996,-0.0922625,0.170225
1679930467516,1110455871290023,-0.0774125,-0.0862125,0.1711875
1679930467519,1110455873792177,-0.0754875,-0.0803,0.1711875
1679930467522,1110455876294133,-0.07645,-0.071225,0.170225
1679930467524,1110455878796210,-0.0724625,-0.0653125,0.165275
1679930467526,1110455881298363,-0.0694375,-0.06325,0.165275
1679930467528,1110455883800210,-0.0664125,-0.055275,0.1662375
1679930467531,1110455886302363,-0.0644875,-0.0512875,0.164175
1679930467535,1110455888804267,-0.062425,-0.0473,0.16115
1679930467537,1110455891306421,-0.0605,-0.0463375,0.1601875
1679930467538,1110455893808498,-0.062425,-0.039325,0.1582625
1679930467541,1110455896310421,-0.062425,-0.0342375,0.159225
1679930467543,1110455898812498,-0.062425,-0.0253,0.1632125
1679930467546,1110455901314666,-0.0644875,-0.01925,0.164175
1679930467549,1110455903816512,-0.0724625,-0.0182875,0.1632125
1679930467551,1110455906318666,-0.0754875,-0.016224999,0.165275
1679930467554,1110455908820820,-0.0754875,-0.011275,0.1692625
1679930467556,1110455911322753,-0.07645,-0.00825,0.170225
1679930467558,1110455913824830,-0.0785125,-0.005225,0.170225
1679930467564,1110455916326753,-0.0814,-0.006325,0.170225
1679930467565,1110455918828907,-0.0774125,-0.00825,0.1711875
1679930467567,1110455921330762,-0.0804375,-0.0133375,0.1692625
1679930467569,1110455923833147,-0.0804375,-0.017324999,0.164175
1679930467575,1110455926335070,-0.0785125,-0.0262625,0.164175
1679930467576,1110455928837147,-0.079475,-0.03025,0.16225
1679930467577,1110455931339090,-0.079475,-0.033275,0.159225
1679930467579,1110455933841167,-0.0814,-0.0363,0.1582625
1679930467581,1110455936343090,-0.0785125,-0.0433125,0.1582625
1679930467584,1110455938845244,-0.07645,-0.044275,0.1571625
1679930467586,1110455941347321,-0.0785125,-0.0482625,0.15619999
1679930467589,1110455943849459,-0.0804375,-0.052249998,0.1571625
1679930467591,1110455946351383,-0.0785125,-0.0573375,0.1552375
1679930467595,1110455948853459,-0.082499996,-0.0622875,0.1571625
1679930467597,1110455951355383,-0.0834625,-0.061325,0.1552375
1679930467598,1110455953857459,-0.0853875,-0.066275,0.1552375
1679930467602,1110455956359383,-0.0853875,-0.072325,0.15619999
1679930467603,1110455958861536,-0.0864875,-0.0672375,0.16115
1679930467606,1110455961363613,-0.08745,-0.0622875,0.16115
1679930467610,1110455963865753,-0.091437496,-0.0642125,0.16225
1679930467613,1110455966367676,-0.090475,-0.06325,0.164175
1679930467614,1110455968869753,-0.0884125,-0.06325,0.1662375
1679930467616,1110455971371676,-0.090475,-0.06325,0.1662375
1679930467619,1110455973873830,-0.095425,-0.0642125,0.1681625
1679930467622,1110455976375907,-0.0994125,-0.0622875,0.170225
1679930467624,1110455978877830,-0.1034,-0.060225,0.1681625
1679930467626,1110455981379907,-0.1073875,-0.0583,0.1681625
1679930467628,1110455983882061,-0.1084875,-0.0543125,0.1662375
1679930467631,1110455986383984,-0.112475,-0.0463375,0.1662375
1679930467634,1110455988886041,-0.1144,-0.0422125,0.1692625
1679930467636,1110455991388195,-0.1144,-0.0363,0.1692625
1679930467639,1110455993890118,-0.1183875,-0.033275,0.1692625
1679930467641,1110455996392195,-0.1194875,-0.027224999,0.1692625
1679930467644,1110455998894114,-0.1183875,-0.017324999,0.1692625
1679930467648,1110456001396191,-0.1194875,-0.0092124995,0.170225
1679930467650,1110456003898345,-0.1214125,-0.0042625,0.1711875
1679930467652,1110456006400272,-0.123475,-0.0012375,0.1742125
1679930467654,1110456008902426,-0.1254,0.004675,0.1742125
1679930467656,1110456011404503,-0.1254,0.01375,0.176275
1679930467659,1110456013906426,-0.12045,0.0187,0.176275
1679930467661,1110456016408503,-0.1155,0.026675,0.176275
1679930467664,1110456018910680,-0.1104125,0.0397375,0.176275
1679930467667,1110456021412603,-0.1104125,0.0517,0.1791625
1679930467669,1110456023914680,-0.1084875,0.060775,0.18315
1679930467672,1110456026416604,-0.104499996,0.070675,0.1882375
1679930467674,1110456028918655,-0.1073875,0.0787875,0.1901625
1679930467676,1110456031420579,-0.106425,0.07975,0.192225
1679930467678,1110456033922963,-0.106425,0.087725,0.1962125
1679930467681,1110456036424809,-0.1115125,0.0947375,0.2022625
1679930467685,1110456038926968,-0.113437496,0.095699996,0.20515
1679930467686,1110456041428891,-0.112475,0.0977625,0.2102375
1679930467689,1110456043930968,-0.1164625,0.095699996,0.214225
1679930467694,1110456046432891,-0.1155,0.095699996,0.219175
1679930467701,1110456048934968,-0.1155,0.0867625,0.2222
1679930467701,1110456051437185,-0.1104125,0.081675,0.2231625
1679930467701,1110456053939262,-0.106425,0.0727375,0.2292125
1679930467702,1110456056441185,-0.1073875,0.0636625,0.23127499
1679930467704,1110456058943262,-0.1034,0.054725,0.23127499
1679930467706,1110456061445218,-0.0994125,0.0457875,0.2332
1679930467708,1110456063947295,-0.0935,0.0336875,0.2371875
1679930467711,1110456066449449,-0.0895125,0.0226875,0.2371875
1679930467714,1110456068951372,-0.0864875,0.015675,0.236225
1679930467716,1110456071453526,-0.082499996,-2.75E-4,0.2352625
1679930467718,1110456073955377,-0.0774125,-0.00825,0.2332
1679930467723,1110456076457531,-0.073425,-0.0143,0.23127499
1679930467725,1110456078959608,-0.0724625,-0.0202125,0.22715
1679930467726,1110456081461517,-0.0633875,-0.0243375,0.22825
1679930467729,1110456083963671,-0.068475,-0.027224999,0.2242625
1679930467732,1110456086465748,-0.0633875,-0.033275,0.2231625
1679930467734,1110456088967671,-0.0605,-0.0363,0.2242625
1679930467736,1110456091469824,-0.0644875,-0.038225,0.2242625
1679930467738,1110456093971642,-0.0584375,-0.044275,0.225225
1679930467742,1110456096473795,-0.0614625,-0.0473,0.2261875
1679930467744,1110456098975872,-0.0633875,-0.0482625,0.225225
1679930467747,1110456101478026,-0.0644875,-0.0452375,0.225225
1679930467748,1110456103979939,-0.0633875,-0.044275,0.2231625
1679930467752,1110456106482016,-0.0605,-0.039325,0.2242625
1679930467753,1110456108983939,-0.0605,-0.0353375,0.225225
1679930467756,1110456111486093,-0.0594,-0.028324999,0.2231625
1679930467760,1110456113987949,-0.0565125,-0.0253,0.2222
1679930467762,1110456116490334,-0.0565125,-0.0202125,0.2222
1679930467764,1110456118992257,-0.0594,-0.0182875,0.220275
1679930467766,1110456121494334,-0.0614625,-0.0143,0.219175
1679930467769,1110456123996257,-0.0614625,-0.0122375,0.2182125
1679930467774,1110456126498305,-0.062425,-0.0103124995,0.219175
1679930467774,1110456129000228,-0.0633875,-0.0072875,0.21615
1679930467776,1110456131502305,-0.062425,-0.0042625,0.2182125
1679930467778,1110456134004459,-0.0633875,-0.00825,0.2132625
1679930467781,1110456136506613,-0.0594,-0.0092124995,0.2112
1679930467783,1110456139008565,-0.0605,-0.0072875,0.2121625
1679930467788,1110456141510642,-0.0644875,-0.0072875,0.20927499
1679930467789,1110456144012565,-0.0584375,-0.0072875,0.20625
1679930467791,1110456146514627,-0.062425,-0.00825,0.203225
1679930467794,1110456149016550,-0.062425,-0.0072875,0.1992375
1679930467801,1110456151518704,-0.062425,-0.0133375,0.1992375
1679930467801,1110456154020781,-0.062425,-0.0182875,0.198275
1679930467803,1110456156522953,-0.06545,-0.022275,0.1962125
1679930467804,1110456159024877,-0.0633875,-0.0262625,0.1962125
1679930467806,1110456161526953,-0.0633875,-0.0323125,0.1931875
1679930467808,1110456164028877,-0.0584375,-0.038225,0.192225
1679930467811,1110456166531030,-0.0594,-0.044275,0.1931875
1679930467816,1110456169033103,-0.0603625,-0.0462,0.1901625
1679930467817,1110456171535026,-0.057475,-0.0482625,0.1882375
1679930467819,1110456174037180,-0.056375,-0.0482625,0.186175
1679930467821,1110456176539257,-0.056375,-0.052249998,0.1852125
1679930467824,1110456179041180,-0.057475,-0.0532125,0.1821875
1679930467826,1110456181543237,-0.057475,-0.0543125,0.181225
1679930467832,1110456184045391,-0.0614625,-0.0572,0.176275
1679930467835,1110456186547314,-0.0584375,-0.055275,0.176275
1679930467836,1110456189049391,-0.0594,-0.0473,0.17325
1679930467837,1110456191551295,-0.0584375,-0.0462,0.1711875
1679930467838,1110456194053449,-0.057475,-0.039325,0.1711875
1679930467841,1110456196555526,-0.054449998,-0.0363,0.1692625
1679930467843,1110456199057449,-0.05335,-0.0372625,0.165275
1679930467846,1110456201559603,-0.0523875,-0.0253,0.1632125
1679930467849,1110456204061680,-0.05335,-0.022275,0.16225
1679930467852,1110456206563603,-0.0493625,-0.0182875,0.1601875
1679930467853,1110456209065680,-0.046475,-0.0122375,0.16225
1679930467856,1110456211567834,-0.045375,-0.006325,0.1582625
1679930467861,1110456214069733,-0.0413875,-0.0042625,0.1571625
1679930467862,1110456216571810,-0.043449998,0.0017875,0.15619999
1679930467864,1110456219073964,-0.0444125,0.0077,0.1601875
1679930467867,1110456221575887,-0.0444125,0.0077,0.1552375
1679930467869,1110456224077964,-0.0484,0.0116875,0.1552375
1679930467875,1110456226580112,-0.0484,0.0187,0.153175
1679930467876,1110456229082035,-0.0474375,0.015675,0.154275
1679930467878,1110456231584112,-0.046475,0.015675,0.154275
1679930467879,1110456234086035,-0.0474375,0.0177375,0.154275
1679930467882,1110456236588103,-0.046475,0.016775,0.1522125
1679930467883,1110456239090257,-0.046475,0.015675,0.148225
1679930467888,1110456241592103,-0.046475,0.0097624995,0.1491875
1679930467890,1110456244094334,-0.0484,0.0077,0.148225
1679930467893,1110456246596420,-0.0554125,0.004675,0.1491875
1679930467894,1110456249098343,-0.057475,-0.0012375,0.148225
1679930467898,1110456251600420,-0.056375,-0.006325,0.148225
1679930467899,1110456254102343,-0.0554125,-0.0072875,0.1461625
1679930467902,1110456256604430,-0.0554125,-0.0103124995,0.1452
1679930467904,1110456259106584,-0.057475,-0.0122375,0.1442375
1679930467906,1110456261608738,-0.054449998,-0.0092124995,0.14025
1679930467910,1110456264110661,-0.054449998,-0.0132,0.137225
1679930467914,1110456266612762,-0.0523875,-0.0122375,0.1362625
1679930467915,1110456269114685,-0.046475,-0.0122375,0.131175
1679930467916,1110456271616762,-0.0444125,-0.0132,0.131175
1679930467919,1110456274118685,-0.043449998,-0.016224999,0.1271875
1679930467923,1110456276620839,-0.04235,-0.0182875,0.1252625
1679930467924,1110456279122993,-0.0374,-0.01925,0.122237496
1679930467926,1110456281625070,-0.032449998,-0.0182875,0.1241625
1679930467929,1110456284126993,-0.0273625,-0.017324999,0.120175
1679930467932,1110456286629070,-0.0224125,-0.0122375,0.11715
1679930467934,1110456289130993,-0.02035,-0.016224999,0.1142625
1679930467936,1110456291633070,-0.02035,-0.015262499,0.110275
1679930467939,1110456294135223,-0.02145,-0.015262499,0.110275
1679930467942,1110456296637377,-0.0163625,-0.0132,0.10615
1679930467944,1110456299139223,-0.0114124995,-0.0122375,0.1032625
1679930467950,1110456301641386,-0.0114124995,-0.0103124995,0.1021625
1679930467952,1110456304143309,-0.0064625,-0.011275,0.098175
1679930467953,1110456306645386,-0.0083875,-0.0103124995,0.09625
1679930467955,1110456309147540,-0.0044,-0.0092124995,0.093225
1679930467956,1110456311649463,-4.125E-4,-0.0103124995,0.0922625
1679930467959,1110456314151540,0.0026125,-0.0103124995,0.0902
1679930467962,1110456316653694,0.003575,-0.0103124995,0.0902
1679930467964,1110456319155540,0.0045375,-0.0122375,0.087175
1679930467967,1110456321657699,0.0066,-0.011275,0.0831875
1679930467969,1110456324159622,0.0056375,-0.0132,0.0792
1679930467972,1110456326661776,0.003575,-0.0143,0.076175
1679930467974,1110456329163853,-4.125E-4,-0.0143,0.0752125
1679930467976,1110456331665776,-4.125E-4,-0.015262499,0.0752125
1679930467979,1110456334167853,-0.0044,-0.017324999,0.071225
1679930467982,1110456336669776,-0.0083875,-0.01925,0.0702625
1679930467986,1110456339171853,-0.00935,-0.0213125,0.0672375
1679930467987,1110456341674007,-0.0083875,-0.01925,0.0691625
1679930467989,1110456344176161,-0.0083875,-0.0213125,0.0691625
1679930467992,1110456346678084,-0.0083875,-0.0202125,0.066275
1679930467994,1110456349180161,-0.00935,-0.0242,0.066275
1679930467997,1110456351682084,-0.0083875,-0.0262625,0.06215
1679930467999,1110456354184176,-0.007425,-0.0202125,0.0592625
1679930468001,1110456356686099,-0.0083875,-0.017324999,0.0572
1679930468004,1110456359188253,-0.007425,-0.015262499,0.055275
1679930468007,1110456361690406,-0.0064625,-0.015262499,0.0501875
1679930468009,1110456364192482,-0.007425,-0.00825,0.0482625
1679930468011,1110456366694405,-0.0064625,-2.75E-4,0.0471625
1679930468014,1110456369196482,-0.0064625,0.0017875,0.041249998
1679930468016,1110456371698405,-0.0064625,0.005775,0.041249998
1679930468019,1110456374200540,-0.0064625,0.0097624995,0.041249998
1679930468026,1110456376702617,-0.0064625,0.016775,0.04015
1679930468027,1110456379204540,-0.0064625,0.0177375,0.0372625
1679930468030,1110456381706694,-0.0083875,0.021724999,0.0342375
1679930468031,1110456384208786,-0.0083875,0.0187,0.032175
1679930468034,1110456386710709,-0.0114124995,0.021724999,0.0312125
1679930468035,1110456389212786,-0.012375,0.0226875,0.03025
1679930468037,1110456391714709,-0.00935,0.021724999,0.0281875
1679930468039,1110456394216853,-0.00935,0.0226875,0.0262625
1679930468042,1110456396718930,-0.012375,0.0198,0.0251625
1679930468044,1110456399221084,-0.0114124995,0.0187,0.021175
1679930468047,1110456401722930,-0.0083875,0.0177375,0.0171875
1679930468049,1110456404225084,-0.0044,0.0177375,0.0171875
1679930468051,1110456406726997,-0.0083875,0.015675,0.0132
1679930468054,1110456409229151,-0.0064625,0.0116875,0.014162499
1679930468057,1110456411731228,-0.007425,0.0116875,0.015262499
1679930468064,1110456414233132,-0.0053625,0.0116875,0.011275
1679930468066,1110456416735209,-0.0053625,0.0077,0.00715
1679930468068,1110456419237363,-0.0083875,0.0037125,0.005225
1679930468069,1110456421739286,-0.0064625,0.0077,0.0061875
1679930468071,1110456424241363,-0.0064625,0.0067375,0.00825
1679930468074,1110456426743305,-0.007425,0.00275,0.010175
1679930468075,1110456429245459,-0.007425,0.0017875,0.0092124995
1679930468077,1110456431747535,-0.007425,0.0037125,0.0092124995
1679930468079,1110456434249459,-0.0044,0.005775,0.0092124995
1679930468082,1110456436751612,-0.001375,0.004675,0.011275
1679930468084,1110456439253699,-4.125E-4,0.0077,0.011275
1679930468087,1110456441755622,0.00165,0.0077,0.0092124995
1679930468089,1110456444257699,0.003575,0.0077,0.010175
1679930468092,1110456446759622,0.008525,0.0077,0.010175
1679930468094,1110456449261776,0.0066,0.0017875,0.0092124995
1679930468098,1110456451763622,0.003575,0.004675,0.00715
1679930468101,1110456454266007,0.0026125,0.0037125,0.005225
1679930468103,1110456456767930,0.0056375,0.00275,0.005225
1679930468105,1110456459270007,0.0066,6.875E-4,0.0061875
1679930468107,1110456461771930,0.0066,-0.0012375,0.0061875
1679930468109,1110456464274007,0.0045375,-0.005225,0.00715
1679930468112,1110456466776161,0.0056375,-0.0033,0.0092124995
1679930468114,1110456469278320,0.0066,-0.0042625,0.010175
1679930468117,1110456471780166,0.0056375,-0.0092124995,0.0122375
1679930468120,1110456474282320,0.0066,-0.0132,0.014162499
1679930468123,1110456476784243,0.0056375,-0.0122375,0.015262499
1679930468127,1110456479286310,0.0056375,-0.0122375,0.0171875
1679930468131,1110456481788233,0.0075625,-0.0143,0.01925
1679930468133,1110456484290310,0.0056375,-0.0143,0.016224999
1679930468136,1110456486792541,0.0056375,-0.0143,0.016224999
1679930468137,1110456489294604,0.0045375,-0.0143,0.016224999
1679930468139,1110456491796527,0.003575,-0.016224999,0.014162499
1679930468140,1110456494298604,0.0066,-0.0143,0.0171875
1679930468142,1110456496800527,0.0075625,-0.011275,0.016224999
1679930468144,1110456499302604,0.0045375,-0.0092124995,0.015262499
1679930468148,1110456501804512,0.0045375,-0.0122375,0.01925
1679930468150,1110456504306665,0.0056375,-0.0103124995,0.0171875
1679930468153,1110456506808819,0.00165,-0.0132,0.021175
1679930468154,1110456509310666,0.0045375,-0.0103124995,0.01925
1679930468156,1110456511812819,0.0026125,-0.00825,0.0171875
1679930468160,1110456514314896,0.0026125,-0.0092124995,0.0202125
1679930468164,1110456516816819,0.0066,-0.011275,0.021175
1679930468166,1110456519318973,0.0066,-0.011275,0.021175
1679930468168,1110456521821050,0.0056375,-0.0103124995,0.0232375
1679930468169,1110456524322973,0.0066,-0.0103124995,0.0251625
1679930468176,1110456526825127,0.0066,-0.0122375,0.0262625
1679930468177,1110456529326973,0.0045375,-0.0103124995,0.0251625
1679930468179,1110456531829142,0.008525,-0.0143,0.0232375
1679930468180,1110456534331219,0.0105875,-0.0122375,0.0251625
1679930468183,1110456536833373,0.013612499,-0.0122375,0.0262625
1679930468185,1110456539335296,0.01155,-0.015262499,0.0281875
1679930468187,1110456541837373,0.009625,-0.0122375,0.0281875
1679930468191,1110456544339315,0.0075625,-0.0122375,0.0281875
1679930468193,1110456546841469,0.0066,-0.011275,0.02915
1679930468197,1110456549343546,0.0056375,-0.0092124995,0.02915
1679930468199,1110456551845469,0.0026125,-0.0122375,0.027224999
1679930468201,1110456554347623,5.5E-4,-0.0132,0.0312125
1679930468203,1110456556849705,-4.125E-4,-0.0132,0.032175
1679930468205,1110456559351628,-0.0044,-0.0143,0.032175
1679930468207,1110456561853705,-0.0034375,-0.0122375,0.03025
1679930468211,1110456564355628,-0.0044,-0.0132,0.032175
1679930468214,1110456566857729,-0.0064625,-0.0143,0.0361625
1679930468215,1110456569359959,-0.0053625,-0.0132,0.0312125
1679930468216,1110456571862036,-0.0044,-0.0122375,0.032175
1679930468219,1110456574363959,-0.0034375,-0.0143,0.032175
1679930468221,1110456576866036,-0.0053625,-0.0143,0.033275
1679930468224,1110456579367978,-0.0053625,-0.016224999,0.0342375
1679930468226,1110456581870055,-0.0044,-0.0122375,0.0342375
1679930468232,1110456584372209,-0.007425,-0.0103124995,0.0391875
1679930468233,1110456586874122,-0.0064625,-0.0103124995,0.0391875
1679930468234,1110456589376276,-0.0034375,-0.006325,0.038225
1679930468237,1110456591878122,-0.0053625,-0.0012375,0.0391875
1679930468240,1110456594380276,-0.0053625,-2.75E-4,0.041249998
1679930468242,1110456596882430,-0.007425,0.0017875,0.04015
1679930468244,1110456599384488,-0.00935,0.005775,0.0422125
1679930468249,1110456601886411,-0.0114124995,0.0067375,0.043175
1679930468251,1110456604388488,-0.01045,0.005775,0.0422125
1679930468252,1110456606890372,-0.013475,0.0116875,0.0452375
1679930468254,1110456609392449,-0.0154,0.015675,0.0482625
1679930468257,1110456611894372,-0.0144375,0.0127875,0.049225
1679930468260,1110456614396757,-0.0144375,0.0177375,0.052249998
1679930468262,1110456616898680,-0.013475,0.014712499,0.0532125
1679930468264,1110456619400777,-0.013475,0.015675,0.055275
1679930468267,1110456621902700,-0.0114124995,0.0127875,0.0532125
1679930468272,1110456624404777,-0.01045,0.005775,0.055275
1679930468273,1110456626906700,-0.013475,0.005775,0.0572
1679930468274,1110456629408854,-0.01045,0.004675,0.0572
1679930468277,1110456631911007,-0.013475,0.0037125,0.060225
1679930468280,1110456634413084,-0.0154,-2.75E-4,0.060225
1679930468282,1110456636915008,-0.0144375,-0.0033,0.0581625
1679930468286,1110456639417098,-0.0163625,-0.0042625,0.0611875
1679930468287,1110456641919022,-0.0154,-0.006325,0.0581625
1679930468290,1110456644421098,-0.013475,-0.0092124995,0.0581625
1679930468292,1110456646923329,-0.0144375,-0.0092124995,0.0581625
1679930468294,1110456649425175,-0.0144375,-0.0103124995,0.0562375
1679930468297,1110456651927329,-0.01045,-0.0132,0.0562375
1679930468301,1110456654429406,-0.0163625,-0.0132,0.055275
1679930468302,1110456656931329,-0.0163625,-0.017324999,0.0562375
1679930468305,1110456659433406,-0.013475,-0.0213125,0.060225
1679930468307,1110456661935560,-0.0114124995,-0.0253,0.0592625
1679930468311,1110456664437502,-0.013475,-0.0262625,0.0592625
1679930468312,1110456666939656,-0.0144375,-0.027224999,0.0642125
1679930468314,1110456669441502,-0.013475,-0.0363,0.0642125
1679930468321,1110456671943656,-0.0144375,-0.041249998,0.0642125
1679930468328,1110456674445752,-0.012375,-0.038225,0.0642125
1679930468328,1110456676947675,-0.0114124995,-0.0433125,0.0672375
1679930468328,1110456679449829,-0.01045,-0.0462,0.06325
1679930468329,1110456681951930,-0.007425,-0.0473,0.060225
1679930468330,1110456684453853,-0.0094875,-0.0473,0.06215
1679930468332,1110456686955930,-0.0083875,-0.052249998,0.0592625
1679930468334,1110456689457853,-0.007425,-0.0543125,0.0581625
1679930468337,1110456691960007,-0.007425,-0.0543125,0.0572
1679930468341,1110456694462089,-0.0083875,-0.052249998,0.0562375
1679930468342,1110456696964242,-0.01045,-0.0543125,0.0572
1679930468344,1110456699466166,-0.0083875,-0.0532125,0.0572
1679930468348,1110456701968243,-0.0064625,-0.050325,0.0572
1679930468350,1110456704470171,-0.007425,-0.0543125,0.0581625
1679930468351,1110456706972248,-0.0034375,-0.055275,0.0592625
1679930468354,1110456709474401,-0.001375,-0.055275,0.060225
1679930468357,1110456711976555,-0.0044,-0.0572,0.060225
1679930468364,1110456714478468,-0.0034375,-0.0543125,0.0592625
1679930468364,1110456716980545,5.5E-4,-0.0532125,0.0581625
1679930468365,1110456719482468,0.0026125,-0.0572,0.06215
1679930468367,1110456721984545,0.003575,-0.055275,0.06325
1679930468372,1110456724486468,0.0026125,-0.055275,0.065175
1679930468372,1110456726988531,5.5E-4,-0.0512875,0.0642125
1679930468374,1110456729490762,0.0015125,-0.055275,0.06325
1679930468376,1110456731992839,0.0026125,-0.0532125,0.06325
1679930468382,1110456734494762,-0.001375,-0.0482625,0.06215
1679930468382,1110456736996839,-4.125E-4,-0.0482625,0.0642125
1679930468384,1110456739498737,5.5E-4,-0.0473,0.065175
1679930468386,1110456742000814,5.5E-4,-0.0452375,0.066275
1679930468391,1110456744502737,0.0026125,-0.0462,0.0672375
1679930468392,1110456747004891,0.003575,-0.041249998,0.0691625
1679930468394,1110456749507055,0.0056375,-0.039325,0.0672375
1679930468401,1110456752009132,0.0075625,-0.039325,0.065175
1679930468403,1110456754511055,0.008525,-0.0433125,0.065175
1679930468404,1110456757013132,0.009625,-0.0422125,0.065175
1679930468405,1110456759515055,0.008525,-0.0452375,0.065175
1679930468407,1110456762017439,0.0075625,-0.044275,0.065175
1679930468413,1110456764519286,0.0015125,-0.0462,0.0672375
1679930468415,1110456767021209,-0.001375,-0.0512875,0.0672375
1679930468415,1110456769523378,-0.0044,-0.0583,0.066275
1679930468417,1110456772025454,-0.0053625,-0.0642125,0.0672375
1679930468421,1110456774527378,-0.007425,-0.069299996,0.071225
1679930468422,1110456777029454,-0.0083875,-0.0702625,0.07315
1679930468424,1110456779531641,-0.0083875,-0.069299996,0.07315
1679930468427,1110456782033564,-0.0083875,-0.071225,0.0752125
1679930468433,1110456784535641,-0.0083875,-0.0752125,0.076175
1679930468434,1110456787037564,-0.0154,-0.0782375,0.0782375
1679930468436,1110456789539665,-0.013475,-0.083325,0.0792
1679930468437,1110456792041742,-0.013475,-0.08525,0.0812625
1679930468440,1110456794543665,-0.0174625,-0.0902,0.0812625
1679930468442,1110456797045819,-0.018424999,-0.091299996,0.0801625
1679930468444,1110456799547896,-0.0204875,-0.093225,0.08525
1679930468448,1110456802049815,-0.024475,-0.0972125,0.0831875
1679930468450,1110456804551892,-0.0224125,-0.1012,0.087175
1679930468452,1110456807054046,-0.0224125,-0.1023,0.088275
1679930468454,1110456809555969,-0.023375,-0.1012,0.08525
1679930468456,1110456812058041,-0.023375,-0.1012,0.0862125
1679930468461,1110456814559964,-0.023375,-0.1082125,0.0862125
1679930468462,1110456817062118,-0.023375,-0.113299996,0.087175
1679930468465,1110456819564195,-0.024475,-0.1122,0.088275
1679930468467,1110456822066334,-0.0264,-0.1142625,0.088275
1679930468474,1110456824568257,-0.024475,-0.116325,0.0862125
1679930468474,1110456827070334,-0.024475,-0.1172875,0.088275
1679930468476,1110456829572257,-0.0264,-0.122237496,0.087175
1679930468478,1110456832074344,-0.0224125,-0.1243,0.087175
1679930468482,1110456834576498,-0.023375,-0.1203125,0.0831875
1679930468483,1110456837078421,-0.023375,-0.1192125,0.0862125
1679930468485,1110456839580574,-0.0254375,-0.1192125,0.08525
1679930468487,1110456842082651,-0.0254375,-0.115225,0.0831875
1679930468491,1110456844584569,-0.0284625,-0.1142625,0.08525
1679930468493,1110456847086646,-0.029424999,-0.1093125,0.0831875
1679930468494,1110456849588569,-0.0314875,-0.1082125,0.0801625
1679930468498,1110456852090646,-0.032449998,-0.10725,0.082225
1679930468501,1110456854592781,-0.035475,-0.1032625,0.082225
1679930468502,1110456857094935,-0.0334125,-0.0983125,0.0862125
1679930468504,1110456859596858,-0.0334125,-0.100237496,0.0831875
1679930468507,1110456862098935,-0.0364375,-0.09625,0.08525
1679930468513,1110456864600834,-0.0334125,-0.0952875,0.0862125
1679930468514,1110456867102911,-0.0364375,-0.091299996,0.0831875
1679930468515,1110456869604834,-0.032449998,-0.08525,0.0831875
1679930468517,1110456872106988,-0.0303875,-0.0862125,0.087175
1679930468519,1110456874609142,-0.029424999,-0.0922625,0.0862125
1679930468522,1110456877111219,-0.0273625,-0.082225,0.08525
1679930468524,1110456879613142,-0.0264,-0.0782375,0.087175
1679930468527,1110456882115219,-0.0273625,-0.0752125,0.0831875
1679930468532,1110456884617142,-0.0224125,-0.0752125,0.087175
1679930468533,1110456887119258,-0.023375,-0.07425,0.0862125
1679930468534,1110456889621412,-0.0264,-0.069299996,0.082225
1679930468537,1110456892123566,-0.024475,-0.0702625,0.0831875
1679930468542,1110456894625489,-0.023375,-0.069299996,0.087175
1679930468543,1110456897127566,-0.0273625,-0.069299996,0.088275
1679930468544,1110456899629485,-0.0314875,-0.069299996,0.088275
1679930468549,1110456902131562,-0.0264,-0.0682,0.089237496
1679930468551,1110456904633715,-0.029424999,-0.072325,0.0911625
1679930468552,1110456907135639,-0.029424999,-0.0702625,0.089237496
1679930468555,1110456909637724,-0.0284625,-0.072325,0.089237496
1679930468557,1110456912139878,-0.0284625,-0.07425,0.089237496
1679930468563,1110456914641801,-0.029424999,-0.0763125,0.088275
1679930468564,1110456917143878,-0.029424999,-0.0792,0.089237496
1679930468566,1110456919645792,-0.029424999,-0.0792,0.0902
1679930468567,1110456922147946,-0.0303875,-0.0842875,0.088275
1679930468573,1110456924650023,-0.0314875,-0.08525,0.093225
1679930468574,1110456927151946,-0.0303875,-0.0862125,0.093225
1679930468576,1110456929654018,-0.032449998,-0.08525,0.0922625
1679930468578,1110456932156172,-0.0364375,-0.0842875,0.0902
1679930468582,1110456934658095,-0.0334125,-0.082225,0.089237496
1679930468583,1110456937160172,-0.0394625,-0.0812625,0.089237496
1679930468587,1110456939662302,-0.0394625,-0.0782375,0.089237496
1679930468588,1110456942164225,-0.0383625,-0.072325,0.088275
1679930468591,1110456944666302,-0.043449998,-0.0702625,0.0911625
1679930468592,1110456947168225,-0.046475,-0.06325,0.0922625
1679930468594,1110456949670302,-0.045375,-0.0622875,0.0922625
1679930468600,1110456952172436,-0.0474375,-0.0622875,0.093225
1679930468602,1110456954674590,-0.046475,-0.061325,0.0911625
1679930468603,1110456957176513,-0.0474375,-0.055275,0.0911625
1679930468605,1110456959678590,-0.046475,-0.0532125,0.0911625
1679930468609,1110456962180561,-0.0484,-0.049225,0.093225
1679930468611,1110456964682638,-0.0484,-0.0462,0.093225
1679930468615,1110456967184561,-0.0504625,-0.039325,0.0922625
1679930468616,1110456969686715,-0.054449998,-0.038225,0.0922625
1679930468618,1110456972188868,-0.057475,-0.038225,0.0922625
1679930468621,1110456974690950,-0.0584375,-0.041249998,0.0911625
1679930468625,1110456977192873,-0.0554125,-0.038225,0.0911625
1679930468626,1110456979694950,-0.054449998,-0.0372625,0.093225
1679930468627,1110456982197104,-0.0554125,-0.0422125,0.093225
1679930468631,1110456984699008,-0.0554125,-0.0433125,0.09515
1679930468633,1110456987201085,-0.054449998,-0.044275,0.0911625
1679930468635,1110456989703008,-0.0504625,-0.050325,0.09515
1679930468637,1110456992205085,-0.0504625,-0.050325,0.0972125
1679930468641,1110456994707248,-0.0493625,-0.052249998,0.09625
1679930468643,1110456997209094,-0.0493625,-0.0592625,0.09515
1679930468644,1110456999711325,-0.0474375,-0.0583,0.09515
1679930468647,1110457002213402,-0.0484,-0.06325,0.093225
1679930468651,1110457004715320,-0.0484,-0.060225,0.093225
1679930468653,1110457007217397,-0.045375,-0.0622875,0.0941875
1679930468654,1110457009719320,-0.0523875,-0.06325,0.0922625
1679930468657,1110457012221474,-0.0474375,-0.0653125,0.088275
1679930468663,1110457014723600,-0.046475,-0.0653125,0.087175
1679930468665,1110457017225677,-0.0504625,-0.06325,0.087175
1679930468666,1110457019727600,-0.0523875,-0.0653125,0.088275
1679930468668,1110457022229677,-0.0534875,-0.0653125,0.089237496
1679930468671,1110457024731600,-0.057475,-0.061325,0.0902
1679930468673,1110457027233681,-0.056375,-0.060225,0.0902
1679930468674,1110457029735604,-0.0554125,-0.0622875,0.0902
1679930468677,1110457032237988,-0.056375,-0.060225,0.088275
1679930468681,1110457034739912,-0.054449998,-0.0583,0.089237496
1679930468683,1110457037241988,-0.057475,-0.052249998,0.08525
1679930468684,1110457039743936,-0.0594,-0.052249998,0.08525
1679930468687,1110457042246012,-0.0603625,-0.050325,0.08525
1679930468691,1110457044747936,-0.0603625,-0.0512875,0.082225
1679930468692,1110457047250012,-0.0584375,-0.050325,0.0812625
1679930468694,1110457049752181,-0.0603625,-0.0473,0.082225
1679930468698,1110457052254335,-0.062425,-0.0452375,0.077275
1679930468701,1110457054756181,-0.06545,-0.041249998,0.076175
1679930468703,1110457057258339,-0.06545,-0.0433125,0.077275
1679930468705,1110457059760262,-0.0664125,-0.0422125,0.077275
1679930468707,1110457062262339,-0.068475,-0.041249998,0.076175
1679930468712,1110457064764493,-0.0694375,-0.038225,0.077275
1679930468714,1110457067266416,-0.0743875,-0.0372625,0.076175
1679930468717,1110457069768575,-0.073425,-0.038225,0.077275
1679930468719,1110457072270652,-0.0754875,-0.039325,0.07425
1679930468720,1110457074772575,-0.0754875,-0.039325,0.07315
1679930468723,1110457077274652,-0.07645,-0.0433125,0.0702625
1679930468725,1110457079776561,-0.078375,-0.0452375,0.0672375
1679930468727,1110457082278715,-0.0804375,-0.0433125,0.0691625
1679930468734,1110457084780792,-0.0804375,-0.0452375,0.065175
1679930468734,1110457087282715,-0.0814,-0.0452375,0.06325
1679930468737,1110457089784850,-0.0823625,-0.0462,0.06325
1679930468738,1110457092286927,-0.0834625,-0.0512875,0.060225
1679930468741,1110457094788850,-0.0864875,-0.0583,0.060225
1679930468743,1110457097290927,-0.089375,-0.0583,0.0592625
1679930468745,1110457099793081,-0.089375,-0.0592625,0.0592625
1679930468749,1110457102294999,-0.091437496,-0.06325,0.0611875
1679930468752,1110457104797076,-0.090475,-0.06325,0.06215
1679930468754,1110457107298999,-0.090475,-0.0622875,0.0611875
1679930468755,1110457109801152,-0.08745,-0.061325,0.0592625
1679930468757,1110457112303013,-0.089375,-0.0653125,0.0581625
1679930468760,1110457114805397,-0.0924,-0.0653125,0.055275
1679930468762,1110457117307320,-0.090475,-0.06325,0.0562375
1679930468765,1110457119809397,-0.0884125,-0.0682,0.054175
1679930468767,1110457122311320,-0.090475,-0.0682,0.0532125
1679930468770,1110457124813421,-0.091437496,-0.0672375,0.049225
1679930468774,1110457127315575,-0.089375,-0.0702625,0.049225
1679930468776,1110457129817498,-0.0884125,-0.0752125,0.0471625
1679930468778,1110457132319652,-0.091437496,-0.0682,0.0471625
1679930468782,1110457134821705,-0.0924,-0.0702625,0.043175
1679930468783,1110457137323628,-0.0884125,-0.0752125,0.0422125
1679930468785,1110457139825705,-0.089375,-0.0763125,0.041249998
1679930468787,1110457142327628,-0.0944625,-0.0782375,0.038225
1679930468790,1110457144829696,-0.095425,-0.0782375,0.0361625
1679930468792,1110457147331927,-0.09845,-0.0763125,0.0361625
1679930468795,1110457149833773,-0.09845,-0.082225,0.032175
1679930468798,1110457152335927,-0.1043625,-0.0792,0.032175
1679930468801,1110457154837994,-0.106425,-0.082225,0.033275
1679930468803,1110457157339917,-0.1073875,-0.0812625,0.0342375
1679930468804,1110457159841994,-0.1084875,-0.0812625,0.0342375
1679930468807,1110457162343917,-0.1104125,-0.083325,0.0312125
1679930468812,1110457164846080,-0.111375,-0.0793375,0.0342375
1679930468813,1110457167348157,-0.113437496,-0.0782375,0.03025
1679930468816,1110457169850080,-0.1144,-0.0782375,0.03025
1679930468817,1110457172352157,-0.1155,-0.0782375,0.0312125
1679930468821,1110457174854387,-0.1164625,-0.0812625,0.0262625
1679930468822,1110457177356455,-0.1155,-0.0793375,0.0251625
1679930468824,1110457179858378,-0.1144,-0.082225,0.0262625
1679930468827,1110457182360455,-0.113437496,-0.083325,0.02915
1679930468831,1110457184862378,-0.1144,-0.0842875,0.027224999
1679930468832,1110457187364479,-0.112475,-0.082225,0.0251625
1679930468834,1110457189866402,-0.111375,-0.0842875,0.0281875
