system_ts_ms, sensor_ts_ns, gyrX, gyrY, gyrZ
1680000854761,1180843106326920,-0.14355,-0.3185875,0.037125
1680000854761,1180843108828997,-0.146575,-0.312675,0.0462
1680000854762,1180843111331214,-0.1496,-0.3026375,0.054175
1680000854762,1180843113833291,-0.147675,-0.2916375,0.0551375
1680000854762,1180843116335445,-0.1516625,-0.2756875,0.0572
1680000854765,1180843118837368,-0.157575,-0.2567125,0.0611875
1680000854779,1180843121339450,-0.1535875,-0.229625,0.06215
1680000854779,1180843123841604,-0.1516625,-0.2006125,0.0600875
1680000854779,1180843126343527,-0.1516625,-0.1687125,0.0600875
1680000854779,1180843128845680,-0.1505625,-0.1315875,0.0532125
1680000854780,1180843131347799,-0.141625,-0.0946,0.0451
1680000854780,1180843133849876,-0.13859999,-0.0526625,0.04015
1680000854781,1180843136351799,-0.13859999,-0.0215875,0.0341
1680000854792,1180843138853876,-0.13365,0.0133375,0.026124999
1680000854792,1180843141356030,-0.1315875,0.0484,0.0231
1680000854792,1180843143858170,-0.1276,0.0704,0.0191125
1680000854793,1180843146360093,-0.1236125,0.0903375,0.014162499
1680000854793,1180843148862247,-0.12155,0.1062875,0.0121
1680000854800,1180843151364324,-0.1236125,0.1203125,0.014162499
1680000854800,1180843153866468,-0.125675,0.127325,0.0191125
1680000854801,1180843156368391,-0.1236125,0.1353,0.0160875
1680000854804,1180843158870468,-0.1276,0.1403875,0.0132
1680000854808,1180843161372698,-0.124575,0.1434125,0.0121
1680000854810,1180843163874785,-0.125675,0.144375,0.0092124995
1680000854812,1180843166376708,-0.1285625,0.144375,0.0050875
1680000854818,1180843168878862,-0.1236125,0.1434125,0.0050875
1680000854819,1180843171380939,-0.12265,0.1324125,0.0050875
1680000854819,1180843173883112,-0.12155,0.122375,0.004125
1680000854821,1180843176384958,-0.12155,0.10835,0.0050875
1680000854824,1180843178887189,-0.119625,0.0963875,0.00715
1680000854827,1180843181389266,-0.12155,0.08635,0.010175
1680000854828,1180843183891420,-0.119625,0.072325,0.0121
1680000854835,1180843186393328,-0.1175625,0.0664125,0.015125
1680000854836,1180843188895405,-0.12155,0.0573375,0.0202125
1680000854836,1180843191397559,-0.1205875,0.05335,0.0242
1680000854839,1180843193899713,-0.1175625,0.0484,0.0270875
1680000854841,1180843196401670,-0.12265,0.0523875,0.0331375
1680000854845,1180843198903747,-0.125675,0.0543125,0.0341
1680000854850,1180843201405900,-0.125675,0.061325,0.0361625
1680000854850,1180843203908054,-0.1266375,0.0683375,0.0391875
1680000854851,1180843206410011,-0.1276,0.072325,0.0391875
1680000854853,1180843208912165,-0.1276,0.0803,0.0411125
1680000854858,1180843211414242,-0.1315875,0.0903375,0.04015
1680000854859,1180843213916165,-0.1315875,0.0963875,0.0422125
1680000854861,1180843216418319,-0.130625,0.100375,0.0391875
1680000854868,1180843218920372,-0.130625,0.1034,0.04015
1680000854869,1180843221422603,-0.130625,0.1034,0.0391875
1680000854870,1180843223924449,-0.1376375,0.100375,0.0380875
1680000854872,1180843226426603,-0.1376375,0.0963875,0.037125
1680000854873,1180843228928776,-0.13365,0.09735,0.0391875
1680000854876,1180843231430853,-0.1346125,0.091299996,0.04015
1680000854879,1180843233932776,-0.1346125,0.08635,0.0380875
1680000854885,1180843236434853,-0.13365,0.0774125,0.0391875
1680000854885,1180843238937092,-0.135575,0.069299996,0.0361625
1680000854888,1180843241439169,-0.1346125,0.061325,0.0341
1680000854889,1180843243941092,-0.1315875,0.0523875,0.02915
1680000854891,1180843246443246,-0.1315875,0.0374,0.0242
1680000854893,1180843248945323,-0.13365,0.0243375,0.0221375
1680000854901,1180843251447237,-0.1315875,0.0143,0.0202125
1680000854902,1180843253949622,-0.135575,0.0072875,0.0171875
1680000854902,1180843256451545,-0.135575,-6.875E-4,0.0160875
1680000854904,1180843258953699,-0.13365,-0.0086624995,0.0160875
1680000854907,1180843261455761,-0.1346125,-0.0105875,0.014162499
1680000854908,1180843263957684,-0.1346125,-0.0166375,0.014162499
1680000854911,1180843266459838,-0.13365,-0.02365,0.0132
1680000854917,1180843268961915,-0.136675,-0.0276375,0.0121
1680000854917,1180843271464073,-0.136675,-0.0336875,0.0111375
1680000854921,1180843273966227,-0.1376375,-0.0407,0.0132
1680000854923,1180843276468150,-0.1376375,-0.0407,0.015125
1680000854925,1180843278970227,-0.13859999,-0.0435875,0.0202125
1680000854927,1180843281472164,-0.1395625,-0.0416625,0.0221375
1680000854934,1180843283974318,-0.1376375,-0.0367125,0.0251625
1680000854935,1180843286476395,-0.1346125,-0.0276375,0.0270875
1680000854935,1180843288978626,-0.1346125,-0.0187,0.0312125
1680000854938,1180843291480708,-0.13365,-0.0105875,0.0331375
1680000854939,1180843293982631,-0.1296625,4.125E-4,0.0281875
1680000854941,1180843296484785,-0.124575,0.0154,0.0251625
1680000854944,1180843298986862,-0.124575,0.0224125,0.0270875
1680000854949,1180843301488785,-0.124575,0.0273625,0.0202125
1680000854950,1180843303991184,-0.125675,0.0292875,0.0121
1680000854951,1180843306493107,-0.1236125,0.0323125,0.0081124995
1680000854955,1180843308995261,-0.1236125,0.0323125,0.0011
1680000854958,1180843311497338,-0.125675,0.028324999,-0.006875
1680000854960,1180843313999261,-0.1276,0.0243375,-0.0169125
1680000854964,1180843316501415,-0.1285625,0.0163625,-0.0237875
1680000854965,1180843319003492,-0.125675,0.0182875,-0.0347875
1680000854973,1180843321505646,-0.1285625,0.0114124995,-0.039875
1680000854974,1180843324007569,-0.1285625,-0.00165,-0.0408375
1680000854974,1180843326509737,-0.130625,-0.0116875,-0.0457875
1680000854975,1180843329011814,-0.1296625,-0.026675,-0.0488125
1680000854977,1180843331513737,-0.1285625,-0.042625,-0.047849998
1680000854982,1180843334015891,-0.1285625,-0.0587125,-0.0488125
1680000854983,1180843336517968,-0.1315875,-0.070675,-0.0438625
1680000854984,1180843339020093,-0.13365,-0.08965,-0.039875
1680000854986,1180843341522246,-0.13365,-0.1067,-0.036849998
1680000854989,1180843344024169,-0.1315875,-0.1216875,-0.0358875
1680000854991,1180843346526299,-0.1346125,-0.1397,-0.0347875
1680000854995,1180843349028376,-0.1315875,-0.152625,-0.033825
1680000855000,1180843351530299,-0.1266375,-0.1676125,-0.0319
1680000855000,1180843354032684,-0.1266375,-0.1846625,-0.0328625
1680000855002,1180843356534593,-0.124575,-0.1975875,-0.0408375
1680000855004,1180843359036670,-0.124575,-0.2156,-0.0438625
1680000855007,1180843361538824,-0.1236125,-0.23265,-0.047849998
1680000855009,1180843364040747,-0.1236125,-0.2556125,-0.0457875
1680000855011,1180843366542824,-0.125675,-0.2776125,-0.0488125
1680000855018,1180843369044973,-0.1285625,-0.2976875,-0.0488125
1680000855019,1180843371547127,-0.1296625,-0.3157,-0.0488125
1680000855020,1180843374049050,-0.13365,-0.3295875,-0.047849998
1680000855021,1180843376551203,-0.136675,-0.3386625,-0.047849998
1680000855023,1180843379053270,-0.13859999,-0.3487,-0.047849998
1680000855026,1180843381555194,-0.1346125,-0.35365,-0.047849998
1680000855028,1180843384057347,-0.130625,-0.356675,-0.0499125
1680000855033,1180843386559482,-0.135575,-0.36465,-0.0539
1680000855036,1180843389061559,-0.1346125,-0.3656125,-0.0578875
1680000855038,1180843391563713,-0.13365,-0.3746875,-0.0609125
1680000855039,1180843394065636,-0.1346125,-0.3796375,-0.064899996
1680000855041,1180843396567713,-0.1315875,-0.3887125,-0.0708125
1680000855044,1180843399069862,-0.13365,-0.3916,-0.072875
1680000855047,1180843401571785,-0.136675,-0.3927,-0.077825
1680000855049,1180843404073939,-0.13859999,-0.3916,-0.0818125
1680000855051,1180843406576093,-0.1346125,-0.394625,-0.0928125
1680000855054,1180843409078170,-0.13365,-0.400675,-0.105875
1680000855058,1180843411580093,-0.1315875,-0.3966875,-0.127875
1680000855059,1180843414082247,-0.130625,-0.3936625,-0.1478125
1680000855061,1180843416584400,-0.13653749,-0.3986125,-0.1568875
1680000855064,1180843419086472,-0.13365,-0.39765,-0.160875
1680000855067,1180843421588395,-0.13653749,-0.3955875,-0.1588125
1680000855071,1180843424090549,-0.13859999,-0.3845875,-0.1538625
1680000855073,1180843426592626,-0.1346125,-0.3746875,-0.1419
1680000855075,1180843429094564,-0.1315875,-0.3625875,-0.1309
1680000855077,1180843431596949,-0.129525,-0.3526875,-0.116875
1680000855080,1180843434098872,-0.124575,-0.3366,-0.1018875
1680000855081,1180843436601026,-0.1205875,-0.3256,-0.0908875
1680000855083,1180843439103103,-0.118525,-0.30965,-0.0768625
1680000855087,1180843441605021,-0.1126125,-0.300575,-0.066825
1680000855089,1180843444107175,-0.11055,-0.2836625,-0.0539
1680000855091,1180843446609329,-0.1065625,-0.2635875,-0.047849998
1680000855094,1180843449111405,-0.1056,-0.2497,-0.0438625
1680000855097,1180843451613544,-0.1035375,-0.2305875,-0.0418
1680000855099,1180843454115467,-0.1035375,-0.2156,-0.0347875
1680000855101,1180843456617621,-0.1035375,-0.19167499,-0.0389125
1680000855104,1180843459119467,-0.10065,-0.174625,-0.0429
1680000855108,1180843461621607,-0.096525,-0.1535875,-0.047849998
1680000855110,1180843464123992,-0.096525,-0.135575,-0.0528
1680000855112,1180843466625915,-0.096525,-0.117699996,-0.0567875
1680000855114,1180843469127992,-0.093637496,-0.0985875,-0.061875
1680000855117,1180843471629915,-0.091575,-0.0796125,-0.066825
1680000855119,1180843474132069,-0.0925375,-0.059675,-0.0719125
1680000855121,1180843476634146,-0.0906125,-0.0407,-0.0748
1680000855125,1180843479136069,-0.086625,-0.026675,-0.0748
1680000855127,1180843481638453,-0.086625,-0.0176,-0.0738375
1680000855129,1180843484140377,-0.086625,-0.0077,-0.0748
1680000855131,1180843486642453,-0.07755,-0.003575,-0.0748
1680000855134,1180843489144607,-0.0765875,-6.875E-4,-0.0708125
1680000855139,1180843491646515,-0.07865,4.125E-4,-0.0677875
1680000855139,1180843494148669,-0.0765875,-0.0026125,-0.066825
1680000855141,1180843496650823,-0.075625,-0.0026125,-0.064899996
1680000855147,1180843499152900,-0.074525,-0.0056375,-0.064899996
1680000855148,1180843501655074,-0.0726,-0.0077,-0.0628375
1680000855150,1180843504156997,-0.0716375,-0.01265,-0.061875
1680000855152,1180843506659074,-0.0716375,-0.0187,-0.064899996
1680000855154,1180843509160997,-0.0726,-0.0246125,-0.066825
1680000855156,1180843511663151,-0.074525,-0.0325875,-0.0658625
1680000855159,1180843514165305,-0.0735625,-0.0416625,-0.0658625
1680000855161,1180843516667382,-0.074525,-0.0545875,-0.0628375
1680000855164,1180843519169535,-0.0765875,-0.064625,-0.0658625
1680000855168,1180843521671459,-0.0765875,-0.0847,-0.06985
1680000855169,1180843524173530,-0.0836,-0.0985875,-0.0677875
1680000855171,1180843526675684,-0.0836,-0.1095875,-0.0677875
1680000855174,1180843529177607,-0.0815375,-0.125675,-0.0688875
1680000855178,1180843531679992,-0.0836,-0.1425875,-0.0719125
1680000855179,1180843534181910,-0.08855,-0.1516625,-0.0719125
1680000855183,1180843536683987,-0.08965,-0.1656875,-0.0708125
1680000855185,1180843539186141,-0.08855,-0.18259999,-0.0719125
1680000855188,1180843541688064,-0.08855,-0.1936,-0.0719125
1680000855189,1180843544190141,-0.08965,-0.201575,-0.0719125
1680000855191,1180843546692372,-0.0925375,-0.212575,-0.0738375
1680000855194,1180843549194449,-0.093637496,-0.2167,-0.072875
1680000855197,1180843551696372,-0.0925375,-0.218625,-0.0748
1680000855199,1180843554198449,-0.0925375,-0.2206875,-0.0759
1680000855201,1180843556700626,-0.0955625,-0.2277,-0.0759
1680000855204,1180843559202550,-0.10065,-0.223575,-0.077825
1680000855207,1180843561704703,-0.1016125,-0.224675,-0.077825
1680000855209,1180843564206857,-0.10065,-0.2277,-0.0829125
1680000855211,1180843566708948,-0.09955,-0.223575,-0.0818125
1680000855214,1180843569211102,-0.09955,-0.2206875,-0.086899996
1680000855217,1180843571713025,-0.097625,-0.218625,-0.0878625
1680000855221,1180843574215102,-0.096525,-0.2176625,-0.086899996
1680000855223,1180843576717251,-0.091575,-0.2176625,-0.0858
1680000855224,1180843579219174,-0.08965,-0.2156,-0.0858
1680000855227,1180843581721328,-0.086625,-0.207625,-0.0818125
1680000855229,1180843584223482,-0.0845625,-0.196625,-0.0759
1680000855231,1180843586725554,-0.0796125,-0.1865875,-0.0748
1680000855234,1180843589227477,-0.0796125,-0.1755875,-0.06985
1680000855237,1180843591729631,-0.0765875,-0.1566125,-0.064899996
1680000855239,1180843594231707,-0.0765875,-0.141625,-0.0609125
1680000855241,1180843596733871,-0.074525,-0.13365,-0.0609125
1680000855244,1180843599236025,-0.074525,-0.1186625,-0.0578875
1680000855247,1180843601737948,-0.0716375,-0.103675,-0.058849998
1680000855249,1180843604240025,-0.069575,-0.091575,-0.0567875
1680000855251,1180843606742193,-0.0705375,-0.0836,-0.0578875
1680000855255,1180843609244116,-0.0705375,-0.0716375,-0.0609125
1680000855259,1180843611746270,-0.06765,-0.0666875,-0.0578875
1680000855261,1180843614248347,-0.069575,-0.059675,-0.0578875
1680000855263,1180843616750511,-0.0686125,-0.0545875,-0.058849998
1680000855264,1180843619252434,-0.0716375,-0.0526625,-0.058849998
1680000855268,1180843621754511,-0.0686125,-0.0466125,-0.058849998
1680000855270,1180843624256742,-0.06765,-0.0435875,-0.055825
1680000855272,1180843626758818,-0.0705375,-0.045649998,-0.0539
1680000855274,1180843629260991,-0.0716375,-0.0466125,-0.050875
1680000855279,1180843631762914,-0.069575,-0.0416625,-0.0488125
1680000855280,1180843634264991,-0.0686125,-0.0386375,-0.0499125
1680000855282,1180843636766914,-0.0726,-0.0407,-0.0457875
1680000855284,1180843639269021,-0.0716375,-0.042625,-0.044825
1680000855288,1180843641771252,-0.0735625,-0.042625,-0.0429
1680000855290,1180843644273329,-0.0705375,-0.0416625,-0.039875
1680000855292,1180843646775483,-0.0686125,-0.0435875,-0.0378125
1680000855297,1180843649277387,-0.069575,-0.0416625,-0.0347875
1680000855299,1180843651779464,-0.0686125,-0.037675,-0.033825
1680000855301,1180843654281618,-0.069575,-0.0386375,-0.033825
1680000855303,1180843656783772,-0.0735625,-0.0407,-0.0347875
1680000855305,1180843659285695,-0.0716375,-0.042625,-0.0319
1680000855307,1180843661787878,-0.0726,-0.042625,-0.0279125
1680000855309,1180843664289954,-0.0735625,-0.045649998,-0.0268125
1680000855311,1180843666792108,-0.075625,-0.0526625,-0.0268125
1680000855314,1180843669293954,-0.074525,-0.0545875,-0.022824999
1680000855317,1180843671796108,-0.0735625,-0.056649998,-0.022824999
1680000855319,1180843674298339,-0.069575,-0.059675,-0.022824999
1680000855321,1180843676800416,-0.0735625,-0.0636625,-0.017875
1680000855324,1180843679302339,-0.0726,-0.0666875,-0.0169125
1680000855326,1180843681804416,-0.0735625,-0.06765,-0.017875
1680000855328,1180843684306579,-0.0726,-0.0655875,-0.0188375
1680000855333,1180843686808502,-0.069575,-0.059675,-0.017875
1680000855335,1180843689310656,-0.0686125,-0.0606375,-0.01485
1680000855338,1180843691812810,-0.06765,-0.0576125,-0.011825
1680000855340,1180843694314921,-0.069575,-0.047575,-0.011825
1680000855342,1180843696816844,-0.0686125,-0.047575,-0.0108624995
1680000855344,1180843699318998,-0.0686125,-0.047575,-0.0108624995
1680000855347,1180843701821074,-0.064625,-0.045649998,-0.0088
1680000855349,1180843704323233,-0.064625,-0.0466125,-0.006875
1680000855352,1180843706825387,-0.0686125,-0.045649998,-0.0078375
1680000855355,1180843709327310,-0.06655,-0.0506,-0.0088
1680000855357,1180843711829464,-0.0686125,-0.0506,-0.0088
1680000855359,1180843714331550,-0.0686125,-0.058575,-0.0088
1680000855362,1180843716833473,-0.06765,-0.0666875,-0.0059125
1680000855364,1180843719335627,-0.064625,-0.073699996,-0.0059125
1680000855368,1180843721837704,-0.0625625,-0.0746625,-0.006875
1680000855372,1180843724339868,-0.064625,-0.081675,-0.0059125
1680000855373,1180843726841791,-0.0606375,-0.086625,-0.00385
1680000855376,1180843729343945,-0.0616,-0.091575,-0.0017875
1680000855383,1180843731846022,-0.0595375,-0.0966625,-8.25E-4
1680000855383,1180843734348176,-0.058575,-0.1016125,1.375E-4
1680000855383,1180843736850051,-0.0595375,-0.102575,0.0022
1680000855384,1180843739352204,-0.0576125,-0.0996875,0.004125
1680000855388,1180843741854358,-0.0606375,-0.0985875,0.00715
1680000855389,1180843744356435,-0.0545875,-0.097625,0.004125
1680000855391,1180843746858363,-0.05555,-0.10065,0.0050875
1680000855394,1180843749360517,-0.0576125,-0.095699996,0.0061875
1680000855396,1180843751862594,-0.05555,-0.0906125,0.0061875
1680000855398,1180843754364517,-0.0545875,-0.092675,0.004125
1680000855401,1180843756866902,-0.052525,-0.10065,0.0022
1680000855405,1180843759368829,-0.0506,-0.1067,0.0022
1680000855408,1180843761870983,-0.0506,-0.113575,0.0011
1680000855410,1180843764372829,-0.047575,-0.1166,0.0011
1680000855411,1180843766874964,-0.052525,-0.119625,0.004125
1680000855413,1180843769377041,-0.0545875,-0.124575,0.00715
1680000855417,1180843771879195,-0.05555,-0.1287,0.0081124995
1680000855419,1180843774381348,-0.0595375,-0.1276,0.010175
1680000855421,1180843776883271,-0.056649998,-0.124575,0.0111375
1680000855424,1180843779385425,-0.056649998,-0.1236125,0.0132
1680000855427,1180843781887502,-0.052525,-0.1186625,0.0171875
1680000855429,1180843784389425,-0.053625,-0.1186625,0.0202125
1680000855433,1180843786891570,-0.0545875,-0.1166,0.0191125
1680000855434,1180843789393724,-0.0515625,-0.114675,0.0191125
1680000855440,1180843791895878,-0.052525,-0.1076625,0.0221375
1680000855440,1180843794397955,-0.05555,-0.1067,0.0191125
1680000855442,1180843796899878,-0.0515625,-0.092675,0.015125
1680000855445,1180843799402022,-0.0515625,-0.0875875,0.0171875
1680000855448,1180843801903868,-0.053625,-0.081675,0.0191125
1680000855450,1180843804406022,-0.0506,-0.0796125,0.0132
1680000855452,1180843806908176,-0.0485375,-0.0746625,0.0160875
1680000855455,1180843809410329,-0.0515625,-0.073699996,0.021175
1680000855457,1180843811912396,-0.0506,-0.069575,0.0160875
1680000855459,1180843814414319,-0.047575,-0.06765,0.014162499
1680000855461,1180843816916473,-0.0506,-0.073699996,0.015125
1680000855464,1180843819418627,-0.047575,-0.073699996,0.0160875
1680000855468,1180843821920723,-0.0466125,-0.0746625,0.0191125
1680000855470,1180843824422877,-0.0485375,-0.07865,0.0171875
1680000855473,1180843826924800,-0.047575,-0.081675,0.0132
1680000855474,1180843829426877,-0.047575,-0.0875875,0.0111375
1680000855477,1180843831929031,-0.052525,-0.0906125,0.0111375
1680000855479,1180843834431185,-0.052525,-0.0966625,0.0111375
1680000855484,1180843836933108,-0.053625,-0.1016125,0.010175
1680000855485,1180843839435262,-0.052525,-0.1067,0.0081124995
1680000855489,1180843841937330,-0.0485375,-0.11165,0.0081124995
1680000855489,1180843844439253,-0.0506,-0.115637496,0.00715
1680000855492,1180843846941406,-0.0485375,-0.1186625,0.00715
1680000855494,1180843849443560,-0.0515625,-0.1276,0.0061875
1680000855498,1180843851945637,-0.052525,-0.1296625,0.0061875
1680000855499,1180843854447795,-0.052525,-0.136675,0.0081124995
1680000855501,1180843856949718,-0.0515625,-0.1406625,0.010175
1680000855505,1180843859451795,-0.052525,-0.1425875,0.0092124995
1680000855507,1180843861953949,-0.0485375,-0.1436875,0.010175
1680000855509,1180843864455872,-0.0545875,-0.146575,0.0092124995
1680000855513,1180843866958041,-0.0545875,-0.147675,0.0092124995
1680000855515,1180843869460195,-0.047575,-0.146575,0.010175
1680000855517,1180843871962272,-0.0485375,-0.147675,0.0092124995
1680000855524,1180843874464176,-0.0506,-0.1486375,0.00715
1680000855524,1180843876966330,-0.047575,-0.1486375,0.0031625
1680000855525,1180843879468407,-0.0506,-0.1507,0.0011
1680000855529,1180843881970560,-0.047575,-0.1516625,0.0011
1680000855530,1180843884472714,-0.0506,-0.1516625,-8.25E-4
1680000855532,1180843886974632,-0.0506,-0.1566125,-0.0017875
1680000855534,1180843889476709,-0.0485375,-0.1596375,-0.0048125
1680000855538,1180843891978863,-0.047575,-0.1626625,-0.0028875
1680000855539,1180843894480786,-0.04455,-0.1676125,-0.00385
1680000855541,1180843896982863,-0.045649998,-0.1736625,-0.0078375
1680000855545,1180843899485079,-0.0485375,-0.1786125,-0.0099
1680000855549,1180843901987156,-0.0466125,-0.1816375,-0.0099
1680000855550,1180843904489079,-0.0435875,-0.1816375,-0.011825
1680000855553,1180843906991233,-0.0435875,-0.185625,-0.011825
1680000855554,1180843909493310,-0.042625,-0.1865875,-0.01485
1680000855559,1180843911995277,-0.0405625,-0.1936,-0.017875
1680000855560,1180843914497431,-0.0396,-0.1986875,-0.017875
1680000855562,1180843916999584,-0.042625,-0.19965,-0.0198
1680000855565,1180843919501738,-0.0416625,-0.2036375,-0.0218625
1680000855568,1180843922003815,-0.0416625,-0.207625,-0.0237875
1680000855569,1180843924505738,-0.042625,-0.2085875,-0.0248875
1680000855572,1180843927007815,-0.045649998,-0.2116125,-0.02585
1680000855574,1180843929509969,-0.04455,-0.21367499,-0.0319
1680000855578,1180843932012123,-0.0435875,-0.21367499,-0.033825
1680000855582,1180843934514046,-0.0435875,-0.2127125,-0.0319
1680000855583,1180843937016200,-0.0506,-0.2156,-0.0328625
1680000855585,1180843939518277,-0.047575,-0.2195875,-0.0389125
1680000855587,1180843942020214,-0.0435875,-0.21367499,-0.0378125
1680000855589,1180843944522368,-0.04455,-0.2116125,-0.0358875
1680000855592,1180843947024445,-0.0435875,-0.2127125,-0.0389125
1680000855596,1180843949526685,-0.0435875,-0.2096875,-0.033825
1680000855599,1180843952028762,-0.0466125,-0.2066625,-0.0378125
1680000855600,1180843954530685,-0.04455,-0.2085875,-0.0378125
1680000855602,1180843957032839,-0.0466125,-0.2017125,-0.0378125
1680000855605,1180843959534916,-0.0515625,-0.1975875,-0.0358875
1680000855607,1180843962036843,-0.0515625,-0.196625,-0.0378125
1680000855610,1180843964538997,-0.0515625,-0.1936,-0.039875
1680000855612,1180843967041151,-0.0526625,-0.1956625,-0.0389125
1680000855614,1180843969543228,-0.0545875,-0.1947,-0.0418
1680000855618,1180843972045166,-0.056649998,-0.1947,-0.039875
1680000855619,1180843974547320,-0.058575,-0.1947,-0.0418
1680000855622,1180843977049397,-0.0606375,-0.1956625,-0.0457875
1680000855624,1180843979551320,-0.0616,-0.196625,-0.0457875
1680000855629,1180843982053651,-0.0636625,-0.1947,-0.0499125
1680000855630,1180843984555574,-0.0616,-0.1975875,-0.0539
1680000855634,1180843987057727,-0.0636625,-0.196625,-0.0518375
1680000855636,1180843989559804,-0.0686125,-0.1936,-0.0499125
1680000855638,1180843992061727,-0.06765,-0.19167499,-0.0499125
1680000855640,1180843994563871,-0.064625,-0.1797125,-0.0429
1680000855642,1180843997065948,-0.0616,-0.1676125,-0.0408375
1680000855645,1180843999568102,-0.06655,-0.1577125,-0.0389125
1680000855648,1180844002070256,-0.0686125,-0.14465,-0.036849998
1680000855649,1180844004572174,-0.0636625,-0.1315875,-0.0328625
1680000855652,1180844007074328,-0.06655,-0.1216875,-0.0298375
1680000855655,1180844009576174,-0.06655,-0.1106875,-0.0298375
1680000855658,1180844012078328,-0.0636625,-0.0985875,-0.0298375
1680000855659,1180844014580425,-0.064625,-0.0906125,-0.0298375
1680000855662,1180844017082579,-0.06655,-0.081675,-0.0328625
1680000855665,1180844019584733,-0.06765,-0.075625,-0.0358875
1680000855667,1180844022086656,-0.06655,-0.073699996,-0.0389125
1680000855671,1180844024588824,-0.06765,-0.0716375,-0.0408375
1680000855673,1180844027090900,-0.069575,-0.06765,-0.039875
1680000855675,1180844029593054,-0.064625,-0.070675,-0.0457875
1680000855677,1180844032094977,-0.070675,-0.073699996,-0.0457875
1680000855680,1180844034597131,-0.06765,-0.07865,-0.0457875
1680000855681,1180844037099169,-0.0686125,-0.0796125,-0.0457875
1680000855684,1180844039601092,-0.0686125,-0.0856625,-0.0488125
1680000855690,1180844042103477,-0.06765,-0.092675,-0.0499125
1680000855690,1180844044605400,-0.069575,-0.093637496,-0.0488125
1680000855692,1180844047107477,-0.0686125,-0.097625,-0.047849998
1680000855695,1180844049609400,-0.070675,-0.1067,-0.047849998
1680000855699,1180844052111554,-0.069575,-0.11165,-0.047849998
1680000855700,1180844054613631,-0.069575,-0.117699996,-0.0528
1680000855701,1180844057115574,-0.069575,-0.1276,-0.0539
1680000855706,1180844059617958,-0.0716375,-0.1326875,-0.0578875
1680000855709,1180844062119882,-0.0735625,-0.1376375,-0.0598125
1680000855710,1180844064622035,-0.0716375,-0.1496,-0.064899996
1680000855712,1180844067124131,-0.0726,-0.1606,-0.0708125
1680000855714,1180844069626054,-0.0726,-0.1727,-0.06985
1680000855717,1180844072128208,-0.069575,-0.18259999,-0.0719125
1680000855722,1180844074630285,-0.06765,-0.1926375,-0.0759
1680000855722,1180844077132439,-0.069575,-0.2017125,-0.0759
1680000855725,1180844079634583,-0.06765,-0.2116125,-0.0787875
1680000855729,1180844082136506,-0.0686125,-0.2226125,-0.0787875
1680000855729,1180844084638583,-0.070675,-0.2336125,-0.0787875
1680000855733,1180844087140506,-0.0686125,-0.24365,-0.083875
1680000855734,1180844089642660,-0.06765,-0.2476375,-0.083875
1680000855739,1180844092144814,-0.06655,-0.2556125,-0.083875
1680000855740,1180844094646968,-0.0636625,-0.2616625,-0.0848375
1680000855742,1180844097149044,-0.064625,-0.2696375,-0.0829125
1680000855746,1180844099650973,-0.06765,-0.2756875,-0.083875
1680000855749,1180844102153126,-0.064625,-0.27665,-0.08085
1680000855750,1180844104655203,-0.06655,-0.27665,-0.0787875
1680000855752,1180844107157126,-0.06765,-0.279675,-0.0768625
1680000855755,1180844109659511,-0.0716375,-0.2787125,-0.0748
1680000855757,1180844112161443,-0.0726,-0.2776125,-0.0748
1680000855759,1180844114663520,-0.07755,-0.2806375,-0.072875
1680000855761,1180844117165674,-0.0765875,-0.2806375,-0.0719125
1680000855764,1180844119667597,-0.075625,-0.2816,-0.06985
1680000855768,1180844122169737,-0.07865,-0.2787125,-0.0688875
1680000855770,1180844124671814,-0.0796125,-0.2756875,-0.0677875
1680000855772,1180844127173968,-0.080575,-0.273625,-0.0677875
1680000855774,1180844129675891,-0.0845625,-0.2706,-0.064899996
1680000855778,1180844132177953,-0.086625,-0.2646875,-0.0628375
1680000855780,1180844134680106,-0.08965,-0.262625,-0.0628375
1680000855784,1180844137182030,-0.0906125,-0.2607,-0.0609125
1680000855785,1180844139684183,-0.093637496,-0.2536875,-0.0578875
1680000855788,1180844142186333,-0.0946,-0.251625,-0.055825
1680000855790,1180844144688410,-0.0955625,-0.2486,-0.055825
1680000855792,1180844147190564,-0.09955,-0.2446125,-0.0539
1680000855794,1180844149692487,-0.10065,-0.240625,-0.0539
1680000855797,1180844152194564,-0.102575,-0.2396625,-0.0528
1680000855801,1180844154696732,-0.1016125,-0.2376,-0.0539
1680000855803,1180844157198655,-0.104637496,-0.2396625,-0.0539
1680000855805,1180844159701040,-0.1065625,-0.2366375,-0.0548625
1680000855808,1180844162202963,-0.1065625,-0.2316875,-0.0548625
1680000855809,1180844164705040,-0.108625,-0.229625,-0.0548625
1680000855812,1180844167206973,-0.108625,-0.2286625,-0.0548625
1680000855814,1180844169709127,-0.11055,-0.2277,-0.0528
1680000855818,1180844172211203,-0.11165,-0.2237125,-0.0548625
1680000855822,1180844174713127,-0.114675,-0.2237125,-0.0539
1680000855823,1180844177215496,-0.113575,-0.2176625,-0.0528
1680000855825,1180844179717419,-0.114675,-0.2116125,-0.0548625
1680000855828,1180844182219496,-0.113575,-0.2066625,-0.0539
1680000855829,1180844184721650,-0.1126125,-0.202675,-0.055825
1680000855832,1180844187223573,-0.1126125,-0.1986875,-0.0548625
1680000855835,1180844189725650,-0.113575,-0.1956625,-0.0548625
1680000855838,1180844192227881,-0.113575,-0.1865875,-0.055825
1680000855839,1180844194729958,-0.1126125,-0.18259999,-0.0528
1680000855842,1180844197232112,-0.113575,-0.1766875,-0.0499125
1680000855845,1180844199734016,-0.1205875,-0.169675,-0.0518375
1680000855847,1180844202236093,-0.119625,-0.1645875,-0.0528
1680000855849,1180844204738016,-0.1186625,-0.1566125,-0.0518375
1680000855852,1180844207240170,-0.1205875,-0.1516625,-0.0499125
1680000855854,1180844209742347,-0.124575,-0.1467125,-0.050875
1680000855859,1180844212244424,-0.125675,-0.1467125,-0.0528
1680000855861,1180844214746578,-0.1276,-0.1436875,-0.055825
1680000855863,1180844217248501,-0.1276,-0.147675,-0.0567875
1680000855865,1180844219750592,-0.1276,-0.1486375,-0.0578875
1680000855868,1180844222252746,-0.1346125,-0.1516625,-0.0609125
1680000855871,1180844224754900,-0.1346125,-0.1606,-0.0658625
1680000855873,1180844227257054,-0.136675,-0.1656875,-0.0677875
1680000855875,1180844229758939,-0.136675,-0.1736625,-0.0708125
1680000855878,1180844232261016,-0.1395625,-0.180675,-0.06985
1680000855880,1180844234763170,-0.1425875,-0.1865875,-0.072875
1680000855882,1180844237265323,-0.14465,-0.19965,-0.072875
1680000855885,1180844239767252,-0.1496,-0.207625,-0.072875
1680000855888,1180844242269328,-0.152625,-0.2156,-0.0748
1680000855889,1180844244771482,-0.15455,-0.2277,-0.0748
1680000855892,1180844247273405,-0.15455,-0.23567499,-0.0748
1680000855896,1180844249775496,-0.157575,-0.2457125,-0.0738375
1680000855899,1180844252277650,-0.1626625,-0.257675,-0.0768625
1680000855901,1180844254779804,-0.1626625,-0.2646875,-0.077825
1680000855903,1180844257281727,-0.1626625,-0.273625,-0.0759
1680000855905,1180844259783881,-0.169675,-0.2855875,-0.08085
1680000855908,1180844262285948,-0.169675,-0.2926,-0.0818125
1680000855909,1180844264787871,-0.1706375,-0.301675,-0.0787875
1680000855912,1180844267290025,-0.1736625,-0.3117125,-0.08085
1680000855914,1180844269792179,-0.1786125,-0.3185875,-0.0768625
1680000855917,1180844272294266,-0.180675,-0.328625,-0.0738375
1680000855921,1180844274796419,-0.185625,-0.3366,-0.0738375
1680000855922,1180844277298343,-0.1865875,-0.3416875,-0.0719125
1680000855925,1180844279800496,-0.18259999,-0.34759998,-0.066825
1680000855927,1180844282302573,-0.18755,-0.356675,-0.0658625
1680000855929,1180844284804727,-0.190575,-0.3636875,-0.0598125
1680000855934,1180844287306650,-0.19167499,-0.3656125,-0.055825
1680000855936,1180844289808727,-0.18865,-0.3636875,-0.0548625
1680000855939,1180844292310886,-0.1896125,-0.36465,-0.0578875
1680000855941,1180844294812809,-0.1896125,-0.3625875,-0.0548625
1680000855943,1180844297314963,-0.190575,-0.3576375,-0.0548625
1680000855944,1180844299817040,-0.190575,-0.350625,-0.0548625
1680000855947,1180844302319194,-0.185625,-0.3447125,-0.0539
1680000855949,1180844304821343,-0.185625,-0.3356375,-0.0539
1680000855952,1180844307323266,-0.18755,-0.3256,-0.0548625
1680000855955,1180844309825343,-0.1896125,-0.3146,-0.0518375
1680000855957,1180844312327496,-0.190575,-0.3086875,-0.0488125
1680000855960,1180844314829401,-0.18755,-0.306625,-0.0528
1680000855962,1180844317331554,-0.1865875,-0.2976875,-0.0548625
1680000855965,1180844319833631,-0.18865,-0.2937,-0.055825
1680000855968,1180844322335785,-0.18755,-0.29067498,-0.058849998
1680000855972,1180844324837722,-0.1865875,-0.2855875,-0.0609125
1680000855973,1180844327339876,-0.1846625,-0.2816,-0.064899996
1680000855977,1180844329841953,-0.1835625,-0.279675,-0.0688875
1680000855981,1180844332343876,-0.18259999,-0.279675,-0.064899996
1680000855981,1180844334846261,-0.18259999,-0.27665,-0.0688875
1680000855983,1180844337348194,-0.180675,-0.2756875,-0.0719125
1680000855985,1180844339850271,-0.18259999,-0.279675,-0.0719125
1680000855989,1180844342352425,-0.18259999,-0.27665,-0.0708125
1680000855990,1180844344854348,-0.180675,-0.279675,-0.072875
1680000855992,1180844347356425,-0.1786125,-0.2855875,-0.0719125
1680000855995,1180844349858550,-0.18259999,-0.284625,-0.072875
1680000855998,1180844352360703,-0.1786125,-0.2897125,-0.0748
1680000856001,1180844354862857,-0.180675,-0.2916375,-0.072875
1680000856004,1180844357364780,-0.1846625,-0.2976875,-0.0719125
1680000856005,1180844359866838,-0.1835625,-0.3026375,-0.0708125
1680000856009,1180844362368761,-0.1865875,-0.3036,-0.06985
1680000856010,1180844364870915,-0.185625,-0.3086875,-0.0677875
1680000856012,1180844367372992,-0.18865,-0.3117125,-0.066825
1680000856014,1180844369875165,-0.18755,-0.3196875,-0.0609125
1680000856018,1180844372377319,-0.1896125,-0.328625,-0.058849998
1680000856020,1180844374879242,-0.190575,-0.3366,-0.0578875
1680000856022,1180844377381319,-0.190575,-0.345675,-0.0548625
1680000856024,1180844379883473,-0.19167499,-0.35365,-0.047849998
1680000856027,1180844382385396,-0.19167499,-0.3656125,-0.0429
1680000856029,1180844384887780,-0.1945625,-0.3696,-0.039875
1680000856032,1180844387389703,-0.1975875,-0.37867498,-0.0347875
1680000856035,1180844389891765,-0.2006125,-0.3826625,-0.0279125
1680000856040,1180844392393919,-0.201575,-0.3845875,-0.022824999
1680000856040,1180844394895842,-0.202675,-0.3887125,-0.0188375
1680000856042,1180844397397919,-0.202675,-0.3927,-0.0158125
1680000856048,1180844399900073,-0.2055625,-0.3955875,-0.011825
1680000856049,1180844402402227,-0.2055625,-0.400675,-0.0099
1680000856051,1180844404904150,-0.2066625,-0.3997125,-0.0078375
1680000856053,1180844407406227,-0.2036375,-0.3966875,-0.00385
1680000856055,1180844409908381,-0.201575,-0.3986125,-8.25E-4
1680000856058,1180844412410280,-0.202675,-0.39765,0.0011
1680000856060,1180844414912357,-0.201575,-0.3936625,0.0031625
1680000856062,1180844417414511,-0.2006125,-0.3906375,0.0011
1680000856064,1180844419916665,-0.202675,-0.3845875,0.0031625
1680000856068,1180844422418818,-0.202675,-0.38665,0.00715
1680000856071,1180844424920732,-0.2006125,-0.3845875,0.00715
1680000856072,1180844427422809,-0.1956625,-0.3806,0.00715
1680000856074,1180844429924963,-0.1945625,-0.37565,0.0092124995
1680000856077,1180844432426886,-0.1945625,-0.372625,0.00715
1680000856080,1180844434929049,-0.1956625,-0.36465,0.0061875
1680000856084,1180844437431203,-0.196625,-0.35365,0.0061875
1680000856086,1180844439933280,-0.1945625,-0.350625,0.0061875
1680000856088,1180844442435434,-0.1926375,-0.3405875,0.0050875
1680000856090,1180844444937343,-0.1936,-0.323675,0.004125
1680000856092,1180844447439420,-0.1936,-0.3146,0.0022
1680000856094,1180844449941574,-0.1936,-0.306625,1.375E-4
1680000856098,1180844452443497,-0.1945625,-0.295625,1.375E-4
1680000856099,1180844454945574,-0.1956625,-0.2866875,1.375E-4
1680000856102,1180844457447704,-0.1936,-0.2787125,0.0011
1680000856105,1180844459949627,-0.18755,-0.2726625,1.375E-4
1680000856107,1180844462451780,-0.1896125,-0.2635875,-0.0017875
1680000856109,1180844464953934,-0.18865,-0.2616625,0.0022
1680000856112,1180844467456006,-0.1896125,-0.2607,0.0022
1680000856115,1180844469958160,-0.1896125,-0.2586375,0.0011
1680000856118,1180844472460083,-0.1865875,-0.2556125,0.0022
1680000856121,1180844474962160,-0.1835625,-0.2536875,0.0011
1680000856123,1180844477464314,-0.179575,-0.2506625,0.0022
1680000856125,1180844479966468,-0.1846625,-0.251625,0.0022
1680000856128,1180844482468391,-0.1786125,-0.251625,0.0011
1680000856129,1180844484970468,-0.174625,-0.2476375,1.375E-4
1680000856132,1180844487472622,-0.1736625,-0.2476375,0.0022
1680000856135,1180844489974574,-0.174625,-0.2476375,1.375E-4
1680000856139,1180844492476651,-0.1716,-0.2415875,0.0022
1680000856140,1180844494978881,-0.1736625,-0.2426875,0.0022
1680000856142,1180844497480958,-0.169675,-0.240625,0.0031625
1680000856144,1180844499983132,-0.1725625,-0.240625,0.004125
1680000856147,1180844502485055,-0.169675,-0.2426875,0.0050875
1680000856149,1180844504987132,-0.1676125,-0.2415875,0.0092124995
1680000856152,1180844507489286,-0.169675,-0.240625,0.010175
1680000856154,1180844509991185,-0.168575,-0.2396625,0.0121
1680000856159,1180844512493339,-0.168575,-0.2396625,0.0111375
1680000856160,1180844514995493,-0.168575,-0.24365,0.0121
1680000856162,1180844517497570,-0.1645875,-0.2446125,0.014162499
1680000856164,1180844519999526,-0.16665,-0.2457125,0.015125
1680000856167,1180844522501603,-0.16665,-0.2457125,0.015125
1680000856170,1180844525003757,-0.1606,-0.2476375,0.014162499
1680000856175,1180844527505911,-0.1626625,-0.2506625,0.0111375
1680000856176,1180844530007834,-0.1596375,-0.2525875,0.0111375
1680000856179,1180844532509987,-0.1566125,-0.257675,0.0121
1680000856180,1180844535012064,-0.157575,-0.2607,0.0092124995
1680000856182,1180844537514218,-0.1535875,-0.2635875,0.00715
1680000856185,1180844540016141,-0.1566125,-0.268675,0.004125
1680000856187,1180844542518199,-0.152625,-0.27665,0.0061875
1680000856190,1180844545020430,-0.1505625,-0.2806375,0.0031625
1680000856192,1180844547522507,-0.152625,-0.2866875,0.0011
1680000856196,1180844550024430,-0.1535875,-0.2916375,-0.00385
1680000856199,1180844552526584,-0.1505625,-0.2976875,-0.0028875
1680000856201,1180844555028661,-0.1535875,-0.3026375,-0.0017875
1680000856203,1180844557530584,-0.1535875,-0.3106125,-0.0048125
1680000856205,1180844560032661,-0.152625,-0.3185875,1.375E-4
1680000856208,1180844562534892,-0.152625,-0.3227125,1.375E-4
1680000856210,1180844565036969,-0.1535875,-0.3276625,0.0011
1680000856213,1180844567538892,-0.15455,-0.3366,0.0081124995
1680000856216,1180844570041045,-0.15455,-0.3405875,0.0121
1680000856219,1180844572543146,-0.15455,-0.34265,0.0111375
1680000856220,1180844575045300,-0.152625,-0.3515875,0.0171875
1680000856222,1180844577547454,-0.1535875,-0.3606625,0.0221375
1680000856225,1180844580049377,-0.15565,-0.3625875,0.0281875
1680000856228,1180844582551531,-0.1516625,-0.361625,0.0312125
1680000856230,1180844585053603,-0.15455,-0.36465,0.0341
1680000856236,1180844587555526,-0.1535875,-0.3667125,0.0391875
1680000856237,1180844590057680,-0.152625,-0.3735875,0.043175
1680000856238,1180844592559757,-0.1505625,-0.367675,0.0451
1680000856240,1180844595061988,-0.152625,-0.3625875,0.0471625
1680000856242,1180844597563834,-0.1456125,-0.3656125,0.0490875
1680000856245,1180844600065988,-0.1496,-0.3667125,0.054175
1680000856248,1180844602568065,-0.1516625,-0.36465,0.0551375
1680000856249,1180844605070218,-0.1496,-0.3625875,0.054175
1680000856253,1180844607572114,-0.147675,-0.3667125,0.0551375
1680000856256,1180844610074190,-0.146575,-0.3667125,0.054175
1680000856258,1180844612576421,-0.146575,-0.3625875,0.0532125
1680000856260,1180844615078498,-0.146575,-0.3636875,0.048125
1680000856263,1180844617580401,-0.147675,-0.3636875,0.0490875
1680000856266,1180844620082555,-0.14465,-0.3606625,0.0490875
1680000856274,1180844622584623,-0.1456125,-0.3606625,0.0462
1680000856275,1180844625086546,-0.1425875,-0.3597,0.0462
1680000856275,1180844627588931,-0.141625,-0.3606625,0.048125
1680000856277,1180844630090854,-0.1376375,-0.361625,0.0471625
1680000856280,1180844632980931,-0.13859999,-0.3597,0.0462
1680000856281,1180844635094854,-0.13859999,-0.35365,0.0462
1680000856283,1180844637597008,-0.136675,-0.350625,0.0471625
1680000856287,1180844640099085,-0.1406625,-0.3487,0.0471625
1680000856290,1180844642601238,-0.141625,-0.3466375,0.0462
1680000856291,1180844645103392,-0.13859999,-0.3447125,0.048125
1680000856292,1180844647605315,-0.1376375,-0.3416875,0.0490875
1680000856296,1180844650107483,-0.1376375,-0.339625,0.0462
1680000856299,1180844652609560,-0.13859999,-0.33165,0.0532125
1680000856300,1180844655111714,-0.1376375,-0.3256,0.054175
1680000856302,1180844657613868,-0.1346125,-0.328625,0.0551375
1680000856306,1180844660115796,-0.1315875,-0.3185875,0.059125
1680000856309,1180844662617873,-0.13365,-0.3106125,0.0600875
1680000856311,1180844665120027,-0.1346125,-0.3056625,0.0611875
1680000856313,1180844667621950,-0.13365,-0.2976875,0.065175
1680000856315,1180844670124027,-0.1315875,-0.2926,0.06215
1680000856319,1180844672626161,-0.1296625,-0.2836625,0.06215
1680000856320,1180844675128314,-0.1285625,-0.2745875,0.0671
1680000856322,1180844677630238,-0.125675,-0.2677125,0.0661375
1680000856325,1180844680132314,-0.124575,-0.2567125,0.0671
1680000856328,1180844682634482,-0.125675,-0.2536875,0.06215
1680000856330,1180844685136405,-0.124575,-0.251625,0.0581625
1680000856333,1180844687638559,-0.12155,-0.2476375,0.0561
1680000856335,1180844690140713,-0.12265,-0.240625,0.0501875
1680000856339,1180844692642776,-0.12155,-0.2376,0.0471625
1680000856340,1180844695144930,-0.1186625,-0.24365,0.0471625
1680000856342,1180844697646853,-0.1175625,-0.2426875,0.0462
1680000856348,1180844700148934,-0.12155,-0.2426875,0.048125
1680000856349,1180844702651088,-0.1236125,-0.2446125,0.0451
1680000856352,1180844705153242,-0.125675,-0.2486,0.0441375
1680000856353,1180844707655165,-0.1266375,-0.2567125,0.0462
1680000856355,1180844710157242,-0.130625,-0.2646875,0.048125
1680000856357,1180844712659381,-0.1315875,-0.279675,0.0501875
1680000856360,1180844715161305,-0.13365,-0.2866875,0.054175
1680000856363,1180844717663381,-0.1376375,-0.3075875,0.0600875
1680000856365,1180844720165535,-0.1395625,-0.3227125,0.065175
1680000856368,1180844722667689,-0.147675,-0.3366,0.070125
1680000856370,1180844725169612,-0.152625,-0.3496625,0.0710875
1680000856372,1180844727671766,-0.1535875,-0.367675,0.076175
1680000856375,1180844730173843,-0.1566125,-0.3845875,0.0792
1680000856379,1180844732676002,-0.1615625,-0.394625,0.0801625
1680000856380,1180844735177925,-0.16665,-0.4076875,0.087175
1680000856384,1180844737680079,-0.168575,-0.42267498,0.0851125
1680000856387,1180844740182233,-0.1716,-0.4285875,0.087175
1680000856389,1180844742684324,-0.17655,-0.438625,0.0911625
1680000856390,1180844745186247,-0.1786125,-0.4486625,0.092125
1680000856392,1180844747688401,-0.179575,-0.4547125,0.0930875
1680000856395,1180844750190477,-0.18259999,-0.4576,0.092125
1680000856398,1180844752692401,-0.1865875,-0.4566375,0.092125
1680000856400,1180844755194568,-0.1896125,-0.4596625,0.0911625
1680000856403,1180844757696722,-0.1896125,-0.4596625,0.0891
1680000856405,1180844760198799,-0.1926375,-0.4596625,0.0902
1680000856408,1180844762700953,-0.190575,-0.4547125,0.092125
1680000856410,1180844765202872,-0.1926375,-0.449625,0.0911625
1680000856412,1180844767704949,-0.19167499,-0.4426125,0.0902
1680000856415,1180844770207180,-0.1926375,-0.4346375,0.0902
1680000856418,1180844772709257,-0.1936,-0.4285875,0.0881375
1680000856422,1180844775211199,-0.1945625,-0.4175875,0.0881375
1680000856424,1180844777713353,-0.1945625,-0.4076875,0.0862125
1680000856427,1180844780215430,-0.1936,-0.3966875,0.0851125
1680000856429,1180844782717353,-0.19167499,-0.3856875,0.081125
1680000856430,1180844785219507,-0.1926375,-0.3716625,0.076175
1680000856432,1180844787721693,-0.1936,-0.3526875,0.0741125
1680000856435,1180844790223770,-0.19167499,-0.3405875,0.0691625
1680000856438,1180844792725693,-0.190575,-0.3256,0.0642125
1680000856440,1180844795227847,-0.18865,-0.3056625,0.0642125
1680000856443,1180844797729948,-0.1846625,-0.2855875,0.0561
1680000856445,1180844800232102,-0.18259999,-0.268675,0.0532125
1680000856448,1180844802734025,-0.180675,-0.2506625,0.0490875
1680000856450,1180844805236179,-0.17655,-0.2347125,0.0411125
1680000856452,1180844807738329,-0.1736625,-0.2176625,0.0341
1680000856455,1180844810240406,-0.1706375,-0.1907125,0.0301125
1680000856460,1180844812742329,-0.168575,-0.1766875,0.0231
1680000856462,1180844815244483,-0.1645875,-0.1755875,0.015125
1680000856464,1180844817746579,-0.163625,-0.1645875,0.0081124995
1680000856467,1180844820248809,-0.16665,-0.1535875,0.0031625
1680000856469,1180844822750656,-0.1615625,-0.1456125,1.375E-4
1680000856471,1180844825252809,-0.1606,-0.1425875,-0.0059125
1680000856473,1180844827754871,-0.1606,-0.141625,-0.0088
1680000856475,1180844830257025,-0.1566125,-0.136675,-0.0108624995
1680000856478,1180844832758948,-0.158675,-0.13365,-0.0127875
1680000856480,1180844835261025,-0.1615625,-0.13365,-0.0169125
1680000856483,1180844837763256,-0.1606,-0.136675,-0.017875
1680000856485,1180844840265343,-0.16665,-0.1436875,-0.0188375
1680000856487,1180844842767266,-0.1706375,-0.147675,-0.017875
1680000856490,1180844845269420,-0.169675,-0.1546875,-0.0169125
1680000856492,1180844847771497,-0.174625,-0.1626625,-0.0158125
1680000856496,1180844850273410,-0.17655,-0.1706375,-0.011825
1680000856500,1180844852775564,-0.18259999,-0.1786125,-0.0099
1680000856502,1180844855277718,-0.1846625,-0.1837,-0.0078375
1680000856504,1180844857779871,-0.185625,-0.1896125,-0.00385
1680000856506,1180844860281948,-0.190575,-0.196625,0.0022
1680000856508,1180844862783809,-0.190575,-0.2036375,0.004125
1680000856510,1180844865286040,-0.1926375,-0.2096875,0.0081124995
1680000856512,1180844867788117,-0.196625,-0.21367499,0.0121
1680000856516,1180844870290040,-0.2006125,-0.2156,0.0160875
1680000856518,1180844872792189,-0.201575,-0.2226125,0.021175
1680000856523,1180844875294266,-0.2036375,-0.2256375,0.0221375
1680000856523,1180844877796420,-0.202675,-0.2256375,0.0242
1680000856525,1180844880298574,-0.2036375,-0.2256375,0.0270875
1680000856528,1180844882800497,-0.201575,-0.22659999,0.0270875
1680000856530,1180844885302670,-0.19965,-0.22659999,0.0270875
1680000856535,1180844887804747,-0.19965,-0.229625,0.0270875
1680000856537,1180844890306670,-0.1956625,-0.229625,0.0242
1680000856539,1180844892808742,-0.1956625,-0.2286625,0.0242
1680000856541,1180844895310895,-0.196625,-0.2286625,0.0251625
1680000856544,1180844897813049,-0.196625,-0.2277,0.0231
1680000856545,1180844900314972,-0.1936,-0.2286625,0.0191125
1680000856547,1180844902817126,-0.1945625,-0.229625,0.0191125
1680000856551,1180844905319208,-0.1936,-0.229625,0.0160875
1680000856552,1180844907821131,-0.1915375,-0.2256375,0.010175
1680000856555,1180844910323285,-0.190575,-0.224675,0.0081124995
1680000856557,1180844912825362,-0.190575,-0.2195875,0.0081124995
1680000856560,1180844915327593,-0.1896125,-0.2195875,0.0081124995
1680000856562,1180844917829656,-0.18865,-0.2226125,0.00715
1680000856565,1180844920331579,-0.1865875,-0.2167,0.0031625
1680000856568,1180844922833733,-0.1846625,-0.2096875,0.0022
1680000856572,1180844925335795,-0.17765,-0.2057,0.0022
1680000856573,1180844927837718,-0.1786125,-0.1975875,0.0011
1680000856576,1180844930340102,-0.18053749,-0.19965,-0.0028875
1680000856579,1180844932842025,-0.18259999,-0.19965,-0.0059125
1680000856581,1180844935344102,-0.179575,-0.1986875,-0.006875
1680000856583,1180844937846030,-0.17655,-0.1907125,-0.0108624995
1680000856585,1180844940348184,-0.1755875,-0.1797125,-0.0127875
1680000856588,1180844942850261,-0.1736625,-0.1786125,-0.0169125
1680000856590,1180844945352184,-0.1706375,-0.169675,-0.0198
1680000856593,1180844947854588,-0.1695375,-0.1645875,-0.0209
1680000856595,1180844950356511,-0.1676125,-0.1626625,-0.0198
1680000856598,1180844952858665,-0.1706375,-0.1596375,-0.0209
1680000856600,1180844955360742,-0.1725625,-0.1507,-0.0198
1680000856602,1180844957862665,-0.1695375,-0.1486375,-0.0158125
1680000856605,1180844960364800,-0.1716,-0.147675,-0.01485
1680000856609,1180844962866877,-0.1676125,-0.1425875,-0.0169125
1680000856613,1180844965369031,-0.163625,-0.1357125,-0.0127875
1680000856614,1180844967870954,-0.1606,-0.130625,-0.0108624995
1680000856615,1180844970373107,-0.1615625,-0.130625,-0.01485
1680000856619,1180844972875184,-0.1606,-0.1276,-0.01485
1680000856621,1180844975377107,-0.1566125,-0.1216875,-0.0108624995
1680000856622,1180844977879261,-0.15853749,-0.1216875,-0.0108624995
1680000856626,1180844980381405,-0.1566125,-0.1166,-0.0088
1680000856630,1180844982883559,-0.1535875,-0.1106875,-0.0078375
1680000856630,1180844985385636,-0.152625,-0.108625,-0.0059125
1680000856632,1180844987887559,-0.1516625,-0.104637496,-0.006875
1680000856635,1180844990389708,-0.1496,-0.0996875,-0.011825
1680000856638,1180844992891785,-0.1475375,-0.0985875,-0.01485
1680000856640,1180844995393708,-0.14355,-0.0946,-0.0158125
1680000856643,1180844997896093,-0.1376375,-0.0917125,-0.01485
1680000856646,1180845000398021,-0.13653749,-0.0875875,-0.0169125
1680000856649,1180845002900174,-0.135575,-0.086625,-0.017875
1680000856651,1180845005402251,-0.135575,-0.086625,-0.017875
1680000856653,1180845007904174,-0.1296625,-0.0856625,-0.017875
1680000856655,1180845010406251,-0.1285625,-0.0836,-0.0198
1680000856658,1180845012908395,-0.1255375,-0.0847,-0.022824999
1680000856660,1180845015410549,-0.1255375,-0.0836,-0.0248875
1680000856663,1180845017912472,-0.124575,-0.0875875,-0.0268125
1680000856665,1180845020414626,-0.124575,-0.08965,-0.0279125
1680000856669,1180845022916703,-0.1186625,-0.0875875,-0.028875
1680000856675,1180845025418626,-0.1186625,-0.0906125,-0.0298375
1680000856675,1180845027920780,-0.12155,-0.095699996,-0.0298375
1680000856676,1180845030422934,-0.1205875,-0.0996875,-0.0328625
1680000856679,1180845032925011,-0.119625,-0.10065,-0.0319
1680000856680,1180845035427165,-0.1205875,-0.103675,-0.0347875
1680000856685,1180845037929088,-0.1166,-0.1076625,-0.033825
1680000856689,1180845040431241,-0.113575,-0.1137125,-0.033825
1680000856690,1180845042933323,-0.1166,-0.115637496,-0.0347875
1680000856691,1180845045435246,-0.1126125,-0.117699996,-0.0328625
1680000856692,1180845047937400,-0.113575,-0.117699996,-0.0319
1680000856695,1180845050439554,-0.1145375,-0.1247125,-0.0279125
1680000856698,1180845052941631,-0.1166,-0.1287,-0.02585
1680000856701,1180845055443554,-0.113575,-0.130625,-0.0237875
1680000856703,1180845057945708,-0.113575,-0.1357125,-0.0209
1680000856706,1180845060447785,-0.1145375,-0.1467125,-0.0188375
1680000856708,1180845062949939,-0.113575,-0.1535875,-0.0169125
1680000856710,1180845065452098,-0.1175625,-0.1617,-0.0127875
1680000856714,1180845067954021,-0.1166,-0.1687125,-0.0099
1680000856716,1180845070456098,-0.1166,-0.174625,-0.0048125
1680000856718,1180845072958252,-0.1175625,-0.1816375,-0.0059125
1680000856722,1180845075460395,-0.1166,-0.1876875,-0.0048125
1680000856724,1180845077962318,-0.1145375,-0.1865875,-0.0059125
1680000856727,1180845080464472,-0.1145375,-0.1956625,-0.0088
1680000856731,1180845082966549,-0.1166,-0.1986875,-0.0108624995
1680000856731,1180845085468472,-0.1175625,-0.1926375,-0.0127875
1680000856733,1180845087970545,-0.1145375,-0.1876875,-0.01485
1680000856736,1180845090472776,-0.1095875,-0.1816375,-0.0169125
1680000856739,1180845092974853,-0.1095875,-0.1786125,-0.0198
1680000856741,1180845095476776,-0.108625,-0.1727,-0.0209
1680000856743,1180845097978934,-0.102575,-0.1626625,-0.0268125
1680000856747,1180845100481011,-0.1016125,-0.1486375,-0.0279125
1680000856748,1180845102982934,-0.09955,-0.1346125,-0.0319
1680000856750,1180845105485088,-0.0946,-0.1186625,-0.0358875
1680000856753,1180845107987242,-0.0946,-0.1076625,-0.0389125
1680000856756,1180845110489395,-0.091575,-0.093637496,-0.036849998
1680000856760,1180845112991472,-0.08965,-0.081675,-0.0408375
1680000856761,1180845115493395,-0.0875875,-0.0697125,-0.0418
1680000856766,1180845117995444,-0.0836,-0.0627,-0.0438625
1680000856767,1180845120497598,-0.0815375,-0.053625,-0.0488125
1680000856768,1180845122999752,-0.07755,-0.045649998,-0.0499125
1680000856771,1180845125501675,-0.075625,-0.042625,-0.050875
1680000856773,1180845128003829,-0.0735625,-0.0325875,-0.0539
1680000856778,1180845130505882,-0.075625,-0.0297,-0.0539
1680000856779,1180845133007805,-0.0716375,-0.0276375,-0.0539
1680000856780,1180845135509959,-0.069575,-0.026675,-0.050875
1680000856783,1180845138012036,-0.0705375,-0.0246125,-0.0518375
1680000856789,1180845140514233,-0.0686125,-0.02365,-0.050875
1680000856790,1180845143016310,-0.06765,-0.0196625,-0.047849998
1680000856791,1180845145518233,-0.0625625,-0.026675,-0.0457875
1680000856793,1180845148020386,-0.0636625,-0.031625,-0.0418
1680000856800,1180845150522473,-0.0636625,-0.0325875,-0.036849998
1680000856800,1180845153024396,-0.0625625,-0.0367125,-0.0358875
1680000856802,1180845155526473,-0.0616,-0.0477125,-0.0328625
1680000856804,1180845158028704,-0.0636625,-0.0466125,-0.0298375
1680000856807,1180845160530781,-0.056649998,-0.053625,-0.028875
1680000856809,1180845163032708,-0.0576125,-0.059675,-0.0328625
1680000856810,1180845165534862,-0.0545875,-0.0636625,-0.0298375
1680000856813,1180845168036939,-0.05555,-0.070675,-0.0248875
1680000856816,1180845170538862,-0.05555,-0.075625,-0.0237875
1680000856819,1180845173041242,-0.053625,-0.081675,-0.0218625
1680000856822,1180845175543165,-0.0515625,-0.0906125,-0.017875
1680000856823,1180845178045319,-0.0526625,-0.097625,-0.0209
1680000856827,1180845180547396,-0.0515625,-0.1027125,-0.0198
1680000856828,1180845183049319,-0.0515625,-0.1095875,-0.0158125
1680000856830,1180845185551417,-0.0506,-0.1095875,-0.0188375
1680000856836,1180845188053570,-0.0485375,-0.11165,-0.0188375
1680000856839,1180845190555724,-0.0466125,-0.117699996,-0.0209
1680000856840,1180845193057647,-0.0466125,-0.1247125,-0.017875
1680000856841,1180845195559805,-0.045649998,-0.1276,-0.0198
1680000856843,1180845198061882,-0.042625,-0.1357125,-0.0218625
1680000856847,1180845200563805,-0.045649998,-0.1346125,-0.022824999
1680000856849,1180845203065959,-0.04455,-0.1397,-0.0198
1680000856851,1180845205568036,-0.042625,-0.147675,-0.0198
1680000856853,1180845208070262,-0.042625,-0.1456125,-0.0188375
1680000856856,1180845210572339,-0.0416625,-0.147675,-0.0209
1680000856859,1180845213074262,-0.0386375,-0.1486375,-0.017875
1680000856861,1180845215576416,-0.0396,-0.147675,-0.0127875
1680000856863,1180845218078484,-0.0396,-0.147675,-0.0088
1680000856868,1180845220580407,-0.0356125,-0.1467125,-0.0108624995
1680000856870,1180845223082561,-0.036575,-0.14465,-0.006875
1680000856873,1180845225584714,-0.03355,-0.1436875,-0.006875
1680000856875,1180845228086791,-0.03355,-0.1357125,-0.0088
1680000856877,1180845230588714,-0.0306625,-0.13365,-0.0078375
1680000856879,1180845233090868,-0.03355,-0.1276,-0.0078375
1680000856881,1180845235592945,-0.0295625,-0.1247125,-0.0108624995
1680000856883,1180845238094853,-0.0286,-0.1247125,-0.0127875
1680000856886,1180845240597238,-0.0286,-0.1186625,-0.0127875
1680000856889,1180845243099161,-0.0306625,-0.11165,-0.01485
1680000856891,1180845245601315,-0.0286,-0.108625,-0.01485
1680000856893,1180845248103407,-0.0265375,-0.104637496,-0.0169125
1680000856896,1180845250605330,-0.0265375,-0.0985875,-0.0169125
1680000856899,1180845253107484,-0.0276375,-0.0985875,-0.0127875
1680000856901,1180845255609561,-0.025575,-0.0985875,-0.011825
1680000856903,1180845258111714,-0.0246125,-0.097625,-0.011825
1680000856907,1180845260613628,-0.025575,-0.0966625,-0.0099
1680000856911,1180845263115781,-0.0265375,-0.092675,-0.011825
1680000856912,1180845265617858,-0.0265375,-0.0917125,-0.0108624995
1680000856914,1180845268119795,-0.0265375,-0.0917125,-0.00385
1680000856917,1180845270621949,-0.0295625,-0.0875875,-0.0048125
1680000856919,1180845273124103,-0.0286,-0.0856625,-0.0059125
1680000856922,1180845275626180,-0.0286,-0.0856625,-0.0078375
1680000856923,1180845278128334,-0.031625,-0.0847,-0.0048125
1680000856926,1180845280630243,-0.03355,-0.0847,-0.00385
1680000856928,1180845283132397,-0.0375375,-0.081675,-0.0028875
1680000856930,1180845285634474,-0.0386375,-0.075625,-0.0078375
1680000856932,1180845288136397,-0.0375375,-0.0776875,-0.0078375
1680000856936,1180845290638584,-0.0416625,-0.0776875,-0.0078375
1680000856939,1180845293140738,-0.042625,-0.0716375,-0.0088
1680000856940,1180845295642814,-0.042625,-0.0686125,-0.0088
1680000856943,1180845298144738,-0.0435875,-0.0616,-0.0099
1680000856948,1180845300646925,-0.0405625,-0.0545875,-0.0188375
1680000856950,1180845303149079,-0.0405625,-0.0435875,-0.022824999
1680000856952,1180845305651156,-0.0386375,-0.0336875,-0.0237875
1680000856953,1180845308153079,-0.0356125,-0.02365,-0.02585
1680000856957,1180845310655233,-0.03355,-0.0166375,-0.0298375
1680000856958,1180845313157343,-0.03355,-0.01265,-0.0319
1680000856961,1180845315659266,-0.0306625,-0.0037125,-0.0347875
1680000856964,1180845318161651,-0.031625,0.001375,-0.036849998
1680000856967,1180845320663574,-0.0295625,0.006325,-0.0378125
1680000856970,1180845323165647,-0.0286,0.0133375,-0.0378125
1680000856972,1180845325667570,-0.031625,0.0163625,-0.0418
1680000856973,1180845328169724,-0.0295625,0.0143,-0.0438625
1680000856977,1180845330671878,-0.0276375,0.0143,-0.044825
1680000856979,1180845333173963,-0.0306625,0.0193875,-0.0488125
1680000856981,1180845335676117,-0.0295625,0.0154,-0.047849998
1680000856985,1180845338178040,-0.0295625,0.012375,-0.0499125
1680000856988,1180845340680194,-0.0306625,0.0133375,-0.0488125
1680000856990,1180845343182271,-0.031625,0.0103124995,-0.0488125
1680000856991,1180845345684194,-0.03355,0.0044,-0.0429
1680000856994,1180845348186348,-0.0356125,4.125E-4,-0.0418
1680000856997,1180845350688502,-0.0386375,-0.0037125,-0.0408375
1680000856998,1180845353190579,-0.036575,-0.0086624995,-0.0418
1680000857001,1180845355692727,-0.036575,-0.014712499,-0.036849998
1680000857003,1180845358194650,-0.0356125,-0.0215875,-0.0328625
1680000857007,1180845360696727,-0.0375375,-0.0297,-0.0328625
1680000857008,1180845363198650,-0.0396,-0.0356125,-0.028875
1680000857010,1180845365701039,-0.0386375,-0.042625,-0.0298375
1680000857013,1180845368202963,-0.0396,-0.0416625,-0.0298375
1680000857017,1180845370705116,-0.0405625,-0.0477125,-0.02585
1680000857019,1180845373207193,-0.0396,-0.056649998,-0.0248875
1680000857022,1180845375709121,-0.0396,-0.059675,-0.0237875
1680000857024,1180845378211275,-0.042625,-0.0636625,-0.022824999
1680000857027,1180845380713352,-0.0435875,-0.0686125,-0.0198
1680000857029,1180845383215506,-0.042625,-0.06765,-0.01485
1680000857031,1180845385717660,-0.04455,-0.075625,-0.0127875
1680000857034,1180845388219607,-0.045649998,-0.0765875,-0.0078375
1680000857038,1180845390721684,-0.04455,-0.0746625,-0.00385
1680000857039,1180845393223838,-0.0435875,-0.081675,-0.0028875
1680000857040,1180845395725761,-0.0485375,-0.0875875,0.0022
1680000857043,1180845398227838,-0.04455,-0.0847,0.0061875
1680000857047,1180845400729987,-0.047575,-0.0847,0.0061875
1680000857048,1180845403232140,-0.0466125,-0.086625,0.0092124995
1680000857051,1180845405734064,-0.045649998,-0.0875875,0.0081124995
1680000857053,1180845408236217,-0.047575,-0.0847,0.010175
1680000857057,1180845410738309,-0.042625,-0.081675,0.0121
1680000857062,1180845413240232,-0.042625,-0.075625,0.0081124995
1680000857063,1180845415742617,-0.0435875,-0.0746625,0.00715
1680000857064,1180845418244540,-0.0435875,-0.06765,0.0031625
1680000857067,1180845420746602,-0.042625,-0.0587125,1.375E-4
1680000857071,1180845423248756,-0.0405625,-0.0526625,1.375E-4
1680000857072,1180845425750679,-0.0386375,-0.0435875,-0.0017875
1680000857074,1180845428252756,-0.0405625,-0.0367125,-0.00385
1680000857078,1180845430754679,-0.0416625,-0.031625,-0.0048125
1680000857079,1180845433257064,-0.0386375,-0.0257125,-0.0017875
1680000857081,1180845435758987,-0.0356125,-0.0176,-0.0028875
1680000857083,1180845438261064,-0.0356125,-0.0166375,-0.0028875
1680000857088,1180845440763217,-0.031625,-0.0116875,0.0011
1680000857088,1180845443265141,-0.0306625,-0.0116875,0.0022
1680000857091,1180845445767294,-0.0306625,-0.0105875,1.375E-4
1680000857093,1180845448269371,-0.03355,-0.0077,0.0022
1680000857098,1180845450771525,-0.034649998,-0.013612499,1.375E-4
1680000857101,1180845453273694,-0.03355,-0.015675,0.0031625
1680000857103,1180845455775617,-0.0306625,-0.013612499,0.0031625
1680000857106,1180845458277694,-0.0306625,-0.014712499,0.004125
1680000857108,1180845460779617,-0.0295625,-0.0166375,0.004125
1680000857109,1180845463281771,-0.0286,-0.0166375,1.375E-4
1680000857111,1180845465783910,-0.0286,-0.0215875,0.004125
1680000857113,1180845468286064,-0.0276375,-0.0257125,0.0050875
1680000857117,1180845470788141,-0.0295625,-0.0306625,0.0011
1680000857119,1180845473290064,-0.0306625,-0.0356125,0.0050875
1680000857122,1180845475792213,-0.0265375,-0.0407,0.0061875
1680000857123,1180845478294290,-0.0276375,-0.0477125,0.0050875
1680000857126,1180845480796213,-0.0295625,-0.0576125,0.0031625
1680000857128,1180845483298597,-0.0295625,-0.0627,0.0031625
1680000857130,1180845485800520,-0.0306625,-0.0716375,0.0050875
1680000857135,1180845488302593,-0.03355,-0.0765875,0.004125
1680000857137,1180845490804516,-0.034649998,-0.0807125,0.0022
1680000857140,1180845493306670,-0.0356125,-0.08965,-0.0017875
1680000857142,1180845495808824,-0.031625,-0.092675,-0.0048125
1680000857143,1180845498310901,-0.03355,-0.0966625,-0.0028875
1680000857147,1180845500812814,-0.036575,-0.0966625,-0.0017875
1680000857148,1180845503314968,-0.0375375,-0.0996875,-0.00385
1680000857151,1180845505817045,-0.0386375,-0.0996875,-0.00385
1680000857153,1180845508319199,-0.0405625,-0.0996875,-0.0017875
1680000857157,1180845510821338,-0.0375375,-0.0946,-0.0028875
1680000857158,1180845513323261,-0.0396,-0.092675,-0.0059125
1680000857162,1180845515825414,-0.0386375,-0.08965,-0.0017875
1680000857163,1180845518327491,-0.0396,-0.08965,-8.25E-4
1680000857166,1180845520829414,-0.0416625,-0.0856625,-0.0017875
1680000857169,1180845523331568,-0.0396,-0.081675,-0.0017875
1680000857175,1180845525833722,-0.0375375,-0.0776875,0.0031625
1680000857176,1180845528335876,-0.0375375,-0.07865,0.0022
1680000857177,1180845530837722,-0.036575,-0.0807125,1.375E-4
1680000857181,1180845533339876,-0.0375375,-0.07865,0.0022
1680000857181,1180845535841953,-0.0416625,-0.0796125,1.375E-4
1680000857184,1180845538344107,-0.0405625,-0.0796125,0.0022
1680000857187,1180845540846030,-0.0386375,-0.07865,1.375E-4
1680000857189,1180845543348184,-0.0416625,-0.0776875,0.0022
1680000857191,1180845545850338,-0.0466125,-0.0796125,0.0011
1680000857193,1180845548352415,-0.04455,-0.0796125,-0.0028875
1680000857196,1180845550854338,-0.042625,-0.07865,-0.0017875
1680000857198,1180845553356491,-0.042625,-0.0765875,-0.0028875
1680000857201,1180845555858564,-0.04455,-0.0746625,-0.0017875
1680000857205,1180845558360487,-0.045649998,-0.073699996,-0.0028875
1680000857207,1180845560862872,-0.045649998,-0.073699996,-0.0017875
1680000857210,1180845563364786,-0.04455,-0.06765,-0.0028875
1680000857212,1180845565866863,-0.0485375,-0.064625,-0.0028875
1680000857213,1180845568368786,-0.0526625,-0.0606375,-0.0017875
1680000857216,1180845570870940,-0.0526625,-0.0606375,-8.25E-4
1680000857219,1180845573373017,-0.0466125,-0.056649998,-0.0017875
1680000857221,1180845575875248,-0.0466125,-0.048675,-0.0059125
1680000857224,1180845578377325,-0.045649998,-0.0416625,-0.00385
1680000857228,1180845580879248,-0.0485375,-0.0386375,-0.0028875
1680000857229,1180845583381402,-0.047575,-0.0306625,-0.0059125
1680000857231,1180845585883479,-0.0466125,-0.02365,-0.0059125
1680000857234,1180845588385406,-0.04455,-0.014712499,-0.00385
1680000857237,1180845590887559,-0.0416625,-0.009625,-0.0048125
1680000857239,1180845593389713,-0.0386375,-0.01265,-0.0099
1680000857241,1180845595891790,-0.0396,-0.0066,-0.0088
1680000857244,1180845598393732,-0.0396,0.001375,-0.0048125
1680000857248,1180845600895886,-0.0405625,0.0044,-0.006875
1680000857250,1180845603397963,-0.0386375,0.0033,-0.0099
1680000857254,1180845605899886,-0.0386375,0.0044,-0.0108624995
1680000857259,1180845608402271,-0.036575,0.0033,-0.0078375
1680000857259,1180845610904194,-0.0375375,-6.875E-4,-0.0059125
1680000857260,1180845613406348,-0.0386375,0.001375,-0.006875
1680000857261,1180845615908425,-0.0416625,-0.0037125,-0.0088
1680000857263,1180845618410358,-0.0416625,-0.00165,-0.0078375
1680000857267,1180845620912512,-0.0416625,-0.004675,-0.0088
1680000857268,1180845623414589,-0.0416625,-0.009625,-0.0088
1680000857271,1180845625916742,-0.0396,-0.013612499,-0.0059125
1680000857273,1180845628418891,-0.0386375,-0.013612499,-0.0099
1680000857277,1180845630920814,-0.0375375,-0.0187,-0.006875
1680000857278,1180845633422891,-0.0356125,-0.0215875,-0.0059125
1680000857280,1180845635924814,-0.034649998,-0.0276375,-0.0059125
1680000857284,1180845638426935,-0.0356125,-0.0286,-0.0108624995
1680000857287,1180845640929012,-0.0375375,-0.031625,-0.0078375
1680000857289,1180845643431243,-0.0386375,-0.0367125,-0.006875
1680000857291,1180845645933320,-0.036575,-0.0416625,-0.006875
1680000857293,1180845648435243,-0.0386375,-0.0416625,-0.01485
1680000857296,1180845650937397,-0.0386375,-0.0506,-0.0078375
1680000857299,1180845653439474,-0.0386375,-0.0517,-0.011825
1680000857301,1180845655941397,-0.0386375,-0.0545875,-0.0127875
1680000857303,1180845658443551,-0.0405625,-0.0587125,-0.0127875
1680000857307,1180845660945709,-0.0405625,-0.0666875,-0.017875
1680000857308,1180845663447786,-0.042625,-0.073699996,-0.0158125
1680000857310,1180845665949940,-0.04455,-0.075625,-0.0169125
1680000857313,1180845668451863,-0.042625,-0.0746625,-0.0169125
1680000857317,1180845670953953,-0.0435875,-0.07865,-0.017875
1680000857322,1180845673455876,-0.045649998,-0.0796125,-0.017875
1680000857323,1180845675958261,-0.0466125,-0.081675,-0.0198
1680000857324,1180845678460184,-0.0466125,-0.0826375,-0.0218625
1680000857327,1180845680962353,-0.0485375,-0.0807125,-0.0198
1680000857329,1180845683464430,-0.047575,-0.0746625,-0.0198
1680000857333,1180845685966353,-0.0466125,-0.070675,-0.0237875
1680000857334,1180845688468507,-0.0466125,-0.0697125,-0.022824999
1680000857339,1180845690970560,-0.045649998,-0.0686125,-0.022824999
1680000857340,1180845693472714,-0.045649998,-0.0636625,-0.0248875
1680000857341,1180845695974637,-0.0466125,-0.0587125,-0.0248875
1680000857344,1180845698476714,-0.045649998,-0.059675,-0.0248875
1680000857347,1180845700978867,-0.04455,-0.0545875,-0.0237875
1680000857350,1180845703480987,-0.047575,-0.0496375,-0.0218625
1680000857351,1180845705982910,-0.04455,-0.045649998,-0.0218625
1680000857356,1180845708485064,-0.047575,-0.0496375,-0.02585
1680000857357,1180845710987141,-0.045649998,-0.0506,-0.0248875
1680000857360,1180845713489054,-0.0485375,-0.0477125,-0.0279125
1680000857362,1180845715991208,-0.0485375,-0.0477125,-0.028875
1680000857364,1180845718493362,-0.045649998,-0.0435875,-0.028875
1680000857367,1180845720995439,-0.045649998,-0.0435875,-0.0347875
1680000857369,1180845723497593,-0.0435875,-0.045649998,-0.0378125
1680000857373,1180845725999502,-0.0466125,-0.045649998,-0.0358875
1680000857374,1180845728501656,-0.045649998,-0.0416625,-0.0358875
1680000857377,1180845731003502,-0.0485375,-0.0416625,-0.0358875
1680000857380,1180845733505656,-0.047575,-0.045649998,-0.0347875
1680000857381,1180845736007810,-0.0466125,-0.048675,-0.0347875
1680000857386,1180845738509929,-0.047575,-0.0496375,-0.0347875
1680000857387,1180845741012006,-0.0466125,-0.048675,-0.033825
1680000857389,1180845743513929,-0.045649998,-0.053625,-0.0328625
1680000857391,1180845746016083,-0.0485375,-0.056649998,-0.0347875
1680000857393,1180845748518160,-0.0485375,-0.0587125,-0.033825
1680000857398,1180845751020088,-0.0515625,-0.059675,-0.0319
1680000857400,1180845753522473,-0.0526625,-0.0655875,-0.0279125
1680000857402,1180845756024396,-0.0526625,-0.0697125,-0.022824999
1680000857405,1180845758526473,-0.053625,-0.075625,-0.0209
1680000857407,1180845761028376,-0.058575,-0.0796125,-0.017875
1680000857409,1180845763530530,-0.0616,-0.0765875,-0.017875
1680000857411,1180845766032607,-0.064625,-0.0776875,-0.0198
1680000857415,1180845768534838,-0.0636625,-0.0807125,-0.0198
1680000857417,1180845771036900,-0.0616,-0.0796125,-0.0169125
1680000857422,1180845773538824,-0.0636625,-0.0776875,-0.0198
1680000857425,1180845776040977,-0.0625625,-0.0796125,-0.022824999
1680000857426,1180845778543054,-0.0616,-0.0746625,-0.022824999
1680000857427,1180845781044991,-0.064625,-0.0697125,-0.0209
1680000857429,1180845783547145,-0.06765,-0.0655875,-0.0209
1680000857431,1180845786049299,-0.064625,-0.064625,-0.0209
1680000857438,1180845788551376,-0.0616,-0.0616,-0.0198
1680000857440,1180845791053290,-0.0625625,-0.0587125,-0.011825
1680000857441,1180845793555444,-0.064625,-0.0627,-0.0048125
1680000857442,1180845796057521,-0.064625,-0.0627,0.0011
1680000857444,1180845798559444,-0.06765,-0.0666875,0.010175
1680000857447,1180845801061598,-0.069575,-0.0627,0.0160875
1680000857448,1180845803563742,-0.06765,-0.0616,0.0171875
1680000857451,1180845806065896,-0.0716375,-0.0636625,0.0160875
1680000857454,1180845808567972,-0.0705375,-0.064625,0.0171875
1680000857458,1180845811069896,-0.0716375,-0.0666875,0.0171875
1680000857459,1180845813572054,-0.0746625,-0.0627,0.0171875
1680000857461,1180845816074131,-0.0705375,-0.0606375,0.014162499
1680000857464,1180845818576285,-0.0705375,-0.059675,0.0121
1680000857469,1180845821078439,-0.075625,-0.056649998,0.0081124995
1680000857471,1180845823580376,-0.0726,-0.0466125,0.0022
1680000857474,1180845826082453,-0.0716375,-0.0416625,-0.0028875
1680000857476,1180845831084376,-0.0735625,-0.0386375,-0.0059125
1680000857480,1180845832385744,-0.0746625,-0.034649998,-0.0059125
1680000857480,1180845833693223,-0.0746625,-0.0276375,-0.006875
1680000857482,1180845836090752,-0.0765875,-0.0246125,-0.0028875
1680000857484,1180845838592906,-0.0716375,-0.0215875,0.0050875
1680000857488,1180845841094829,-0.0735625,-0.0196625,0.010175
1680000857490,1180845843596983,-0.075625,-0.0116875,0.00715
1680000857491,1180845846099063,-0.07755,-0.014712499,0.00715
1680000857493,1180845848600987,-0.07865,-0.0166375,0.0092124995
1680000857499,1180845851103371,-0.0765875,-0.0196625,0.015125
1680000857500,1180845853605294,-0.0796125,-0.0166375,0.0121
1680000857502,1180845856107371,-0.0796125,-0.0176,0.014162499
1680000857505,1180845858609525,-0.0836,-0.02365,0.0171875
1680000857507,1180845861111448,-0.0815375,-0.0257125,0.0231
1680000857510,1180845863613525,-0.0856625,-0.0276375,0.0221375
1680000857512,1180845866115453,-0.0875875,-0.0336875,0.015125
1680000857514,1180845868617838,-0.086625,-0.0356125,0.015125
1680000857517,1180845871119761,-0.086625,-0.0386375,0.0191125
1680000857519,1180845873621838,-0.08855,-0.0435875,0.0231
1680000857522,1180845876123992,-0.0925375,-0.0517,0.0270875
1680000857524,1180845878625950,-0.091575,-0.0636625,0.02915
1680000857527,1180845881128104,-0.0946,-0.0655875,0.0312125
1680000857529,1180845883629950,-0.097625,-0.070675,0.0312125
1680000857531,1180845886132334,-0.09955,-0.0765875,0.0281875
1680000857535,1180845888634271,-0.102575,-0.0836,0.0281875
1680000857538,1180845891136425,-0.09955,-0.0917125,0.026124999
1680000857539,1180845893638502,-0.102575,-0.08965,0.0251625
1680000857542,1180845896140425,-0.1056,-0.0826375,0.026124999
1680000857544,1180845898642584,-0.1016125,-0.092675,0.02915
1680000857548,1180845901144738,-0.1035375,-0.103675,0.0270875
1680000857550,1180845903646815,-0.1065625,-0.1067,0.0270875
1680000857552,1180845906148969,-0.1095875,-0.113575,0.026124999
1680000857554,1180845908650906,-0.11055,-0.119625,0.0281875
1680000857557,1180845911152983,-0.1126125,-0.1236125,0.0281875
1680000857559,1180845913655214,-0.1115125,-0.1266375,0.0301125
1680000857561,1180845916157290,-0.113575,-0.1315875,0.0301125
1680000857565,1180845918659205,-0.113575,-0.1406625,0.0312125
1680000857567,1180845921161281,-0.1166,-0.1425875,0.032175
1680000857569,1180845923663435,-0.118525,-0.1456125,0.0301125
1680000857572,1180845926165358,-0.1175625,-0.147675,0.032175
1680000857573,1180845928667512,-0.1175625,-0.1566125,0.032175
1680000857578,1180845931169690,-0.12155,-0.158675,0.02915
1680000857580,1180845933671767,-0.1205875,-0.1626625,0.0312125
1680000857581,1180845936173690,-0.1225125,-0.1676125,0.0301125
1680000857585,1180845938675844,-0.124575,-0.1736625,0.0341
1680000857588,1180845941177935,-0.1255375,-0.1766875,0.0341
1680000857590,1180845943680089,-0.124575,-0.1755875,0.0341
1680000857591,1180845946182243,-0.1255375,-0.17765,0.0361625
1680000857594,1180845948684166,-0.129525,-0.1766875,0.0331375
1680000857596,1180845951186257,-0.1315875,-0.1816375,0.032175
1680000857599,1180845953688410,-0.1346125,-0.185625,0.037125
1680000857601,1180845956190334,-0.13653749,-0.1865875,0.0341
1680000857603,1180845958692410,-0.13653749,-0.1896125,0.037125
1680000857607,1180845961194636,-0.135575,-0.19167499,0.0361625
1680000857609,1180845963696713,-0.13859999,-0.1876875,0.0361625
1680000857611,1180845966198636,-0.140525,-0.1926375,0.037125
1680000857613,1180845968700790,-0.13859999,-0.1936,0.037125
1680000857618,1180845971202867,-0.13859999,-0.1926375,0.0391875
1680000857620,1180845973705021,-0.13653749,-0.190575,0.04015
1680000857623,1180845976206944,-0.1376375,-0.1876875,0.04015
1680000857625,1180845978709098,-0.13653749,-0.1837,0.0411125
1680000857627,1180845981211266,-0.13653749,-0.1846625,0.043175
1680000857629,1180845983713112,-0.1376375,-0.1816375,0.0471625
1680000857631,1180845986215266,-0.141625,-0.17765,0.0471625
1680000857634,1180845988717343,-0.141625,-0.1727,0.0471625
1680000857638,1180845991219496,-0.140525,-0.17765,0.048125
1680000857640,1180845993721406,-0.141625,-0.179575,0.0501875
1680000857641,1180845996223559,-0.1445125,-0.1837,0.0521125
1680000857644,1180845998725713,-0.1456125,-0.1837,0.0521125
1680000857649,1180846001227804,-0.1445125,-0.19167499,0.054175
1680000857650,1180846003729727,-0.1475375,-0.1947,0.0521125
1680000857652,1180846006231881,-0.1475375,-0.201575,0.054175
1680000857654,1180846008733958,-0.151525,-0.2085875,0.059125
1680000857658,1180846011236189,-0.152625,-0.21367499,0.0600875
1680000857661,1180846013738025,-0.1535875,-0.2116125,0.0611875
1680000857663,1180846016240179,-0.1535875,-0.2167,0.0631125
1680000857665,1180846018742256,-0.1475375,-0.2226125,0.065175
1680000857668,1180846021244410,-0.1475375,-0.2146375,0.0671
1680000857670,1180846023746333,-0.1505625,-0.2146375,0.0741125
1680000857672,1180846026248383,-0.1505625,-0.2167,0.0752125
1680000857675,1180846028750613,-0.1496,-0.218625,0.0752125
1680000857679,1180846031252690,-0.1496,-0.2146375,0.0771375
1680000857681,1180846033754613,-0.1445125,-0.2146375,0.078099996
1680000857683,1180846036256767,-0.1456125,-0.2176625,0.076175
1680000857684,1180846038758863,-0.1505625,-0.218625,0.076175
1680000857688,1180846041260786,-0.1505625,-0.2146375,0.0752125
1680000857690,1180846043762863,-0.152625,-0.2116125,0.0771375
1680000857691,1180846046265094,-0.152625,-0.2085875,0.0771375
1680000857694,1180846048767160,-0.1496,-0.207625,0.0771375
1680000857699,1180846051269083,-0.151525,-0.201575,0.0792
1680000857701,1180846053771237,-0.146575,-0.1986875,0.0831875
1680000857703,1180846056297929,-0.1505625,-0.1956625,0.0820875
1680000857705,1180846058775463,-0.146575,-0.190575,0.0820875
1680000857708,1180846061277617,-0.146575,-0.185625,0.0862125
1680000857709,1180846063779540,-0.1456125,-0.1837,0.0891
1680000857711,1180846066281693,-0.151525,-0.1706375,0.0941875
1680000857714,1180846068783770,-0.1505625,-0.1606,0.0991375
1680000857717,1180846071285693,-0.1496,-0.1507,0.1021625
1680000857719,1180846073787847,-0.1456125,-0.136675,0.10615
1680000857722,1180846076289924,-0.1456125,-0.1287,0.1082125
1680000857724,1180846078792078,-0.1505625,-0.124575,0.1071125
1680000857727,1180846081294011,-0.1456125,-0.113575,0.10615
1680000857729,1180846083796165,-0.14355,-0.1016125,0.109175
1680000857731,1180846086298242,-0.14355,-0.0996875,0.1122
1680000857735,1180846088800406,-0.1496,-0.08965,0.1131625
1680000857739,1180846091302329,-0.146575,-0.0796125,0.114125
1680000857740,1180846093804406,-0.1496,-0.070675,0.114125
1680000857742,1180846096306637,-0.1505625,-0.0636625,0.1150875
1680000857744,1180846098808714,-0.146575,-0.064625,0.1211375
1680000857747,1180846101310627,-0.1496,-0.056649998,0.1260875
1680000857749,1180846103812704,-0.1475375,-0.045649998,0.1232
1680000857751,1180846106314857,-0.146575,-0.045649998,0.125125
1680000857754,1180846108816780,-0.1456125,-0.0407,0.1291125
1680000857757,1180846111318934,-0.146575,-0.0297,0.131175
1680000857758,1180846113821011,-0.1505625,-0.025575,0.1331
1680000857761,1180846116323165,-0.1496,-0.02365,0.1351625
1680000857764,1180846118825088,-0.1475375,-0.0166375,0.1370875
1680000857767,1180846121327228,-0.1505625,-0.01265,0.1370875
1680000857769,1180846123829382,-0.1535875,-0.0066,0.1370875
1680000857773,1180846126331459,-0.1505625,-0.0066,0.1401125
1680000857775,1180846128833382,-0.151525,-0.003575,0.1401125
1680000857778,1180846131335540,-0.151525,-6.875E-4,0.1401125
1680000857780,1180846133837617,-0.1535875,-0.00165,0.1412125
1680000857781,1180846136339540,-0.1535875,0.0023375,0.1381875
1680000857783,1180846138841694,-0.15455,0.0044,0.1401125
1680000857788,1180846141343847,-0.1566125,0.0033,0.1401125
1680000857789,1180846143845934,-0.1555125,0.0053625,0.142175
1680000857791,1180846146348088,-0.1555125,0.0083875,0.1401125
1680000857794,1180846148850011,-0.157575,0.0044,0.1412125
1680000857796,1180846151352088,-0.157575,0.0033,0.1412125
1680000857798,1180846153854242,-0.162525,-0.0026125,0.1412125
1680000857801,1180846156356405,-0.1645875,-6.875E-4,0.142175
1680000857804,1180846158858328,-0.1676125,-0.003575,0.147125
1680000857807,1180846161360482,-0.1706375,-0.0105875,0.1522125
1680000857810,1180846163862579,-0.1716,-0.0116875,0.15413749
1680000857812,1180846166364502,-0.174625,-0.0086624995,0.1601875
1680000857814,1180846168866579,-0.17655,-0.0105875,0.16115
1680000857818,1180846171368810,-0.18053749,-0.009625,0.1590875
1680000857819,1180846173870887,-0.1775125,-0.003575,0.16115
1680000857823,1180846176372790,-0.179575,-6.875E-4,0.158125
1680000857824,1180846178874943,-0.18053749,-6.875E-4,0.1571625
1680000857827,1180846181377020,-0.184525,0.0044,0.1551
1680000857829,1180846183879174,-0.179575,0.0103124995,0.1551
1680000857832,1180846186381112,-0.179575,0.0103124995,0.15413749
1680000857833,1180846188883266,-0.18259999,0.0053625,0.1590875
1680000857837,1180846191385420,-0.179575,0.007425,0.1590875
1680000857839,1180846193887497,-0.18259999,0.0133375,0.15619999
1680000857841,1180846196389420,-0.185625,0.0143,0.15619999
1680000857845,1180846198891521,-0.184525,0.0163625,0.15015
1680000857849,1180846201393675,-0.18259999,0.0163625,0.1431375
1680000857850,1180846203895829,-0.18259999,0.02035,0.1401125
1680000857852,1180846206397752,-0.1835625,0.0243375,0.13915
1680000857854,1180846208899906,-0.18259999,0.023375,0.13915
1680000857858,1180846211401968,-0.18053749,0.0273625,0.1331
1680000857859,1180846213903891,-0.179575,0.0224125,0.1302125
1680000857861,1180846216406044,-0.18053749,0.017324999,0.12815
1680000857863,1180846218908121,-0.18259999,0.0143,0.13213749
1680000857869,1180846221410352,-0.18259999,0.0154,0.1302125
1680000857871,1180846223912429,-0.184525,0.006325,0.1291125
1680000857872,1180846226414352,-0.184525,-6.875E-4,0.131175
1680000857874,1180846228916429,-0.18755,-0.0026125,0.1331
1680000857879,1180846231418598,-0.184525,-0.0116875,0.12815
1680000857882,1180846233920521,-0.1786125,-0.020624999,0.12815
1680000857883,1180846236422598,-0.1775125,-0.0276375,0.1302125
1680000857885,1180846238924829,-0.1835625,-0.034649998,0.131175
1680000857889,1180846241426920,-0.18259999,-0.0407,0.1302125
1680000857889,1180846243928843,-0.18259999,-0.0526625,0.1291125
1680000857891,1180846246430997,-0.185625,-0.058575,0.1271875
1680000857893,1180846248933074,-0.1865875,-0.0616,0.1241625
1680000857897,1180846251434992,-0.18755,-0.0716375,0.120175
1680000857899,1180846253937376,-0.18755,-0.0686125,0.1192125
1680000857901,1180846256439299,-0.184525,-0.0716375,0.1192125
1680000857903,1180846258941376,-0.18053749,-0.081675,0.120175
1680000857907,1180846261443299,-0.1775125,-0.08965,0.11715
1680000857909,1180846263945448,-0.1786125,-0.091575,0.11715
1680000857911,1180846266447525,-0.179575,-0.091575,0.1161875
1680000857913,1180846268949679,-0.179575,-0.095699996,0.11715
1680000857917,1180846271451833,-0.179575,-0.092675,0.1161875
1680000857919,1180846273953737,-0.1775125,-0.08965,0.1161875
1680000857923,1180846276455891,-0.1786125,-0.0856625,0.114125
1680000857925,1180846278957968,-0.179575,-0.0826375,0.1111
1680000857928,1180846281459891,-0.1786125,-0.080575,0.1111
1680000857929,1180846283962045,-0.1775125,-0.0776875,0.1071125
1680000857932,1180846286464122,-0.1786125,-0.073699996,0.1021625
1680000857933,1180846288966275,-0.174625,-0.0776875,0.100099996
1680000857938,1180846291468199,-0.1665125,-0.080575,0.0961125
1680000857939,1180846293970352,-0.1676125,-0.0796125,0.0941875
1680000857941,1180846296472443,-0.168575,-0.0765875,0.0911625
1680000857945,1180846298974597,-0.1665125,-0.0746625,0.0881375
1680000857947,1180846301476520,-0.1665125,-0.0746625,0.0862125
1680000857949,1180846303978674,-0.1665125,-0.0716375,0.081125
1680000857953,1180846306480790,-0.162525,-0.06765,0.076175
1680000857955,1180846308982867,-0.1645875,-0.0627,0.0721875
1680000857957,1180846311484790,-0.163625,-0.0606375,0.0661375
1680000857962,1180846313986939,-0.163625,-0.053625,0.065175
1680000857963,1180846316489016,-0.163625,-0.048675,0.0600875
1680000857964,1180846318991170,-0.163625,-0.0435875,0.0572
1680000857969,1180846321493093,-0.162525,-0.042625,0.0532125
1680000857970,1180846323995170,-0.1606,-0.0446875,0.0462
1680000857972,1180846326497323,-0.1606,-0.0416625,0.0422125
1680000857974,1180846328999233,-0.15853749,-0.031625,0.0451
1680000857979,1180846331501617,-0.15455,-0.0286,0.048125
1680000857980,1180846334003540,-0.1566125,-0.0286,0.0521125
1680000857982,1180846336505617,-0.1475375,-0.02365,0.0532125
1680000857985,1180846339007732,-0.1475375,-0.0176,0.0532125
1680000857988,1180846341509655,-0.146575,-0.0116875,0.0532125
1680000857989,1180846344011732,-0.1445125,-0.009625,0.0532125
1680000857991,1180846346513886,-0.1445125,-0.0066,0.0451
1680000857997,1180846349016031,-0.14355,-0.0026125,0.0422125
1680000857999,1180846351517954,-0.13859999,-6.875E-4,0.0411125
1680000858000,1180846354020031,-0.13859999,0.0044,0.0380875
1680000858002,1180846356522185,-0.1346125,0.0033,0.0341
1680000858005,1180846359024108,-0.1285625,-0.00165,0.0391875
1680000858008,1180846361526262,-0.129525,-0.004675,0.0380875
1680000858009,1180846364028415,-0.1315875,-0.0066,0.037125
1680000858013,1180846366530492,-0.1315875,-0.0086624995,0.0361625
1680000858015,1180846369032646,-0.1346125,-0.003575,0.037125
1680000858018,1180846371534544,-0.1335125,-0.003575,0.032175
1680000858019,1180846374036621,-0.135575,-6.875E-4,0.0331375
1680000858022,1180846376538544,-0.1285625,-6.875E-4,0.0331375
1680000858023,1180846379040698,-0.1276,4.125E-4,0.032175
1680000858026,1180846381542867,-0.1255375,-6.875E-4,0.0312125
1680000858029,1180846384044944,-0.12155,-0.0077,0.032175
1680000858031,1180846386547098,-0.119625,-0.020624999,0.0331375
1680000858035,1180846389049021,-0.1175625,-0.025575,0.0391875
1680000858039,1180846391551098,-0.1145375,-0.031625,0.0380875
1680000858040,1180846394053252,-0.1115125,-0.048675,0.0331375
1680000858042,1180846396555175,-0.1126125,-0.0506,0.0301125
1680000858044,1180846399057559,-0.113575,-0.0506,0.026124999
1680000858047,1180846401559467,-0.1095875,-0.053625,0.021175
1680000858049,1180846404061544,-0.107525,-0.0576125,0.015125
1680000858054,1180846406563467,-0.1065625,-0.0506,0.0111375
1680000858056,1180846409065621,-0.1065625,-0.0466125,0.0050875
1680000858057,1180846411567698,-0.1016125,-0.047575,-8.25E-4
1680000858060,1180846414069852,-0.09955,-0.0435875,-0.006875
1680000858061,1180846416572006,-0.09955,-0.0356125,-0.0108624995
1680000858066,1180846419073929,-0.0955625,-0.0356125,-0.0108624995
1680000858068,1180846421576006,-0.0955625,-0.0336875,-0.011825
1680000858070,1180846424078151,-0.0906125,-0.0276375,-0.0127875
1680000858073,1180846426580074,-0.085525,-0.0306625,-0.0108624995
1680000858075,1180846429082151,-0.0815375,-0.0325875,-0.006875
1680000858078,1180846431584300,-0.0796125,-0.026675,-0.0059125
1680000858080,1180846434086453,-0.07755,-0.025575,-0.0048125
1680000858082,1180846436588377,-0.0785125,-0.026675,-0.006875
1680000858084,1180846439090453,-0.07755,-0.02365,-0.011825
1680000858088,1180846441592607,-0.0735625,-0.02365,-0.01485
1680000858089,1180846444094549,-0.0726,-0.015675,-0.0158125
1680000858092,1180846446596934,-0.0705375,-0.0086624995,-0.0169125
1680000858094,1180846449098857,-0.0675125,-0.0086624995,-0.0198
1680000858097,1180846451600934,-0.063525,-0.0077,-0.0188375
1680000858099,1180846454103083,-0.063525,-0.0077,-0.0188375
1680000858101,1180846456605006,-0.0595375,-0.0077,-0.0209
1680000858105,1180846459107083,-0.05555,-0.009625,-0.0209
1680000858107,1180846461609237,-0.0506,-0.01265,-0.0169125
1680000858111,1180846464111377,-0.0515625,-0.0196625,-0.0088
1680000858112,1180846466613300,-0.052525,-0.0187,-0.0078375
1680000858114,1180846469115377,-0.0485375,-0.015675,-0.0099
1680000858117,1180846471617530,-0.0455125,-0.0187,-0.0059125
1680000858119,1180846474119454,-0.0435875,-0.0116875,-0.006875
1680000858122,1180846476621554,-0.0435875,-0.009625,-0.0099
1680000858124,1180846479123708,-0.041525,-0.003575,-0.0059125
1680000858127,1180846481625862,-0.0386375,0.001375,-0.011825
1680000858129,1180846484128016,-0.0356125,0.0033,-0.011825
1680000858131,1180846486629948,-0.036575,0.0103124995,-0.011825
1680000858134,1180846489132025,-0.0345125,0.0163625,-0.0158125
1680000858138,1180846491634179,-0.0295625,0.017324999,-0.01485
1680000858140,1180846494136102,-0.0286,0.0253,-0.0158125
1680000858141,1180846496638256,-0.0276375,0.0303875,-0.017875
1680000858144,1180846499140348,-0.0265375,0.0353375,-0.0188375
1680000858148,1180846501642502,-0.0246125,0.039325,-0.0209
1680000858151,1180846504144425,-0.0185625,0.0473,-0.0188375
1680000858152,1180846506646511,-0.019524999,0.050325,-0.0218625
1680000858154,1180846509148665,-0.019524999,0.05335,-0.022824999
1680000858157,1180846511650588,-0.0155375,0.0554125,-0.0218625
1680000858159,1180846514152972,-0.0176,0.0583,-0.0188375
1680000858161,1180846516654895,-0.0155375,0.06435,-0.0169125
1680000858164,1180846519156992,-0.0155375,0.0653125,-0.0188375
1680000858167,1180846521658915,-0.014575,0.0653125,-0.0209
1680000858169,1180846524160992,-0.01155,0.06435,-0.022824999
1680000858172,1180846526663146,-0.009625,0.061325,-0.0248875
1680000858174,1180846529165285,-0.014575,0.0583,-0.0237875
1680000858177,1180846531667208,-0.014575,0.0573375,-0.0268125
1680000858180,1180846534169362,-0.008525,0.0523875,-0.0319
1680000858181,1180846536671439,-0.01155,0.050325,-0.0358875
1680000858186,1180846539173391,-0.01155,0.051425,-0.039875
1680000858188,1180846541675776,-0.0155375,0.0523875,-0.0408375
1680000858190,1180846544177699,-0.013612499,0.0523875,-0.0389125
1680000858192,1180846546679776,-0.014575,0.050325,-0.0389125
1680000858194,1180846549181929,-0.014575,0.05335,-0.0389125
1680000858197,1180846551683857,-0.0125124995,0.056375,-0.0328625
1680000858199,1180846554185934,-0.01155,0.0583,-0.0347875
1680000858201,1180846556688088,-0.01155,0.0603625,-0.0328625
1680000858205,1180846559190242,-0.0105875,0.0664125,-0.0358875
1680000858207,1180846561692160,-0.009625,0.0704,-0.0378125
1680000858209,1180846564194237,-0.0075625,0.073425,-0.0389125
1680000858212,1180846566696391,-0.0066,0.073425,-0.0378125
1680000858214,1180846569198314,-0.0056375,0.0763125,-0.0389125
1680000858218,1180846571700449,-0.0045375,0.0774125,-0.039875
1680000858220,1180846574202603,-0.003575,0.0763125,-0.0389125
1680000858223,1180846576704680,-0.0045375,0.073425,-0.0378125
1680000858225,1180846579206603,-0.0026125,0.073425,-0.0358875
1680000858230,1180846581708756,0.0034375,0.0713625,-0.0378125
1680000858232,1180846584210833,0.001375,0.072325,-0.0408375
1680000858234,1180846586712756,-0.0015125,0.069299996,-0.0358875
1680000858236,1180846589214909,0.001375,0.062425,-0.036849998
1680000858239,1180846591717063,0.0044,0.062425,-0.0378125
1680000858240,1180846594219174,0.0034375,0.0633875,-0.0358875
1680000858242,1180846596721328,0.001375,0.061325,-0.036849998
1680000858244,1180846599223251,4.125E-4,0.051425,-0.0358875
1680000858247,1180846601725328,0.001375,0.0493625,-0.0389125
1680000858249,1180846604227482,-0.0026125,0.0374,-0.0389125
1680000858251,1180846606729636,-0.0026125,0.03135,-0.0389125
1680000858255,1180846609231559,-0.003575,0.02035,-0.0389125
1680000858258,1180846611733636,-0.0056375,0.0143,-0.0389125
1680000858262,1180846614235771,-0.0056375,0.0053625,-0.036849998
1680000858263,1180846616737694,-0.0056375,4.125E-4,-0.028875
1680000858265,1180846619239848,-0.0045375,-0.0026125,-0.0218625
1680000858268,1180846621741925,-0.008525,-0.0026125,-0.0198
1680000858272,1180846624244078,-0.0125124995,-0.0105875,-0.0188375
1680000858273,1180846626746237,-0.0105875,-0.01265,-0.0169125
1680000858276,1180846629248160,-0.009625,-0.0176,-0.0209
1680000858278,1180846631750237,-0.0155375,-0.026675,-0.0279125
1680000858280,1180846634252160,-0.0176,-0.0276375,-0.0268125
1680000858282,1180846636754299,-0.0185625,-0.0306625,-0.0279125
1680000858284,1180846639256376,-0.0176,-0.0356125,-0.033825
1680000858288,1180846641758530,-0.02255,-0.037675,-0.033825
1680000858290,1180846644260684,-0.0235125,-0.0325875,-0.0279125
1680000858292,1180846646762607,-0.020624999,-0.0356125,-0.0279125
1680000858294,1180846649264679,-0.02255,-0.031625,-0.0279125
1680000858300,1180846651766833,-0.025575,-0.0246125,-0.022824999
1680000858301,1180846654268756,-0.0235125,-0.0215875,-0.0198
1680000858303,1180846656771150,-0.0276375,-0.0187,-0.0158125
1680000858306,1180846659273073,-0.025575,-0.015675,-0.0127875
1680000858308,1180846661775150,-0.0246125,-0.009625,-0.0099
1680000858310,1180846664277073,-0.0265375,-0.0026125,-0.0078375
1680000858312,1180846666779227,-0.0265375,0.0023375,-0.0088
1680000858314,1180846669281294,-0.0276375,0.0053625,-0.0127875
1680000858317,1180846671783217,-0.0265375,0.001375,-0.0169125
1680000858319,1180846674285602,-0.0286,0.006325,-0.0169125
1680000858322,1180846676787525,-0.0265375,0.006325,-0.017875
1680000858325,1180846679289622,-0.0265375,0.0023375,-0.0209
1680000858327,1180846681791776,-0.0286,0.007425,-0.0169125
1680000858329,1180846684293699,-0.0286,0.012375,-0.0127875
1680000858332,1180846686795853,-0.0276375,0.0114124995,-0.0127875
1680000858336,1180846689297987,-0.0286,0.0083875,-0.01485
1680000858339,1180846691800064,-0.0286,0.006325,-0.0088
1680000858341,1180846694301987,-0.0276375,0.0053625,-0.0048125
1680000858343,1180846696804064,-0.0295625,0.007425,-0.0048125
1680000858345,1180846699306217,-0.0276375,0.007425,-0.006875
1680000858347,1180846701808164,-0.0246125,4.125E-4,-0.0158125
1680000858349,1180846704310318,-0.0276375,0.001375,-0.011825
1680000858351,1180846706812472,-0.019524999,0.0023375,-0.011825
1680000858354,1180846709314549,-0.025575,-0.003575,-0.01485
1680000858357,1180846711816689,-0.0295625,-0.0026125,-0.0088
1680000858359,1180846714318612,-0.0286,-0.0066,-0.0059125
1680000858361,1180846716820689,-0.0286,-0.013612499,-0.006875
1680000858364,1180846719322612,-0.0286,-0.0086624995,-0.0059125
1680000858367,1180846721824747,-0.0286,-0.0066,-0.0078375
1680000858369,1180846724326901,-0.0215875,-0.009625,-0.0088
1680000858373,1180846726828978,-0.025575,-0.0116875,-8.25E-4
1680000858375,1180846729331132,-0.0276375,-0.0077,0.0092124995
1680000858378,1180846731833070,-0.0246125,-0.009625,0.0050875
1680000858380,1180846734335223,-0.0276375,-0.004675,0.0050875
1680000858382,1180846736837377,-0.0295625,-0.00165,0.0050875
1680000858384,1180846739339454,-0.0265375,-0.0026125,0.004125
1680000858388,1180846741841377,-0.0265375,-0.004675,0.0011
1680000858389,1180846744343564,-0.0286,-0.0066,-8.25E-4
1680000858391,1180846746845641,-0.0286,-0.0077,-0.0059125
1680000858394,1180846749347564,-0.0235125,-0.0086624995,-0.00385
1680000858397,1180846751849718,-0.0265375,-0.0086624995,1.375E-4
1680000858400,1180846754351867,-0.025575,-0.0086624995,0.0031625
1680000858401,1180846756853944,-0.0246125,-0.0116875,0.0031625
1680000858404,1180846759355867,-0.0276375,-0.015675,0.0031625
1680000858407,1180846761858021,-0.0286,-0.0166375,0.004125
1680000858411,1180846764360065,-0.0286,-0.0246125,0.0031625
1680000858412,1180846766862295,-0.030524999,-0.02365,0.0061875
1680000858414,1180846769364372,-0.031625,-0.0276375,0.00715
1680000858418,1180846771866296,-0.030524999,-0.0276375,0.0081124995
1680000858420,1180846774368372,-0.0295625,-0.0286,0.0092124995
1680000858423,1180846776870536,-0.0345125,-0.0356125,0.004125
1680000858424,1180846779372459,-0.0375375,-0.036575,0.004125
1680000858427,1180846781874536,-0.036575,-0.0407,0.0061875
1680000858429,1180846784376767,-0.036575,-0.0446875,0.0081124995
1680000858432,1180846786878858,-0.0345125,-0.0435875,0.00715
1680000858434,1180846789380781,-0.031625,-0.0416625,0.0022
1680000858436,1180846791882935,-0.03355,-0.0407,0.004125
1680000858439,1180846794385012,-0.031625,-0.0446875,0.0061875
1680000858441,1180846796886935,-0.031625,-0.0446875,1.375E-4
1680000858444,1180846799389098,-0.031625,-0.0407,0.0050875
1680000858448,1180846801891252,-0.03355,-0.042625,0.0050875
1680000858450,1180846804393329,-0.036575,-0.042625,0.0081124995
1680000858452,1180846806895252,-0.036575,-0.0466125,0.010175
1680000858454,1180846809397415,-0.0375375,-0.0466125,0.0092124995
1680000858458,1180846811899491,-0.0386375,-0.0446875,0.0111375
1680000858460,1180846814401645,-0.0375375,-0.045649998,0.0132
1680000858462,1180846816903799,-0.042625,-0.0466125,0.015125
1680000858464,1180846819405727,-0.0435875,-0.047575,0.0121
1680000858467,1180846821907881,-0.04455,-0.0545875,0.0111375
1680000858470,1180846824409958,-0.042625,-0.056649998,0.014162499
1680000858472,1180846826911881,-0.0455125,-0.053625,0.014162499
1680000858474,1180846829413930,-0.0485375,-0.0517,0.014162499
1680000858478,1180846831916084,-0.0466125,-0.0517,0.0111375
1680000858479,1180846834418238,-0.047575,-0.0506,0.0132
1680000858483,1180846836920161,-0.0485375,-0.0517,0.014162499
1680000858486,1180846839422333,-0.0515625,-0.047575,0.0132
1680000858489,1180846841924410,-0.0545875,-0.045649998,0.014162499
1680000858491,1180846844426563,-0.053625,-0.042625,0.0160875
1680000858492,1180846846928487,-0.053625,-0.042625,0.0191125
1680000858494,1180846849430640,-0.0545875,-0.0416625,0.021175
1680000858498,1180846851932776,-0.0565125,-0.0386375,0.0231
1680000858500,1180846854434853,-0.0565125,-0.036575,0.0281875
1680000858503,1180846856936776,-0.058575,-0.037675,0.0301125
1680000858509,1180846859438853,-0.0576125,-0.0407,0.0331375
1680000858509,1180846861941007,-0.058575,-0.034649998,0.0361625
1680000858509,1180846864442953,-0.0616,-0.031625,0.0391875
1680000858512,1180846866945107,-0.0625625,-0.0306625,0.037125
1680000858514,1180846869447261,-0.063525,-0.0306625,0.0341
1680000858516,1180846871949338,-0.063525,-0.0325875,0.037125
1680000858519,1180846874451248,-0.0625625,-0.0336875,0.0391875
1680000858523,1180846876953402,-0.0616,-0.0297,0.0422125
1680000858525,1180846879455479,-0.063525,-0.0306625,0.0422125
1680000858528,1180846881957402,-0.0625625,-0.0325875,0.04015
1680000858529,1180846884459551,-0.06655,-0.0356125,0.0411125
1680000858531,1180846886961704,-0.06655,-0.0407,0.0441375
1680000858534,1180846889463781,-0.063525,-0.0446875,0.04015
1680000858538,1180846891965935,-0.0686125,-0.048675,0.0380875
1680000858540,1180846894467858,-0.06655,-0.0526625,0.0391875
1680000858542,1180846896969935,-0.06655,-0.0627,0.0471625
1680000858544,1180846899472166,-0.0686125,-0.0666875,0.0471625
1680000858547,1180846901974243,-0.0675125,-0.0627,0.0441375
1680000858549,1180846904476166,-0.0705375,-0.0545875,0.0411125
1680000858552,1180846906978228,-0.069575,-0.0606375,0.0380875
1680000858556,1180846909480382,-0.0686125,-0.0587125,0.037125
1680000858558,1180846911982305,-0.069575,-0.048675,0.0380875
1680000858561,1180846914484362,-0.06655,-0.0466125,0.0331375
1680000858562,1180846916986593,-0.0636625,-0.0446875,0.0312125
1680000858564,1180846919488669,-0.0625625,-0.0435875,0.032175
1680000858568,1180846921990593,-0.0636625,-0.0407,0.0301125
1680000858570,1180846924492746,-0.06655,-0.0446875,0.032175
1680000858572,1180846926994809,-0.064625,-0.0407,0.02915
1680000858575,1180846929496963,-0.064625,-0.0407,0.0312125
1680000858578,1180846931998886,-0.064625,-0.0416625,0.02915
1680000858579,1180846934501040,-0.06765,-0.0446875,0.0242
1680000858581,1180846937003136,-0.069575,-0.0435875,0.0231
1680000858584,1180846939505059,-0.0726,-0.042625,0.0231
1680000858587,1180846942007136,-0.064625,-0.0466125,0.0231
1680000858589,1180846944509367,-0.0705375,-0.0466125,0.026124999
1680000858592,1180846947011444,-0.0746625,-0.0517,0.026124999
1680000858594,1180846949513598,-0.07755,-0.0496375,0.026124999
1680000858598,1180846952015521,-0.080575,-0.045649998,0.0231
1680000858600,1180846954517598,-0.0845625,-0.042625,0.0191125
1680000858602,1180846957019521,-0.0856625,-0.0386375,0.0242
1680000858605,1180846959521905,-0.0836,-0.0367125,0.0231
1680000858607,1180846962023828,-0.0856625,-0.0336875,0.0202125
1680000858609,1180846964525905,-0.08855,-0.0257125,0.0242
1680000858612,1180846967028059,-0.08855,-0.0196625,0.0281875
1680000858614,1180846969529958,-0.086625,-0.026675,0.0301125
1680000858618,1180846972032035,-0.0836,-0.0407,0.0331375
1680000858620,1180846974534189,-0.08855,-0.0435875,0.0361625
1680000858622,1180846977036343,-0.08855,-0.0386375,0.037125
1680000858624,1180846979538266,-0.086625,-0.0477125,0.0331375
1680000858627,1180846982040420,-0.0875875,-0.0477125,0.037125
1680000858629,1180846984542497,-0.0925375,-0.045649998,0.0361625
1680000858632,1180846987044420,-0.091575,-0.0446875,0.0341
1680000858636,1180846989546492,-0.0875875,-0.0517,0.0361625
1680000858639,1180846992048646,-0.093637496,-0.048675,0.0380875
1680000858640,1180846994550800,-0.0925375,-0.045649998,0.0380875
1680000858642,1180846997052953,-0.08855,-0.0506,0.0361625
1680000858644,1180846999554876,-0.0906125,-0.0526625,0.032175
1680000858650,1180847002056963,-0.0906125,-0.0477125,0.037125
1680000858651,1180847004559117,-0.0925375,-0.0446875,0.0341
1680000858652,1180847007061040,-0.08965,-0.0506,0.0341
1680000858656,1180847009563194,-0.091575,-0.0526625,0.032175
1680000858658,1180847012065266,-0.091575,-0.056649998,0.032175
1680000858660,1180847014567420,-0.0875875,-0.0606375,0.032175
1680000858662,1180847017069343,-0.086625,-0.064625,0.037125
1680000858665,1180847019571420,-0.086625,-0.070675,0.0441375
1680000858668,1180847022073583,-0.0875875,-0.0796125,0.0471625
1680000858672,1180847024575506,-0.0875875,-0.0765875,0.0462
1680000858674,1180847027077660,-0.091575,-0.081675,0.0462
1680000858677,1180847029579814,-0.0946,-0.0826375,0.0422125
1680000858679,1180847032513579,-0.0966625,-0.0776875,0.0361625
1680000858681,1180847034584040,-0.0946,-0.07865,0.0331375
1680000858683,1180847037085887,-0.091575,-0.0776875,0.0341
1680000858685,1180847039588040,-0.0955625,-0.0746625,0.0391875
1680000858689,1180847042090184,-0.0955625,-0.073699996,0.0331375
1680000858690,1180847044592338,-0.091575,-0.0776875,0.032175
1680000858692,1180847047094261,-0.08965,-0.0826375,0.0341
1680000858694,1180847049596338,-0.0955625,-0.086625,0.037125
1680000858699,1180847052098497,-0.0946,-0.0906125,0.037125
1680000858700,1180847054600420,-0.0966625,-0.092675,0.0331375
1680000858702,1180847057102497,-0.1016125,-0.0906125,0.0312125
1680000858706,1180847059604728,-0.10065,-0.0946,0.02915
1680000858708,1180847062106805,-0.10065,-0.093637496,0.026124999
1680000858713,1180847064608704,-0.1016125,-0.08965,0.026124999
1680000858715,1180847067110781,-0.104637496,-0.0836,0.0242
1680000858716,1180847069612935,-0.09955,-0.0807125,0.0231
1680000858718,1180847072114858,-0.093637496,-0.0776875,0.0202125
1680000858720,1180847074617011,-0.093637496,-0.0716375,0.0171875
1680000858722,1180847077119165,-0.0966625,-0.0697125,0.014162499
1680000858725,1180847079621272,-0.0955625,-0.0636625,0.0191125
1680000858728,1180847082123426,-0.0966625,-0.0627,0.0221375
1680000858729,1180847084625349,-0.093637496,-0.059675,0.015125
1680000858732,1180847087127426,-0.091575,-0.0545875,0.014162499
1680000858735,1180847089629580,-0.093637496,-0.0576125,0.014162499
1680000858738,1180847092131734,-0.093637496,-0.0616,0.0221375
1680000858740,1180847094633657,-0.08965,-0.0616,0.0251625
1680000858742,1180847097135734,-0.08965,-0.0686125,0.0281875
1680000858746,1180847099637902,-0.08965,-0.0686125,0.0281875
1680000858749,1180847102139825,-0.0906125,-0.06765,0.02915
1680000858750,1180847104641902,-0.0925375,-0.0697125,0.0270875
1680000858752,1180847107144056,-0.0906125,-0.06765,0.026124999
1680000858754,1180847109646209,-0.08965,-0.0627,0.0221375
1680000858758,1180847112148368,-0.0925375,-0.0616,0.0202125
1680000858759,1180847114650291,-0.0906125,-0.064625,0.0202125
1680000858762,1180847117152368,-0.0906125,-0.0616,0.0191125
1680000858764,1180847119654300,-0.0875875,-0.0655875,0.015125
1680000858768,1180847122156454,-0.0875875,-0.0716375,0.014162499
1680000858770,1180847124658531,-0.0845625,-0.07865,0.0121
1680000858772,1180847127160685,-0.0845625,-0.0826375,0.0191125
1680000858774,1180847129662844,-0.0856625,-0.086625,0.0171875
1680000858778,1180847132164767,-0.086625,-0.086625,0.0191125
1680000858780,1180847134666844,-0.08855,-0.0847,0.0171875
1680000858782,1180847137168998,-0.08965,-0.086625,0.0191125
1680000858786,1180847139670936,-0.08855,-0.0826375,0.0171875
1680000858790,1180847142173090,-0.0875875,-0.07865,0.015125
1680000858791,1180847144675167,-0.08855,-0.075625,0.015125
1680000858792,1180847147177090,-0.0845625,-0.070675,0.0121
1680000858794,1180847149679243,-0.0856625,-0.064625,0.0132
1680000858797,1180847152181401,-0.0875875,-0.0627,0.0121
1680000858799,1180847154683555,-0.0836,-0.0666875,0.0092124995
1680000858804,1180847157185632,-0.0836,-0.0697125,0.010175
1680000858805,1180847159687555,-0.080575,-0.0765875,0.0171875
1680000858808,1180847162189724,-0.080575,-0.081675,0.0191125
1680000858809,1180847164691801,-0.0796125,-0.086625,0.0191125
1680000858812,1180847167193724,-0.080575,-0.0875875,0.0160875
1680000858815,1180847169695878,-0.080575,-0.0856625,0.0171875
1680000858820,1180847172197988,-0.080575,-0.086625,0.015125
1680000858823,1180847174700065,-0.0796125,-0.08965,0.014162499
1680000858825,1180847177201988,-0.0796125,-0.095699996,0.010175
1680000858826,1180847179704142,-0.07865,-0.097625,0.0092124995
1680000858828,1180847182206219,-0.080575,-0.0985875,0.0050875
1680000858831,1180847184708128,-0.0796125,-0.104637496,0.0022
1680000858832,1180847187210512,-0.07865,-0.115637496,0.0050875
1680000858835,1180847189712435,-0.086625,-0.1236125,0.0061875
1680000858839,1180847192214512,-0.08965,-0.1346125,0.0031625
1680000858840,1180847194716440,-0.093637496,-0.1397,0.0022
1680000858842,1180847197218594,-0.09955,-0.1425875,0.0022
1680000858845,1180847199720671,-0.1016125,-0.1425875,0.0022
1680000858848,1180847202222902,-0.104637496,-0.1467125,-0.00385
1680000858850,1180847204724969,-0.1056,-0.1496,-0.00385
1680000858852,1180847207226892,-0.1016125,-0.1546875,-0.0048125
1680000858855,1180847209729046,-0.102575,-0.158675,-0.0048125
1680000858858,1180847212231123,-0.102575,-0.1535875,-0.006875
1680000858862,1180847214733070,-0.09955,-0.1516625,-0.0028875
1680000858863,1180847217235147,-0.102575,-0.1546875,-0.0017875
1680000858867,1180847219737378,-0.10065,-0.1535875,-0.00385
1680000858869,1180847222239454,-0.097625,-0.1467125,-0.0028875
1680000858872,1180847224741378,-0.09955,-0.1425875,-0.0028875
1680000858874,1180847227243526,-0.10065,-0.1376375,-0.00385
1680000858876,1180847229745603,-0.0955625,-0.136675,-0.0017875
1680000858878,1180847232247757,-0.0906125,-0.1397,1.375E-4
1680000858880,1180847234749680,-0.086625,-0.1406625,0.0031625
1680000858882,1180847237251834,-0.091575,-0.1406625,0.0081124995
1680000858885,1180847239754041,-0.0946,-0.136675,0.0081124995
1680000858888,1180847242256118,-0.0925375,-0.1346125,0.0050875
1680000858890,1180847244758041,-0.0925375,-0.141625,0.0050875
1680000858892,1180847247260118,-0.093637496,-0.141625,0.0061875
1680000858894,1180847249762272,-0.093637496,-0.1397,0.0050875
1680000858900,1180847252264417,-0.093637496,-0.1436875,0.0092124995
1680000858902,1180847254766340,-0.0925375,-0.1467125,0.010175
1680000858903,1180847257268494,-0.0925375,-0.1486375,0.0121
1680000858905,1180847259770570,-0.091575,-0.1516625,0.015125
1680000858908,1180847262272489,-0.0906125,-0.1496,0.0121
1680000858909,1180847264774642,-0.0946,-0.1496,0.0160875
1680000858912,1180847267276719,-0.0925375,-0.1577125,0.0191125
1680000858915,1180847269778873,-0.093637496,-0.158675,0.0202125
1680000858919,1180847272280801,-0.093637496,-0.158675,0.0242
1680000858920,1180847274782955,-0.0925375,-0.1546875,0.0251625
1680000858922,1180847277285032,-0.091575,-0.1516625,0.026124999
1680000858925,1180847279787186,-0.0925375,-0.1516625,0.0331375
1680000858927,1180847282289089,-0.0925375,-0.1486375,0.0341
1680000858929,1180847284791243,-0.091575,-0.1546875,0.0341
1680000858932,1180847287293397,-0.0906125,-0.1516625,0.0341
1680000858936,1180847289795479,-0.08855,-0.1507,0.0361625
1680000858939,1180847292297402,-0.091575,-0.1507,0.037125
1680000858941,1180847294799479,-0.0906125,-0.1496,0.0380875
1680000858943,1180847297301632,-0.08965,-0.1496,0.0422125
1680000858946,1180847299803556,-0.08965,-0.1486375,0.0441375
1680000858950,1180847302305690,-0.0906125,-0.1456125,0.0471625
1680000858952,1180847304807844,-0.08855,-0.1436875,0.0462
1680000858954,1180847307309921,-0.0906125,-0.141625,0.0462
1680000858956,1180847309811844,-0.091575,-0.14465,0.0490875
1680000858958,1180847312313998,-0.091575,-0.1425875,0.0521125
1680000858960,1180847314816075,-0.0946,-0.1425875,0.0490875
1680000858962,1180847317317998,-0.091575,-0.1406625,0.0451
1680000858964,1180847319820152,-0.0925375,-0.1436875,0.043175
1680000858967,1180847322322310,-0.0955625,-0.1397,0.043175
1680000858970,1180847324824387,-0.0925375,-0.1397,0.043175
1680000858974,1180847327326541,-0.0946,-0.1436875,0.0380875
1680000858977,1180847329828464,-0.09955,-0.1456125,0.0380875
1680000858980,1180847332330527,-0.09955,-0.147675,0.0391875
1680000858981,1180847334832757,-0.102575,-0.1507,0.04015
1680000858983,1180847337334834,-0.104637496,-0.1606,0.043175
1680000858985,1180847339836757,-0.1065625,-0.1656875,0.0501875
1680000858988,1180847342338911,-0.108625,-0.1736625,0.0521125
1680000858990,1180847344841041,-0.1126125,-0.1786125,0.054175
1680000858992,1180847347342964,-0.1175625,-0.185625,0.059125
1680000858995,1180847349845041,-0.119625,-0.1907125,0.06215
1680000858999,1180847352347272,-0.1236125,-0.1947,0.06215
1680000859000,1180847354849363,-0.1236125,-0.19965,0.0600875
1680000859003,1180847357351286,-0.1236125,-0.2096875,0.0611875
1680000859005,1180847359853363,-0.1266375,-0.2156,0.0631125
1680000859008,1180847362355594,-0.1276,-0.2195875,0.065175
1680000859013,1180847364857686,-0.1276,-0.2277,0.065175
1680000859013,1180847367359609,-0.1296625,-0.2286625,0.0661375
1680000859015,1180847369861686,-0.130625,-0.2347125,0.0671
1680000859019,1180847372363839,-0.13365,-0.23567499,0.0642125
1680000859020,1180847374865763,-0.1376375,-0.2336125,0.06215
1680000859022,1180847377367848,-0.13365,-0.23265,0.0661375
1680000859025,1180847379870079,-0.135575,-0.23567499,0.065175
1680000859028,1180847382372156,-0.130625,-0.2305875,0.06215
1680000859031,1180847384874310,-0.1266375,-0.22659999,0.0611875
1680000859033,1180847387376233,-0.1285625,-0.224675,0.06215
1680000859035,1180847389878310,-0.124575,-0.2206875,0.0572
1680000859039,1180847392380464,-0.12265,-0.2146375,0.0572
1680000859040,1180847394882618,-0.1205875,-0.207625,0.0611875
1680000859042,1180847397384541,-0.1175625,-0.2017125,0.0600875
1680000859045,1180847399886623,-0.1166,-0.1975875,0.059125
1680000859049,1180847402388777,-0.1095875,-0.1936,0.059125
1680000859051,1180847404890700,-0.1076625,-0.17765,0.059125
1680000859053,1180847407392758,-0.1035375,-0.1706375,0.059125
1680000859056,1180847409894911,-0.097625,-0.169675,0.0551375
1680000859059,1180847412397065,-0.093637496,-0.157575,0.0521125
1680000859060,1180847414898988,-0.085525,-0.147675,0.0521125
1680000859062,1180847417401065,-0.07755,-0.1436875,0.048125
1680000859065,1180847419903223,-0.074525,-0.1376375,0.043175
1680000859069,1180847422405146,-0.06765,-0.130625,0.04015
1680000859071,1180847424907223,-0.0576125,-0.125675,0.0391875
1680000859073,1180847427409377,-0.0515625,-0.1266375,0.037125
1680000859075,1180847429911541,-0.0435875,-0.125675,0.0361625
1680000859078,1180847432413695,-0.0386375,-0.1276,0.0341
1680000859080,1180847434915618,-0.0295625,-0.130625,0.0361625
1680000859083,1180847437417695,-0.025575,-0.1326875,0.037125
1680000859086,1180847439919839,-0.019524999,-0.1376375,0.0380875
1680000859089,1180847442421762,-0.013612499,-0.147675,0.037125
1680000859091,1180847444923916,-0.008525,-0.1546875,0.04015
1680000859093,1180847447425993,4.125E-4,-0.1676125,0.0411125
1680000859095,1180847449928146,0.0114124995,-0.18259999,0.0411125
1680000859099,1180847452430069,0.02145,-0.201575,0.0462
1680000859101,1180847454932146,0.0254375,-0.2156,0.0521125
1680000859103,1180847457434300,0.03135,-0.2256375,0.0471625
1680000859106,1180847459936223,0.034375,-0.2366375,0.04015
1680000859114,1180847462438377,0.04235,-0.2506625,0.026124999
1680000859115,1180847464940502,0.0484,-0.268675,0.0121
1680000859115,1180847467442579,0.05335,-0.2816,-0.0078375
1680000859117,1180847469944502,0.0594,-0.2937,-0.02585
1680000859119,1180847472446579,0.0664125,-0.3136375,-0.044825
1680000859120,1180847474948758,0.0743875,-0.33165,-0.058849998
1680000859124,1180847477450681,0.0704,-0.350625,-0.0738375
1680000859127,1180847479953066,0.073425,-0.3735875,-0.083875
1680000859129,1180847482454989,0.0743875,-0.39765,-0.0897875
1680000859134,1180847484957066,0.0724625,-0.41965,-0.0979
1680000859134,1180847487459219,0.07645,-0.4566375,-0.0979
1680000859135,1180847489961142,0.07535,-0.493625,-0.094875
1680000859138,1180847492463219,0.067375,-0.5236,-0.0928125
1680000859140,1180847494965368,0.0633875,-0.554675,-0.09185
1680000859142,1180847497467522,0.0594,-0.58465,-0.086899996
1680000859144,1180847499969445,0.05335,-0.6166875,-0.0829125
1680000859148,1180847502471522,0.045375,-0.6466625,-0.083875
1680000859149,1180847504973676,0.0394625,-0.6796625,-0.08085
1680000859153,1180847507475613,0.035475,-0.7117,-0.0759
1680000859156,1180847509977767,0.0284625,-0.7447,-0.072875
1680000859157,1180847512479921,0.02145,-0.7777,-0.0688875
1680000859161,1180847514981998,0.0193875,-0.806575,-0.0688875
1680000859163,1180847517484147,0.01045,-0.83765,-0.0658625
1680000859165,1180847519985993,0.0044,-0.8696875,-0.066825
1680000859168,1180847522488147,0.0034375,-0.8877,-0.0677875
1680000859170,1180847524990070,-0.00165,-0.9106625,-0.064899996
1680000859172,1180847527492454,-0.0066,-0.9296375,-0.064899996
1680000859175,1180847529994387,-0.008525,-0.94269997,-0.0658625
1680000859178,1180847532496464,-0.009625,-0.9466875,-0.0677875
1680000859181,1180847534998618,-0.014575,-0.9537,-0.0719125
1680000859183,1180847537500541,-0.0176,-0.9546625,-0.0719125
1680000859184,1180847540002594,-0.0185625,-0.9436625,-0.0738375
1680000859189,1180847542504748,-0.0155375,-0.94159997,-0.0759
1680000859190,1180847545006902,-0.014575,-0.933625,-0.08085
1680000859192,1180847547508825,-0.014575,-0.9216625,-0.0848375
1680000859194,1180847550010902,-0.008525,-0.905575,-0.086899996
1680000859199,1180847552513056,-0.0066,-0.8877,-0.0908875
1680000859200,1180847555014979,-0.003575,-0.8666625,-0.0908875
1680000859202,1180847557517133,4.125E-4,-0.8416375,-0.0939125
1680000859205,1180847560019200,0.002475,-0.817575,-0.10285
1680000859208,1180847562521353,0.007425,-0.7915875,-0.1098625
1680000859210,1180847565023276,0.0083875,-0.763675,-0.1208625
1680000859212,1180847567525430,0.0154,-0.7365875,-0.132825
1680000859215,1180847570027507,0.0193875,-0.70661247,-0.143825
1680000859219,1180847572529652,0.023375,-0.6776,-0.1557875
1680000859221,1180847575031575,0.0273625,-0.65065,-0.1639
1680000859222,1180847577533729,0.0303875,-0.6246625,-0.1709125
1680000859225,1180847580035806,0.034375,-0.598675,-0.1808125
1680000859228,1180847582537733,0.0364375,-0.5715875,-0.1868625
1680000859230,1180847585039887,0.0364375,-0.5476625,-0.1929125
1680000859232,1180847587541964,0.0374,-0.526625,-0.198825
1680000859236,1180847590044205,0.0374,-0.509575,-0.1978625
1680000859240,1180847592546282,0.035475,-0.4896375,-0.1969
1680000859241,1180847595048205,0.0303875,-0.4736875,-0.1918125
1680000859242,1180847597550358,0.0264,-0.460625,-0.187825
1680000859245,1180847600052435,0.0264,-0.4576,-0.1819125
1680000859249,1180847602554348,0.0224125,-0.455675,-0.165825
1680000859250,1180847605056502,0.018424999,-0.444675,-0.1518
1680000859252,1180847607558656,0.012375,-0.4406875,-0.138875
1680000859255,1180847610060733,0.00935,-0.433675,-0.1238875
1680000859258,1180847612562661,0.0053625,-0.4257,-0.110825
1680000859260,1180847615064815,4.125E-4,-0.416625,-0.1049125
1680000859262,1180847617566892,-0.0026125,-0.40865,-0.094875
1680000859265,1180847620068815,-0.003575,-0.3955875,-0.0858
1680000859268,1180847622570969,-0.0066,-0.38665,-0.0759
1680000859270,1180847625073123,-0.0105875,-0.377575,-0.0719125
1680000859274,1180847627575200,-0.01155,-0.3636875,-0.0677875
1680000859277,1180847630077123,-0.0105875,-0.3586,-0.0677875
1680000859279,1180847632579287,-0.0105875,-0.3487,-0.066825
1680000859281,1180847635081364,-0.01265,-0.3386625,-0.0658625
1680000859282,1180847637583594,-0.01265,-0.33467498,-0.0677875
1680000859284,1180847640085671,-0.013612499,-0.3267,-0.0688875
1680000859288,1180847642587594,-0.01155,-0.3136375,-0.0658625
1680000859289,1180847645089738,-0.01155,-0.301675,-0.0658625
1680000859292,1180847647591815,-0.0105875,-0.29865,-0.066825
1680000859295,1180847650093738,-0.0066,-0.2866875,-0.0658625
1680000859299,1180847652595815,-0.0056375,-0.273625,-0.064899996
1680000859300,1180847655098046,-0.0045375,-0.262625,-0.061875
1680000859302,1180847657600123,-0.00165,-0.2476375,-0.0628375
1680000859306,1180847660102046,0.001375,-0.234575,-0.0598125
1680000859308,1180847662604200,0.0034375,-0.223575,-0.0567875
1680000859314,1180847665106234,0.0044,-0.201575,-0.0598125
1680000859315,1180847667608388,0.0044,-0.1846625,-0.058849998
1680000859317,1180847670110234,0.0064625,-0.1656875,-0.0518375
1680000859319,1180847672612465,0.0064625,-0.1507,-0.0499125
1680000859322,1180847675114541,0.01045,-0.13365,-0.047849998
1680000859323,1180847677616465,0.012375,-0.124575,-0.0457875
1680000859325,1180847680118622,0.012375,-0.1067,-0.0429
1680000859328,1180847682620699,0.012375,-0.092675,-0.0408375
1680000859330,1180847685122853,0.012375,-0.0796125,-0.0389125
1680000859332,1180847687625007,0.0154,-0.0686125,-0.0358875
1680000859335,1180847690126935,0.0154,-0.059675,-0.0298375
1680000859340,1180847692629089,0.0174625,-0.0506,-0.0279125
1680000859341,1180847695131166,0.018424999,-0.048675,-0.0319
1680000859343,1180847697633089,0.0224125,-0.0416625,-0.0319
1680000859345,1180847700135142,0.023375,-0.0356125,-0.0328625
1680000859350,1180847702637296,0.023375,-0.0306625,-0.0279125
1680000859352,1180847705139450,0.024475,-0.0215875,-0.0279125
1680000859353,1180847707641373,0.0264,-0.0196625,-0.022824999
1680000859356,1180847710143537,0.024475,-0.0166375,-0.022824999
1680000859358,1180847712645613,0.023375,-0.0086624995,-0.0209
1680000859360,1180847715147767,0.023375,-0.0066,-0.0198
1680000859363,1180847717649690,0.024475,-0.004675,-0.0158125
1680000859365,1180847720151767,0.0254375,0.0053625,-0.0088
1680000859369,1180847722653921,0.0264,0.006325,-0.0108624995
1680000859370,1180847725155844,0.0284625,0.012375,-0.0108624995
1680000859372,1180847727657998,0.0273625,0.0143,-0.0099
1680000859375,1180847730160075,0.0273625,0.0193875,-0.011825
1680000859379,1180847732662219,0.029424999,0.0334125,-0.0108624995
1680000859380,1180847735164142,0.0303875,0.034375,-0.0108624995
1680000859382,1180847737666296,0.024475,0.039325,-0.0078375
1680000859388,1180847740168460,0.023375,0.0463375,-0.0059125
1680000859391,1180847742670537,0.0254375,0.0543125,-0.0059125
1680000859393,1180847745172460,0.0224125,0.062425,-0.0017875
1680000859393,1180847747674537,0.02035,0.0713625,0.004125
1680000859395,1180847750176690,0.0193875,0.0814,0.0092124995
1680000859399,1180847752678580,0.0224125,0.089375,0.0160875
1680000859400,1180847755180733,0.02035,0.095425,0.021175
1680000859403,1180847757682887,0.02145,0.0983125,0.026124999
1680000859408,1180847760184964,0.023375,0.1043625,0.0331375
1680000859410,1180847762687118,0.023375,0.111375,0.0380875
1680000859412,1180847765189036,0.024475,0.117425,0.0391875
1680000859413,1180847767691113,0.0264,0.122375,0.0391875
1680000859415,1180847770193267,0.0284625,0.127325,0.04015
1680000859418,1180847772695190,0.02145,0.128425,0.0441375
1680000859421,1180847775197286,0.024475,0.128425,0.0451
1680000859424,1180847777699440,0.0273625,0.1353,0.0471625
1680000859428,1180847780201363,0.029424999,0.138325,0.0501875
1680000859431,1180847782703517,0.0284625,0.133375,0.0501875
1680000859432,1180847785205671,0.029424999,0.1313125,0.0501875
1680000859433,1180847787707747,0.0284625,0.1324125,0.0501875
1680000859435,1180847790209901,0.0264,0.1343375,0.0521125
1680000859439,1180847792711747,0.0254375,0.1313125,0.0532125
1680000859440,1180847795213901,0.023375,0.128425,0.059125
1680000859443,1180847797716065,0.02035,0.1263625,0.0611875
1680000859445,1180847800218219,0.013475,0.116325,0.0642125
1680000859448,1180847802720142,0.012375,0.1043625,0.065175
1680000859450,1180847805222219,0.01045,0.0903375,0.0691625
1680000859452,1180847807724378,0.002475,0.0704,0.076175
1680000859459,1180847810226301,-0.0066,0.050325,0.081125
1680000859461,1180847812728378,-0.013612499,0.0253,0.0902
1680000859464,1180847815230609,-0.0246125,0.0044,0.0961125
1680000859465,1180847817732681,-0.03355,-0.0176,0.103125
1680000859468,1180847820234834,-0.0435875,-0.0407,0.1101375
1680000859470,1180847822889296,-0.0545875,-0.0606375,0.1192125
1680000859472,1180847825238834,-0.0686125,-0.0826375,0.1232
1680000859474,1180847827740758,-0.0765875,-0.1067,0.1232
1680000859477,1180847830242911,-0.0845625,-0.1296625,0.1232
1680000859479,1180847832745065,-0.091575,-0.1535875,0.1271875
1680000859481,1180847835247142,-0.1016125,-0.169675,0.125125
1680000859483,1180847837749296,-0.1095875,-0.1837,0.1291125
1680000859485,1180847840251224,-0.1166,-0.1975875,0.13915
1680000859488,1180847842753301,-0.124575,-0.21065,0.1491875
1680000859489,1180847845255455,-0.1315875,-0.21367499,0.1601875
1680000859492,1180847847757609,-0.13653749,-0.2167,0.1711875
1680000859495,1180847850259532,-0.1425875,-0.2195875,0.1881
1680000859500,1180847852761613,-0.1535875,-0.2085875,0.2041875
1680000859502,1180847855263767,-0.1596375,-0.1986875,0.2231625
1680000859504,1180847857765690,-0.1645875,-0.1816375,0.24213749
1680000859505,1180847860267767,-0.1695375,-0.1606,0.2662
1680000859508,1180847862769911,-0.173525,-0.136675,0.2941125
1680000859510,1180847865272065,-0.18259999,-0.1076625,0.3282125
1680000859512,1180847867774219,-0.1896125,-0.0836,0.36519998
1680000859515,1180847870276065,-0.2006125,-0.053625,0.4081
1680000859518,1180847872778233,-0.206525,-0.026675,0.45113748
1680000859521,1180847875280156,-0.218625,0.001375,0.49115
1680000859523,1180847877782310,-0.2305875,0.03135,0.527175
1680000859525,1180847880284464,-0.2415875,0.0664125,0.5611375
1680000859531,1180847882786551,-0.2525875,0.0983125,0.5951
1680000859532,1180847885288705,-0.2635875,0.1343375,0.6221875
1680000859534,1180847887790628,-0.2706,0.172425,0.6461125
1680000859538,1180847890292705,-0.2806375,0.2143625,0.6661875
1680000859541,1180847892794859,-0.2905375,0.2553375,0.6851625
1680000859542,1180847895296782,-0.2965875,0.2883375,0.7041375
1680000859544,1180847897798936,-0.3026375,0.3183125,0.725175
1680000859548,1180847900301013,-0.30965,0.348425,0.7462125
1680000859549,1180847902803166,-0.3155625,0.3793625,0.76615
1680000859551,1180847905305089,-0.3185875,0.40039998,0.7860875
1680000859553,1180847907807166,-0.3265625,0.419375,0.8052
1680000859555,1180847910309320,-0.333575,0.435325,0.82115
1680000859558,1180847912811262,-0.339625,0.4472875,0.8382
1680000859560,1180847915313647,-0.34265,0.463375,0.8531875
1680000859563,1180847917815570,-0.35365,0.4802875,0.86913747
1680000859566,1180847920317647,-0.360525,0.5053125,0.8892125
1680000859568,1180847922819604,-0.3675375,0.52635,0.9051625
1680000859570,1180847925321758,-0.371525,0.551375,0.9222125
1680000859574,1180847927823835,-0.37661248,0.58341247,0.9411875
1680000859577,1180847930325989,-0.3815625,0.611325,0.961125
1680000859579,1180847932828133,-0.3916,0.63635,0.98408747
1680000859581,1180847935330056,-0.40755,0.6573875,1.0032
1680000859583,1180847937832133,-0.4236375,0.6703125,1.0212125
1680000859588,1180847940334286,-0.43559998,0.694375,1.0472
1680000859589,1180847942836209,-0.449625,0.71335,1.077175
1680000859590,1180847945338271,-0.4786375,0.7264125,1.1050875
1680000859593,1180847947840425,-0.50655,0.7173375,1.1231
1680000859596,1180847950342579,-0.53061247,0.72833747,1.1352
1680000859598,1180847952844502,-0.5545375,0.7403,1.148125
1680000859603,1180847955346589,-0.5765375,0.7264125,1.15115
1680000859603,1180847957848743,-0.59455,0.7183,1.1441375
1680000859606,1180847960350666,-0.6116,0.721325,1.143175
1680000859608,1180847962852820,-0.62865,0.7183,1.154175
1680000859612,1180847965354974,-0.636625,0.7063375,1.15115
1680000859614,1180847967857051,-0.646525,0.6953375,1.1471624
1680000859615,1180847970358974,-0.6736125,0.716375,1.15115
1680000859619,1180847972861128,-0.69465,0.7332875,1.1600875
1680000859620,1180847975363281,-0.70565,0.716375,1.159125
1680000859623,1180847977865348,-0.718575,0.7112875,1.1490875
1680000859626,1180847980367271,-0.746625,0.7293,1.1572
1680000859628,1180847982869425,-0.762575,0.72833747,1.1642125
1680000859630,1180847985371502,-0.7756375,0.7442875,1.1801625
1680000859633,1180847987873661,-0.7855375,0.7783875,1.1991374
1680000859636,1180847990375815,-0.79254997,0.793375,1.2150875
1680000859638,1180847992877738,-0.801625,0.8102875,1.2181125
1680000859640,1180847995379815,-0.8105625,0.83435,1.2241625
1680000859643,1180847997881959,-0.82156247,0.8773875,1.2351625
1680000859647,1180848000383882,-0.82362497,0.9073625,1.2441
1680000859651,1180848002885959,-0.8295375,0.9464125,1.2551
