system_ts_ms, sensor_ts_ns, accX, accY, accZ
1680000854761,1180843106326920,0.64095,9.604951,1.79805
1680000854761,1180843108828997,0.72705,9.739051,1.7860501
1680000854761,1180843111331214,0.69105005,9.636001,1.8510001
1680000854762,1180843113833291,0.74100006,9.67395,1.88205
1680000854762,1180843116335445,0.83505005,9.580951,1.9969501
1680000854765,1180843118837368,0.77205,9.62895,2.1340501
1680000854778,1180843121339450,0.94395006,9.5119505,2.26095
1680000854779,1180843123841604,0.9580501,9.49995,2.3370001
1680000854779,1180843126343527,0.94095004,9.46395,2.328
1680000854779,1180843128845680,0.96300006,9.403951,2.4190502
1680000854780,1180843131347799,0.9889501,9.555,2.5140002
1680000854780,1180843133849876,0.94095004,9.504001,2.3490002
1680000854781,1180843136351799,1.0009501,9.526051,2.35905
1680000854792,1180843138853876,1.056,9.61005,2.421
1680000854792,1180843141356030,1.1020501,9.538051,2.3440502
1680000854792,1180843143858170,1.0680001,9.58605,2.42595
1680000854793,1180843146360093,0.93900007,9.5140505,2.3760002
1680000854793,1180843148862247,0.99195004,9.49995,2.352
1680000854800,1180843151364324,0.897,9.559051,2.2800002
1680000854800,1180843153866468,0.90405005,9.6,2.256
1680000854801,1180843156368391,0.99705005,9.574051,2.352
1680000854804,1180843158870468,0.97695005,9.567,2.18205
1680000854808,1180843161372698,0.94605005,9.562051,2.229
1680000854810,1180843163874785,0.90195006,9.604951,2.1720002
1680000854812,1180843166376708,0.86100006,9.613951,2.1409502
1680000854818,1180843168878862,0.70995003,9.576,2.124
1680000854819,1180843171380939,0.60495,9.580951,2.1739502
1680000854819,1180843173883112,0.63105005,9.540001,2.0670002
1680000854821,1180843176384958,0.59805006,9.588,2.09805
1680000854823,1180843178887189,0.55695003,9.613951,2.1649501
1680000854826,1180843181389266,0.50895,9.550051,2.1409502
1680000854828,1180843183891420,0.41595003,9.47295,2.1409502
1680000854835,1180843186393328,0.411,9.471001,2.1460502
1680000854836,1180843188895405,0.34605002,9.588,2.09505
1680000854836,1180843191397559,0.41805002,9.53295,2.1720002
1680000854838,1180843193899713,0.40395,9.460951,2.15805
1680000854841,1180843196401670,0.47100002,9.46605,2.22705
1680000854845,1180843198903747,0.46800002,9.483001,2.2770002
1680000854849,1180843201405900,0.54495,9.49695,2.421
1680000854850,1180843203908054,0.39195,9.432,2.3059502
1680000854851,1180843206410011,0.44700003,9.50205,2.3710501
1680000854853,1180843208912165,0.57405,9.5119505,2.3419502
1680000854857,1180843211414242,0.58995,9.519,2.421
1680000854859,1180843213916165,0.56895,9.576,2.256
1680000854861,1180843216418319,0.67695004,9.591001,2.35395
1680000854868,1180843218920372,0.61695004,9.625951,2.22705
1680000854869,1180843221422603,0.65295005,9.64995,2.2680001
1680000854870,1180843223924449,0.67200005,9.696,2.22
1680000854871,1180843226426603,0.73395,9.69795,2.19105
1680000854873,1180843228928776,0.77205,9.63405,2.1019502
1680000854876,1180843231430853,0.82995003,9.58605,2.232
1680000854879,1180843233932776,0.82995003,9.6,2.2840502
1680000854885,1180843236434853,0.90195006,9.555,2.046
1680000854885,1180843238937092,0.93705004,9.567,2.1720002
1680000854887,1180843241439169,0.83505005,9.69795,2.1049502
1680000854889,1180843243941092,0.86100006,9.53295,1.9900501
1680000854891,1180843246443246,0.813,9.436951,2.15805
1680000854893,1180843248945323,0.73395,9.403951,2.29395
1680000854901,1180843251447237,0.81105006,9.47295,2.19105
1680000854901,1180843253949622,0.70500004,9.415951,2.18895
1680000854902,1180843256451545,0.657,9.5119505,2.1340501
1680000854904,1180843258953699,0.66705,9.40095,2.2680001
1680000854907,1180843261455761,0.60195005,9.36795,2.08605
1680000854908,1180843263957684,0.66195005,9.45405,2.079
1680000854911,1180843266459838,0.61005,9.460951,2.124
1680000854917,1180843268961915,0.58995,9.40905,2.184
1680000854917,1180843271464073,0.62595004,9.47295,2.26095
1680000854920,1180843273966227,0.61695004,9.4800005,2.328
1680000854923,1180843276468150,0.52095,9.430051,2.3080502
1680000854925,1180843278970227,0.588,9.483001,2.3800502
1680000854927,1180843281472164,0.648,9.528001,2.457
1680000854933,1180843283974318,0.768,9.580951,2.421
1680000854934,1180843286476395,0.74100006,9.567,2.5410001
1680000854935,1180843288978626,0.81795,9.504001,2.5480502
1680000854937,1180843291480708,0.91995007,9.519,2.5120502
1680000854939,1180843293982631,0.94605005,9.567,2.56695
1680000854941,1180843296484785,1.00605,9.65295,2.49495
1680000854943,1180843298986862,1.0849501,9.67905,2.42295
1680000854949,1180843301488785,1.0200001,9.65295,2.421
1680000854949,1180843303991184,0.93705004,9.595051,2.3730001
1680000854951,1180843306493107,0.9990001,9.739051,2.24895
1680000854955,1180843308995261,1.023,9.69795,2.2680001
1680000854958,1180843311497338,0.94095004,9.729,2.2770002
1680000854959,1180843313999261,0.94905007,9.76305,2.229
1680000854964,1180843316501415,0.93900007,9.700951,2.26305
1680000854965,1180843319003492,0.72900003,9.63105,2.2750502
1680000854973,1180843321505646,0.72705,9.66495,2.24895
1680000854974,1180843324007569,0.669,9.538051,2.09295
1680000854974,1180843326509737,0.588,9.672001,2.289
1680000854975,1180843329011814,0.49905002,9.78495,2.25795
1680000854977,1180843331513737,0.47295,9.703051,2.29395
1680000854982,1180843334015891,0.41295,9.66495,2.2099502
1680000854983,1180843336517968,0.40095,9.6,2.16
1680000854984,1180843339020093,0.40605003,9.603001,2.1700501
1680000854986,1180843341522246,0.363,9.64305,2.256
1680000854988,1180843344024169,0.36495003,9.63105,2.2459502
1680000854991,1180843346526323,0.39900002,9.555,2.2099502
1680000854995,1180843349028376,0.38205,9.700951,2.22195
1680000854999,1180843351530299,0.42000002,9.68595,2.15295
1680000855000,1180843354032684,0.55695003,9.61905,2.11395
1680000855001,1180843356534593,0.54495,9.49695,2.1360002
1680000855004,1180843359036670,0.492,9.580951,2.112
1680000855007,1180843361538824,0.55005,9.568951,2.12595
1680000855008,1180843364040747,0.59295005,9.49695,2.01405
1680000855011,1180843366542824,0.49905002,9.435,2.1720002
1680000855018,1180843369044973,0.62100005,9.492001,2.05905
1680000855019,1180843371547127,0.55200005,9.456,2.1769502
1680000855020,1180843374049050,0.56895,9.424951,2.3470502
1680000855021,1180843376551203,0.60195005,9.538051,2.4550502
1680000855023,1180843379053270,0.633,9.46395,2.2750502
1680000855026,1180843381555194,0.62595004,9.427951,2.2369502
1680000855028,1180843384057347,0.6,9.540001,2.18205
1680000855033,1180843386559482,0.657,9.45195,2.32995
1680000855035,1180843389061559,0.72,9.50895,2.2150502
1680000855037,1180843391563713,0.63105005,9.49695,2.2840502
1680000855039,1180843394065636,0.59805006,9.50205,2.253
1680000855041,1180843396567713,0.684,9.40095,2.3440502
1680000855043,1180843399069862,0.744,9.262051,2.3080502
1680000855046,1180843401571785,0.63795,9.35805,2.46405
1680000855048,1180843404073939,0.60705,9.391951,2.3730001
1680000855051,1180843406576093,0.588,9.50205,2.433
1680000855053,1180843409078170,0.96105003,9.780001,2.3850002
1680000855057,1180843411580093,0.70095,9.64995,2.4450002
1680000855059,1180843414082247,0.56595004,9.543,2.35605
1680000855061,1180843416584400,0.38895002,9.436951,2.35905
1680000855063,1180843419086477,0.31500003,9.318001,2.4190502
1680000855067,1180843421588395,0.34605002,9.298051,2.49795
1680000855071,1180843424090549,0.26700002,9.247951,2.6560502
1680000855073,1180843426592626,0.25995,9.31305,2.6250002
1680000855075,1180843429094564,0.384,9.303,2.6530502
1680000855077,1180843431596949,0.33600003,9.255,2.63895
1680000855079,1180843434098872,0.39195,9.435,2.6839502
1680000855081,1180843436601026,0.52095,9.495001,2.66505
1680000855083,1180843439103103,0.62100005,9.459001,2.62695
1680000855086,1180843441605021,0.71295005,9.468,2.63205
1680000855088,1180843444107175,0.82305,9.583051,2.661
1680000855091,1180843446609329,0.873,9.45405,2.5480502
1680000855093,1180843449111405,0.96105003,9.603001,2.5459502
1680000855097,1180843451613544,1.00605,9.519,2.73
1680000855099,1180843454115467,1.107,9.624001,2.6580002
1680000855101,1180843456617621,1.092,9.504001,2.706
1680000855104,1180843459119467,1.164,9.580951,2.6509502
1680000855108,1180843461621607,1.11105,9.540001,2.6200502
1680000855110,1180843464123992,1.23105,9.562051,2.565
1680000855112,1180843466625915,1.116,9.550051,2.66295
1680000855114,1180843469127992,1.056,9.48495,2.5189502
1680000855116,1180843471629915,0.99195004,9.574051,2.6560502
1680000855119,1180843474132069,0.92700005,9.53505,2.64105
1680000855121,1180843476634146,0.91695005,9.5449505,2.6130002
1680000855124,1180843479136069,0.837,9.47805,2.6490002
1680000855127,1180843481638453,0.81105006,9.4470005,2.6100001
1680000855128,1180843484140377,0.813,9.4800005,2.598
1680000855131,1180843486642453,0.77505004,9.555,2.4829502
1680000855134,1180843489144607,0.63795,9.460951,2.4810002
1680000855138,1180843491646515,0.62595004,9.5119505,2.50005
1680000855139,1180843494148669,0.648,9.576,2.50005
1680000855141,1180843496650823,0.61695004,9.531,2.4469502
1680000855146,1180843499152900,0.58995,9.436951,2.49795
1680000855148,1180843501655074,0.59805006,9.459001,2.3419502
1680000855150,1180843504156997,0.57405,9.411,2.457
1680000855152,1180843506659074,0.564,9.3490505,2.4400501
1680000855154,1180843509160997,0.52095,9.415951,2.4019501
1680000855156,1180843511663151,0.43905002,9.37695,2.35605
1680000855159,1180843514165305,0.54705,9.44205,2.3110502
1680000855161,1180843516667382,0.48000002,9.403951,2.36805
1680000855164,1180843519169535,0.423,9.49005,2.2750502
1680000855167,1180843521671459,0.44700003,9.432,2.3059502
1680000855169,1180843524173530,0.48495004,9.49995,2.4859502
1680000855171,1180843526675684,0.40395,9.531,2.3419502
1680000855173,1180843529177607,0.43500003,9.50895,2.39895
1680000855177,1180843531679992,0.41805002,9.424951,2.4760501
1680000855179,1180843534181910,0.52995,9.460951,2.49495
1680000855183,1180843536683987,0.49905002,9.427951,2.4070501
1680000855185,1180843539186141,0.43905002,9.52095,2.49495
1680000855187,1180843541688064,0.53805,9.373051,2.53395
1680000855189,1180843544190141,0.507,9.47595,2.502
1680000855191,1180843546692372,0.58305,9.492001,2.526
1680000855194,1180843549194449,0.52995,9.4129505,2.4499502
1680000855196,1180843551696372,0.64095,9.49995,2.5240502
1680000855198,1180843554198449,0.59505004,9.460951,2.52195
1680000855201,1180843556700626,0.64995,9.53505,2.457
1680000855203,1180843559202550,0.67695004,9.52305,2.598
1680000855207,1180843561704703,0.62595004,9.483001,2.5740001
1680000855209,1180843564206857,0.6,9.483001,2.5770001
1680000855211,1180843566708948,0.507,9.339001,2.661
1680000855214,1180843569211102,0.507,9.456,2.6890502
1680000855217,1180843571713025,0.50895,9.397051,2.70105
1680000855221,1180843574215102,0.48000002,9.394051,2.7229502
1680000855222,1180843576717251,0.36495003,9.423,2.7280502
1680000855224,1180843579219174,0.384,9.387,2.6839502
1680000855227,1180843581721328,0.33600003,9.387,2.6250002
1680000855229,1180843584223482,0.36495003,9.4800005,2.661
1680000855231,1180843586725559,0.46305,9.459001,2.6509502
1680000855233,1180843589227477,0.47805002,9.516001,2.70795
1680000855236,1180843591729631,0.624,9.49995,2.7229502
1680000855239,1180843594231707,0.70500004,9.45405,2.69895
1680000855241,1180843596733861,0.69795,9.52305,2.6890502
1680000855244,1180843599236025,0.80805004,9.4470005,2.5549502
1680000855247,1180843601737948,0.83505005,9.53505,2.5860002
1680000855249,1180843604240025,0.96795005,9.504001,2.6490002
1680000855251,1180843606742179,1.03005,9.526051,2.67
1680000855255,1180843609244116,1.0129501,9.456,2.53095
1680000855259,1180843611746270,1.04205,9.507001,2.64105
1680000855260,1180843614248347,1.0540501,9.459001,2.60295
1680000855262,1180843616750511,0.98505,9.555,2.66805
1680000855264,1180843619252434,0.96795005,9.424951,2.5860002
1680000855267,1180843621754511,0.94605005,9.52305,2.6200502
1680000855270,1180843624256742,0.87495005,9.54705,2.67
1680000855272,1180843626758818,0.84405005,9.394051,2.6749501
1680000855274,1180843629260991,0.82695,9.48495,2.56695
1680000855278,1180843631762914,0.80805004,9.603001,2.661
1680000855280,1180843634264991,0.72900003,9.448951,2.63205
1680000855281,1180843636766914,0.73605,9.456,2.6100001
1680000855284,1180843639268991,0.77505004,9.49695,2.6130002
1680000855287,1180843641771252,0.69795,9.48495,2.63895
1680000855289,1180843644273329,0.61005,9.592951,2.67
1680000855292,1180843646775483,0.64095,9.504001,2.6440501
1680000855297,1180843649277387,0.64995,9.456,2.60505
1680000855299,1180843651779464,0.67395,9.436951,2.67705
1680000855301,1180843654281618,0.64305,9.52305,2.5549502
1680000855303,1180843656783772,0.55200005,9.471001,2.5840502
1680000855305,1180843659285695,0.528,9.5119505,2.6749501
1680000855307,1180843661787878,0.507,9.564,2.601
1680000855309,1180843664289954,0.54,9.49695,2.7109501
1680000855311,1180843666792108,0.53805,9.394051,2.7540002
1680000855314,1180843669293954,0.59805006,9.361051,2.6920502
1680000855316,1180843671796108,0.55695003,9.34605,2.6149502
1680000855319,1180843674298339,0.57105005,9.397051,2.5860002
1680000855321,1180843676800416,0.47295,9.35805,2.63205
1680000855323,1180843679302339,0.48000002,9.3490505,2.53395
1680000855326,1180843681804416,0.52095,9.291,2.5810502
1680000855328,1180843684306579,0.61905,9.31995,2.5240502
1680000855333,1180843686808502,0.507,9.37695,2.6200502
1680000855335,1180843689310656,0.60195005,9.411,2.66295
1680000855338,1180843691812810,0.648,9.30795,2.53605
1680000855340,1180843694314921,0.65505004,9.37005,2.56005
1680000855342,1180843696816844,0.63105005,9.298051,2.49795
1680000855344,1180843699318998,0.57600003,9.387,2.637
1680000855347,1180843701821074,0.46305,9.385051,2.52195
1680000855349,1180843704323228,0.48495004,9.43995,2.6200502
1680000855352,1180843706825387,0.54495,9.32205,2.6839502
1680000855354,1180843709327310,0.46800002,9.318001,2.49495
1680000855357,1180843711829464,0.58095,9.34395,2.469
1680000855359,1180843714331541,0.52995,9.435,2.6149502
1680000855361,1180843716833473,0.52995,9.4129505,2.6170502
1680000855364,1180843719335627,0.483,9.5119505,2.5500002
1680000855367,1180843721837704,0.52305,9.44205,2.5770001
1680000855371,1180843724339868,0.39900002,9.459001,2.53395
1680000855373,1180843726841791,0.48000002,9.5119505,2.598
1680000855375,1180843729343945,0.37695003,9.36795,2.56005
1680000855383,1180843731846022,0.423,9.459001,2.6820002
1680000855383,1180843734348176,0.40605003,9.504001,2.526
1680000855383,1180843736850051,0.57105005,9.40095,2.55795
1680000855384,1180843739352204,0.55395,9.394051,2.562
1680000855388,1180843741854358,0.58995,9.318001,2.63205
1680000855389,1180843744356435,0.62100005,9.4800005,2.73195
1680000855391,1180843746858358,0.69600004,9.34395,2.63895
1680000855394,1180843749360517,0.71505004,9.45405,2.69895
1680000855396,1180843751862594,0.75795,9.567,2.7919502
1680000855398,1180843754364517,0.70500004,9.550051,2.6920502
1680000855401,1180843756866902,0.78900003,9.528001,2.5770001
1680000855405,1180843759368829,0.64095,9.552,2.598
1680000855408,1180843761870983,0.72,9.5119505,2.6100001
1680000855409,1180843764372829,0.669,9.556951,2.56005
1680000855411,1180843766874983,0.64095,9.550051,2.778
1680000855413,1180843769377041,0.58995,9.43995,2.7280502
1680000855417,1180843771879195,0.48495004,9.432,2.7829502
1680000855419,1180843774381348,0.65505004,9.42,2.6250002
1680000855421,1180843776883271,0.57405,9.43995,2.802
1680000855424,1180843779385425,0.648,9.456,2.77095
1680000855427,1180843781887502,0.62895006,9.53295,2.7469501
1680000855429,1180843784389425,0.669,9.423,2.7250502
1680000855432,1180843786891570,0.813,9.61005,2.69895
1680000855434,1180843789393724,0.79395,9.528001,2.7180002
1680000855437,1180843791895878,0.77505004,9.555,2.69895
1680000855440,1180843794397955,0.75795,9.50205,2.775
1680000855441,1180843796899878,0.79200006,9.456,2.6490002
1680000855445,1180843799402022,0.76005006,9.459001,2.778
1680000855448,1180843801903868,0.72705,9.33195,2.7630002
1680000855450,1180843804406022,0.75600004,9.430051,2.7109501
1680000855451,1180843806908176,0.80100006,9.37005,2.7540002
1680000855455,1180843809410329,0.78705,9.430051,2.7799501
1680000855457,1180843811912396,0.777,9.327001,2.6149502
1680000855459,1180843814414319,0.72195005,9.35595,2.7109501
1680000855461,1180843816916473,0.67695004,9.315001,2.6800501
1680000855464,1180843819418627,0.62595004,9.35805,2.70405
1680000855467,1180843821920704,0.61200005,9.385051,2.7109501
1680000855470,1180843824422877,0.61005,9.318001,2.7439501
1680000855472,1180843826924800,0.59805006,9.3820505,2.7870002
1680000855474,1180843829426877,0.58305,9.3490505,2.6149502
1680000855477,1180843831929031,0.58095,9.34395,2.6869502
1680000855479,1180843834431185,0.73605,9.255,2.7160501
1680000855483,1180843836933108,0.54195005,9.3490505,2.69595
1680000855485,1180843839435262,0.47295,9.40095,2.70105
1680000855489,1180843841937330,0.46095002,9.4129505,2.7630002
1680000855489,1180843844439253,0.48705003,9.315001,2.77305
1680000855491,1180843846941406,0.47295,9.34605,2.6220002
1680000855494,1180843849443560,0.52995,9.397051,2.5930502
1680000855498,1180843851945637,0.52605003,9.36795,2.6890502
1680000855499,1180843854447795,0.58095,9.33405,2.7130501
1680000855501,1180843856949718,0.57405,9.424951,2.7490501
1680000855504,1180843859451795,0.55695003,9.394051,2.7829502
1680000855507,1180843861953949,0.53295004,9.38895,2.7829502
1680000855509,1180843864455872,0.708,9.373051,2.83095
1680000855512,1180843866958041,0.63795,9.424951,2.7250502
1680000855514,1180843869460195,0.73200005,9.28905,2.60805
1680000855517,1180843871962272,0.61395,9.387,2.6839502
1680000855523,1180843874464176,0.70500004,9.436951,2.7540002
1680000855524,1180843876966330,0.69105005,9.327001,2.73705
1680000855524,1180843879468407,0.744,9.397051,2.80395
1680000855529,1180843881970560,0.69795,9.45405,2.6800501
1680000855530,1180843884472714,0.72405005,9.531,2.7540002
1680000855532,1180843886974637,0.67695004,9.37695,2.67195
1680000855534,1180843889476709,0.72705,9.43995,2.83995
1680000855537,1180843891978863,0.73605,9.53295,2.7970502
1680000855539,1180843894480786,0.68100005,9.459001,2.8210502
1680000855541,1180843896982863,0.71295005,9.418051,2.8519502
1680000855544,1180843899485079,0.67695004,9.36495,2.8230002
1680000855548,1180843901987156,0.62100005,9.4800005,2.7850502
1680000855549,1180843904489079,0.69795,9.397051,2.6890502
1680000855552,1180843906991233,0.63600004,9.423,2.73495
1680000855554,1180843909493310,0.60495,9.4470005,2.7250502
1680000855558,1180843911995277,0.60495,9.361051,2.62905
1680000855560,1180843914497431,0.693,9.4800005,2.73
1680000855562,1180843916999584,0.67200005,9.46395,2.66505
1680000855565,1180843919501738,0.58095,9.430051,2.67195
1680000855567,1180843922003815,0.54495,9.46605,2.7900002
1680000855569,1180843924505738,0.669,9.459001,2.76795
1680000855571,1180843927007815,0.61005,9.34095,2.778
1680000855574,1180843929509969,0.564,9.49695,2.8330503
1680000855577,1180843932012123,0.54495,9.49995,2.7799501
1680000855580,1180843934514046,0.588,9.47295,2.838
1680000855583,1180843937016200,0.50100005,9.53505,2.8159502
1680000855584,1180843939518277,0.54495,9.403951,2.86905
1680000855587,1180843942020214,0.47100002,9.43995,2.8330503
1680000855589,1180843944522368,0.507,9.460951,2.871
1680000855592,1180843947024445,0.528,9.40095,2.7540002
1680000855596,1180843949526685,0.55200005,9.459001,2.7949502
1680000855598,1180843952028762,0.63105005,9.46395,2.7589502
1680000855600,1180843954530685,0.684,9.411,2.67705
1680000855602,1180843957032839,0.648,9.40905,2.8879502
1680000855605,1180843959534916,0.693,9.4470005,2.8980002
1680000855607,1180843962036843,0.73395,9.411,2.86905
1680000855609,1180843964538997,0.80100006,9.391951,3.0220501
1680000855611,1180843967041151,0.64995,9.4800005,2.90505
1680000855614,1180843969543228,0.897,9.31305,3.01305
1680000855618,1180843972045166,0.87495005,9.327001,2.9980502
1680000855619,1180843974547320,0.78900003,9.399,3.0199502
1680000855621,1180843977049397,0.837,9.3820505,3.0940502
1680000855624,1180843979551320,0.83895004,9.45195,2.97705
1680000855628,1180843982053651,0.88005006,9.471001,3.0580502
1680000855630,1180843984555574,0.83205,9.52095,3.14895
1680000855634,1180843987057727,0.85905004,9.483001,3.039
1680000855636,1180843989559804,0.76305,9.456,3.051
1680000855638,1180843992061727,0.70500004,9.588,3.01305
1680000855640,1180843994563871,0.81495005,9.397051,3.04095
1680000855642,1180843997065948,0.76500005,9.47805,3.01305
1680000855644,1180843999568102,0.837,9.397051,3.075
1680000855647,1180844002070256,0.86595005,9.46605,2.943
1680000855649,1180844004572174,0.906,9.46605,3.04395
1680000855652,1180844007074328,0.91995007,9.4470005,2.91195
1680000855654,1180844009576174,0.9990001,9.516001,3.07695
1680000855658,1180844012078328,1.03695,9.444,2.94105
1680000855659,1180844014580425,1.0639501,9.456,2.943
1680000855662,1180844017082579,0.99705005,9.531,2.9910002
1680000855664,1180844019584733,0.98205006,9.48795,2.80695
1680000855667,1180844022086656,1.02495,9.526051,2.8500001
1680000855671,1180844024588824,0.96795005,9.526051,2.83995
1680000855673,1180844027090900,0.915,9.49695,2.8930502
1680000855675,1180844029593054,0.78405005,9.562051,2.835
1680000855677,1180844032094977,0.61005,9.4129505,2.8900502
1680000855679,1180844034597131,0.68100005,9.418051,2.7520502
1680000855681,1180844037099169,0.50100005,9.43995,2.94105
1680000855684,1180844039601092,0.58995,9.45405,2.8590002
1680000855689,1180844042103477,0.59505004,9.430051,2.80695
1680000855690,1180844044605400,0.53505003,9.432,2.73495
1680000855692,1180844047107477,0.52305,9.460951,2.8230002
1680000855694,1180844049609400,0.40605003,9.406051,2.775
1680000855699,1180844052111554,0.44895002,9.3490505,2.76795
1680000855700,1180844054613631,0.38895002,9.37005,2.7949502
1680000855701,1180844057115574,0.37500003,9.38895,2.80395
1680000855706,1180844059617958,0.40095,9.35295,2.6920502
1680000855709,1180844062119882,0.42495003,9.34095,2.77305
1680000855710,1180844064622035,0.36,9.231001,2.67195
1680000855712,1180844067124131,0.34605002,9.229051,2.64105
1680000855714,1180844069626054,0.37995002,9.33195,2.6749501
1680000855717,1180844072128208,0.44895002,9.17595,2.7520502
1680000855722,1180844074630285,0.38895002,9.214951,2.6200502
1680000855722,1180844077132439,0.40800002,9.286051,2.6890502
1680000855724,1180844079634583,0.53295004,9.243,2.7439501
1680000855728,1180844082136506,0.51405,9.30105,2.69595
1680000855729,1180844084638583,0.43500003,9.262051,2.80395
1680000855733,1180844087140506,0.46305,9.32205,2.7229502
1680000855734,1180844089642660,0.54495,9.34605,2.7540002
1680000855738,1180844092144814,0.49005002,9.456,2.706
1680000855740,1180844094646968,0.48000002,9.4470005,2.7199502
1680000855741,1180844097149044,0.46305,9.432,2.7919502
1680000855746,1180844099650973,0.51000005,9.4470005,2.6530502
1680000855748,1180844102153126,0.64095,9.48795,2.6890502
1680000855750,1180844104655203,0.55905,9.492001,2.67
1680000855752,1180844107157126,0.72900003,9.47805,2.69895
1680000855754,1180844109659511,0.62595004,9.50895,2.66505
1680000855757,1180844112161443,0.67905,9.456,2.7850502
1680000855759,1180844114663520,0.67905,9.5449505,2.775
1680000855761,1180844117165674,0.777,9.571051,2.874
1680000855764,1180844119667597,0.81105006,9.579,2.8500001
1680000855767,1180844122169737,0.79395,9.543,2.8620002
1680000855769,1180844124671814,0.83505005,9.49695,2.9239502
1680000855771,1180844127173968,0.87495005,9.592951,2.8879502
1680000855774,1180844129675891,0.837,9.47595,2.946
1680000855778,1180844132177953,0.87495005,9.526051,2.9839501
1680000855780,1180844134680106,0.88005006,9.444,3.0370502
1680000855783,1180844137182030,0.753,9.45195,3.01305
1680000855785,1180844139684183,0.73200005,9.50895,3.084
1680000855788,1180844142186333,0.80805004,9.504001,2.97705
1680000855789,1180844144688410,0.84705,9.460951,3.0319502
1680000855792,1180844147190564,0.74805003,9.550051,3.108
1680000855794,1180844149692487,0.86805004,9.519,3.0919502
1680000855797,1180844152194564,0.78000003,9.5449505,3.051
1680000855800,1180844154696732,0.75795,9.48795,3.0370502
1680000855802,1180844157198655,0.84405005,9.519,3.0340502
1680000855804,1180844159701040,0.78900003,9.562051,2.9530501
1680000855807,1180844162202963,0.753,9.528001,3.0649502
1680000855809,1180844164705040,0.72705,9.571051,2.9959502
1680000855812,1180844167206973,0.76995003,9.456,3.015
1680000855814,1180844169709127,0.72705,9.555,3.2209501
1680000855818,1180844172211203,0.74805003,9.571051,3.0220501
1680000855821,1180844174713127,0.70305,9.538051,2.979
1680000855823,1180844177215496,0.78000003,9.526051,3.1350002
1680000855825,1180844179717419,0.68595004,9.519,3.0250502
1680000855828,1180844182219496,0.63795,9.5449505,3.01305
1680000855829,1180844184721650,0.73200005,9.592951,3.0199502
1680000855832,1180844187223573,0.76005006,9.45405,2.9890501
1680000855834,1180844189725650,0.768,9.519,2.9959502
1680000855838,1180844192227881,0.79395,9.526051,2.89995
1680000855839,1180844194729958,0.79605,9.516001,2.8830001
1680000855842,1180844197232112,0.80595005,9.5119505,2.9569502
1680000855844,1180844199734016,0.77505004,9.543,2.8950002
1680000855847,1180844202236093,0.708,9.430051,2.90505
1680000855849,1180844204738016,0.71295005,9.4470005,2.9220002
1680000855852,1180844207240170,0.75795,9.49695,2.8500001
1680000855854,1180844209742347,0.66195005,9.47805,2.94105
1680000855859,1180844212244424,0.75795,9.526051,2.97195
1680000855861,1180844214746578,0.693,9.456,2.8639503
1680000855863,1180844217248501,0.64095,9.504001,2.91195
1680000855864,1180844219750592,0.61200005,9.49695,2.93595
1680000855868,1180844222252746,0.61005,9.45195,2.8879502
1680000855871,1180844224754900,0.44400004,9.50205,2.9569502
1680000855873,1180844227257054,0.45405003,9.45405,2.9670002
1680000855875,1180844229758939,0.44895002,9.468,2.946
1680000855878,1180844232261016,0.39900002,9.483001,2.88105
1680000855880,1180844234763170,0.35805002,9.456,2.9020503
1680000855882,1180844237265323,0.31695002,9.40095,2.9929502
1680000855884,1180844239767247,0.28095,9.448951,2.80905
1680000855887,1180844242269328,0.21705002,9.385051,2.80695
1680000855889,1180844244771482,0.23295002,9.432,2.9170501
1680000855892,1180844247273405,0.22200002,9.427951,2.9170501
1680000855896,1180844249775496,0.25695002,9.528001,2.9599502
1680000855899,1180844252277650,0.20700002,9.267,3.0679502
1680000855901,1180844254779804,0.20505,9.411,3.0529501
1680000855903,1180844257281727,0.21000001,9.394051,3.0319502
1680000855905,1180844259783881,0.18105,9.33195,3.0030003
1680000855907,1180844262285948,0.18105,9.35805,2.9290502
1680000855909,1180844264787871,0.12105001,9.424951,2.87805
1680000855912,1180844267290025,0.22395001,9.45195,2.91405
1680000855914,1180844269792179,0.24105,9.483001,2.9290502
1680000855917,1180844272294266,0.28905,9.394051,2.7850502
1680000855921,1180844274796419,0.32505003,9.444,2.9959502
1680000855922,1180844277298343,0.40095,9.5449505,2.94105
1680000855924,1180844279800496,0.45405003,9.5449505,2.9020503
1680000855927,1180844282302573,0.46605003,9.595051,2.8570502
1680000855929,1180844284804727,0.55200005,9.528001,2.9550002
1680000855933,1180844287306650,0.55905,9.495001,2.91195
1680000855936,1180844289808727,0.68895006,9.47805,2.9670002
1680000855939,1180844292310886,0.74595004,9.507001,3.0010502
1680000855940,1180844294812809,0.813,9.3490505,3.0340502
1680000855942,1180844297314963,0.78900003,9.492001,3.04905
1680000855944,1180844299817040,0.87795,9.483001,3.21105
1680000855947,1180844302319194,0.88305,9.397051,3.18495
1680000855949,1180844304821343,0.89205,9.418051,3.183
1680000855952,1180844307323266,0.90795004,9.375,3.0580502
1680000855955,1180844309825343,0.89505005,9.30795,3.108
1680000855957,1180844312327496,0.95295006,9.295951,3.1300502
1680000855959,1180844314829401,0.9580501,9.36795,3.1300502
1680000855962,1180844317331554,0.98505,9.444,3.18
1680000855965,1180844319833631,0.9990001,9.37695,3.0919502
1680000855967,1180844322335785,0.97005004,9.4129505,3.0580502
1680000855971,1180844324837722,0.90795004,9.411,3.0940502
1680000855973,1180844327339876,0.90405005,9.4470005,3.0600002
1680000855977,1180844329841953,0.86295,9.397051,3.04095
1680000855981,1180844332343876,0.83895004,9.3490505,3.0340502
1680000855981,1180844334846261,0.79200006,9.424951,3.051
1680000855983,1180844337348194,0.66705,9.435,2.9959502
1680000855984,1180844339850271,0.76995003,9.379951,3.08205
1680000855989,1180844342352425,0.61005,9.411,3.0679502
1680000855990,1180844344854348,0.684,9.399,3.04095
1680000855992,1180844347356425,0.67395,9.36495,2.86905
1680000855995,1180844349858550,0.60705,9.253051,2.946
1680000855997,1180844352360703,0.45900002,9.246,2.93805
1680000856000,1180844354862857,0.47100002,9.229051,3.0630002
1680000856004,1180844357364780,0.45600003,9.271951,3.0220501
1680000856005,1180844359866838,0.40605003,9.265051,3.0250502
1680000856009,1180844362368761,0.41295,9.282001,3.0600002
1680000856010,1180844364870915,0.44400004,9.33195,3.0700502
1680000856012,1180844367372992,0.34095,9.286051,3.1369503
1680000856014,1180844369875165,0.41805002,9.271951,3.11295
1680000856018,1180844372377319,0.35295,9.327001,3.11295
1680000856020,1180844374879242,0.37500003,9.38895,3.07695
1680000856022,1180844377381319,0.37005,9.387,3.0919502
1680000856024,1180844379883473,0.45900002,9.318001,3.0289502
1680000856027,1180844382385396,0.38205,9.375,3.0940502
1680000856029,1180844384887780,0.41295,9.397051,3.18705
1680000856032,1180844387389703,0.53805,9.444,3.0940502
1680000856035,1180844389891765,0.52095,9.397051,3.18705
1680000856038,1180844392393919,0.54705,9.375,3.1969502
1680000856040,1180844394895842,0.58095,9.42,3.2070003
1680000856042,1180844397397919,0.63795,9.40905,3.2380502
1680000856047,1180844399900073,0.64305,9.379951,3.2740502
1680000856049,1180844402402227,0.67695004,9.279,3.1279502
1680000856051,1180844404904150,0.78705,9.37695,3.2640002
1680000856053,1180844407406227,0.83895004,9.430051,3.2689502
1680000856054,1180844409908381,0.78705,9.411,3.1990502
1680000856058,1180844412410280,0.88305,9.385051,3.2640002
1680000856060,1180844414912357,0.87495005,9.298051,3.2040002
1680000856062,1180844417414511,0.915,9.229051,3.2689502
1680000856064,1180844419916665,0.92205006,9.327001,3.3049502
1680000856068,1180844422418818,0.95595,9.23805,3.2710502
1680000856070,1180844424920732,0.96495,9.27,3.34995
1680000856072,1180844427422809,0.897,9.27,3.35295
1680000856074,1180844429924963,0.93705004,9.250051,3.1990502
1680000856077,1180844432426886,0.9580501,9.234,3.4129503
1680000856079,1180844434929049,0.95295006,9.22395,3.4339502
1680000856083,1180844437431203,0.915,9.22605,3.5130002
1680000856086,1180844439933280,1.0200001,9.229051,3.39105
1680000856088,1180844442435434,0.93405,9.183001,3.31395
1680000856090,1180844444937343,0.99405,9.15705,3.31695
1680000856092,1180844447439420,0.90195006,9.33705,3.4050002
1680000856094,1180844449941574,0.88305,9.21195,3.5389502
1680000856097,1180844452443497,0.84195006,9.1710005,3.5989501
1680000856099,1180844454945574,0.87105006,9.229051,3.525
1680000856102,1180844457447704,0.86100006,9.20505,3.52005
1680000856105,1180844459949627,0.81495005,9.19095,3.4129503
1680000856107,1180844462451780,0.82500005,9.09,3.3790503
1680000856109,1180844464953934,0.74100006,9.198001,3.4510503
1680000856112,1180844467456011,0.78705,9.18795,3.4650002
1680000856114,1180844469958160,0.80100006,9.31995,3.417
1680000856117,1180844472460083,0.648,9.22605,3.5419502
1680000856121,1180844474962160,0.68100005,9.274051,3.3769503
1680000856123,1180844477464314,0.69600004,9.19995,3.4720502
1680000856125,1180844479966468,0.74595004,9.198001,3.4800003
1680000856127,1180844482468391,0.669,9.21195,3.45795
1680000856129,1180844484970468,0.693,9.27,3.3120003
1680000856132,1180844487472622,0.648,9.217051,3.3960001
1680000856135,1180844489974574,0.75105006,9.229051,3.3120003
1680000856139,1180844492476651,0.72705,9.255,3.2260501
1680000856140,1180844494978881,0.744,9.259951,3.3340502
1680000856142,1180844497480958,0.83505005,9.1710005,3.3450003
1680000856144,1180844499983132,0.78195006,9.121051,3.3930001
1680000856147,1180844502485055,0.82695,9.21195,3.2950501
1680000856149,1180844504987132,0.83895004,9.16395,3.31905
1680000856151,1180844507489286,0.82305,9.183001,3.31905
1680000856154,1180844509991185,0.84705,9.214951,3.2350502
1680000856158,1180844512493339,0.90405005,9.19995,3.2899501
1680000856160,1180844514995493,0.88500005,9.21,3.3019502
1680000856162,1180844517497570,0.906,9.198001,3.4650002
1680000856164,1180844519999526,0.91005003,9.151951,3.3289502
1680000856167,1180844522501603,0.92205006,9.195001,3.3100502
1680000856169,1180844525003757,0.873,9.14295,3.3289502
1680000856175,1180844527505911,0.84900004,9.186001,3.4630501
1680000856176,1180844530007834,0.83205,9.115951,3.4080002
1680000856178,1180844532509987,0.83205,9.114,3.32205
1680000856180,1180844535012064,0.80100006,9.04905,3.3289502
1680000856182,1180844537514218,0.72195005,9.0060005,3.4510503
1680000856184,1180844540016141,0.77505004,9.052051,3.2950501
1680000856187,1180844542518199,0.837,9.16695,3.3790503
1680000856189,1180844545020430,0.684,9.09195,3.38595
1680000856192,1180844547522507,0.72705,9.14295,3.453
1680000856196,1180844550024430,0.67395,9.151951,3.5130002
1680000856199,1180844552526584,0.648,9.114,3.4129503
1680000856201,1180844555028661,0.633,9.147,3.4410002
1680000856202,1180844557530584,0.58305,9.121051,3.4510503
1680000856204,1180844560032661,0.53505003,9.102,3.42195
1680000856208,1180844562534892,0.56595004,8.986951,3.5110502
1680000856210,1180844565036969,0.624,9.174001,3.5080502
1680000856213,1180844567538892,0.54705,9.21,3.3649502
1680000856216,1180844570041045,0.67695004,9.126,3.4099503
1680000856218,1180844572543146,0.6,9.186001,3.4840503
1680000856220,1180844575045300,0.74805003,9.17595,3.4699502
1680000856222,1180844577547454,0.70995003,9.20505,3.489
1680000856224,1180844580049377,0.73605,9.16695,3.5779502
1680000856228,1180844582551531,0.837,9.162001,3.4360502
1680000856230,1180844585053603,0.88005006,9.066,3.456
1680000856235,1180844587555526,0.91695005,9.18795,3.4840503
1680000856237,1180844590057680,0.92505,9.082951,3.48705
1680000856238,1180844592559757,0.9289501,9.05595,3.5490003
1680000856240,1180844595061988,1.0180501,9.05895,3.4750502
1680000856242,1180844597563834,1.167,9.04905,3.525
1680000856245,1180844600065988,1.07805,8.982,3.6210003
1680000856248,1180844602568065,1.1020501,9.076051,3.6829503
1680000856249,1180844605070218,1.131,9.082951,3.62295
1680000856252,1180844607572114,1.2019501,8.961,3.7570503
1680000856255,1180844610074190,1.22595,8.98005,3.5629501
1680000856258,1180844612576421,1.167,8.910001,3.70005
1680000856260,1180844615078498,1.179,8.934,3.59505
1680000856262,1180844617580401,1.2379501,9.02805,3.5830503
1680000856266,1180844620082555,1.2580501,9.05895,3.5989501
1680000856274,1180844622584623,1.15695,8.929951,3.59505
1680000856275,1180844625086546,1.179,9.01605,3.65895
1680000856275,1180844627588931,1.19805,8.956051,3.69
1680000856277,1180844630090854,1.179,8.941051,3.6760502
1680000856279,1180844632980931,1.1520001,9.021001,3.729
1680000856281,1180844635094854,1.1880001,8.965051,3.5970001
1680000856283,1180844637597008,1.2240001,9.02505,3.6070502
1680000856286,1180844640099085,1.176,8.89395,3.62295
1680000856290,1180844642601238,1.2220501,8.973001,3.5800502
1680000856291,1180844645103392,1.18605,9.066,3.6019502
1680000856292,1180844647605315,1.212,9.135,3.58695
1680000856295,1180844650107483,1.143,9.06795,3.6690001
1680000856298,1180844652609560,1.179,9.109051,3.59505
1680000856300,1180844655111714,1.19295,9.15705,3.69
1680000856302,1180844657613868,1.18095,9.042001,3.7099502
1680000856305,1180844660115796,1.18605,9.14295,3.6190503
1680000856309,1180844662617873,1.07805,9.03705,3.6780002
1680000856311,1180844665120027,1.22595,9.1380005,3.66405
1680000856313,1180844667621950,1.1209501,8.99895,3.6859503
1680000856315,1180844670124027,1.08,9.04695,3.7530003
1680000856318,1180844672626161,1.2550501,9.088051,3.657
1680000856320,1180844675128314,1.2100501,9.0730505,3.6210003
1680000856322,1180844677630238,1.2049501,9.02505,3.62595
1680000856325,1180844680132314,1.1740501,8.997001,3.73095
1680000856327,1180844682634482,1.1590501,8.977051,3.7099502
1680000856330,1180844685136405,1.167,8.953051,3.8239503
1680000856332,1180844687638559,1.09905,8.99895,3.7380002
1680000856335,1180844690140713,1.19295,8.99895,3.7500002
1680000856338,1180844692642776,1.10895,8.929951,3.6810002
1680000856340,1180844695144930,1.1020501,8.89095,3.7530003
1680000856342,1180844697646853,1.04205,8.956051,3.762
1680000856348,1180844700148934,1.0489501,8.898001,3.7069502
1680000856349,1180844702651088,1.0710001,8.925,3.6739502
1680000856351,1180844705153242,1.047,8.994,3.765
1680000856353,1180844707655165,0.93195003,8.98005,3.70005
1680000856355,1180844710157242,0.93900007,9.01305,3.8719501
1680000856357,1180844712659381,0.94605005,9.078,3.7600503
1680000856360,1180844715161305,1.02795,8.946,3.798
1680000856362,1180844717663381,0.897,9.054001,3.7909503
1680000856365,1180844720165535,1.03005,9.02505,3.8200502
1680000856368,1180844722667689,1.03695,9.0400505,3.73305
1680000856370,1180844725169612,1.0830001,9.078,3.8580003
1680000856372,1180844727671766,1.176,9.06105,3.7810502
1680000856375,1180844730173843,1.1190001,8.98005,3.69
1680000856378,1180844732676002,1.1590501,9.066,3.8820002
1680000856380,1180844735177925,1.1520001,9.094951,3.8440502
1680000856384,1180844737680079,1.22895,9.109051,3.8869503
1680000856387,1180844740182233,1.22595,9.1380005,3.834
1680000856389,1180844742684324,1.32,9.16395,3.834
1680000856390,1180844745186247,1.404,9.186001,3.8100002
1680000856392,1180844747688401,1.38195,9.16695,3.9229503
1680000856395,1180844750190477,1.3990501,9.1710005,3.96795
1680000856397,1180844752692401,1.3630501,9.32505,4.05705
1680000856399,1180844755194568,1.47105,9.255,4.0069504
1680000856402,1180844757696722,1.452,9.23595,3.9229503
1680000856405,1180844760198799,1.4830501,9.19995,4.038
1680000856407,1180844762700953,1.473,9.219001,4.083
1680000856409,1180844765202876,1.5109501,9.183001,4.0069504
1680000856412,1180844767704949,1.54305,9.17895,3.9420002
1680000856415,1180844770207180,1.57605,9.109051,4.1020503
1680000856418,1180844772709257,1.6099501,9.16905,3.9540002
1680000856421,1180844775211199,1.72695,9.06105,4.0800004
1680000856423,1180844777713353,1.7149501,9.088051,4.0219502
1680000856426,1180844780215430,1.6000501,9.121051,4.13595
1680000856428,1180844782717353,1.69095,9.05595,4.155
1680000856430,1180844785219507,1.7320501,9.121051,4.0680003
1680000856432,1180844787721693,1.6620001,9.21195,4.0939503
1680000856435,1180844790223770,1.7010001,8.99895,4.15005
1680000856438,1180844792725693,1.6309501,9.03495,4.0800004
1680000856440,1180844795227847,1.54305,9.052051,4.0219502
1680000856442,1180844797729948,1.5469501,8.965051,4.086
1680000856445,1180844800232102,1.626,8.97,4.1449504
1680000856447,1180844802734025,1.6189501,8.98005,4.2120004
1680000856450,1180844805236179,1.57605,8.949,4.1070004
1680000856452,1180844807738329,1.54305,8.901,4.2049503
1680000856455,1180844810240406,1.50705,8.929951,4.16505
1680000856460,1180844812742329,1.54305,8.88405,4.0069504
1680000856462,1180844815244483,1.4760001,8.84805,3.9900002
1680000856464,1180844817746579,1.42305,9.00405,4.09005
1680000856466,1180844820248809,1.3770001,8.932051,4.05705
1680000856468,1180844822750656,1.4080501,8.938951,4.0470004
1680000856471,1180844825252809,1.28205,8.944051,3.97305
1680000856473,1180844827754871,1.2600001,8.985001,3.9420002
1680000856475,1180844830257025,1.21905,8.941051,3.9709501
1680000856478,1180844832758948,1.21905,8.99895,3.9510002
1680000856480,1180844835261025,1.2240001,8.934,4.09005
1680000856483,1180844837763256,1.2529501,8.922001,4.02105
1680000856484,1180844840265343,1.296,9.009001,3.9439502
1680000856487,1180844842767266,1.22595,8.989051,4.0009503
1680000856489,1180844845269420,1.2049501,8.982,3.9919503
1680000856492,1180844847771497,1.1710501,9.118951,4.0399504
1680000856496,1180844850273410,1.164,9.127951,4.1119504
1680000856500,1180844852775564,1.2019501,9.052051,3.9970503
1680000856501,1180844855277718,1.15005,9.16695,3.9109502
1680000856504,1180844857779871,1.2100501,9.147,3.9439502
1680000856505,1180844860281948,1.3099501,9.19305,4.06395
1680000856508,1180844862783809,1.2600001,9.10005,3.9160502
1680000856510,1180844865286040,1.31295,9.151951,3.9709501
1680000856512,1180844867788117,1.2889501,9.17595,3.97305
1680000856516,1180844870290040,1.3609501,9.102,3.9919503
1680000856518,1180844872792189,1.4080501,9.14295,3.9229503
1680000856521,1180844875294266,1.45905,9.118951,4.00395
1680000856523,1180844877796420,1.4440501,9.030001,4.16895
1680000856525,1180844880298574,1.4830501,9.009001,4.1929502
1680000856528,1180844882800497,1.43505,8.99205,4.1070004
1680000856530,1180844885302670,1.58595,8.949,4.071
1680000856535,1180844887804747,1.54005,8.89605,4.038
1680000856537,1180844890306670,1.62405,8.997001,4.18095
1680000856539,1180844892808742,1.61205,8.88405,4.01805
1680000856541,1180844895310895,1.605,8.84595,3.93495
1680000856543,1180844897813049,1.6890001,8.901,4.0219502
1680000856545,1180844900314972,1.6339501,8.86005,4.09305
1680000856547,1180844902817126,1.69305,8.99205,4.0470004
1680000856550,1180844905319208,1.626,9.00405,3.9870002
1680000856552,1180844907821131,1.64295,8.950951,4.0680003
1680000856555,1180844910323285,1.7149501,8.85,4.0999503
1680000856557,1180844912825362,1.71,8.874001,4.0939503
1680000856560,1180844915327593,1.7920501,8.82405,4.1119504
1680000856562,1180844917829656,1.62195,8.805,4.224
1680000856565,1180844920331579,1.57605,8.673,4.2319503
1680000856568,1180844922833733,1.605,8.806951,4.083
1680000856571,1180844925335795,1.6360501,8.755051,3.9829502
1680000856573,1180844927837718,1.6360501,8.7310505,4.0140004
1680000856576,1180844930340102,1.605,8.776051,3.999
1680000856579,1180844932842025,1.59,8.74005,4.01805
1680000856581,1180844935344102,1.4950501,8.736,4.0800004
1680000856583,1180844937846030,1.6099501,8.767051,4.2049503
1680000856585,1180844940348184,1.5090001,8.6970005,4.1719503
1680000856587,1180844942850261,1.5259501,8.809951,4.07595
1680000856590,1180844945352184,1.4760001,8.89605,4.02105
1680000856592,1180844947854569,1.5190501,8.87895,4.08705
1680000856595,1180844950356511,1.353,8.86005,4.11705
1680000856598,1180844952858665,1.29795,8.910001,3.9109502
1680000856600,1180844955360742,1.43505,8.92695,4.1290503
1680000856602,1180844957862665,1.3939501,8.92695,4.14795
1680000856605,1180844960364800,1.38495,8.89095,4.16505
1680000856609,1180844962866877,1.368,8.898001,4.1530504
1680000856613,1180844965369031,1.4130001,8.917951,4.13805
1680000856613,1180844967870954,1.4440501,8.961,4.0939503
1680000856615,1180844970373107,1.45905,8.86005,4.10505
1680000856618,1180844972875184,1.5330001,8.961,4.0800004
1680000856621,1180844975377107,1.4419501,8.937,4.0939503
1680000856622,1180844977879261,1.521,9.076051,4.0800004
1680000856625,1180844980381405,1.5469501,9.03195,4.1670003
1680000856630,1180844982883559,1.5829501,8.908051,4.03305
1680000856630,1180844985385636,1.62405,8.99895,4.1449504
1680000856632,1180844987887559,1.5829501,9.02505,4.16505
1680000856635,1180844990389708,1.60695,8.99895,4.1719503
1680000856638,1180844992891785,1.6669501,8.946,4.038
1680000856640,1180844995393708,1.6620001,9.02805,4.038
1680000856642,1180844997896093,1.71,8.953051,4.10505
1680000856646,1180845000398021,1.6290001,8.938951,3.9540002
1680000856649,1180845002900174,1.6459501,9.02295,3.9829502
1680000856651,1180845005402251,1.5259501,8.908051,4.05405
1680000856653,1180845007904174,1.65495,8.87895,4.0740004
1680000856655,1180845010406251,1.65795,8.97,4.098
1680000856658,1180845012908395,1.6720501,9.018001,4.083
1680000856660,1180845015410549,1.593,9.00105,3.9160502
1680000856662,1180845017912472,1.5499501,8.87895,3.89595
1680000856665,1180845020414626,1.5330001,8.88195,4.071
1680000856668,1180845022916703,1.521,8.944051,4.02105
1680000856675,1180845025418626,1.57395,8.91495,4.04505
1680000856675,1180845027920780,1.5499501,8.929951,4.059
1680000856676,1180845030422934,1.55505,8.905951,4.14795
1680000856678,1180845032925011,1.4800501,8.86695,4.1839504
1680000856680,1180845035427165,1.4680501,8.85495,4.131
1680000856684,1180845037929088,1.3920001,8.898001,4.119
1680000856689,1180845040431241,1.4440501,8.853001,4.22205
1680000856690,1180845042933323,1.3560001,8.889001,4.08705
1680000856691,1180845045435246,1.42005,8.905951,4.131
1680000856692,1180845047937400,1.365,8.776051,4.1860504
1680000856695,1180845050439554,1.3800001,8.793,4.18095
1680000856698,1180845052941631,1.3219501,8.812051,4.2510004
1680000856701,1180845055443554,1.3270501,8.84805,4.203
1680000856702,1180845057945708,1.3410001,8.805,4.15005
1680000856706,1180845060447785,1.353,8.818951,4.27005
1680000856708,1180845062949939,1.404,8.721001,4.3110003
1680000856710,1180845065452098,1.4320501,8.773951,4.2049503
1680000856714,1180845067954021,1.46595,8.656051,4.19805
1680000856716,1180845070456098,1.50195,8.776051,4.2840004
1680000856718,1180845072958252,1.473,8.64,4.32
1680000856722,1180845075460395,1.52295,8.625,4.07805
1680000856723,1180845077962318,1.47105,8.65905,4.1929502
1680000856726,1180845080464472,1.5160501,8.641951,4.2319503
1680000856731,1180845082966549,1.5979501,8.635051,4.26795
1680000856731,1180845085468472,1.58595,8.616,4.227
1680000856732,1180845087970545,1.53795,8.688001,4.28895
1680000856736,1180845090472776,1.5090001,8.688001,4.2049503
1680000856739,1180845092974853,1.6000501,8.680051,4.1929502
1680000856741,1180845095476776,1.5190501,8.75895,4.275
1680000856743,1180845097978934,1.5190501,8.724,4.3060503
1680000856745,1180845100481011,1.4470501,8.676001,4.263
1680000856748,1180845102982934,1.473,8.712001,4.27995
1680000856750,1180845105485088,1.45905,8.700001,4.28205
1680000856752,1180845107987242,1.38705,8.743051,4.296
1680000856756,1180845110489395,1.437,8.709001,4.203
1680000856759,1180845112991472,1.4299501,8.71905,4.2319503
1680000856761,1180845115493395,1.50195,8.70405,4.335
1680000856764,1180845117995444,1.3960501,8.69505,4.224
1680000856767,1180845120497598,1.3750501,8.635051,4.2769504
1680000856768,1180845122999752,1.401,8.743051,4.248
1680000856771,1180845125501675,1.2930001,8.68995,4.155
1680000856773,1180845128003829,1.3630501,8.781,4.12395
1680000856777,1180845130505882,1.26705,8.72595,4.0999503
1680000856779,1180845133007805,1.2600001,8.818951,3.9750001
1680000856780,1180845135509959,1.2550501,8.841001,4.0150504
1680000856783,1180845138012036,1.21905,8.862,4.05705
1680000856788,1180845140514233,1.2379501,8.953051,4.0470004
1680000856790,1180845143016310,1.095,8.865001,4.18905
1680000856791,1180845145518233,1.22595,8.853001,4.0999503
1680000856792,1180845148020386,1.2240001,8.812051,4.07595
1680000856799,1180845150522473,1.28205,8.920051,4.0339503
1680000856800,1180845153024396,1.34895,8.865001,4.083
1680000856802,1180845155526473,1.36995,8.818951,4.1020503
1680000856804,1180845158028704,1.3939501,8.973001,4.0410004
1680000856806,1180845160530781,1.389,8.874001,4.098
1680000856808,1180845163032708,1.2580501,8.829,4.2510004
1680000856810,1180845165534862,1.27695,8.82405,4.0009503
1680000856812,1180845168036939,1.36995,8.788051,4.119
1680000856816,1180845170538862,1.34595,8.817,4.0680003
1680000856819,1180845173041242,1.3290001,8.83905,4.14795
1680000856821,1180845175543165,1.4059501,8.85,4.06605
1680000856823,1180845178045319,1.5330001,8.781,4.16505
1680000856826,1180845180547396,1.4280001,8.86995,4.119
1680000856828,1180845183049319,1.4779501,8.913,4.13595
1680000856830,1180845185551417,1.45905,8.985001,4.143
1680000856836,1180845188053570,1.5979501,8.908051,4.25595
1680000856838,1180845190555724,1.5790501,8.917951,4.2049503
1680000856840,1180845193057647,1.6140001,8.922001,4.119
1680000856841,1180845195559805,1.6099501,8.84595,4.2340503
1680000856843,1180845198061882,1.5160501,8.874001,4.155
1680000856847,1180845200563805,1.6339501,8.92695,4.2649503
1680000856849,1180845203065959,1.5949501,8.941051,4.25805
1680000856850,1180845205568036,1.5280501,8.901,4.17705
1680000856853,1180845208070262,1.6000501,8.830951,4.25805
1680000856856,1180845210572339,1.5450001,8.779051,4.36095
1680000856859,1180845213074262,1.5090001,8.805,4.3230004
1680000856861,1180845215576416,1.5619501,8.817,4.2439504
1680000856862,1180845218078493,1.48695,8.82195,4.19595
1680000856868,1180845220580407,1.5330001,8.78295,4.28895
1680000856869,1180845223082561,1.55505,8.862,4.26
1680000856872,1180845225584714,1.57395,8.785951,4.29405
1680000856874,1180845228086791,1.4950501,8.785951,4.20795
1680000856877,1180845230588714,1.4800501,8.79105,4.296
1680000856879,1180845233090868,1.53795,8.776051,4.3710003
1680000856880,1180845235592945,1.45395,8.755051,4.27995
1680000856882,1180845238094853,1.5330001,8.7619505,4.1740503
1680000856886,1180845240597238,1.54305,8.74695,4.296
1680000856889,1180845243099161,1.4899501,8.81505,4.32705
1680000856890,1180845245601315,1.48695,8.712001,4.21005
1680000856892,1180845248103407,1.3369501,8.773951,4.28895
1680000856896,1180845250605330,1.32,8.724,4.2769504
1680000856899,1180845253107484,1.42005,8.83905,4.24095
1680000856901,1180845255609561,1.27695,8.7949505,4.27005
1680000856903,1180845258111714,1.28205,8.89605,4.2390003
1680000856906,1180845260613628,1.4250001,8.767051,4.2120004
1680000856910,1180845263115781,1.3579501,8.85,4.41405
1680000856912,1180845265617858,1.3440001,8.84805,4.3060503
1680000856913,1180845268119795,1.44,8.932051,4.31505
1680000856916,1180845270621949,1.365,8.785951,4.43295
1680000856919,1180845273124103,1.4080501,8.877001,4.3060503
1680000856921,1180845275626180,1.2,8.89395,4.5
1680000856923,1180845278128334,1.38495,8.77095,4.25595
1680000856925,1180845280630243,1.4110501,8.85795,4.32
1680000856928,1180845283132397,1.46595,8.75895,4.2460504
1680000856930,1180845285634474,1.389,8.853001,4.32705
1680000856932,1180845288136397,1.4779501,8.874001,4.395
1680000856936,1180845290638584,1.35105,8.805,4.4809504
1680000856939,1180845293140738,1.4440501,8.901,4.40595
1680000856940,1180845295642814,1.5109501,8.841001,4.392
1680000856943,1180845298144738,1.521,8.901,4.47795
1680000856948,1180845300646925,1.5139501,8.946,4.35405
1680000856950,1180845303149079,1.53795,8.90295,4.4419503
1680000856952,1180845305651156,1.47105,8.83605,4.37295
1680000856953,1180845308153079,1.5190501,8.905951,4.5
1680000856956,1180845310655233,1.4800501,8.80305,4.359
1680000856958,1180845313157343,1.52295,8.92695,4.2720003
1680000856960,1180845315659266,1.41795,8.946,4.30305
1680000856963,1180845318161651,1.452,8.949,4.395
1680000856967,1180845320663574,1.452,8.944051,4.3710003
1680000856969,1180845323165647,1.4760001,8.89605,4.3230004
1680000856972,1180845325667570,1.3410001,8.830951,4.308
1680000856973,1180845328169724,1.44,8.88405,4.3830004
1680000856976,1180845330671878,1.2889501,8.941051,4.3489504
1680000856979,1180845333173963,1.3410001,8.83905,4.26
1680000856981,1180845335676117,1.3750501,8.962951,4.3390503
1680000856984,1180845338178040,1.33395,8.950951,4.4110503
1680000856988,1180845340680194,1.389,8.986951,4.275
1680000856990,1180845343182271,1.3729501,8.98005,4.296
1680000856991,1180845345684194,1.33905,9.126,4.36305
1680000856993,1180845348186348,1.36995,9.094951,4.22895
1680000856996,1180845350688502,1.416,9.10005,4.26795
1680000856998,1180845353190579,1.3729501,9.04905,4.3110003
1680000857001,1180845355692727,1.401,9.127951,4.27995
1680000857003,1180845358194650,1.48695,9.03705,4.27995
1680000857007,1180845360696727,1.5280501,9.12405,4.34205
1680000857008,1180845363198650,1.38495,9.01605,4.215
1680000857010,1180845365701034,1.4800501,8.953051,4.203
1680000857013,1180845368202963,1.45395,9.07995,4.2010503
1680000857016,1180845370705116,1.54305,9.009001,4.31505
1680000857019,1180845373207193,1.47105,8.989051,4.2460504
1680000857022,1180845375709121,1.4440501,8.974951,4.2439504
1680000857024,1180845378211275,1.4899501,9.009001,4.27005
1680000857027,1180845380713352,1.5190501,8.910001,4.275
1680000857029,1180845383215506,1.53495,8.920051,4.3369503
1680000857030,1180845385717660,1.521,8.84595,4.31295
1680000857034,1180845388219607,1.57605,8.84595,4.27995
1680000857038,1180845390721684,1.5330001,8.83395,4.32705
1680000857038,1180845393223838,1.6189501,8.89605,4.32705
1680000857040,1180845395725761,1.5619501,8.82195,4.30305
1680000857043,1180845398227838,1.62195,8.82405,4.3180504
1680000857046,1180845400729987,1.605,8.77095,4.2990003
1680000857048,1180845403232140,1.6500001,8.776051,4.25595
1680000857050,1180845405734064,1.7029501,8.74695,4.392
1680000857053,1180845408236217,1.6810501,8.78295,4.28205
1680000857056,1180845410738309,1.6290001,8.70405,4.24095
1680000857061,1180845413240232,1.7149501,8.755051,4.34205
1680000857063,1180845415742617,1.6720501,8.724,4.296
1680000857064,1180845418244540,1.65795,8.67105,4.4160004
1680000857067,1180845420746602,1.5790501,8.733001,4.26795
1680000857071,1180845423248756,1.54005,8.71905,4.2319503
1680000857072,1180845425750679,1.5690001,8.74995,4.395
1680000857074,1180845428252756,1.49205,8.769,4.392
1680000857077,1180845430754679,1.4130001,8.74995,4.392
1680000857079,1180845433257064,1.50705,8.733001,4.347
1680000857081,1180845435758987,1.42305,8.755051,4.30095
1680000857083,1180845438261064,1.4130001,8.75205,4.31295
1680000857087,1180845440763217,1.401,8.688001,4.31505
1680000857088,1180845443265141,1.4280001,8.721001,4.3060503
1680000857090,1180845445767294,1.437,8.7619505,4.3369503
1680000857093,1180845448269371,1.4280001,8.743051,4.2439504
1680000857098,1180845450771525,1.49205,8.776051,4.30095
1680000857101,1180845453273694,1.41795,8.806951,4.18095
1680000857102,1180845455775617,1.47105,8.83905,4.25805
1680000857105,1180845458277694,1.3729501,8.84805,4.2649503
1680000857108,1180845460779617,1.4640001,8.842951,4.2460504
1680000857109,1180845463281771,1.401,8.797951,4.27005
1680000857111,1180845465783910,1.52295,8.853001,4.2319503
1680000857113,1180845468286064,1.41795,8.743051,4.29405
1680000857116,1180845470788141,1.437,8.80305,4.3560004
1680000857119,1180845473290064,1.4280001,8.800051,4.263
1680000857121,1180845475792218,1.473,8.865001,4.24095
1680000857123,1180845478294290,1.3729501,8.83605,4.2049503
1680000857126,1180845480796213,1.47105,8.80305,4.25805
1680000857128,1180845483298597,1.437,8.829,4.227
1680000857130,1180845485800520,1.53495,8.84595,4.27005
1680000857134,1180845488302593,1.5310501,8.944051,4.2649503
1680000857137,1180845490804516,1.4760001,8.901,4.32
1680000857140,1180845493306670,1.5259501,8.91495,4.2120004
1680000857142,1180845495808824,1.45905,8.922001,4.275
1680000857143,1180845498310901,1.437,8.874001,4.3780503
1680000857147,1180845500812814,1.4970001,8.86995,4.32705
1680000857148,1180845503314968,1.45395,8.874001,4.26795
1680000857150,1180845505817045,1.416,8.889001,4.392
1680000857153,1180845508319199,1.5880501,8.90295,4.37505
1680000857156,1180845510821353,1.4130001,8.889001,4.4089503
1680000857158,1180845513323261,1.5280501,8.745001,4.32
1680000857162,1180845515825414,1.5160501,8.842951,4.4620504
1680000857163,1180845518327491,1.5589501,8.842951,4.4419503
1680000857166,1180845520829414,1.57605,8.82195,4.43505
1680000857168,1180845523331568,1.4830501,8.86695,4.392
1680000857175,1180845525833722,1.5450001,8.785951,4.3320003
1680000857176,1180845528335876,1.50195,8.755051,4.4880004
1680000857177,1180845530837722,1.5520501,8.779051,4.43505
1680000857180,1180845533339876,1.60695,8.79105,4.4110503
1680000857181,1180845535841953,1.55505,8.818951,4.3660502
1680000857183,1180845538344107,1.59,8.812051,4.4760003
1680000857186,1180845540846030,1.65495,8.853001,4.48605
1680000857189,1180845543348184,1.66005,8.712001,4.4710503
1680000857191,1180845545850338,1.7029501,8.830951,4.395
1680000857193,1180845548352415,1.6500001,8.71395,4.428
1680000857196,1180845550854338,1.69095,8.733001,4.4830503
1680000857198,1180845553356491,1.6699501,8.82195,4.5739503
1680000857200,1180845555858564,1.7680501,8.874001,4.41405
1680000857205,1180845558360487,1.7080501,8.755051,4.56705
1680000857206,1180845560862872,1.7530501,8.71905,4.5
1680000857210,1180845563364786,1.641,8.781,4.56195
1680000857212,1180845565866863,1.746,8.812051,4.4539504
1680000857213,1180845568368786,1.7149501,8.755051,4.50705
1680000857216,1180845570870940,1.72905,8.745001,4.5259504
1680000857219,1180845573373017,1.6860001,8.673,4.497
1680000857221,1180845575875248,1.7170501,8.721001,4.42995
1680000857223,1180845578377325,1.6339501,8.721001,4.47405
1680000857227,1180845580879248,1.65495,8.7640505,4.4209504
1680000857228,1180845583381402,1.7149501,8.74005,4.43505
1680000857231,1180845585883479,1.6720501,8.74995,4.4620504
1680000857233,1180845588385406,1.6290001,8.635051,4.41405
1680000857236,1180845590887559,1.6720501,8.70405,4.392
1680000857239,1180845593389713,1.7509501,8.712001,4.4380503
1680000857240,1180845595891790,1.72695,8.6640005,4.4809504
1680000857243,1180845598393732,1.64295,8.656051,4.3440003
1680000857248,1180845600895886,1.6720501,8.5990505,4.2769504
1680000857250,1180845603397963,1.58595,8.70195,4.368
1680000857252,1180845605899886,1.5880501,8.68305,4.3369503
1680000857259,1180845608402271,1.6789501,8.755051,4.38495
1680000857259,1180845610904194,1.62195,8.75895,4.30095
1680000857260,1180845613406348,1.53495,8.641951,4.32705
1680000857261,1180845615908425,1.605,8.709001,4.25805
1680000857263,1180845618410358,1.5280501,8.668051,4.3830004
1680000857266,1180845620912512,1.5880501,8.652,4.43505
1680000857268,1180845623414589,1.5670501,8.673,4.347
1680000857271,1180845625916742,1.5589501,8.68995,4.29195
1680000857273,1180845628418891,1.5790501,8.71605,4.37295
1680000857276,1180845630920814,1.5619501,8.649,4.37505
1680000857278,1180845633422891,1.5690001,8.65905,4.3369503
1680000857280,1180845635924814,1.452,8.75205,4.28895
1680000857284,1180845638426935,1.53495,8.72805,4.29405
1680000857287,1180845640929012,1.57605,8.649,4.4089503
1680000857289,1180845643431243,1.5190501,8.712001,4.335
1680000857291,1180845645933320,1.64295,8.745001,4.36305
1680000857293,1180845648435243,1.5810001,8.64,4.26795
1680000857296,1180845650937397,1.557,8.71905,4.31505
1680000857298,1180845653439474,1.62195,8.755051,4.36095
1680000857300,1180845655941397,1.53795,8.68305,4.2649503
1680000857303,1180845658443551,1.5810001,8.649,4.31505
1680000857306,1180845660945709,1.6189501,8.69505,4.2769504
1680000857308,1180845663447786,1.521,8.7949505,4.41405
1680000857310,1180845665949940,1.6170001,8.665951,4.36305
1680000857312,1180845668451863,1.69305,8.72595,4.46595
1680000857317,1180845670953953,1.6170001,8.709001,4.4689503
1680000857321,1180845673455876,1.57605,8.68305,4.43505
1680000857323,1180845675958261,1.59,8.680051,4.335
1680000857324,1180845678460184,1.52295,8.74695,4.4160004
1680000857327,1180845680962353,1.6500001,8.85795,4.48995
1680000857329,1180845683464430,1.48695,8.785951,4.464
1680000857332,1180845685966353,1.5280501,8.72805,4.5480003
1680000857333,1180845688468507,1.5259501,8.788051,4.4760003
1680000857338,1180845690970560,1.437,8.7640505,4.557
1680000857340,1180845693472714,1.55505,8.7619505,4.4809504
1680000857341,1180845695974637,1.4950501,8.74995,4.38
1680000857344,1180845698476714,1.5139501,8.805,4.5409503
1680000857347,1180845700978867,1.45395,8.77095,4.629
1680000857350,1180845703480987,1.5310501,8.862,4.497
1680000857351,1180845705982910,1.5450001,8.901,4.428
1680000857355,1180845708485064,1.6380001,8.74695,4.4880004
1680000857357,1180845710987141,1.58595,8.865001,4.5360003
1680000857360,1180845713489054,1.5979501,8.829,4.5430503
1680000857361,1180845715991208,1.59,8.769,4.5259504
1680000857364,1180845718493362,1.6500001,8.6970005,4.5360003
1680000857367,1180845720995439,1.60695,8.82705,4.51695
1680000857369,1180845723497593,1.6500001,8.767051,4.452
1680000857372,1180845725999502,1.60695,8.776051,4.60305
1680000857374,1180845728501656,1.53795,8.776051,4.5259504
1680000857376,1180845731003502,1.6170001,8.688001,4.545
1680000857379,1180845733505656,1.62195,8.77095,4.533
1680000857381,1180845736007810,1.53495,8.80305,4.497
1680000857385,1180845738509929,1.605,8.712001,4.4809504
1680000857387,1180845741012006,1.5330001,8.776051,4.5090003
1680000857389,1180845743513929,1.6020001,8.74005,4.584
1680000857391,1180845746016083,1.62405,8.724,4.524
1680000857393,1180845748518160,1.64295,8.85795,4.533
1680000857398,1180845751020088,1.4440501,8.7949505,4.6410003
1680000857400,1180845753522473,1.5450001,8.81505,4.5409503
1680000857402,1180845756024396,1.5880501,8.773951,4.53795
1680000857405,1180845758526473,1.6620001,8.812051,4.4809504
1680000857407,1180845761028376,1.6650001,8.788051,4.59105
1680000857408,1180845763530530,1.6810501,8.724,4.629
1680000857410,1180845766032607,1.7050501,8.83605,4.5690002
1680000857414,1180845768534838,1.7820001,8.830951,4.6410003
1680000857416,1180845771036900,1.7340001,8.80305,4.6480503
1680000857421,1180845773538824,1.7340001,8.776051,4.644
1680000857424,1180845776040977,1.83,8.74005,4.66305
1680000857425,1180845778543054,1.6480501,8.71395,4.74195
1680000857427,1180845781044991,1.7220001,8.776051,4.6150503
1680000857429,1180845783547145,1.7530501,8.653951,4.749
1680000857431,1180845786049299,1.8540001,8.7619505,4.761
1680000857436,1180845788551376,1.7389501,8.69205,4.7200503
1680000857440,1180845791053290,1.6650001,8.757,4.7590504
1680000857440,1180845793555444,1.7010001,8.688001,4.6530004
1680000857442,1180845796057521,1.74405,8.641951,4.6480503
1680000857444,1180845798559444,1.7149501,8.635051,4.51695
1680000857447,1180845801061598,1.7890501,8.733001,4.5600004
1680000857448,1180845803563742,1.9759501,8.6640005,4.677
1680000857451,1180845806065896,1.8319501,8.637,4.596
1680000857453,1180845808567972,1.8319501,8.74695,4.62405
1680000857457,1180845811069896,1.8199501,8.68305,4.68405
1680000857459,1180845813572054,1.9260001,8.797951,4.66995
1680000857461,1180845816074131,1.9090501,8.637,4.605
1680000857463,1180845818576285,1.88505,8.611051,4.6410003
1680000857469,1180845821078439,1.9350001,8.665951,4.6600504
1680000857470,1180845823580376,1.8919501,8.652,4.6909504
1680000857473,1180845826082453,1.8919501,8.71605,4.60305
1680000857476,1180845831084376,1.7680501,8.71605,4.71105
1680000857479,1180845832385744,1.7629501,8.635051,4.6990504
1680000857479,1180845833693223,1.6500001,8.580001,4.69395
1680000857482,1180845836090752,1.5090001,8.6640005,4.70295
1680000857483,1180845838592906,1.6500001,8.688001,4.5739503
1680000857487,1180845841094829,1.7560501,8.77095,4.63905
1680000857489,1180845843596983,1.6980001,8.71905,4.6410003
1680000857491,1180845846099063,1.5520501,8.733001,4.737
1680000857493,1180845848600987,1.6890001,8.75205,4.63395
1680000857498,1180845851103371,1.6500001,8.74005,4.56705
1680000857500,1180845853605294,1.57605,8.6640005,4.63395
1680000857501,1180845856107371,1.60695,8.74995,4.60305
1680000857503,1180845858609525,1.5310501,8.67105,4.6480503
1680000857507,1180845861111448,1.6360501,8.67105,4.524
1680000857510,1180845863613525,1.641,8.637,4.4760003
1680000857512,1180845866115453,1.69605,8.743051,4.629
1680000857514,1180845868617838,1.54305,8.656051,4.71105
1680000857517,1180845871119761,1.6380001,8.70705,4.4380503
1680000857519,1180845873621838,1.6530001,8.7310505,4.56705
1680000857522,1180845876123992,1.6099501,8.7310505,4.545
1680000857523,1180845878625950,1.66005,8.71395,4.512
1680000857527,1180845881128104,1.7220001,8.74005,4.56495
1680000857528,1180845883629950,1.6699501,8.79105,4.596
1680000857531,1180845886132334,1.7050501,8.785951,4.4809504
1680000857533,1180845888634257,1.6840501,8.724,4.5529504
1680000857537,1180845891136425,1.71,8.769,4.5600004
1680000857539,1180845893638502,1.6500001,8.67105,4.7470503
1680000857541,1180845896140425,1.65795,8.677951,4.71105
1680000857543,1180845898642579,1.7080501,8.7949505,4.48605
1680000857548,1180845901144738,1.761,8.82195,4.4880004
1680000857550,1180845903646815,1.76505,8.85495,4.5139503
1680000857552,1180845906148969,1.7629501,8.818951,4.6480503
1680000857554,1180845908650906,1.5670501,8.641951,4.5480003
1680000857556,1180845911152983,1.746,8.812051,4.596
1680000857559,1180845913655214,1.6699501,8.629951,4.68195
1680000857561,1180845916157290,1.7050501,8.71605,4.59105
1680000857565,1180845918659205,1.7820001,8.70705,4.72695
1680000857567,1180845921161281,1.69095,8.75895,4.5259504
1680000857569,1180845923663435,1.6339501,8.688001,4.59795
1680000857572,1180845926165358,1.7890501,8.74995,4.545
1680000857573,1180845928667512,1.7530501,8.677951,4.524
1680000857577,1180845931169690,1.6789501,8.743051,4.62195
1680000857579,1180845933671767,1.7170501,8.54895,4.605
1680000857581,1180845936173690,1.761,8.677951,4.63605
1680000857585,1180845938675844,1.7530501,8.67105,4.63605
1680000857588,1180845941177935,1.7770501,8.608951,4.5859504
1680000857589,1180845943680089,1.725,8.58495,4.56495
1680000857591,1180845946182243,1.8010501,8.635051,4.656
1680000857593,1180845948684166,1.84905,8.6640005,4.68195
1680000857596,1180845951186257,1.7580001,8.508,4.5360003
1680000857598,1180845953688410,1.7629501,8.641951,4.53795
1680000857600,1180845956190334,1.7149501,8.58195,4.74405
1680000857603,1180845958692410,1.7530501,8.608951,4.6270504
1680000857606,1180845961194636,1.7509501,8.68995,4.6650004
1680000857608,1180845963696713,1.7530501,8.676001,4.67205
1680000857610,1180845966198636,1.7530501,8.52705,4.8040504
1680000857613,1180845968700790,1.76505,8.644951,4.63905
1680000857617,1180845971202867,1.713,8.637,4.7970004
1680000857619,1180845973705021,1.7080501,8.58195,4.6600504
1680000857622,1180845976206944,1.65495,8.52,4.56195
1680000857624,1180845978709098,1.69305,8.580001,4.63605
1680000857627,1180845981211252,1.746,8.644951,4.596
1680000857629,1180845983713112,1.6650001,8.46,4.5859504
1680000857631,1180845986215266,1.746,8.51805,4.596
1680000857633,1180845988717343,1.6650001,8.509951,4.62405
1680000857637,1180845991219496,1.74405,8.544001,4.62405
1680000857639,1180845993721406,1.7029501,8.467051,4.58895
1680000857641,1180845996223559,1.7509501,8.628,4.59105
1680000857643,1180845998725713,1.746,8.55795,4.6410003
1680000857648,1180846001227790,1.866,8.58195,4.6150503
1680000857650,1180846003729727,1.7010001,8.700001,4.596
1680000857652,1180846006231881,1.77495,8.472,4.557
1680000857653,1180846008733958,1.8919501,8.52,4.60305
1680000857657,1180846011236189,1.7340001,8.65905,4.5930004
1680000857660,1180846013738025,1.81605,8.509951,4.6320004
1680000857662,1180846016240179,1.8319501,8.601001,4.69395
1680000857664,1180846018742256,1.8829501,8.661,4.7590504
1680000857667,1180846021244410,1.9230001,8.6970005,4.7590504
1680000857669,1180846023746333,1.9350001,8.644951,4.7590504
1680000857672,1180846026248383,1.9450501,8.532001,4.6870503
1680000857674,1180846028750613,1.95,8.577001,4.6150503
1680000857678,1180846031252690,2.01195,8.5990505,4.79895
1680000857681,1180846033754613,2.0329502,8.50605,4.6320004
1680000857682,1180846036256767,1.9810501,8.496,4.74405
1680000857684,1180846038758863,2.046,8.55795,4.77495
1680000857686,1180846041260786,2.01705,8.55795,4.8450003
1680000857689,1180846043762863,1.9860001,8.641951,4.61205
1680000857691,1180846046265094,2.05995,8.628,4.881
1680000857693,1180846048767160,2.08395,8.54205,4.75605
1680000857699,1180846051269083,2.12895,8.632951,4.986
1680000857701,1180846053771237,2.055,8.54205,4.76595
1680000857702,1180846056297929,2.0740502,8.608951,4.7779503
1680000857704,1180846058775463,2.02605,8.5990505,4.8349504
1680000857707,1180846061277617,1.9740001,8.596951,4.72305
1680000857709,1180846063779540,2.12205,8.647051,4.76805
1680000857711,1180846066281693,2.0770502,8.64,4.7320504
1680000857713,1180846068783770,2.0070002,8.53005,4.87605
1680000857716,1180846071285693,2.05005,8.61795,4.7710505
1680000857719,1180846073787847,2.12895,8.470051,4.8300004
1680000857721,1180846076289924,2.055,8.53695,4.92105
1680000857723,1180846078792078,2.0689502,8.613001,4.8300004
1680000857726,1180846081294011,2.127,8.623051,4.7080503
1680000857728,1180846083796165,2.08905,8.47395,4.8619504
1680000857731,1180846086298242,2.1750002,8.57295,4.854
1680000857735,1180846088800406,2.1769502,8.54205,4.7920504
1680000857739,1180846091302329,2.05995,8.55105,4.7850003
1680000857740,1180846093804406,2.15595,8.53905,4.88805
1680000857742,1180846096306637,2.05995,8.56305,4.9360504
1680000857744,1180846098808714,2.0359502,8.55105,4.93305
1680000857746,1180846101310627,2.0959501,8.5990505,4.82595
1680000857748,1180846103812704,2.08905,8.59395,4.8520503
1680000857751,1180846106314857,2.1079502,8.601001,4.93095
1680000857753,1180846108816780,2.02605,8.565001,4.9410005
1680000857756,1180846111318934,2.055,8.53905,4.9620004
1680000857758,1180846113821011,2.04795,8.67105,4.9090505
1680000857761,1180846116323165,2.15805,8.67105,5.02005
1680000857763,1180846118825088,2.0650501,8.53005,4.87605
1680000857767,1180846121327228,2.0400002,8.604,4.90005
1680000857769,1180846123829382,2.0670002,8.58705,4.93095
1680000857772,1180846126331459,2.14905,8.565001,4.90005
1680000857774,1180846128833382,2.0670002,8.508,4.87605
1680000857778,1180846131335540,2.019,8.611051,4.8450003
1680000857779,1180846133837617,2.079,8.532001,5.00505
1680000857781,1180846136339540,1.9519501,8.55795,4.97205
1680000857783,1180846138841694,1.9879501,8.533951,4.98105
1680000857788,1180846141343847,2.01405,8.55795,5.046
1680000857789,1180846143845934,2.0070002,8.436001,4.96005
1680000857791,1180846146348088,2.05005,8.54895,4.98105
1680000857793,1180846148850011,1.9780501,8.40705,4.881
1680000857796,1180846151352088,2.0070002,8.56305,5.0599504
1680000857798,1180846153854242,1.9930501,8.616,4.9120502
1680000857801,1180846156356405,1.9519501,8.53905,4.9759502
1680000857804,1180846158858328,1.9210501,8.580001,4.854
1680000857806,1180846161360482,1.8709501,8.55795,4.88805
1680000857810,1180846163862579,1.9260001,8.59395,4.938
1680000857812,1180846166364502,2.0050502,8.565001,4.88805
1680000857813,1180846168866579,2.022,8.647051,4.9090505
1680000857817,1180846171368810,2.058,8.592,4.99305
1680000857819,1180846173870887,2.15295,8.508,4.9960504
1680000857822,1180846176372790,2.1649501,8.601001,4.926
1680000857824,1180846178874943,2.0020502,8.56995,4.842
1680000857827,1180846181377020,2.05305,8.628,4.87395
1680000857828,1180846183879174,1.9620001,8.52705,4.94805
1680000857832,1180846186381097,1.96395,8.53905,4.87395
1680000857833,1180846188883266,1.9860001,8.54895,4.9410005
1680000857836,1180846191385420,2.022,8.608951,4.7470503
1680000857839,1180846193887497,2.01705,8.497951,4.70295
1680000857841,1180846196389420,2.12205,8.47395,4.8349504
1680000857845,1180846198891521,2.196,8.464951,4.8780003
1680000857848,1180846201393675,2.079,8.470051,4.85895
1680000857850,1180846203895829,2.01405,8.39805,4.8949504
1680000857852,1180846206397752,1.9519501,8.403001,4.8520503
1680000857854,1180846208899906,2.019,8.3880005,4.94805
1680000857857,1180846211401968,1.9710001,8.42895,4.8300004
1680000857859,1180846213903891,1.8610501,8.391001,4.9549503
1680000857861,1180846216406044,1.899,8.42895,4.893
1680000857863,1180846218908121,1.95,8.364,4.8520503
1680000857869,1180846221410352,1.86405,8.40705,4.9090505
1680000857870,1180846223912429,1.87995,8.44305,4.893
1680000857872,1180846226414352,1.9570501,8.448,4.8229504
1680000857874,1180846228916429,1.9189501,8.40495,4.8040504
1680000857877,1180846231418598,1.7580001,8.400001,4.94805
1680000857882,1180846233920521,1.8750001,8.439,4.8040504
1680000857883,1180846236422598,1.9020001,8.467051,4.9840503
1680000857885,1180846238924829,1.7920501,8.434051,4.82805
1680000857888,1180846241426920,1.9260001,8.3880005,4.7920504
1680000857890,1180846243928843,1.899,8.400001,4.76595
1680000857891,1180846246430997,1.9660501,8.39805,4.72695
1680000857893,1180846248933074,2.02305,8.43105,4.82805
1680000857897,1180846251434992,2.0329502,8.44305,4.8349504
1680000857899,1180846253937376,2.01705,8.488951,4.91895
1680000857901,1180846256439299,2.01,8.601001,4.9840503
1680000857903,1180846258941376,1.9230001,8.491051,4.97895
1680000857906,1180846261443299,2.0400002,8.51295,4.914
1680000857908,1180846263945448,2.0650501,8.367001,4.893
1680000857911,1180846266447525,2.079,8.368951,5.01195
1680000857913,1180846268949679,2.0650501,8.259001,4.72695
1680000857917,1180846271451833,2.08095,8.38605,4.9360504
1680000857919,1180846273953737,2.08395,8.36205,4.893
1680000857923,1180846276455891,2.043,8.338051,4.9759502
1680000857925,1180846278957968,2.0770502,8.376,5.01
1680000857927,1180846281459891,2.15805,8.36205,4.9410005
1680000857929,1180846283962045,2.223,8.328,5.091
1680000857931,1180846286464122,2.1649501,8.40495,5.0269504
1680000857933,1180846288966275,2.0050502,8.36205,5.1660004
1680000857938,1180846291468199,2.14395,8.470051,5.0479503
1680000857939,1180846293970352,2.09295,8.343,4.90005
1680000857941,1180846296472443,2.09805,8.415,4.9090505
1680000857945,1180846298974597,2.1079502,8.427,4.9120502
1680000857947,1180846301476520,2.19405,8.39295,5.0149503
1680000857949,1180846303978674,2.151,8.28495,5.0269504
1680000857952,1180846306480790,2.1720002,8.280001,5.01
1680000857953,1180846308982867,2.17995,8.319,5.00505
1680000857956,1180846311484790,2.1079502,8.271001,5.1990004
1680000857961,1180846313986944,2.0650501,8.323951,5.1199503
1680000857963,1180846316489016,2.151,8.22795,5.0340004
1680000857964,1180846318991170,2.151,8.37405,5.01
1680000857968,1180846321493093,2.1319501,8.26395,5.04405
1680000857970,1180846323995170,1.9980001,8.302051,5.04405
1680000857972,1180846326497323,1.9380001,8.247001,5.0599504
1680000857973,1180846328999233,1.9380001,8.2900505,5.03595
1680000857979,1180846331501617,1.9039501,8.316,5.12295
1680000857980,1180846334003540,1.9470001,8.271001,5.151
1680000857981,1180846336505617,1.9759501,8.170051,5.0890503
1680000857985,1180846339007732,2.0400002,8.25405,4.93095
1680000857988,1180846341509655,2.151,8.295,4.8640504
1680000857989,1180846344011732,2.187,8.26605,5.0599504
1680000857991,1180846346513886,2.14905,8.27595,5.0290504
1680000857996,1180846349016031,2.09805,8.2570505,5.06505
1680000857998,1180846351517954,2.12895,8.299951,5.0989504
1680000858000,1180846354020031,2.1049502,8.235001,5.05305
1680000858002,1180846356522185,1.95,8.2900505,5.091
1680000858005,1180846359024108,2.043,8.2570505,4.9620004
1680000858007,1180846361526262,2.0329502,8.20905,4.9759502
1680000858009,1180846364028415,2.05995,8.21595,4.8829503
1680000858013,1180846366530492,2.0719502,8.20395,4.8690004
1680000858015,1180846369032646,2.14905,8.142,4.9549503
1680000858017,1180846371534544,2.0359502,8.088,5.01
1680000858019,1180846374036621,2.08605,8.038051,5.1150002
1680000858021,1180846376538544,2.019,8.199,5.02395
1680000858023,1180846379040698,2.1079502,8.344951,5.03595
1680000858026,1180846381542867,2.1010501,8.24505,4.98105
1680000858028,1180846384044944,1.8750001,8.268001,5.1390004
1680000858031,1180846386547098,1.93095,8.283,4.9360504
1680000858035,1180846389049021,2.0400002,8.18505,4.9759502
1680000858038,1180846391551098,2.0359502,8.271001,4.7800503
1680000858040,1180846394053252,2.15295,8.451,4.761
1680000858041,1180846396555175,2.19195,8.26095,4.986
1680000858044,1180846399057559,2.187,8.280001,4.9879503
1680000858047,1180846401559467,2.2060502,8.283,4.94805
1680000858049,1180846404061544,2.163,8.24205,4.9500003
1680000858053,1180846406563467,2.2680001,8.20905,4.926
1680000858055,1180846409065621,2.29005,8.18505,4.8970504
1680000858057,1180846411567698,2.223,8.076,4.99305
1680000858059,1180846414069852,2.1679502,8.187,4.9090505
1680000858061,1180846416572006,2.1769502,8.175,5.118
1680000858065,1180846419073929,2.1340501,8.115001,5.09595
1680000858067,1180846421576006,2.08095,8.13195,5.0269504
1680000858069,1180846424078151,1.9020001,8.170051,5.2930503
1680000858073,1180846426580074,1.9620001,8.194051,4.9170003
1680000858075,1180846429082151,2.01195,8.142,5.05095
1680000858078,1180846431584300,1.9780501,8.125051,4.965
1680000858080,1180846434086453,2.08095,8.125051,4.8450003
1680000858082,1180846436588377,2.1409502,8.149051,4.99305
1680000858084,1180846439090453,2.127,8.10795,5.0940003
1680000858088,1180846441592607,2.08905,8.14605,5.0680504
1680000858089,1180846444094549,2.12205,8.095051,5.08395
1680000858091,1180846446596934,2.01,8.11305,5.05305
1680000858094,1180846449098857,2.01405,8.13,5.091
1680000858097,1180846451600934,2.0689502,8.170051,4.9669504
1680000858099,1180846454103083,2.0670002,8.151,5.06295
1680000858101,1180846456605006,2.05305,8.04105,5.0269504
1680000858103,1180846459107083,1.8079501,8.149051,5.1439505
1680000858106,1180846461609237,1.8610501,8.14605,5.19
1680000858110,1180846464111377,2.058,8.163,4.96005
1680000858112,1180846466613300,1.9549501,8.142,5.05305
1680000858114,1180846469115377,2.01,8.283,4.9429502
1680000858117,1180846471617530,2.17995,8.115001,5.0820003
1680000858119,1180846474119454,2.151,8.23005,5.13705
1680000858122,1180846476621554,2.09805,8.115001,5.06505
1680000858124,1180846479123708,2.15295,8.094001,5.1469502
1680000858127,1180846481625862,2.14395,8.13195,5.1270003
1680000858129,1180846484128016,2.2369502,8.161051,5.17005
1680000858131,1180846486629939,2.1769502,8.199,5.103
1680000858133,1180846489132025,2.2420502,8.094001,5.0940003
1680000858138,1180846491634179,2.26095,8.20395,5.142
1680000858139,1180846494136102,2.3110502,8.179951,5.07705
1680000858141,1180846496638256,2.151,8.154,5.1130505
1680000858143,1180846499140348,2.3040001,8.151,5.12505
1680000858148,1180846501642502,2.2080002,8.151,5.13495
1680000858150,1180846504144425,2.11695,8.23005,5.14905
1680000858152,1180846506646511,2.1700501,8.142,5.19
1680000858154,1180846509148665,2.2009501,8.194051,5.214
1680000858157,1180846511650588,2.15595,8.149051,5.2380004
1680000858159,1180846514152972,2.19195,8.139,5.0719504
1680000858161,1180846516654895,2.17995,8.17695,5.1610503
1680000858163,1180846519156992,2.11995,8.11995,5.214
1680000858167,1180846521658915,2.14905,8.154,5.20905
1680000858169,1180846524160992,2.196,8.2570505,5.17995
1680000858171,1180846526663146,2.29005,8.167951,5.163
1680000858173,1180846529165285,2.29005,8.22795,5.214
1680000858177,1180846531667208,2.32605,8.299951,5.1610503
1680000858179,1180846534169362,2.3400002,8.23995,5.151
1680000858181,1180846536671439,2.2039502,8.115001,5.13705
1680000858186,1180846539173391,2.17995,8.163,5.262
1680000858188,1180846541675776,2.14905,8.187,5.2380004
1680000858190,1180846544177699,2.18205,8.142,5.163
1680000858192,1180846546679776,2.163,8.20395,5.2660503
1680000858194,1180846549181929,2.1100502,8.23305,5.2849503
1680000858197,1180846551683857,2.12895,8.199,5.2710004
1680000858199,1180846554185934,2.163,8.2570505,5.21595
1680000858201,1180846556688088,2.06205,8.167951,5.19
1680000858204,1180846559190242,2.1409502,8.167951,5.23005
1680000858207,1180846561692160,2.0359502,8.211,5.2180505
1680000858209,1180846564194237,2.02905,8.21805,5.18505
1680000858211,1180846566696391,2.019,8.200951,5.235
1680000858214,1180846569198314,2.019,8.200951,5.14905
1680000858217,1180846571700449,1.9900501,8.16495,5.0680504
1680000858220,1180846574202603,2.08095,8.27295,5.20905
1680000858223,1180846576704680,1.9350001,8.25195,4.9840503
1680000858225,1180846579206603,2.02905,8.18505,5.142
1680000858230,1180846581708756,2.091,8.23995,5.1730504
1680000858232,1180846584210833,2.01,8.26395,5.06295
1680000858234,1180846586712756,1.9549501,8.17305,5.2210503
1680000858235,1180846589214909,1.9110001,8.283,5.0820003
1680000858239,1180846591717063,1.9429501,8.283,5.17005
1680000858240,1180846594219174,2.0020502,8.26605,5.07495
1680000858241,1180846596721328,1.93095,8.26395,5.1150002
1680000858244,1180846599223251,2.022,8.247001,5.17005
1680000858247,1180846601725328,1.9519501,8.302051,5.12295
1680000858248,1180846604227482,1.9780501,8.125051,5.1589503
1680000858251,1180846606729636,2.019,8.28495,5.15595
1680000858254,1180846609231559,1.8780001,8.26095,5.19705
1680000858258,1180846611733636,1.899,8.179951,5.1390004
1680000858261,1180846614235771,1.9470001,8.280001,5.21595
1680000858263,1180846616737694,1.9210501,8.29695,5.1870003
1680000858265,1180846619239848,1.96395,8.27805,5.2039504
1680000858268,1180846621741925,2.0670002,8.295,5.1319504
1680000858271,1180846624244078,1.9810501,8.292001,5.18505
1680000858273,1180846626746237,2.1340501,8.3550005,5.2380004
1680000858275,1180846629248160,2.1409502,8.23995,5.103
1680000858278,1180846631750237,2.01,8.25195,5.151
1680000858280,1180846634252160,2.1030002,8.27805,5.1780005
1680000858281,1180846636754299,2.15595,8.332951,5.151
1680000858284,1180846639256376,2.055,8.161051,5.1919503
1680000858288,1180846641758530,2.21595,8.2900505,5.2180505
1680000858289,1180846644260684,2.2710001,8.40495,5.2380004
1680000858291,1180846646762607,2.19405,8.352,5.2380004
1680000858294,1180846649264679,1.88505,8.24895,5.1540003
1680000858299,1180846651766833,2.15295,8.283,5.23005
1680000858301,1180846654268756,2.02305,8.35005,5.2780504
1680000858303,1180846656771150,2.1390002,8.26605,5.2830005
1680000858305,1180846659273073,2.22495,8.27805,5.1990004
1680000858307,1180846661775150,2.25195,8.439,5.2969503
1680000858309,1180846664277073,2.29695,8.376,5.30205
1680000858312,1180846666779227,2.33295,8.38305,5.3050504
1680000858314,1180846669281294,2.1340501,8.23995,5.19
1680000858317,1180846671783217,2.2369502,8.24895,5.2830005
1680000858319,1180846674285602,2.22495,8.25195,5.202
1680000858321,1180846676787525,2.0359502,8.30895,5.16795
1680000858324,1180846679289622,2.14395,8.326051,5.2450504
1680000858327,1180846681791776,2.046,8.292001,5.367
1680000858329,1180846684293699,2.055,8.23695,5.1870003
1680000858331,1180846686795853,2.163,8.295,5.2639503
1680000858335,1180846689297987,2.02605,8.25195,5.1660004
1680000858339,1180846691800064,2.055,8.292001,5.247
1680000858340,1180846694301987,2.0670002,8.35005,5.2110004
1680000858342,1180846696804064,2.19405,8.35005,5.247
1680000858345,1180846699306217,2.05305,8.368951,5.1589503
1680000858347,1180846701808164,2.0299501,8.30895,5.0820003
1680000858349,1180846704310318,1.96905,8.21595,5.163
1680000858351,1180846706812472,1.9860001,8.38305,5.091
1680000858354,1180846709314549,1.9759501,8.27805,5.13
1680000858357,1180846711816689,2.05995,8.29695,5.1660004
1680000858359,1180846714318612,2.02305,8.38095,5.20905
1680000858361,1180846716820689,1.9860001,8.2570505,5.1610503
1680000858364,1180846719322612,2.0329502,8.367001,5.2060504
1680000858367,1180846721824747,2.0400002,8.24205,5.1990004
1680000858369,1180846724326901,1.8280501,8.182051,5.1940503
1680000858373,1180846726828978,2.01405,8.247001,5.22795
1680000858375,1180846729331132,2.1409502,8.30895,5.1940503
1680000858378,1180846731833070,1.9570501,8.194051,5.202
1680000858380,1180846734335223,2.1100502,8.24895,5.03595
1680000858382,1180846736837377,2.09805,8.27295,5.175
1680000858384,1180846739339454,2.0050502,8.368951,5.0989504
1680000858387,1180846741841377,2.1049502,8.371051,5.2110004
1680000858389,1180846744343564,1.9879501,8.316,5.12505
1680000858391,1180846746845641,2.0299501,8.25405,5.247
1680000858394,1180846749347564,1.9470001,8.158051,5.10795
1680000858397,1180846751849718,2.0329502,8.24895,5.19705
1680000858399,1180846754351867,2.04795,8.292001,5.2830005
1680000858401,1180846756853944,2.02305,8.25195,5.2260003
1680000858404,1180846759355867,2.12895,8.283,5.12505
1680000858407,1180846761858021,1.9519501,8.22105,5.1270003
1680000858410,1180846764360065,2.184,8.311951,5.3479505
1680000858412,1180846766862295,2.079,8.23005,5.06505
1680000858414,1180846769364372,2.0740502,8.24505,5.1870003
1680000858418,1180846771866296,2.09805,8.368951,5.24205
1680000858419,1180846774368372,2.1460502,8.42205,5.16795
1680000858422,1180846776870536,2.055,8.292001,5.0989504
1680000858424,1180846779372459,2.0689502,8.27295,5.2180505
1680000858427,1180846781874536,2.0689502,8.3550005,5.175
1680000858429,1180846784376767,2.14395,8.335951,5.223
1680000858431,1180846786878844,2.0380502,8.338051,5.2330503
1680000858434,1180846789380781,2.02305,8.27295,5.17995
1680000858436,1180846791882935,2.232,8.40495,5.2710004
1680000858439,1180846794385012,2.1100502,8.302051,5.2450504
1680000858441,1180846796886935,2.0359502,8.412001,5.2710004
1680000858444,1180846799389098,1.914,8.27805,5.21595
1680000858448,1180846801891252,2.0329502,8.271001,5.2759504
1680000858450,1180846804393329,2.01705,8.29695,5.2210503
1680000858452,1180846806895252,2.11305,8.379001,5.23995
1680000858454,1180846809397415,2.01195,8.14605,5.175
1680000858457,1180846811899491,2.1079502,8.22105,5.31195
1680000858460,1180846814401645,2.1460502,8.259001,5.2060504
1680000858462,1180846816903799,2.151,8.27295,5.2540503
1680000858464,1180846819405727,2.1700501,8.3209505,5.262
1680000858467,1180846821907881,2.163,8.283,5.24205
1680000858470,1180846824409958,2.151,8.28495,5.2450504
1680000858472,1180846826911881,2.2440002,8.23005,5.235
1680000858474,1180846829413930,2.2780502,8.191951,5.20905
1680000858478,1180846831916084,2.1990001,8.199,5.2969503
1680000858479,1180846834418238,2.2009501,8.22795,5.3359504
1680000858482,1180846836920161,2.22795,8.25195,5.29995
1680000858486,1180846839422333,2.127,8.26395,5.28795
1680000858489,1180846841924410,2.19405,8.27595,5.34495
1680000858491,1180846844426563,2.046,8.187,5.3089504
1680000858492,1180846846928487,2.1100502,8.21805,5.3380504
1680000858494,1180846849430640,2.1100502,8.13,5.2540503
1680000858497,1180846851932776,1.9950001,8.191951,5.4079504
1680000858499,1180846854434853,2.0770502,8.14605,5.26905
1680000858502,1180846856936776,2.06205,8.19705,5.2519503
1680000858509,1180846859438853,2.1370502,8.268001,5.2500005
1680000858509,1180846861941007,2.0770502,8.21805,5.2660503
1680000858509,1180846864442953,2.1390002,8.167951,5.34495
1680000858511,1180846866945107,2.1990001,8.26395,5.29005
1680000858514,1180846869447261,2.1340501,8.17695,5.2830005
1680000858516,1180846871949338,1.96395,8.211,5.1990004
1680000858519,1180846874451248,1.9399501,8.191951,5.2180505
1680000858523,1180846876953402,2.1720002,8.283,5.214
1680000858525,1180846879455479,2.14395,8.28495,5.307
1680000858528,1180846881957402,2.1370502,8.283,5.29995
1680000858529,1180846884459551,2.2420502,8.326051,5.2500005
1680000858531,1180846886961704,2.1990001,8.27295,5.2110004
1680000858534,1180846889463781,2.2729502,8.36205,5.2330503
1680000858537,1180846891965935,2.11995,8.235001,5.2660503
1680000858540,1180846894467858,2.01705,8.26095,5.2450504
1680000858542,1180846896969935,2.1390002,8.436001,5.2330503
1680000858544,1180846899472166,2.223,8.37405,5.20905
1680000858547,1180846901974243,2.2060502,8.161051,5.0869503
1680000858549,1180846904476166,2.24895,8.16495,5.16795
1680000858551,1180846906978228,2.1679502,8.175,5.2450504
1680000858554,1180846909480382,2.3140502,8.20395,5.307
1680000858557,1180846911982305,2.3430002,8.21805,5.3569503
1680000858561,1180846914484362,2.2369502,8.194051,5.40495
1680000858562,1180846916986593,2.22795,7.998,5.2590003
1680000858564,1180846919488669,2.25195,8.031,5.3479505
1680000858567,1180846921990593,2.2680001,8.101951,5.307
1680000858569,1180846924492746,2.3140502,8.21595,5.2180505
1680000858572,1180846926994809,2.2080002,8.194051,5.247
1680000858574,1180846929496963,2.28705,8.223001,5.2380004
1680000858578,1180846931998886,2.2060502,8.167951,5.3430004
1680000858579,1180846934501040,2.15295,8.095051,5.3170505
1680000858581,1180846937003117,2.26095,8.121,5.43405
1680000858584,1180846939505059,2.02605,8.14395,5.5009503
1680000858587,1180846942007136,2.14905,8.299951,5.3500504
1680000858589,1180846944509367,2.18205,8.23995,5.3640003
1680000858592,1180846947011444,2.28705,8.21595,5.2969503
1680000858594,1180846949513598,2.3140502,8.11995,5.21595
1680000858598,1180846952015521,2.2399502,8.179951,5.2450504
1680000858600,1180846954517598,2.15595,8.10795,5.355
1680000858602,1180846957019521,2.2009501,8.095051,5.5729504
1680000858605,1180846959521905,2.14905,8.22795,5.4750004
1680000858607,1180846962023828,2.14395,8.167951,5.4079504
1680000858609,1180846964525905,2.1390002,8.139,5.427
1680000858611,1180846967028059,2.21595,8.188951,5.2110004
1680000858614,1180846969529958,1.9519501,8.163,5.4100504
1680000858618,1180846972032035,2.1750002,8.23695,5.19705
1680000858620,1180846974534189,2.17995,8.26095,5.35305
1680000858622,1180846977036343,2.2420502,8.19705,5.2450504
1680000858624,1180846979538266,2.05305,8.101951,5.1660004
1680000858627,1180846982040420,2.196,8.22795,5.3260503
1680000858629,1180846984542497,2.163,8.13405,5.2930503
1680000858631,1180846987044420,2.058,8.224951,5.3809505
1680000858636,1180846989546492,2.1769502,8.11305,5.22795
1680000858639,1180846992048646,2.283,8.14395,5.26905
1680000858640,1180846994550800,2.1409502,8.005051,5.34105
1680000858642,1180846997052953,2.3089502,8.175,5.295
1680000858644,1180846999554876,2.26095,7.9879503,5.3880005
1680000858649,1180847002056963,2.2080002,8.22795,5.3980503
1680000858650,1180847004559117,2.22795,8.13195,5.4199505
1680000858651,1180847007061040,2.1700501,8.118,5.3260503
1680000858655,1180847009563194,2.2350001,8.24895,5.2710004
1680000858658,1180847012065266,2.16,8.14395,5.2930503
1680000858660,1180847014567420,1.9230001,8.11305,5.41695
1680000858662,1180847017069343,2.0050502,8.314051,5.27295
1680000858664,1180847019571420,2.1049502,8.2570505,5.2660503
1680000858668,1180847022073574,2.22495,8.223001,5.247
1680000858670,1180847024575506,2.21595,8.175,5.29995
1680000858674,1180847027077660,2.295,8.017051,5.2639503
1680000858677,1180847029579814,2.3400002,8.16495,5.235
1680000858679,1180847032513579,2.2800002,8.14605,5.3880005
1680000858681,1180847034584040,2.3070002,8.101951,5.47905
1680000858683,1180847037085887,2.2680001,8.149051,5.4700503
1680000858685,1180847039588040,2.3040001,8.026951,5.499
1680000858689,1180847042090194,2.28705,8.014951,5.3689504
1680000858690,1180847044592338,2.1079502,8.079,5.5579505
1680000858691,1180847047094261,2.187,8.07405,5.3479505
1680000858694,1180847049596338,2.21805,8.149051,5.30205
1680000858699,1180847052098492,2.364,8.125051,5.25705
1680000858700,1180847054600420,2.33295,8.137051,5.2660503
1680000858702,1180847057102497,2.2710001,8.167951,5.2759504
1680000858705,1180847059604728,2.29005,8.121,5.4
1680000858708,1180847062106805,2.436,8.071051,5.4199505
1680000858713,1180847064608704,2.3400002,8.056951,5.32905
1680000858714,1180847067110781,2.295,7.9999504,5.499
1680000858715,1180847069612935,2.45295,8.079,5.4889503
1680000858718,1180847072114858,2.29005,8.05305,5.484
1680000858720,1180847074617011,2.28705,8.067,5.3500504
1680000858722,1180847077119165,2.259,8.17695,5.3980503
1680000858724,1180847079621272,2.21595,8.005051,5.34495
1680000858727,1180847082123426,2.2420502,8.094001,5.34105
1680000858729,1180847084625349,2.26305,8.0449505,5.5300503
1680000858732,1180847087127426,2.223,8.089951,5.4750004
1680000858734,1180847089629580,2.01195,8.17695,5.4360003
1680000858738,1180847092131734,2.0329502,8.17695,5.36205
1680000858740,1180847094633657,2.1010501,8.095051,5.30205
1680000858742,1180847097135734,2.26605,7.96395,5.35305
1680000858745,1180847099637902,2.2009501,8.142,5.3260503
1680000858748,1180847102139825,2.3160002,7.9789505,5.30205
1680000858750,1180847104641902,2.283,7.9120502,5.355
1680000858752,1180847107144056,2.35905,8.023951,5.247
1680000858754,1180847109646209,2.29905,8.007,5.3359504
1680000858757,1180847112148368,2.25195,7.87095,5.3640003
1680000858759,1180847114650291,2.43105,8.094001,5.39295
1680000858761,1180847117152368,2.3760002,8.089951,5.556
1680000858764,1180847119654291,2.331,8.005051,5.31195
1680000858767,1180847122156454,2.17995,8.151,5.3809505
1680000858769,1180847124658531,2.12505,8.01,5.3190002
1680000858772,1180847127160685,2.17995,8.082001,5.2519503
1680000858774,1180847129662839,2.25405,8.163,5.23005
1680000858777,1180847132164767,2.2800002,7.9830003,5.2590003
1680000858779,1180847134666844,2.2420502,8.076,5.35305
1680000858781,1180847137168998,2.4480002,8.154,5.38605
1680000858786,1180847139670936,2.29005,7.9879503,5.25705
1680000858789,1180847142173090,2.4049501,8.0449505,5.32095
1680000858790,1180847144675167,2.3449502,8.11305,5.34495
1680000858792,1180847147177090,2.364,8.125051,5.27295
1680000858794,1180847149679243,2.328,8.002951,5.31195
1680000858797,1180847152181401,2.39805,8.155951,5.31195
1680000858799,1180847154683555,2.39805,8.056951,5.3880005
1680000858804,1180847157185632,2.21295,8.109,5.4150004
1680000858805,1180847159687555,2.2080002,8.106,5.4100504
1680000858807,1180847162189724,2.3040001,8.127001,5.4100504
1680000858809,1180847164691801,2.3430002,8.019,5.2210503
1680000858812,1180847167193724,2.3140502,8.01,5.295
1680000858814,1180847169695878,2.42205,8.034,5.31195
1680000858819,1180847172197988,2.46195,8.0119505,5.355
1680000858822,1180847174700065,2.4550502,8.043,5.36205
1680000858824,1180847177201988,2.4790502,7.9879503,5.40495
1680000858826,1180847179704142,2.57205,8.0449505,5.33295
1680000858828,1180847182206219,2.3380501,8.031,5.47695
1680000858830,1180847184708128,2.32305,8.149051,5.4360003
1680000858832,1180847187210512,2.4100502,8.067,5.36205
1680000858834,1180847189712435,2.4790502,8.158051,5.36205
1680000858838,1180847192214512,2.3110502,8.118,5.31405
1680000858840,1180847194716440,2.4120002,8.017051,5.3910003
1680000858842,1180847197218594,2.46,8.097,5.32905
1680000858844,1180847199720671,2.43105,8.13,5.47695
1680000858847,1180847202222902,2.42205,8.068951,5.5729504
1680000858849,1180847204724969,2.295,8.002951,5.6850004
1680000858852,1180847207226892,2.39805,8.10105,5.556
1680000858855,1180847209729046,2.26605,8.095051,5.5129504
1680000858858,1180847212231123,2.25195,8.125051,5.52495
1680000858861,1180847214733070,2.3760002,8.13,5.532
1680000858863,1180847217235147,2.319,8.082001,5.49405
1680000858867,1180847219737378,2.39505,8.056951,5.4580503
1680000858869,1180847222239454,2.32305,8.035951,5.4960003
1680000858872,1180847224741378,2.3400002,8.115001,5.7330003
1680000858873,1180847227243526,2.3400002,8.11305,5.59695
1680000858876,1180847229745603,2.187,8.08605,5.6610003
1680000858878,1180847232247757,2.1769502,8.089951,5.472
1680000858880,1180847234749680,2.259,8.14395,5.59005
1680000858881,1180847237251834,2.319,8.13195,5.40495
1680000858884,1180847239754041,2.25405,8.04105,5.511
1680000858887,1180847242256118,2.2680001,7.96395,5.58195
1680000858890,1180847244758041,2.32605,8.026951,5.43405
1680000858892,1180847247260118,2.223,7.9740005,5.6449504
1680000858894,1180847249762272,2.26305,8.125051,5.4559503
1680000858899,1180847252264417,2.2440002,8.067,5.47905
1680000858901,1180847254766340,2.1649501,8.106,5.3809505
1680000858903,1180847257268494,2.331,8.079,5.3260503
1680000858905,1180847259770570,2.3160002,7.9999504,5.2830005
1680000858908,1180847262272489,2.3400002,8.151,5.307
1680000858909,1180847264774642,2.2710001,8.094001,5.412
1680000858912,1180847267276719,2.2350001,8.106,5.4630003
1680000858915,1180847269778873,2.187,8.158051,5.5009503
1680000858918,1180847272280801,2.2420502,8.24205,5.5920005
1680000858920,1180847274782955,2.25405,8.23695,5.43195
1680000858922,1180847277285032,2.26605,8.139,5.5230002
1680000858925,1180847279787186,2.21595,8.20395,5.4580503
1680000858927,1180847282289089,2.3470502,8.259001,5.3500504
1680000858929,1180847284791243,2.26095,8.167951,5.50605
1680000858932,1180847287293397,2.3110502,8.27295,5.36205
1680000858936,1180847289795479,2.3110502,8.326051,5.47695
1680000858939,1180847292297402,2.43405,8.22105,5.36205
1680000858941,1180847294799479,2.2729502,8.167951,5.37195
1680000858943,1180847297301632,2.26605,8.187,5.43405
1680000858946,1180847299803556,2.388,8.259001,5.5230002
1680000858950,1180847302305690,2.3830502,8.121,5.4580503
1680000858952,1180847304807844,2.328,8.200951,5.44605
1680000858954,1180847307309921,2.2009501,8.188951,5.5300503
1680000858955,1180847309811844,2.352,8.191951,5.484
1680000858958,1180847312313998,2.4480002,8.182051,5.41695
1680000858959,1180847314816075,2.30205,8.25195,5.5150504
1680000858962,1180847317317998,2.32605,8.118,5.46705
1680000858964,1180847319820152,2.364,8.16495,5.5009503
1680000858967,1180847322322310,2.3089502,8.050051,5.6590505
1680000858969,1180847324824387,2.42205,8.125051,5.5420504
1680000858973,1180847327326541,2.4430501,8.11305,5.616
1680000858977,1180847329828464,2.30205,8.106,5.6470504
1680000858979,1180847332330527,2.36205,8.022,5.5579505
1680000858981,1180847334832757,2.1370502,8.11305,5.6179504
1680000858983,1180847337334834,2.18895,8.13195,5.4360003
1680000858985,1180847339836757,2.223,8.137051,5.49405
1680000858988,1180847342338911,2.2729502,8.20905,5.6140504
1680000858990,1180847344841041,2.2750502,8.142,5.62995
1680000858992,1180847347342964,2.4139502,8.19705,5.55105
1680000858995,1180847349845041,2.4019501,8.154,5.63805
1680000858999,1180847352347272,2.42895,8.11305,5.5870504
1680000859000,1180847354849363,2.25405,8.13195,5.7000003
1680000859002,1180847357351286,2.424,8.139,5.6730003
1680000859005,1180847359853363,2.469,8.14395,5.6950502
1680000859008,1180847362355594,2.57205,8.11995,5.472
1680000859012,1180847364857686,2.4430501,8.139,5.4700503
1680000859013,1180847367359609,2.5819502,8.151,5.499
1680000859015,1180847369861686,2.6950502,8.154,5.5300503
1680000859018,1180847372363839,2.56995,8.023951,5.4100504
1680000859020,1180847374865763,2.6490002,8.10795,5.5230002
1680000859022,1180847377367848,2.661,8.088,5.60895
1680000859025,1180847379870079,2.7540002,8.10105,5.60895
1680000859027,1180847382372156,2.6250002,8.106,5.7310505
1680000859030,1180847384874310,2.7109501,8.019,5.5870504
1680000859033,1180847387376233,2.6110501,8.056951,5.6569505
1680000859035,1180847389878310,2.59605,7.998,5.5300503
1680000859038,1180847392380464,2.60805,7.9210505,5.5609503
1680000859040,1180847394882618,2.5440001,7.9260006,5.4
1680000859042,1180847397384541,2.5510502,7.9620004,5.451
1680000859045,1180847399886623,2.5150502,7.8370504,5.532
1680000859049,1180847402388777,2.46,7.8850503,5.37195
1680000859051,1180847404890700,2.5480502,7.9810505,5.44605
1680000859053,1180847407392758,2.5819502,7.9279504,5.3170505
1680000859055,1180847409894911,2.46195,7.7850003,5.30205
1680000859058,1180847412397065,2.5480502,7.90395,5.3569503
1680000859060,1180847414898988,2.5800002,7.8040504,5.17995
1680000859062,1180847417401065,2.661,7.7250004,5.1990004
1680000859065,1180847419903223,2.505,7.65495,5.24205
1680000859068,1180847422405146,2.5890002,7.8040504,5.1439505
1680000859071,1180847424907223,2.592,7.7700005,5.262
1680000859073,1180847427409377,2.457,7.7509503,5.1109505
1680000859075,1180847429911541,2.39295,7.6699505,5.1610503
1680000859078,1180847432413695,2.46495,7.62405,5.1589503
1680000859080,1180847434915618,2.4499502,7.62195,5.01195
1680000859083,1180847437417695,2.3089502,7.63395,4.9840503
1680000859086,1180847439919839,2.48895,7.5520506,5.0290504
1680000859089,1180847442421762,2.2729502,7.6189504,5.18205
1680000859091,1180847444923916,2.3070002,7.7080503,5.05095
1680000859092,1180847447425993,2.2060502,7.5330005,5.0290504
1680000859095,1180847449928146,1.9279501,7.63605,5.0290504
1680000859099,1180847452430069,2.0650501,7.6270504,4.93305
1680000859101,1180847454932146,2.1990001,7.689,4.9020004
1680000859103,1180847457434300,2.292,7.7320504,4.833
1680000859106,1180847459936223,2.2420502,7.66305,4.87605
1680000859107,1180847462438377,2.163,7.7850003,4.87605
1680000859114,1180847464940502,2.3089502,7.7800503,4.9429502
1680000859115,1180847467442579,2.196,7.734,4.938
1680000859117,1180847469944502,2.01405,7.7440505,5.0080504
1680000859119,1180847472446579,1.9470001,7.8469505,4.9429502
1680000859120,1180847474948758,1.8349501,7.82805,4.998
1680000859123,1180847477450681,1.7029501,7.7440505,4.938
1680000859127,1180847479953066,1.6380001,7.7749505,4.88805
1680000859128,1180847482454989,1.6189501,7.7250004,4.9570503
1680000859134,1180847484957066,1.3800001,7.7970004,5.16795
1680000859134,1180847487459219,1.3219501,7.82805,4.8450003
1680000859135,1180847489961142,1.452,7.9759502,4.9020004
1680000859138,1180847492463219,1.605,7.9210505,4.8949504
1680000859140,1180847494965373,1.5690001,8.050051,4.9549503
1680000859142,1180847497467522,1.6140001,8.035951,4.986
1680000859144,1180847499969445,1.65795,8.034,5.0340004
1680000859147,1180847502471522,1.725,8.11995,4.9090505
1680000859149,1180847504973676,1.8870001,8.199,5.0080504
1680000859152,1180847507475613,1.88505,8.089951,5.1130505
1680000859155,1180847509977767,1.9710001,8.16495,5.1390004
1680000859157,1180847512479921,2.1100502,8.323951,5.07495
1680000859161,1180847514981998,2.2369502,8.23005,5.12505
1680000859162,1180847517484147,2.319,8.149051,5.163
1680000859164,1180847519985993,2.292,8.151,5.4
1680000859168,1180847522488147,2.4070501,8.064,5.4580503
1680000859169,1180847524990070,2.49795,8.10795,5.412
1680000859172,1180847527492454,2.5530002,8.026951,5.4220505
1680000859175,1180847529994387,2.6749501,8.05305,5.4289503
1680000859178,1180847532496464,2.7949502,8.079,5.34495
1680000859181,1180847534998618,2.7469501,8.095051,5.51805
1680000859183,1180847537500541,2.8240502,8.023951,5.51805
1680000859184,1180847540002594,2.9269502,8.0119505,5.664
1680000859189,1180847542504748,2.9989502,7.9189506,5.62305
1680000859190,1180847545006902,3.0180001,8.019,5.5729504
1680000859192,1180847547508825,3.0730503,7.9879503,5.6850004
1680000859194,1180847550010902,2.97495,7.9140005,5.616
1680000859199,1180847552513056,2.9650502,7.8919506,5.5939503
1680000859200,1180847555014979,3.0559502,7.8370504,5.649
1680000859202,1180847557517133,3.13995,7.9480505,5.46495
1680000859205,1180847560019200,3.2290502,7.84005,5.46495
1680000859208,1180847562521353,3.2719502,7.8610506,5.49405
1680000859209,1180847565023276,3.25305,7.8109503,5.59695
1680000859212,1180847567525430,3.2260501,7.7890506,5.6020503
1680000859215,1180847570027507,3.2070003,7.8520503,5.5579505
1680000859218,1180847572529652,3.1930501,7.7440505,5.499
1680000859220,1180847575031575,3.1639502,7.7700005,5.64195
1680000859222,1180847577533729,3.1420503,7.8130503,5.6569505
1680000859225,1180847580035806,3.1230001,7.8130503,5.532
1680000859228,1180847582537733,3.1260002,7.8160505,5.5609503
1680000859229,1180847585039887,3.0559502,7.8540006,5.6730003
1680000859232,1180847587541964,2.9340003,7.8450003,5.649
1680000859236,1180847590044205,2.9959502,7.97205,5.6020503
1680000859240,1180847592546282,2.93895,7.9879503,5.54895
1680000859240,1180847595048205,2.8549502,7.9399505,5.47695
1680000859242,1180847597550358,2.8600502,7.9549503,5.5270505
1680000859244,1180847600052435,2.83095,7.9879503,5.52495
1680000859247,1180847602554348,2.838,7.9519506,5.4870005
1680000859249,1180847605056502,2.97,7.9740005,5.5470004
1680000859252,1180847607558656,2.9650502,8.005051,5.6059504
1680000859255,1180847610060733,3.0660002,7.97205,5.56995
1680000859258,1180847612562661,3.07995,7.9810505,5.57805
1680000859260,1180847615064815,3.15405,8.106,5.5300503
1680000859262,1180847617566892,3.1879501,8.055,5.5800004
1680000859265,1180847620068815,3.2689502,8.035951,5.6929502
1680000859268,1180847622570969,3.3630002,8.08605,5.64195
1680000859270,1180847625073123,3.4780502,8.017051,5.5300503
1680000859274,1180847627575200,3.4830003,8.161051,5.6850004
1680000859276,1180847630077123,3.4680002,8.007,5.5579505
1680000859279,1180847632579287,3.49005,8.13,5.46495
1680000859280,1180847635081364,3.5329502,8.059951,5.5540504
1680000859282,1180847637583594,3.62895,8.0119505,5.43405
1680000859284,1180847640085671,3.5059502,8.08605,5.4580503
1680000859287,1180847642587594,3.528,8.034,5.5230002
1680000859289,1180847645089738,3.5520003,8.125051,5.4289503
1680000859292,1180847647591815,3.5500503,8.05305,5.5579505
1680000859294,1180847650093738,3.4609501,7.9950004,5.544
1680000859298,1180847652595815,3.6690001,7.9759502,5.499
1680000859300,1180847655098046,3.62595,8.115001,5.511
1680000859302,1180847657600123,3.5160003,7.90395,5.4240003
1680000859305,1180847660102046,3.6409502,7.9600506,5.56995
1680000859308,1180847662604200,3.6070502,8.017051,5.5009503
1680000859313,1180847665106234,3.6480002,7.9500003,5.4480004
1680000859314,1180847667608388,3.6169503,7.9519506,5.544
1680000859317,1180847670110234,3.6019502,8.019,5.604
1680000859318,1180847672612465,3.4680002,7.93305,5.43405
1680000859321,1180847675114541,3.6070502,8.007,5.5800004
1680000859322,1180847677616465,3.5059502,7.9189506,5.34495
1680000859325,1180847680118622,3.41805,7.9759502,5.47695
1680000859327,1180847682620699,3.6090002,8.076,5.4199505
1680000859329,1180847685122853,3.44895,8.059951,5.3479505
1680000859332,1180847687625007,3.4009502,7.9159503,5.355
1680000859335,1180847690126935,3.4320002,7.9789505,5.29005
1680000859340,1180847692629089,3.5500503,8.05305,5.35995
1680000859341,1180847695131166,3.4440002,7.9789505,5.4
1680000859343,1180847697633089,3.4060502,7.9759502,5.31405
1680000859345,1180847700135142,3.28395,7.9020004,5.355
1680000859349,1180847702637296,3.348,7.8829503,5.3640003
1680000859351,1180847705139450,3.4950001,7.8780003,5.2930503
1680000859353,1180847707641373,3.3289502,7.8229504,5.3310003
1680000859356,1180847710143537,3.4300501,7.9189506,5.2759504
1680000859358,1180847712645613,3.2910001,7.8300004,5.3380504
1680000859360,1180847715147767,3.2310002,7.85895,5.2969503
1680000859362,1180847717649690,3.3700502,7.866,5.31195
1680000859365,1180847720151767,3.3919501,7.7970004,5.31405
1680000859368,1180847722653921,3.3919501,7.82805,5.28795
1680000859370,1180847725155844,3.4350002,7.833,5.47905
1680000859372,1180847727657998,3.37995,7.8210006,5.3760004
1680000859375,1180847730160075,3.2719502,7.7869506,5.34105
1680000859378,1180847732662219,3.4369502,7.8349504,5.2330503
1680000859380,1180847735164142,3.37995,7.8370504,5.295
1680000859382,1180847737666296,3.3120003,7.8829503,5.4559503
1680000859387,1180847740168460,3.351,7.7800503,5.3880005
1680000859391,1180847742670537,3.2310002,7.8760505,5.27295
1680000859392,1180847745172460,3.2260501,7.866,5.32905
1680000859393,1180847747674537,3.25305,7.9069505,5.35995
1680000859395,1180847750176690,3.2290502,7.8040504,5.2780504
1680000859399,1180847752678580,3.2719502,7.9279504,5.29005
1680000859400,1180847755180733,3.1690502,7.8919506,5.3359504
1680000859402,1180847757682887,3.1950002,7.8570004,5.2710004
1680000859408,1180847760184964,3.25005,7.9020004,5.36205
1680000859410,1180847762687118,3.3010502,7.9480505,5.4199505
1680000859412,1180847765189036,3.384,7.9570503,5.3500504
1680000859413,1180847767691113,3.3750002,7.8829503,5.3359504
1680000859415,1180847770193267,3.21195,7.8490505,5.4220505
1680000859418,1180847772695190,3.28395,7.9120502,5.44395
1680000859420,1180847775197286,3.3360002,7.938,5.4529505
1680000859424,1180847777699440,3.2650502,7.9450502,5.35995
1680000859427,1180847780201363,3.2719502,7.9279504,5.2380004
1680000859430,1180847782703517,3.2239501,7.97205,5.2660503
1680000859432,1180847785205671,3.183,7.866,5.3380504
1680000859433,1180847787707747,3.2689502,7.9909506,5.3569503
1680000859435,1180847790209901,3.1590002,8.071051,5.4100504
1680000859438,1180847792711747,3.1210501,8.101951,5.5579505
1680000859440,1180847795213901,3.039,8.167951,5.5420504
1680000859442,1180847797716065,2.9220002,8.034,5.4889503
1680000859445,1180847800218219,2.8549502,8.094001,5.4820504
1680000859448,1180847802720142,2.8549502,8.076,5.3880005
1680000859450,1180847805222219,2.7109501,8.109,5.2849503
1680000859452,1180847807724373,2.70195,8.167951,5.1780005
1680000859457,1180847810226301,2.6779501,8.095051,5.16795
1680000859460,1180847812728378,2.73495,8.191951,5.1109505
1680000859463,1180847815230609,2.84805,8.268001,5.18205
1680000859465,1180847817732681,2.9530501,8.335951,5.17005
1680000859467,1180847820234834,3.01605,8.331,5.2639503
1680000859470,1180847822889296,3.2290502,8.53005,5.1589503
1680000859472,1180847825238834,3.348,8.44095,5.30205
1680000859474,1180847827740758,3.5520003,8.712001,5.2540503
1680000859477,1180847830242911,3.7339501,8.6970005,5.4630003
1680000859478,1180847832745065,3.897,8.61795,5.5300503
1680000859481,1180847835247142,3.9229503,8.767051,5.5009503
1680000859482,1180847837749296,4.05405,8.70705,5.60895
1680000859485,1180847840251224,4.22505,8.54595,5.664
1680000859488,1180847842753301,4.36905,8.521951,5.769
1680000859489,1180847845255455,4.3710003,8.3550005,5.8290005
1680000859492,1180847847757609,4.395,8.2900505,5.77395
1680000859495,1180847850259532,4.57905,8.27805,5.9440503
1680000859500,1180847852761613,4.6990504,8.155951,6.1330504
1680000859502,1180847855263767,4.84095,8.022,6.2839503
1680000859504,1180847857765690,4.7850003,7.9450502,6.4090505
1680000859505,1180847860267767,4.63695,7.8180003,6.49305
1680000859508,1180847862769911,4.7449503,7.7970004,6.43305
1680000859509,1180847865272065,4.491,7.6819506,6.55695
1680000859512,1180847867774219,4.6249504,7.7509503,6.4849505
1680000859515,1180847870276065,4.5529504,7.7080503,6.3850503
1680000859518,1180847872778233,4.7730002,7.7490005,6.339
1680000859520,1180847875280156,4.9819503,7.6720505,6.1189504
1680000859523,1180847877782310,5.0059505,7.7820005,6.2389503
1680000859525,1180847880284464,5.1730504,7.8109503,6.3420005
1680000859530,1180847882786551,5.1780005,7.8349504,6.3250504
1680000859532,1180847885288705,5.3700004,7.794,6.327
1680000859533,1180847887790628,5.4300003,7.9020004,6.5860505
1680000859537,1180847890292705,5.37195,7.998,6.6000004
1680000859540,1180847892794859,5.30805,8.076,6.5190005
1680000859542,1180847895296782,5.2519503,8.076,6.5860505
1680000859543,1180847897798936,5.0820003,8.11995,6.59595
1680000859546,1180847900301013,5.0539503,8.076,6.6889505
1680000859549,1180847902803166,4.9750504,7.9810505,6.6910505
1680000859551,1180847905305089,4.96005,7.9600506,6.64305
1680000859553,1180847907807166,4.9549503,7.93305,6.5449505
1680000859555,1180847910309320,4.8790503,7.9690504,6.6049504
1680000859558,1180847912811262,4.776,8.0119505,6.52605
1680000859560,1180847915313647,4.6579504,8.007,6.5790005
1680000859562,1180847917815570,4.64895,7.8540006,6.7369504
1680000859565,1180847920317647,4.5220504,7.8490505,6.768
1680000859568,1180847922819604,4.41405,7.866,6.9600005
1680000859570,1180847925321758,4.3780503,7.85895,7.0000505
1680000859574,1180847927823835,4.26105,7.90005,6.95205
1680000859576,1180847930325989,4.11705,7.9279504,6.8040004
1680000859579,1180847932828133,4.005,7.8970504,6.68205
1680000859581,1180847935330056,3.9810002,7.8900003,6.7390504
1680000859583,1180847937832133,3.7510502,8.151,6.6000004
1680000859587,1180847940334286,3.5779502,7.9210505,6.4879503
1680000859589,1180847942836209,3.8230503,7.8490505,5.90805
1680000859590,1180847945338271,4.1989503,8.082001,6.1789503
1680000859593,1180847947840425,4.33995,8.083051,6.255
1680000859595,1180847950342579,4.55805,8.24895,6.15495
1680000859598,1180847952844502,4.8450003,8.553,6.32205
1680000859601,1180847955346589,4.761,8.677951,6.5599504
1680000859603,1180847957848743,4.9170003,8.484,6.7579503
1680000859605,1180847960350666,4.8619504,8.299951,6.9210005
1680000859608,1180847962852820,5.00295,8.641951,6.813
1680000859612,1180847965354974,5.13,8.451,6.9210005
1680000859613,1180847967857051,4.6800003,8.27295,6.7320004
1680000859615,1180847970358974,4.75005,8.16495,6.7219505
1680000859619,1180847972861128,5.3310003,8.620951,6.7060504
1680000859620,1180847975363281,5.20905,8.51805,6.636
1680000859623,1180847977865348,4.7970004,8.521951,6.327
1680000859626,1180847980367271,4.9080005,8.323951,6.5329504
1680000859628,1180847982869425,4.48605,8.062051,6.9739504
1680000859630,1180847985371502,4.4500504,7.9570503,6.9090004
1680000859633,1180847987873661,4.6990504,7.9879503,6.9739504
1680000859635,1180847990375815,4.881,8.24505,7.08405
1680000859638,1180847992877738,4.7640004,7.998,7.0909505
1680000859640,1180847995379815,4.4929504,7.87305,7.1970005
1680000859642,1180847997881959,4.6990504,8.076,7.0980005
1680000859646,1180848000383882,4.6800003,8.21805,6.9739504
1680000859651,1180848002885959,4.7590504,8.056951,6.70095
1680000859652,1180848005388113,4.92,8.314051,6.5449505
1680000859653,1180848007890311,4.611,8.200951,6.663
1680000859655,1180848010392234,4.6920004,7.8490505,6.9310503
1680000859658,1180848012894387,4.88595,7.7539506,6.8640003
1680000859660,1180848015396464,5.32905,7.84005,6.8490005
1680000859662,1180848017898387,5.0490003,7.5880504,6.7870502
1680000859665,1180848020400531,5.16405,7.8229504,6.50895
1680000859668,1180848022902608,5.04195,7.7560506,6.5070004
1680000859670,1180848025404762,5.0080504,7.7800503,6.3180003
1680000859673,1180848027906685,4.91505,7.9210505,6.267
1680000859675,1180848030408839,4.92,7.85895,6.1330504
1680000859678,1180848032910926,4.87395,7.8040504,6.3420005
1680000859680,1180848035413080,4.965,7.62195,6.2050505
1680000859683,1180848037915003,4.9170003,7.8610506,6.4999504
1680000859689,1180848040417137,4.47405,7.7800503,6.5209503
1680000859691,1180848042919291,4.54605,7.7920504,6.117
1680000859693,1180848045421368,4.2660003,7.4760003,6.129
1680000859694,1180848047923291,4.22505,7.4830503,6.50505
1680000859695,1180848050425368,3.7050002,7.176,6.2310004
1680000859699,1180848052927497,3.966,7.497,5.82705
1680000859700,1180848055429420,3.8490002,7.2990003,5.925
1680000859703,1180848057931574,3.7170002,7.1329503,5.9490004
1680000859706,1180848060433728,3.4470003,7.15005,6.0880504
1680000859708,1180848062935805,3.4129503,6.7570505,5.946
1680000859710,1180848065437733,3.351,6.5179505,5.91795
1680000859713,1180848067939887,3.3360002,6.9559503,6.19995
1680000859716,1180848070441964,3.38895,6.951,5.8819504
1680000859719,1180848072943887,3.4780502,6.7930503,5.8819504
1680000859721,1180848075446055,3.5040002,6.8149505,6.399
1680000859724,1180848077948209,3.21195,7.2750006,6.102
1680000859727,1180848080450286,3.21195,7.1119504,6.08505
1680000859729,1180848082952440,3.8389502,7.0660505,6.74595
1680000859730,1180848085454349,4.39305,6.9250503,7.0480504
1680000859732,1180848087956426,4.5100503,6.8910003,6.70095
1680000859737,1180848090458656,4.215,6.54405,6.696
1680000859739,1180848092960733,4.3900504,6.9030004,6.4399505
1680000859740,1180848095462637,4.2319503,6.951,6.28905
1680000859743,1180848097964714,4.158,7.09005,6.2050505
1680000859746,1180848100466868,4.45695,6.94605,6.18405
1680000859748,1180848102968791,4.35195,6.5850005,6.5500503
1680000859750,1180848105470868,4.42605,6.50295,6.53805
1680000859753,1180848107973113,4.32795,6.19005,6.6990004
1680000859762,1180848110475190,4.2510004,5.98605,6.7249503
1680000859763,1180848112977113,4.3180504,5.83995,6.5400004
1680000859763,1180848115479272,4.362,5.5860004,6.564
1680000859763,1180848117981349,4.25895,5.6509504,6.53805
1680000859766,1180848120483272,4.32105,5.7439504,6.2580004
1680000859768,1180848122985426,4.4050503,6.0670505,6.1380005
1680000859770,1180848125487580,4.30905,6.2040005,6.1399503
1680000859772,1180848127989646,4.2660003,6.1800003,6.4350004
1680000859776,1180848130491800,4.22505,5.8279505,6.0660005
1680000859778,1180848132993723,4.3330503,5.5930505,5.9659505
1680000859780,1180848135495800,4.2730503,5.7510004,6.0610504
1680000859782,1180848137997949,4.1119504,5.6599503,6.14295
1680000859786,1180848140500103,3.45405,5.5020003,5.9010005
1680000859788,1180848143002026,3.7410002,5.6509504,5.7000003
1680000859790,1180848145504180,3.9090002,5.814,6.1639504
1680000859792,1180848148006257,3.8149502,6.0000005,6.339
1680000859796,1180848150508185,3.9880502,5.91405,5.88705
1680000859801,1180848153010262,3.89895,5.6509504,5.89905
1680000859802,1180848155512416,3.86595,5.3820004,5.7619505
1680000859807,1180848158014589,3.9780002,5.04495,5.9490004
1680000859807,1180848160516742,3.8920503,4.95405,5.7670503
1680000859809,1180848163018666,3.83205,4.9609504,5.5729504
1680000859810,1180848165520742,3.8059502,4.77705,5.5080004
1680000859812,1180848168022896,3.8440502,4.7689505,5.64195
1680000859817,1180848170524810,3.6720002,5.2720504,6.19605
1680000859820,1180848173026964,3.5449502,5.2579503,6.0610504
1680000859822,1180848175529041,3.4009502,5.2699504,5.8120503
1680000859822,1180848178031195,3.42,4.91505,5.9230504
1680000859826,1180848180533118,3.42,4.80795,5.985
1680000859829,1180848183035190,3.3940501,4.8960004,6.0210004
1680000859830,1180848185537344,3.3439503,4.83405,6.14295
1680000859834,1180848188039498,3.279,4.93905,6.0349503
1680000859839,1180848190541416,3.17595,4.8360004,6.2119503
1680000859840,1180848193043493,3.04905,4.7380505,5.853
1680000859841,1180848195545416,2.9940002,4.3890004,6.1090503
1680000859843,1180848198047570,3.1710002,4.37895,6.21705
1680000859847,1180848200549724,3.5299501,4.4770503,6.01095
1680000859849,1180848203051781,3.38895,4.269,5.88705
1680000859850,1180848205553935,3.3460503,4.116,6.2359505
1680000859853,1180848208055858,3.31695,4.54395,6.70095
1680000859856,1180848210557935,3.3630002,4.92495,6.8179502
1680000859859,1180848213060084,3.4420502,5.0470505,6.399
1680000859861,1180848215562007,3.32205,4.9830003,6.71295
1680000859863,1180848218064392,3.6360002,5.11905,6.83295
1680000859866,1180848220566238,3.624,5.54295,7.0939503
1680000859869,1180848223068392,3.7870502,5.373,6.59595
1680000859871,1180848225570344,3.7870502,5.406,7.0410004
1680000859875,1180848228072421,3.7240503,5.3200502,7.0870504
1680000859878,1180848230574575,3.4630501,5.0059505,6.83295
1680000859880,1180848233367507,3.55395,4.7719502,6.7540503
1680000859881,1180848235578891,3.68895,4.95405,6.9979506
1680000859883,1180848238080815,3.8029501,5.1049504,6.9979506
1680000859887,1180848240582891,3.9060001,5.30595,6.9810004
1680000859890,1180848243085045,3.86295,5.3149505,7.209
1680000859891,1180848245586959,3.89895,5.23605,7.6180506
1680000859893,1180848248089036,3.8440502,5.30595,7.5199504
1680000859896,1180848250591190,3.8920503,5.157,7.6470003
1680000859898,1180848253093344,3.9259503,5.2990503,7.7119503
1680000859900,1180848255595267,4.0410004,5.04195,7.5660005
1680000859902,1180848258097344,4.17705,4.86,7.5799503
1680000859906,1180848260599498,4.0279503,4.9440002,7.6540504
1680000859909,1180848263101421,3.9300003,4.67805,7.52505
1680000859912,1180848265603594,3.9450002,4.70895,7.4430003
1680000859913,1180848268105671,3.8370001,4.6540504,7.3759503
1680000859917,1180848270607825,4.0069504,4.6330504,7.1850004
1680000859919,1180848273109748,4.01205,4.78095,7.3950005
1680000859921,1180848275611902,3.9160502,4.95405,7.6210504
1680000859923,1180848278113968,3.8869503,4.872,7.7070003
1680000859925,1180848280615892,3.7050002,4.74795,8.001
1680000859928,1180848283118276,3.63105,4.8120003,8.163
1680000859930,1180848285620199,3.5710502,4.7410502,8.02305
1680000859934,1180848288122238,3.4009502,4.39605,7.8700504
1680000859936,1180848290624392,3.2569501,4.269,7.8580503
1680000859939,1180848293126315,3.4680002,4.4940004,7.7070003
1680000859941,1180848295628392,3.7510502,4.64505,7.8600006
1680000859943,1180848298130315,3.8710501,4.7959504,7.7550006
1680000859946,1180848300632709,3.9850502,4.95405,7.7760005
1680000859950,1180848303134632,4.23495,5.076,7.8460503
1680000859952,1180848305636709,4.3570504,5.3820004,7.75995
1680000859954,1180848308138863,4.23,5.385,7.7710505
1680000859957,1180848310640806,4.07205,5.2000504,7.7640004
1680000859959,1180848313142960,4.077,5.3629503,7.8529506
1680000859960,1180848315644806,4.1200504,5.22405,7.827
1680000859965,1180848318147190,4.0470004,5.1210003,7.8190503
1680000859968,1180848320649098,4.01895,4.9560003,7.5990005
1680000859969,1180848323151252,3.9109502,5.097,7.932
1680000859971,1180848325653329,3.68895,4.9729505,7.5420003
1680000859973,1180848328155252,3.6360002,4.5610504,7.4340005
1680000859976,1180848330657406,3.7480502,4.52295,7.2570004
1680000859979,1180848333159531,3.6979501,4.7239504,7.4410505
1680000859981,1180848335661608,3.6550503,4.77705,7.4890504
1680000859983,1180848338163762,3.5640001,4.9489503,7.5460505
1680000859989,1180848340665704,3.48705,4.95405,7.4359503
1680000859992,1180848343167781,3.42,4.92,7.4719505
1680000859993,1180848345669704,3.3630002,4.9680004,7.3309503
1680000859994,1180848348171858,3.25005,4.683,7.221
1680000859996,1180848350674012,3.1020002,4.48005,7.1370006
1680000859998,1180848353176075,3.1020002,4.77705,7.3399506
1680000860000,1180848355678228,3.2910001,4.99695,7.25895
1680000860004,1180848358180151,3.183,5.1880503,7.386
1680000860006,1180848360682305,3.2380502,5.124,7.5460505
1680000860008,1180848363184161,3.3390002,5.076,7.5820503
1680000860010,1180848365686546,3.2020502,5.0209503,7.5130506
1680000860013,1180848368188469,3.2239501,5.04495,7.4410505
1680000860016,1180848370690623,3.2359502,5.01795,7.2520504
1680000860019,1180848373192695,3.1740003,4.872,7.4890504
1680000860022,1180848375694618,3.15405,4.887,7.3720503
1680000860025,1180848378196772,3.2260501,4.9009504,7.7260504
1680000860027,1180848380698849,3.35805,5.0230503,7.69995
1680000860029,1180848383201032,3.4060502,5.10195,7.7910004
