system_ts_ms, sensor_ts_ns, accX, accY, accZ
1679914350140,1094338495551978,0.62895006,0.99000007,9.673051
1679914350142,1094338498054363,0.44895002,0.94905007,9.70905
1679914350144,1094338500556901,0.39195,0.837,9.68805
1679914350147,1094338503059363,0.21705002,0.873,9.7879505
1679914350150,1094338505561810,0.0010500001,0.81000006,9.738001
1679914350152,1094338508064195,0.018000001,0.76500005,9.63
1679914350160,1094338510566656,-0.12795001,0.79095006,9.73095
1679914350160,1094338513069118,-0.18105,0.68295,9.726001
1679914350161,1094338515571656,-0.246,0.76995003,9.781051
1679914350161,1094338518074132,-0.279,0.76005006,9.778951
1679914350164,1094338520576593,-0.33900002,0.75795,9.850051
1679914350167,1094338523078978,-0.51000005,0.80595005,9.90795
1679914350172,1094338525581440,-0.49695003,0.79800004,10.063951
1679914350172,1094338528083901,-0.49500003,0.77895004,10.095
1679914350174,1094338530586440,-0.507,0.85605,10.111051
1679914350176,1094338533088901,-0.37995002,0.83895004,10.200001
1679914350179,1094338535591286,-0.39600003,0.86505,10.18605
1679914350181,1094338538093767,-0.21195,0.87000006,10.224001
1679914350184,1094338540596229,-0.21705002,0.933,10.2289505
1679914350189,1094338543098690,-0.13305001,0.92295,10.284
1679914350190,1094338545601152,-0.00795,0.90900004,10.156951
1679914350192,1094338548103604,-0.058950003,0.92295,10.1980505
1679914350194,1094338550606065,0.09705,0.906,10.111051
1679914350197,1094338553108527,0.20505,0.94005007,9.976951
1679914350199,1094338555610988,0.17805001,0.99495006,9.86505
1679914350202,1094338558113464,0.22200002,1.0189501,9.769051
1679914350206,1094338560615925,0.14505,1.1029501,9.747001
1679914350208,1094338563118387,0.24495001,1.1029501,9.86205
1679914350209,1094338565620848,0.126,1.11,9.691951
1679914350212,1094338568123310,0.11100001,1.1340001,9.86205
1679914350214,1094338570625786,0.06795,1.1740501,9.814051
1679914350217,1094338573128248,0.054,1.182,9.879001
1679914350223,1094338575630710,0.03195,1.12905,9.92895
1679914350224,1094338578133171,0.049050003,1.1050501,9.901051
1679914350225,1094338580635623,0.018000001,0.9799501,10.135051
1679914350227,1094338583137853,0.034950003,0.96105003,10.248
1679914350230,1094338585640315,0.022950001,0.873,10.309951
1679914350232,1094338588143007,-0.07095,0.777,10.38405
1679914350234,1094338590645469,-0.00405,0.71895003,10.462951
1679914350240,1094338593147700,0.0010500001,0.72705,10.47105
1679914350241,1094338595650161,-0.052050002,0.64995,10.50195
1679914350242,1094338598152623,-0.00795,0.60195005,10.578
1679914350258,1094338600655098,0.051000003,0.66405004,10.65705
1679914350259,1094338603157560,0.04695,0.62805,10.55895
1679914350259,1094338605660021,0.08295,0.72900003,10.44705
1679914350259,1094338608162483,0.21195,0.82500005,10.389001
1679914350259,1094338610664944,0.28905,0.76695,10.308001
1679914350259,1094338613167427,0.36795002,0.79395,10.143001
1679914350260,1094338615669888,0.37500003,0.83400005,10.078051
1679914350265,1094338618172581,0.40800002,0.91095006,9.96105
1679914350266,1094338620674812,0.48495004,0.94695,9.843
1679914350267,1094338623177301,0.54495,1.0380001,9.691951
1679914350272,1094338625679763,0.51900005,1.0189501,9.68295
1679914350273,1094338628182224,0.56205004,1.008,9.56805
1679914350274,1094338630684686,0.47805002,1.059,9.37905
1679914350277,1094338633187123,0.45600003,1.074,9.3
1679914350279,1094338635689585,0.53805,1.0860001,9.30195
1679914350283,1094338638192046,0.54,1.0669501,9.15795
1679914350284,1094338640694431,0.58305,1.107,9.12495
1679914350289,1094338643196903,0.59805006,1.09095,9.052951
1679914350289,1094338645699364,0.59295005,1.008,8.923051
1679914350292,1094338648201903,0.633,1.0210501,9.07005
1679914350294,1094338650704287,0.56205004,1.02405,8.859
1679914350297,1094338653206744,0.58095,1.0309501,8.904
1679914350299,1094338655709205,0.57795,1.0500001,9.015
1679914350306,1094338658211667,0.50895,1.11195,9.048
1679914350306,1094338660714205,0.54,1.0669501,9.06705
1679914350307,1094338663216667,0.49905002,1.12905,9.117001
1679914350310,1094338665719114,0.53295004,1.011,9.09105
1679914350312,1094338668221499,0.47505003,1.11,9.22305
1679914350314,1094338670723961,0.47100002,1.095,9.349951
1679914350317,1094338673226436,0.432,1.04505,9.340051
1679914350323,1094338675728975,0.291,1.1770501,9.5130005
1679914350323,1094338678231436,0.31305,1.059,9.489
1679914350324,1094338680733821,0.36795002,0.96795005,9.63
1679914350327,1094338683236282,0.23595001,1.0309501,9.65205
1679914350329,1094338685738744,0.231,1.0710001,9.781051
1679914350332,1094338688240975,0.14505,1.026,9.970051
1679914350334,1094338690743667,0.102000006,1.0330501,9.925051
1679914350339,1094338693246128,0.04695,0.91095006,10.143001
1679914350340,1094338695748605,0.09705,0.90900004,10.128
1679914350342,1094338698250836,0.15405001,0.91095006,10.200001
1679914350344,1094338700753297,0.26895002,1.0210501,10.33395
1679914350347,1094338703255759,0.23805001,0.96105003,10.30095
1679914350350,1094338705758451,0.28905,0.95895004,10.462951
1679914350355,1094338708260913,0.31005,0.82005006,10.38195
1679914350355,1094338710763143,0.29595003,0.91305006,10.38
1679914350358,1094338713265605,0.27195,0.97800004,10.39605
1679914350361,1094338715768081,0.28395,0.91605,10.36305
1679914350362,1094338718270542,0.32700002,0.90105003,10.36995
1679914350364,1094338720773234,0.279,0.94695,10.31505
1679914350367,1094338723275696,0.33600003,0.98805004,10.210051
1679914350372,1094338725778157,0.303,0.98505,10.19295
1679914350372,1094338728280374,0.31995,1.0380001,10.305
1679914350374,1094338730782836,0.28605002,0.99000007,10.035001
1679914350377,1094338733285297,0.38895002,1.0669501,9.987
1679914350379,1094338735787759,0.43500003,1.074,9.982051
1679914350382,1094338738290220,0.31695002,1.0999501,9.847951
1679914350384,1094338740792662,0.35805002,1.0669501,9.90495
1679914350388,1094338743295124,0.36495003,1.014,9.8220005
1679914350390,1094338745797508,0.25005,1.0330501,9.84105
1679914350392,1094338748300043,0.37695003,1.0210501,9.774
1679914350396,1094338750802504,0.34095,1.0030501,9.814051
1679914350397,1094338753304966,0.25995,1.0999501,9.879001
1679914350399,1094338755807427,0.30105,1.0500001,9.7879505
1679914350405,1094338758309811,0.31305,1.0669501,9.87195
1679914350405,1094338760812272,0.13995,1.03995,9.96105
1679914350407,1094338763314811,0.18300001,1.04505,9.87705
1679914350409,1094338765817272,0.22200002,0.93705004,9.89595
1679914350412,1094338768319706,0.23595001,1.00695,9.89295
1679914350414,1094338770822168,0.24105,0.91800004,10.02495
1679914350417,1094338773324552,0.13095,0.94005007,10.04205
1679914350423,1094338775827014,0.14205001,0.99705005,10.044001
1679914350423,1094338778329552,0.15405001,0.89400005,10.044001
1679914350424,1094338780832023,0.12105001,0.86805004,9.988951
1679914350427,1094338783334484,0.16905001,0.882,10.032001
1679914350430,1094338785836869,0.078,0.88005006,10.068001
1679914350433,1094338788339306,0.078,0.94905007,10.123051
1679914350434,1094338790841768,0.23805001,0.90105003,10.02795
1679914350438,1094338793344306,0.15405001,1.04505,10.03995
1679914350439,1094338795846691,0.135,1.0000501,10.068001
1679914350442,1094338798349153,0.19005,1.0380001,9.99405
1679914350444,1094338800851614,0.18105,0.99495006,10.00395
1679914350448,1094338803353845,0.279,0.94500005,9.999001
1679914350450,1094338805856306,0.26700002,1.00695,10.00605
1679914350455,1094338808358999,0.186,1.0830001,9.90495
1679914350456,1094338810861441,0.24795002,1.03995,9.94095
1679914350457,1094338813363903,0.17805001,1.09305,9.901051
1679914350459,1094338815866134,0.25695002,1.0570501,9.90795
1679914350462,1094338818368595,0.18795002,1.09305,9.89595
1679914350464,1094338820871071,0.18300001,1.1770501,9.831
1679914350467,1094338823373763,0.11895001,1.167,9.958051
1679914350472,1094338825876225,0.15900001,1.1389501,9.811951
1679914350473,1094338828378686,0.231,1.12395,9.970051
1679914350474,1094338830881143,0.20700002,1.1190001,9.807
1679914350477,1094338833383373,0.16395001,1.11705,9.762
1679914350480,1094338835885835,0.19800001,1.05495,9.9529505
1679914350482,1094338838388527,0.22605,0.99495006,9.81
1679914350484,1094338840890989,0.28095,1.0309501,9.72795
1679914350489,1094338843393220,0.19305001,0.94005007,9.783
1679914350489,1094338845895681,0.24300002,1.02405,9.75195
1679914350492,1094338848398143,0.19305001,1.0500001,9.795
1679914350494,1094338850900604,0.18105,0.88695,9.793051
1679914350497,1094338853403066,0.21195,0.84405005,9.86505
1679914350499,1094338855905527,0.22905001,0.81795,9.73995
1679914350505,1094338858407989,0.22395001,0.91800004,9.75
1679914350506,1094338860910450,0.13095,0.94905007,9.88605
1679914350509,1094338863412845,0.11400001,0.86295,9.781051
1679914350511,1094338865915384,0.066,0.90900004,9.762
1679914350512,1094338868417845,0.078,0.92505,9.735001
1679914350515,1094338870920307,0.01305,0.95400006,9.747001
1679914350517,1094338873422768,0.11100001,0.95895004,9.786
1679914350524,1094338875925239,0.11595,1.0210501,9.74505
1679914350524,1094338878427623,0.16395001,1.0189501,9.7570505
1679914350525,1094338880930162,0.14505,1.04295,9.73995
1679914350527,1094338883432623,0.147,0.96405005,9.69495
1679914350530,1094338885935085,0.13995,1.0669501,9.673051
1679914350532,1094338888437546,0.22395001,1.026,9.703951
1679914350534,1094338890939931,0.20505,1.07595,9.75
1679914350538,1094338893442393,0.21405001,0.94905007,9.679951
1679914350539,1094338895944931,0.29805002,1.03995,9.823951
1679914350542,1094338898447316,0.147,1.00695,9.838051
1679914350546,1094338900949777,0.28605002,0.966,9.68805
1679914350547,1094338903452239,0.279,0.94500005,9.690001
1679914350550,1094338905954700,0.36,1.0000501,9.72105
1679914350554,1094338908456931,0.384,0.933,9.71595
1679914350555,1094338910959623,0.40395,1.04805,9.73095
1679914350557,1094338913462085,0.303,0.97605,9.654
1679914350559,1094338915964546,0.252,0.96795005,9.70695
1679914350562,1094338918467013,0.30795002,0.96105003,9.75195
1679914350565,1094338920969475,0.28395,0.94905007,9.870001
1679914350567,1094338923471705,0.186,0.94200003,9.834001
1679914350571,1094338925974398,0.13995,0.99705005,9.979951
1679914350572,1094338928476840,0.126,1.0030501,9.913051
1679914350574,1094338930979302,0.162,1.026,9.976951
1679914350577,1094338933481763,0.09,1.0330501,9.934051
1679914350580,1094338935984225,0.15705001,0.97305006,10.116
1679914350584,1094338938486470,0.06795,1.0500001,10.071
1679914350584,1094338940989162,0.12795001,0.98805004,10.143001
1679914350588,1094338943491623,0.09900001,0.99705005,10.126051
1679914350590,1094338945994085,0.126,0.97605,10.119
1679914350592,1094338948496316,0.25695002,0.96105003,10.032001
1679914350594,1094338950998752,0.186,0.92100006,10.00605
1679914350598,1094338953501445,0.25005,1.062,9.92205
1679914350599,1094338956003906,0.20205002,0.93495005,9.925051
1679914350604,1094338958506137,0.23805001,0.92295,9.786
1679914350605,1094338961008609,0.303,0.97305006,9.87195
1679914350607,1094338963511070,0.26700002,0.95595,9.654
1679914350610,1094338966013532,0.25695002,0.91605,9.73305
1679914350612,1094338968515993,0.22605,0.97095007,9.68295
1679914350615,1094338971018694,0.25500003,0.933,9.691951
1679914350617,1094338973520925,0.08295,0.91800004,9.71895
1679914350621,1094338976023387,0.22605,0.95400006,9.703951
1679914350622,1094338978525848,0.15705001,0.95205003,9.783
1679914350625,1094338981028315,0.14205001,0.94005007,9.769051
1679914350627,1094338983531007,0.15405001,0.97305006,9.793051
1679914350631,1094338986033238,0.11595,0.92805004,9.805051
1679914350632,1094338988535699,0.21405001,0.92505,9.846001
1679914350635,1094338991038171,0.24495001,0.96405005,9.819
1679914350637,1094338993540633,0.13995,0.94695,9.754951
1679914350640,1094338996043017,0.18300001,0.933,9.915001
1679914350642,1094338998545556,0.20700002,1.008,9.88605
1679914350645,1094339001048026,0.22200002,1.0330501,9.964951
1679914350647,1094339003550488,0.162,1.0159501,9.880951
1679914350650,1094339006052872,0.22200002,0.95400006,9.92895
1679914350655,1094339008555334,0.19800001,1.0030501,9.970051
1679914350655,1094339011057795,0.21900001,0.95400006,9.939
1679914350659,1094339013560257,0.16605,0.99495006,9.999001
1679914350660,1094339016062719,0.19995001,0.98805004,10.02
1679914350662,1094339018565180,0.25695002,1.0669501,9.946051
1679914350665,1094339021067642,0.25695002,0.94200003,10.056001
1679914350667,1094339023570103,0.303,1.014,9.92895
1679914350671,1094339026072565,0.25695002,0.91605,9.976951
1679914350672,1094339028575026,0.34095,0.96795005,9.913051
1679914350675,1094339031077488,0.27195,1.0210501,9.901051
1679914350677,1094339033579940,0.30495003,0.9799501,9.879001
1679914350680,1094339036082402,0.21195,1.011,9.946051
1679914350683,1094339038584863,0.31305,1.008,9.92205
1679914350685,1094339041087094,0.26505002,1.0159501,9.85995
1679914350688,1094339043589767,0.25005,1.0000501,9.91005
1679914350690,1094339046092228,0.28395,0.906,9.86205
1679914350692,1094339048594690,0.13995,0.98505,10.011001
1679914350696,1094339051097151,0.28395,0.94905007,9.87405
1679914350697,1094339053599382,0.19800001,0.9799501,9.87405
1679914350700,1094339056102074,0.22605,0.93495005,9.834001
1679914350704,1094339058604536,0.24795002,0.97800004,9.89295
1679914350705,1094339061106767,0.26700002,0.99195004,9.903001
1679914350707,1094339063609228,0.24495001,0.95895004,9.81
1679914350711,1094339066111690,0.31005,0.96105003,9.86205
1679914350712,1094339068614151,0.30495003,0.98505,9.85995
1679914350715,1094339071116613,0.24105,1.0330501,9.867001
1679914350718,1094339073619094,0.20700002,0.92295,9.85995
1679914350721,1094339076121556,0.24495001,1.00695,9.964951
1679914350722,1094339078624017,0.31500003,1.095,9.814051
1679914350725,1094339081126479,0.37500003,1.095,9.87405
1679914350727,1094339083628940,0.25005,1.04505,9.805051
1679914350730,1094339086131416,0.32505003,1.0639501,9.979951
1679914350734,1094339088633878,0.26205,1.059,9.958051
1679914350735,1094339091136339,0.24795002,1.014,9.963
1679914350737,1094339093638801,0.22905001,1.0669501,9.939
1679914350740,1094339096141271,0.21405001,1.0030501,10.068001
1679914350742,1094339098643733,0.19305001,1.08105,9.987
1679914350745,1094339101146194,0.279,1.04505,9.97305
1679914350747,1094339103648656,0.24300002,1.0210501,9.880951
1679914350751,1094339106151113,0.24495001,1.0330501,9.958051
1679914350755,1094339108653575,0.32895002,1.04805,10.00605
1679914350755,1094339111155960,0.291,1.11195,10.07505
1679914350757,1094339113658421,0.36,0.99705005,10.03695
1679914350760,1094339116160960,0.44205,1.0020001,10.01595
1679914350762,1094339118663354,0.41805002,1.0309501,10.071
1679914350765,1094339121165816,0.41805002,1.0519501,9.975
1679914350767,1094339123668277,0.39600003,1.131,10.083
1679914350771,1094339126170739,0.42000002,1.0830001,10.063951
1679914350772,1094339128673200,0.41805002,1.0519501,10.056001
1679914350775,1094339131175662,0.44895002,1.1220001,10.120951
1679914350777,1094339133678123,0.37005,1.04805,10.071
1679914350780,1094339136180585,0.41805002,1.0639501,10.14
1679914350782,1094339138683037,0.384,0.99195004,10.114051
1679914350785,1094339141185498,0.43005002,1.0669501,9.85305
1679914350787,1094339143687960,0.40395,1.107,9.963
1679914350790,1094339146190421,0.37695003,1.07595,10.044001
1679914350792,1094339148692883,0.29595003,1.0710001,9.955951
1679914350795,1094339151195344,0.40095,1.0189501,9.814051
1679914350797,1094339153697806,0.303,1.04805,9.949051
1679914350800,1094339156200267,0.30105,1.04295,9.89295
1679914350806,1094339158702729,0.35595003,1.0000501,10.00605
1679914350807,1094339161205171,0.27705002,1.11195,9.92895
1679914350809,1094339163707633,0.26700002,1.0360501,9.94095
1679914350810,1094339166210095,0.28905,1.12395,9.99405
1679914350812,1094339168712325,0.27195,1.0500001,10.107
1679914350815,1094339171214787,0.27405003,1.0690501,9.91005
1679914350817,1094339173717479,0.279,0.94905007,9.958051
1679914350820,1094339176219710,0.22395001,1.07595,10.03005
1679914350822,1094339178722171,0.17805001,1.0309501,10.03695
1679914350825,1094339181224633,0.22200002,1.011,10.05405
1679914350827,1094339183727095,0.21405001,1.014,10.056001
1679914350831,1094339186229556,0.20505,0.98805004,10.1310005
1679914350832,1094339188732018,0.18795002,1.04505,10.1310005
1679914350835,1094339191234479,0.109050006,1.04295,10.20495
1679914350837,1094339193736941,0.19305001,1.0570501,10.01595
1679914350840,1094339196239402,0.27405003,1.0309501,10.1310005
1679914350843,1094339198741864,0.26895002,1.0860001,10.144951
1679914350847,1094339201244253,0.31695002,1.1530501,10.0990505
1679914350847,1094339203747023,0.31500003,1.07895,10.03995
1679914350850,1094339206249253,0.33900002,1.11705,10.104
1679914350854,1094339208751715,0.33600003,1.1550001,10.080001
1679914350855,1094339211254177,0.36,1.18605,10.114051
1679914350857,1094339213756643,0.31995,1.1719501,10.16205
1679914350860,1094339216259028,0.34395,1.09305,10.05405
1679914350862,1094339218761566,0.29295,1.24905,10.00605
1679914350865,1094339221264028,0.33195,1.19805,10.108951
1679914350868,1094339223766407,0.33600003,1.1890501,10.047001
1679914350871,1094339226268869,0.30105,1.2270001,10.21695
1679914350872,1094339228771330,0.37500003,1.2940501,10.132951
1679914350875,1094339231273792,0.34395,1.23705,10.107
1679914350878,1094339233776234,0.29595003,1.19595,10.33905
1679914350880,1094339236278695,0.32895002,1.24395,10.248
1679914350884,1094339238781157,0.23595001,1.2970501,10.332001
1679914350885,1094339241283618,0.37005,1.31295,10.320001
1679914350888,1094339243785840,0.37695003,1.131,10.341001
1679914350890,1094339246288532,0.42000002,1.33305,10.36995
1679914350892,1094339248790994,0.41295,1.2580501,10.24995
1679914350895,1094339251293455,0.39600003,1.179,10.33395
1679914350897,1094339253795902,0.49500003,1.2060001,10.309951
1679914350900,1094339256298363,0.37005,1.19805,10.20195
1679914350905,1094339258800825,0.39195,1.20105,10.24995
1679914350906,1094339261303287,0.35805002,1.21305,10.32495
1679914350907,1094339263805744,0.351,1.27995,10.31505
1679914350911,1094339266308206,0.28905,1.20105,10.159051
1679914350913,1094339268810667,0.24300002,1.27995,10.21905
1679914350915,1094339271313129,0.303,1.1740501,10.15005
1679914350917,1094339273815359,0.31695002,1.167,10.155001
1679914350922,1094339276318052,0.35295,1.1770501,10.102051
1679914350923,1094339278820513,0.372,1.2409501,10.102051
1679914350925,1094339281322744,0.34605002,1.35195,10.108951
1679914350927,1094339283825206,0.252,1.368,10.1310005
1679914350930,1094339286327651,0.23595001,1.27005,10.1640005
1679914350932,1094339288830113,0.23595001,1.299,10.224001
1679914350935,1094339291332574,0.231,1.3950001,10.108951
1679914350938,1094339293835036,0.20700002,1.4830501,10.224001
1679914350940,1094339296337492,0.14505,1.55805,10.33395
1679914350942,1094339298839954,0.01995,1.383,10.31505
1679914350945,1094339301342415,0.051000003,1.34895,10.405951
1679914350948,1094339303844800,0.109050006,1.4790001,10.48305
1679914350951,1094339306347335,0.135,1.4569501,10.519051
1679914350954,1094339308849796,0.291,1.5409501,10.629001
1679914350955,1094339311352258,0.363,1.5480001,10.734
1679914350959,1094339313854719,0.35595003,1.6060501,10.729051
1679914350961,1094339316357118,0.33195,1.57395,10.717051
1679914350963,1094339318859579,0.29295,1.62495,10.732051
1679914350965,1094339321362118,0.37500003,1.5460501,10.714951
1679914350967,1094339323864579,0.29295,1.5979501,10.722
1679914350971,1094339326367041,0.72,1.62495,10.212001
1679914350972,1094339328869455,0.66705,1.7490001,10.2619505
1679914350975,1094339331371916,0.69795,1.7400001,10.36305
1679914350978,1094339333874378,0.73905003,1.6870501,10.1640005
1679914350980,1094339336376916,0.55200005,1.6060501,10.33905
1679914350983,1094339338879306,0.56895,1.641,10.188001
1679914350985,1094339341381767,0.61395,1.69395,10.248
1679914350988,1094339343884229,0.64095,1.8090001,10.264951
1679914350991,1094339346386690,0.61695004,1.86705,10.35105
1679914350992,1094339348889152,0.58605003,1.8400501,10.71
1679914350996,1094339351391613,0.70095,1.9650002,10.897051
1679914350997,1094339353894075,0.67200005,1.9410001,11.26605
1679914351000,1094339356396537,0.708,2.0700002,11.5990505
1679914351005,1094339358898762,0.68100005,2.09205,11.778001
1679914351005,1094339361401224,0.69600004,2.18505,12.030001
1679914351007,1094339363903916,0.69795,2.18295,12.109051
1679914351010,1094339366406378,0.48495004,2.19705,12.186001
1679914351013,1094339368908815,0.31005,2.18295,12.448951
1679914351015,1094339371411046,0.279,2.1730502,12.47805
1679914351017,1094339373913508,0.15195,2.12505,12.6
1679914351020,1094339376415969,0.21195,1.9980001,12.7890005
1679914351022,1094339378918661,0.18300001,2.15595,12.981001
1679914351025,1094339381421123,0.17595,2.14395,12.98295
1679914351027,1094339383923585,0.31005,2.2090502,13.05
1679914351031,1094339386425815,0.492,2.3119502,13.339951
1679914351034,1094339388928277,0.67200005,2.29305,13.483951
1679914351035,1094339391430738,0.83205,2.403,13.515
1679914351038,1094339393933431,0.96795005,2.4390001,13.419001
1679914351040,1094339396435661,1.14495,2.42505,13.45695
1679914351043,1094339398938123,1.29795,2.5159502,13.507951
1679914351045,1094339401440585,1.4080501,2.5729501,13.302001
1679914351048,1094339403943046,1.5139501,2.631,13.15095
1679914351050,1094339406445431,1.5589501,2.7120001,12.865951
1679914351055,1094339408947969,1.5949501,2.7259502,12.70005
1679914351055,1094339411450416,1.674,2.7169502,12.468
1679914351057,1094339413952877,1.6380001,2.8609502,12.19005
1679914351060,1094339416455262,1.6380001,2.9850001,11.944051
1679914351062,1094339418957723,1.4830501,3.045,11.62695
1679914351065,1094339421460185,1.50705,3.0670502,11.371051
1679914351068,1094339423962723,1.416,3.1930501,11.09595
1679914351073,1094339426465185,1.33395,3.078,10.806001
1679914351073,1094339428967570,1.2910501,3.18405,10.64805
1679914351075,1094339431470031,1.19505,3.1600502,10.34895
1679914351078,1094339433972493,1.044,3.25605,10.078051
1679914351080,1094339436474954,0.91695005,3.2010002,9.74505
1679914351083,1094339438977493,0.93900007,3.2340002,9.4789505
1679914351085,1094339441479954,0.813,3.3349502,9.208051
1679914351088,1094339443982358,0.69795,3.25605,8.94495
1679914351090,1094339446484819,0.62100005,3.3280501,8.76105
1679914351092,1094339448987281,0.53295004,3.3280501,8.598001
1679914351095,1094339451489819,0.43905002,3.282,8.368051
1679914351098,1094339453992234,0.39195,3.2580001,8.29605
1679914351100,1094339456494696,0.30105,3.2749503,8.262
1679914351105,1094339458997157,0.102000006,3.3919501,8.10705
1679914351105,1094339461499619,0.075,3.3300002,8.145
1679914351109,1094339464001854,0.08295,3.2989502,8.17905
1679914351111,1094339466504547,0.102000006,3.246,8.170051
1679914351113,1094339469007008,0.04695,3.2599502,8.128051
1679914351115,1094339471509484,-0.034950003,3.3370502,8.109
1679914351119,1094339474011715,-0.03705,3.3589501,8.016001
1679914351122,1094339476514176,-0.063,3.3079503,8.05605
1679914351122,1094339479016638,-0.11100001,3.4399502,7.9099503
1679914351125,1094339481519330,-0.030000001,3.34695,7.8619504
1679914351128,1094339484021764,-0.018000001,3.3370502,7.827
1679914351130,1094339486523994,0.006,3.3610501,7.7809505
1679914351133,1094339489026456,0.075,3.3610501,7.6090503
1679914351137,1094339491528917,0.12795001,3.3949502,7.4890504
1679914351138,1094339494031379,0.135,3.48795,7.31895
1679914351140,1094339496534071,0.20505,3.5170503,7.149
1679914351143,1094339499036533,0.29595003,3.5839503,7.00995
1679914351147,1094339501538764,0.41295,3.6820502,6.8160005
1679914351147,1094339504041225,0.46305,3.7870502,6.6889505
1679914351151,1094339506543687,0.51000005,3.7680001,6.50895
1679914351154,1094339509046148,0.59805006,3.9529502,6.33195
1679914351155,1094339511548610,0.528,3.9259503,6.1930504
1679914351158,1094339514051071,0.51405,3.9769502,5.9440503
1679914351160,1094339516553533,0.57600003,4.0630503,5.8170004
1679914351163,1094339519056008,0.65505004,4.065,5.59005
1679914351165,1094339521558393,0.624,4.077,5.36205
1679914351168,1094339524060855,0.69105005,4.20405,5.1130505
1679914351170,1094339526563393,0.75105006,4.2400503,5.03595
1679914351173,1094339529065855,0.78195006,4.329,4.8040504
1679914351175,1094339531568244,0.75105006,4.39605,4.5529504
1679914351178,1094339534070706,0.744,4.3240504,4.3320003
1679914351180,1094339536573167,0.85905004,4.3840504,4.1290503
1679914351184,1094339539075730,0.804,4.3050003,3.9060001
1679914351185,1094339541578114,0.76305,4.3099504,3.693
1679914351188,1094339544080576,0.75795,4.2829504,3.5470502
1679914351191,1094339546583038,0.70995003,4.31895,3.45795
1679914351193,1094339549085499,0.70500004,4.1659503,3.24705
1679914351195,1094339551587942,0.65505004,4.15905,3.0340502
1679914351198,1094339554090403,0.62100005,4.20195,2.9839501
1679914351200,1094339556592865,0.48495004,4.17495,2.88105
1679914351203,1094339559095326,0.45600003,4.1850004,2.799
1679914351205,1094339561597792,0.30105,4.06005,2.6580002
1679914351207,1094339564100253,0.28095,4.065,2.526
1679914351210,1094339566602715,0.135,4.149,2.5240502
1679914351213,1094339569105176,0.13800001,4.125,2.505
1679914351215,1094339571607658,0.15,4.0459504,2.3730001
1679914351218,1094339574110120,0.051000003,3.96705,2.2840502
1679914351222,1094339576612581,0.162,3.9739501,2.265
1679914351223,1094339579114812,0.094950005,3.9240003,2.12895
1679914351225,1094339581617301,0.16395001,3.89805,2.1700501
1679914351228,1094339584119994,0.13305001,3.8740501,2.12895
1679914351231,1094339586622455,0.19995001,3.7920003,2.11395
1679914351233,1094339589124686,0.15705001,3.69195,1.9950001
1679914351235,1094339591627177,0.075,3.627,2.11395
1679914351238,1094339594129638,-0.016050002,3.4999502,2.2050002
1679914351240,1094339596632100,0.058950003,3.3709502,2.2369502
1679914351243,1094339599134561,0.11895001,3.3370502,2.361
1679914351245,1094339601637047,0.08505,3.1930501,2.5459502
1679914351248,1094339604139508,0.075,3.05205,2.778
1679914351250,1094339606641970,0.09900001,3.07395,3.1369503
1679914351254,1094339609144354,0.09195001,2.9230502,3.48705
1679914351255,1094339611646797,-0.025050001,2.90595,4.01805
1679914351259,1094339614149335,0.11895001,2.8510501,4.47795
1679914351261,1094339616651797,0.12105001,2.77395,4.986
1679914351263,1094339619154259,0.13305001,2.66895,5.49405
1679914351265,1094339621656705,0.087000005,2.56395,6.2050505
1679914351268,1094339624159090,0.22200002,2.48895,6.8280005
1679914351271,1094339626661551,0.33405003,2.4409502,7.5490503
1679914351273,1094339629164090,0.372,2.2669501,8.002951
1679914351275,1094339631666536,0.39600003,2.19495,8.739
1679914351278,1094339634168998,0.54,2.2069502,9.084001
1679914351281,1094339636671382,0.63795,2.1400502,9.498
1679914351283,1094339639173844,0.66495,1.9069501,10.03995
1679914351285,1094339641676382,0.80100006,1.7920501,10.437
1679914351288,1094339644178839,0.813,1.6030501,10.64595
1679914351290,1094339646681224,0.90795004,1.416,10.879951
1679914351293,1094339649183685,0.92505,1.3369501,11.259001
1679914351297,1094339651686162,1.10895,1.3609501,11.464951
1679914351298,1094339654188392,1.1590501,1.2199501,11.659051
1679914351300,1094339656691085,1.3770001,1.2220501,11.806951
1679914351304,1094339659193546,1.4779501,1.2529501,11.982
1679914351305,1094339661696008,1.57605,1.1580001,12.078001
1679914351308,1094339664198239,1.7680501,1.074,12.195001
1679914351311,1094339666700700,1.9039501,1.15995,12.174001
1679914351313,1094339669203162,1.95,1.09305,12.243001
1679914351315,1094339671705854,1.9450501,1.131,12.25695
1679914351318,1094339674208316,1.7680501,1.0879501,12.243001
1679914351321,1094339676710546,1.69305,1.12905,12.316951
1679914351323,1094339679213008,1.6339501,1.1770501,12.22605
1679914351326,1094339681715469,1.4830501,1.0669501,12.279
1679914351328,1094339684217931,1.2409501,1.1359501,12.316951
1679914351330,1094339686720594,1.07805,1.0860001,12.423
1679914351335,1094339689222825,0.82995003,1.107,12.267
1679914351337,1094339691725287,0.61905,1.0669501,12.423
1679914351338,1094339694227748,0.384,1.08105,12.427051
1679914351340,1094339696730210,0.25500003,0.92295,12.51105
1679914351343,1094339699232671,0.147,1.098,12.4800005
1679914351345,1094339701735133,-0.030000001,0.99495006,12.636001
1679914351348,1094339704237594,-0.010950001,0.93495005,12.585001
1679914351351,1094339706740056,0.075,0.92295,12.79905
1679914351354,1094339709242517,0.10395,0.91095006,12.825001
1679914351355,1094339711744902,0.20505,0.85395,12.909
1679914351358,1094339714247364,0.38700002,0.83400005,12.837001
1679914351360,1094339716749902,0.55200005,0.89205,12.78705
1679914351363,1094339719252397,0.55005,0.87000006,12.80595
1679914351365,1094339721754781,0.66195005,0.85605,12.870001
1679914351368,1094339724257243,0.71505004,0.71205,12.946951
1679914351372,1094339726759704,0.80595005,0.75495005,12.922951
1679914351373,1094339729262181,0.83505005,0.79605,12.894001
1679914351375,1094339731764642,0.86595005,0.74100006,13.038001
1679914351378,1094339734267104,0.75600004,0.67905,13.045051
1679914351380,1094339736769566,0.86295,0.59505004,13.057051
1679914351383,1094339739272031,0.82995003,0.66,13.081051
1679914351385,1094339741774262,0.82305,0.61605,13.102951
1679914351389,1094339744277031,0.77205,0.55905,13.053
1679914351390,1094339746779416,0.85395,0.597,12.835051
1679914351393,1094339749281868,0.837,0.44205,12.703051
1679914351395,1094339751784330,0.89895004,0.54705,12.408001
1679914351398,1094339754286791,0.83505005,0.42195,12.19995
1679914351400,1094339756789022,0.78705,0.45600003,12.123
1679914351404,1094339759291699,0.753,0.42705002,11.833051
1679914351405,1094339761794161,0.768,0.37905002,11.710951
1679914351409,1094339764296623,0.61695004,0.36405003,11.46195
1679914351411,1094339766799084,0.56205004,0.384,11.326051
1679914351413,1094339769301306,0.50895,0.45795003,11.127001
1679914351415,1094339771803767,0.411,0.45795003,11.043
1679914351418,1094339774306460,0.36,0.42000002,10.8490505
1679914351421,1094339776808921,0.303,0.46995002,10.720051
1679914351423,1094339779311152,0.26505002,0.37095,10.581
1679914351426,1094339781813619,0.26205,0.40800002,10.437
1679914351429,1094339784316080,0.26700002,0.54,10.39395
1679914351430,1094339786818542,0.33195,0.50895,10.437
1679914351433,1094339789321003,0.34800002,0.52095,10.474951
1679914351437,1094339791823450,0.29595003,0.49695003,10.50405
1679914351438,1094339794325911,0.363,0.54,10.62405
1679914351441,1094339796828373,0.37005,0.55395,10.61205
1679914351443,1094339799330767,0.32700002,0.528,10.765051
1679914351447,1094339801833229,0.40605003,0.633,10.762951
1679914351448,1094339804335767,0.40395,0.47700003,10.939951
1679914351450,1094339806838229,0.42495003,0.61605,10.938001
1679914351454,1094339809340691,0.492,0.68595004,11.00205
1679914351456,1094339811843089,0.55395,0.597,11.115001
1679914351458,1094339814345551,0.588,0.58005005,11.062051
1679914351461,1094339816848012,0.67395,0.624,11.083951
1679914351463,1094339819350551,0.684,0.573,11.15295
1679914351466,1094339821853012,0.80100006,0.73905003,11.115001
1679914351472,1094339824355397,0.88305,0.78900003,11.07705
1679914351473,1094339826857858,0.98205006,0.65205,11.14605
1679914351474,1094339829360320,0.85905004,0.81000006,11.191951
1679914351476,1094339831862858,0.88695,0.80295,11.14605
1679914351478,1094339834365243,0.93405,0.76005006,11.15295
1679914351481,1094339836867705,0.897,0.87495005,11.203951
1679914351485,1094339839370181,0.813,0.837,11.074051
1679914351487,1094339841872643,0.84900004,0.89895004,10.950001
1679914351488,1094339844375104,0.85095006,0.92505,10.828051
1679914351491,1094339846877566,0.84900004,0.83895004,10.726951
1679914351493,1094339849380027,0.744,0.75105006,10.52805
1679914351495,1094339851882498,0.648,0.68805003,10.5379505
1679914351498,1094339854384959,0.63105005,0.74805003,10.416
1679914351501,1094339856887190,0.717,0.58995,10.1640005
1679914351504,1094339859389652,0.657,0.597,10.08705
1679914351505,1094339861892339,0.67395,0.63105005,9.87405
1679914351509,1094339864394570,0.68100005,0.54705,9.747001
1679914351511,1094339866897031,0.64095,0.50895,9.65205
1679914351513,1094339869399493,0.57600003,0.58995,9.702001
1679914351515,1094339871901935,0.47505003,0.46605003,9.462001
1679914351518,1094339874404320,0.45105,0.43905002,9.187051
1679914351522,1094339876906859,0.38895002,0.40605003,9.402
1679914351523,1094339879409320,0.34800002,0.55200005,9.144
1679914351525,1094339881911772,0.25695002,0.38205,9.084001
1679914351528,1094339884414233,0.31305,0.41295,8.991
1679914351531,1094339886916695,0.13800001,0.32295,9.08895
1679914351533,1094339889419079,0.17400001,0.36405003,8.916
1679914351538,1094339891921614,0.23805001,0.31605002,9.085951
1679914351538,1094339894424075,0.25695002,0.30105,9.11505
1679914351540,1094339896926537,0.24795002,0.34905002,9.10995
1679914351544,1094339899428998,0.27195,0.34395,9.177
1679914351546,1094339901931431,0.33600003,0.354,9.205951
1679914351549,1094339904433816,0.39405003,0.38595003,9.340051
1679914351551,1094339906936354,0.36795002,0.44595003,9.38595
1679914351554,1094339909438816,0.39900002,0.40305,9.43605
1679914351555,1094339911941272,0.55395,0.432,9.703951
1679914351560,1094339914443657,0.51405,0.46995002,9.769051
1679914351561,1094339916946118,0.564,0.55395,9.949051
1679914351564,1094339919448580,0.57600003,0.52305,10.102051
1679914351566,1094339921951046,0.669,0.504,10.240951
1679914351568,1094339924453508,0.708,0.54495,10.281
1679914351571,1094339926955970,0.79905003,0.51795,10.356001
1679914351573,1094339929458431,0.81495005,0.57600003,10.38
1679914351576,1094339931960676,0.82305,0.59205,10.353001
1679914351578,1094339934463368,0.88005006,0.564,10.332001
1679914351581,1094339936965830,0.83895004,0.54705,10.332001
1679914351583,1094339939468291,0.85905004,0.46800002,10.252951
1679914351587,1094339941970734,0.74805003,0.42195,10.473001
1679914351589,1094339944472965,0.80595005,0.35205,10.49205
1679914351591,1094339946975426,0.76995003,0.31800002,10.65705
1679914351593,1094339949478118,0.70095,0.30405003,10.626
1679914351597,1094339951980575,0.64095,0.34695002,10.722
1679914351598,1094339954483036,0.61695004,0.23700002,10.866
1679914351601,1094339956985267,0.45600003,0.23700002,10.882951
1679914351605,1094339959487729,0.52995,0.22905001,10.9140005
1679914351606,1094339961990190,0.54195005,0.15495001,11.035951
1679914351608,1094339964492888,0.57600003,0.15,10.986
1679914351611,1094339966995349,0.6,0.094950005,11.071951
1679914351613,1094339969497580,0.55200005,0.30105,11.047951
1679914351616,1094339972000042,0.693,0.102000006,10.92105
1679914351618,1094339974502493,0.588,0.15300001,11.056951
1679914351621,1094339977004955,0.60705,0.08295,10.840051
1679914351623,1094339979507416,0.708,0.06705,10.851001
1679914351626,1094339982009878,0.70500004,0.031050002,10.69095
1679914351629,1094339984512330,0.72,0.07395,10.641001
1679914351631,1094339987014792,0.744,0.009000001,10.52805
1679914351635,1094339989517176,0.76005006,-0.05595,10.54695
1679914351635,1094339992019638,0.76500005,0.034950003,10.420051
1679914351638,1094339994522176,0.70995003,0.0139500005,10.344001
1679914351641,1094339997024604,0.78000003,0.045,10.411051
1679914351643,1094339999526989,0.82305,0.11400001,10.210051
1679914351646,1094340002029450,0.88695,0.055050004,10.210051
1679914351648,1094340004531912,0.86100006,0.14805001,10.135051
1679914351650,1094340007034373,0.99405,0.093,10.107
1679914351654,1094340009536820,0.92205006,0.11400001,9.988951
1679914351656,1094340012039281,0.99705005,0.016050002,9.89595
1679914351659,1094340014541743,0.93900007,0.04695,9.814051
1679914351661,1094340017044219,0.897,0.10695001,9.771001
1679914351663,1094340019546681,0.88305,0.081,9.754951
1679914351666,1094340022048912,0.83205,0.025950002,9.726001
1679914351670,1094340024551604,0.82305,0.08595,9.805051
1679914351672,1094340027054056,0.78000003,0.20295002,9.847951
1679914351673,1094340029556517,0.777,0.13095,9.85305
1679914351676,1094340032058979,0.74100006,0.201,9.847951
1679914351679,1094340034561440,0.70500004,0.162,9.81
1679914351681,1094340037063902,0.69105005,0.21705002,9.8890505
1679914351683,1094340039566392,0.70095,0.29895002,9.7570505
1679914351688,1094340042068854,0.66705,0.22200002,9.7900505
1679914351689,1094340044571315,0.67200005,0.34695002,9.738001
1679914351691,1094340047073546,0.72705,0.246,9.702001
1679914351693,1094340049575984,0.66195005,0.30795002,9.60795
1679914351696,1094340052078676,0.65295005,0.22500001,9.526951
1679914351699,1094340054581138,0.57600003,0.17400001,9.4480505
1679914351701,1094340057083368,0.588,0.11400001,9.42195
1679914351704,1094340059585830,0.62100005,0.165,9.21105
1679914351706,1094340062088272,0.47805002,0.141,9.25395
1679914351711,1094340064590734,0.55005,0.18405001,9.07005
1679914351712,1094340067093196,0.54,0.162,9.1699505
1679914351713,1094340069595666,0.528,0.16695,9.129001
1679914351716,1094340072098128,0.6,0.11400001,9.10095
1679914351721,1094340074600589,0.60195005,0.19800001,9.184951
1679914351722,1094340077102974,0.61395,0.26295,9.153001
1679914351723,1094340079605435,0.60705,0.141,9.3
1679914351726,1094340082107955,0.72195005,0.31095,9.346951
1679914351728,1094340084610416,0.87495005,0.29595003,9.417001
1679914351731,1094340087112801,0.78900003,0.33,9.51
1679914351733,1094340089615263,0.77205,0.26295,9.457951
1679914351737,1094340092117719,0.76500005,0.37500003,9.457951
1679914351739,1094340094620181,0.87495005,0.40095,9.481951
1679914351741,1094340097122719,0.88305,0.28905,9.55305
1679914351743,1094340099625104,0.9799501,0.35595003,9.465
1679914351748,1094340102127536,1.0639501,0.31995,9.489
1679914351749,1094340104629998,1.07595,0.42195,9.46695
1679914351751,1094340107132459,1.11105,0.32295,9.41895
1679914351754,1094340109634921,1.0320001,0.32505003,9.534
1679914351756,1094340112137382,1.02795,0.26505002,9.642
1679914351759,1094340114639854,1.1020501,0.33705002,9.52005
1679914351761,1094340117142315,0.98205006,0.26505002,9.63
1679914351764,1094340119644777,1.0159501,0.23205002,9.558001
1679914351766,1094340122147239,0.9799501,0.22005,9.618
1679914351768,1094340124649469,0.92205006,0.19605,9.42405
1679914351771,1094340127152187,0.99705005,0.11400001,9.469951
1679914351773,1094340129654648,0.837,0.14295001,9.561001
1679914351776,1094340132156879,0.81105006,0.079050004,9.537001
1679914351779,1094340134659341,0.82500005,0.20805001,9.654
1679914351781,1094340137161801,0.82995003,0.076050006,9.490951
1679914351785,1094340139664493,0.74595004,0.16005,9.61305
1679914351786,1094340142166724,0.72705,0.112050004,9.7879505
1679914351789,1094340144669186,0.84195006,0.21495001,9.814051
1679914351791,1094340147171647,0.75105006,0.23205002,9.834001
1679914351793,1094340149674105,0.76305,0.246,9.99405
1679914351796,1094340152176566,0.79905003,0.28905,9.939
1679914351799,1094340154679028,0.76305,0.22695,10.107
1679914351801,1094340157181489,0.68895006,0.34005,10.167001
1679914351804,1094340159683975,0.72195005,0.273,10.222051
1679914351806,1094340162186437,0.73395,0.32295,10.320001
1679914351808,1094340164688821,0.64095,0.33,10.273951
1679914351811,1094340167191283,0.70500004,0.30795002,10.329
1679914351813,1094340169693840,0.67200005,0.46800002,10.090051
1679914351816,1094340172196302,0.74805003,0.46605003,10.16205
1679914351821,1094340174698763,0.91005003,0.37695003,10.16205
1679914351822,1094340177201148,0.89505005,0.42495003,10.258051
1679914351823,1094340179703609,0.93195003,0.37905002,10.090051
1679914351826,1094340182206066,0.99195004,0.43005002,10.143001
1679914351829,1094340184708604,0.96105003,0.48495004,10.272
1679914351831,1094340187211066,1.0639501,0.37695003,10.21395
1679914351833,1094340189713451,1.023,0.384,10.252951
1679914351837,1094340192215912,1.047,0.43695003,10.291051
1679914351839,1094340194718374,0.99705005,0.45600003,10.2289505
1679914351841,1094340197220835,0.99705005,0.41295,10.252951
1679914351843,1094340199723297,1.0200001,0.41805002,10.305
1679914351846,1094340202225777,1.02795,0.43905002,10.21395
1679914351848,1094340204728239,0.975,0.384,10.2619505
1679914351851,1094340207230700,1.0489501,0.46305,10.32705
1679914351854,1094340209732931,1.0489501,0.40995002,10.258051
1679914351856,1094340212235393,1.06605,0.39105,10.30095
1679914351861,1094340214738085,1.02495,0.39405003,10.38405
1679914351862,1094340217240547,1.15695,0.42000002,10.36995
1679914351863,1094340219742777,1.32,0.47505003,10.33695
1679914351866,1094340222245258,1.2550501,0.40305,10.279051
1679914351870,1094340224747719,1.26195,0.47295,10.32705
1679914351871,1094340227250412,1.353,0.38205,10.095
1679914351873,1094340229752643,1.34895,0.37905002,10.066051
1679914351876,1094340232255109,1.4059501,0.45795003,9.963
1679914351879,1094340234757571,1.452,0.43905002,9.879001
1679914351881,1094340237260032,1.3630501,0.45600003,9.9199505
1679914351884,1094340239762494,1.5520501,0.45600003,9.850051
1679914351887,1094340242265201,1.55505,0.46995002,9.85305
1679914351888,1094340244767432,1.53795,0.56100005,9.9199505
1679914351891,1094340247269893,1.54005,0.58500004,9.87195
1679914351893,1094340249772355,1.4280001,0.68805003,9.811951
1679914351897,1094340252274820,1.4280001,0.72195005,9.72105
1679914351899,1094340254777282,1.3939501,0.73395,9.826051
1679914351901,1094340257279744,1.3080001,0.83205,9.82905
1679914351904,1094340259782205,1.212,0.846,9.934051
1679914351906,1094340262284667,1.131,0.94200003,10.092
1679914351909,1094340264787114,1.044,0.95205003,10.20705
1679914351912,1094340267289499,1.08,1.0639501,10.55895
1679914351914,1094340269791960,1.0200001,1.1410501,10.878
1679914351916,1094340272294499,1.011,1.1550001,11.10795
1679914351920,1094340274796960,0.96795005,1.2079501,11.29905
1679914351921,1094340277299354,1.056,1.23705,11.508
1679914351923,1094340279801816,1.0849501,1.27995,11.5990505
1679914351926,1094340282304277,1.1520001,1.2559501,11.797951
1679914351928,1094340284806739,1.3369501,1.3369501,11.805
1679914351931,1094340287309200,1.521,1.299,11.778001
1679914351935,1094340289811662,1.5829501,1.39995,11.814
1679914351938,1094340292314123,1.725,1.3230001,11.88405
1679914351939,1094340294816354,1.8010501,1.3279501,11.689951
1679914351941,1094340297318816,1.9110001,1.251,11.532001
1679914351944,1094340299821277,1.9570501,1.1770501,11.48595
1679914351946,1094340302323969,2.046,1.2270001,11.28705
1679914351949,1094340304826431,2.24895,1.14795,10.771951
1679914351951,1094340307328662,2.5150502,1.19805,10.17105
1679914351954,1094340309831138,2.4550502,1.2529501,10.14
1679914351956,1094340312333600,2.295,1.3759501,10.405951
1679914351959,1094340314836061,2.2039502,1.4430001,10.816051
1679914351961,1094340317338754,2.12205,1.5270001,11.067
1679914351963,1094340319840974,2.08395,1.6060501,11.13405
1679914351966,1094340322343436,2.01705,1.8000001,11.11005
1679914351968,1094340324845898,2.022,1.8589501,10.986
1679914351974,1094340327348359,1.866,1.89495,11.086051
1679914351974,1094340329851042,1.8319501,2.049,10.986
1679914351976,1094340332353504,1.79595,2.2470002,11.029051
1679914351979,1094340334855735,1.7080501,2.38395,11.005051
1679914351981,1094340337358196,1.641,2.5080001,10.83195
1679914351983,1094340339860658,1.7719501,2.6860502,10.885051
1679914351987,1094340342363037,1.677,2.69295,11.080951
1679914351989,1094340344865576,1.69305,2.7499502,11.148001
1679914351991,1094340347368037,1.72695,2.86995,11.371051
1679914351994,1094340349870499,1.7010001,2.8650002,11.484
1679914351996,1094340352372889,1.6840501,2.9560502,11.649
1679914351999,1094340354875350,1.7629501,2.9179502,11.874001
1679914352001,1094340357377812,1.725,2.9200501,12.123
1679914352004,1094340359880350,1.7200501,2.9869502,12.26895
1679914352006,1094340362382711,1.74405,2.9560502,12.387001
1679914352010,1094340364885172,1.69305,2.9659503,12.454051
1679914352011,1094340367387634,1.6620001,2.9970002,12.540001
1679914352014,1094340369890095,1.641,3.0949502,12.585001
1679914352016,1094340372392316,1.60695,3.01605,12.934951
1679914352019,1094340374895008,1.6699501,2.9659503,13.00905
1679914352022,1094340377397470,1.57095,2.94705,13.339951
1679914352023,1094340379899932,1.5690001,2.8870502,13.375951
1679914352026,1094340382402364,1.7080501,2.88,13.58205
1679914352030,1094340384904595,1.674,2.8249502,13.773001
1679914352031,1094340387407056,1.5139501,2.9250002,13.869
1679914352034,1094340389909749,1.36995,2.9200501,13.917001
1679914352037,1094340392412224,1.1910001,3.0310502,13.819051
1679914352039,1094340394914686,1.06095,2.98305,13.75695
1679914352041,1094340397416917,0.84405005,2.9250002,13.716001
1679914352044,1094340399919378,0.87495005,3.0259502,13.43595
1679914352048,1094340402421850,0.61905,3.045,13.237051
1679914352048,1094340404924542,0.59505004,3.14805,13.00905
1679914352051,1094340407427004,0.57600003,3.141,12.796051
1679914352054,1094340409929234,0.72900003,3.1189501,12.49005
1679914352056,1094340412431696,0.69600004,3.2599502,12.274051
1679914352059,1094340414934152,0.72900003,3.31095,12.019951
1679914352061,1094340417436614,0.78000003,3.3400502,12.007951
1679914352063,1094340419939076,0.85095006,3.423,11.853001
1679914352066,1094340422441537,0.91005003,3.4759502,11.788051
1679914352070,1094340424944028,0.97695005,3.6169503,11.857051
1679914352071,1094340427446489,1.04205,3.795,11.90505
1679914352074,1094340429948874,1.10895,4.02,11.92695
1679914352076,1094340432451412,1.0200001,4.0669503,11.877001
1679914352079,1094340434953874,1.1230501,4.077,11.818951
1679914352081,1094340437456340,1.08,4.0669503,11.75205
1679914352085,1094340439958725,1.06605,4.09905,11.781
1679914352087,1094340442461187,0.93900007,4.1659503,11.797951
1679914352088,1094340444963648,0.94395006,4.21605,11.818951
1679914352091,1094340447466192,1.02795,4.30695,11.710951
1679914352094,1094340449968576,1.0009501,4.2709503,11.757001
1679914352096,1094340452471038,1.00605,4.36905,11.854951
1679914352099,1094340454973499,0.88995004,4.39095,11.60805
1679914352101,1094340457475965,0.78195006,4.506,11.517
1679914352105,1094340459978196,0.72195005,4.5270004,11.3209505
1679914352106,1094340462480888,0.69600004,4.46295,11.068951
1679914352110,1094340464983349,0.64095,4.39605,11.035951
1679914352111,1094340467485786,0.58995,4.42005,10.95195
1679914352114,1094340469988017,0.61005,4.33605,10.753051
1679914352116,1094340472490709,0.75105006,4.329,10.759951
1679914352122,1094340474992940,0.75795,4.353,10.846951
1679914352123,1094340477495618,0.77505004,4.434,10.80105
1679914352124,1094340479998080,0.65505004,4.43895,10.783951
1679914352126,1094340482500541,0.588,4.5990005,10.840051
1679914352128,1094340485003003,0.61905,4.635,10.720051
1679914352131,1094340487505234,0.57405,4.6590004,10.698001
1679914352134,1094340490007695,0.57405,4.81995,10.600051
1679914352137,1094340492510387,0.52605003,4.95405,10.734
1679914352139,1094340495012849,0.492,5.0230503,10.497001
1679914352141,1094340497515080,0.35805002,5.03805,10.44705
1679914352144,1094340500017541,0.35595003,5.1790504,10.246051
1679914352146,1094340502519998,0.43500003,5.29395,10.04205
1679914352150,1094340505022382,0.31500003,5.36805,9.949051
1679914352151,1094340507524921,0.36495003,5.3749504,9.86205
1679914352154,1094340510027382,0.39900002,5.32695,9.73995
1679914352156,1094340512529830,0.432,5.33505,9.699
1679914352161,1094340515032215,0.44700003,5.3419504,9.573001
1679914352162,1094340517534676,0.44895002,5.385,9.309
1679914352164,1094340520037138,0.43905002,5.478,9.141001
1679914352166,1094340522539680,0.56895,5.4619503,9.06495
1679914352170,1094340525042065,0.57600003,5.5189505,8.839951
1679914352171,1094340527544526,0.588,5.6269503,8.67
1679914352174,1094340530046988,0.61200005,5.6989503,8.557051
1679914352176,1094340532549478,0.74805003,5.84205,8.467951
1679914352179,1094340535052017,0.75105006,5.9170504,8.406
1679914352181,1094340537554401,0.79395,6.0409503,8.3560505
1679914352184,1094340540056863,0.64500004,6.0820503,8.229
1679914352187,1094340542559344,0.71295005,6.14895,8.236051
1679914352189,1094340545061805,0.70995003,6.1729503,7.9800005
1679914352191,1094340547564036,0.65505004,6.4170003,7.8150005
1679914352194,1094340550066728,0.57795,6.432,7.8529506
1679914352198,1094340552569190,0.648,6.3739505,7.7830505
1679914352200,1094340555071651,0.56595004,6.3570004,7.7880006
1679914352201,1094340557574113,0.423,6.5869503,7.6710005
1679914352204,1094340560076344,0.423,6.5389504,7.7140503
1679914352206,1094340562578805,0.33600003,6.5539503,7.8510003
1679914352209,1094340565081478,0.31500003,6.57495,7.7260504
1679914352211,1094340567583940,0.38895002,6.7000504,7.77405
1679914352214,1094340570086171,0.35295,6.6829505,7.5750003
1679914352216,1094340572588632,0.48705003,6.8239503,7.48395
1679914352220,1094340575091089,0.53505003,6.9079504,7.3240504
1679914352221,1094340577593550,0.56895,6.9940505,7.1010003
1679914352224,1094340580096243,0.52095,6.9580503,6.93795
1679914352226,1094340582598474,0.63600004,7.05705,6.5620503
1679914352230,1094340585100930,0.66705,7.00605,6.59595
1679914352231,1094340587603392,0.66195005,6.9940505,6.43695
1679914352236,1094340590105853,0.83505005,6.97305,6.5209503
1679914352236,1094340592608238,0.81495005,6.8770504,6.46395
1679914352240,1094340595110757,0.85905004,6.8700004,6.5520005
1679914352241,1094340597613219,0.82005006,6.879,6.696
1679914352244,1094340600115680,0.81105006,6.9580503,6.5550003
1679914352247,1094340602618065,0.76995003,6.8599505,6.50895
1679914352249,1094340605120527,0.59505004,6.9970503,6.46605
1679914352251,1094340607622998,0.56205004,6.9660006,6.3130503
1679914352254,1094340610125460,0.43905002,7.0020003,6.13605
1679914352256,1094340612627921,0.46305,7.0090504,5.9539504
1679914352259,1094340615130383,0.43005002,6.9990005,5.6140504
1679914352261,1094340617632844,0.41595003,7.10895,5.412
1679914352264,1094340620135306,0.48000002,7.1400003,5.3260503
1679914352266,1094340622637767,0.41295,7.071,5.0269504
1679914352271,1094340625140229,0.48705003,7.0810504,5.01195
1679914352273,1094340627642675,0.57600003,7.12095,4.9170003
1679914352274,1094340630145137,0.669,7.1640005,4.90005
1679914352276,1094340632647598,0.669,7.1980505,4.74195
1679914352279,1094340635149829,0.76305,7.1620502,4.75605
1679914352281,1094340637652522,0.79200006,7.32705,4.7899504
1679914352284,1094340640154988,0.768,7.425,4.7299504
1679914352287,1094340642657450,0.78900003,7.557,4.4089503
1679914352289,1094340645159911,0.744,7.6170006,4.368
1679914352291,1094340647662142,0.68595004,7.8210006,4.25805
1679914352294,1094340650164618,0.80100006,7.9399505,4.0999503
1679914352296,1094340652667310,0.73395,7.9279504,3.9510002
1679914352299,1094340655169771,0.80805004,8.019,3.7840502
1679914352301,1094340657672002,0.87795,8.055,3.6690001
1679914352304,1094340660174488,1.06095,8.04105,3.762
1679914352306,1094340662676949,1.0639501,7.9789505,3.6709502
1679914352311,1094340665179411,1.1230501,8.07405,3.9949503
1679914352312,1094340667681872,1.19805,8.167951,4.17705
1679914352314,1094340670184344,1.1710501,8.28495,4.4040003
1679914352316,1094340672686805,1.02495,8.3880005,4.3900504
1679914352321,1094340675189267,0.99195004,8.497951,4.3660502
1679914352321,1094340677691652,0.92505,8.491051,4.2010503
1679914352324,1094340680194113,0.93195003,8.60595,4.131
1679914352326,1094340682696681,0.837,8.7310505,4.05705
1679914352329,1094340685199142,0.85605,8.70405,4.0680003
1679914352331,1094340687701527,0.72195005,8.724,3.93705
1679914352334,1094340690203988,0.74805003,8.77095,3.86295
1679914352337,1094340692706440,0.75795,8.700001,3.82905
1679914352339,1094340695208901,0.82305,8.637,3.7429502
1679914352341,1094340697711363,0.72,8.54895,3.7170002
1679914352344,1094340700213825,0.78705,8.521951,3.65895
1679914352348,1094340702716252,0.82995003,8.58195,3.5730002
1679914352349,1094340705218714,0.72195005,8.51505,3.6829503
1679914352351,1094340707721175,0.69795,8.415,3.7740002
1679914352354,1094340710223406,0.63105005,8.46195,3.7219503
1679914352356,1094340712726098,0.564,8.503051,3.6760502
1679914352359,1094340715228546,0.48705003,8.54895,3.55395
1679914352362,1094340717731007,0.55200005,8.680051,3.4009502
1679914352364,1094340720233238,0.53805,8.64,3.3430502
1679914352366,1094340722735700,0.564,8.647051,3.1609502
1679914352370,1094340725238406,0.53505003,8.59395,2.93805
1679914352372,1094340727740867,0.58995,8.649,2.7919502
1679914352374,1094340730243329,0.55005,8.712001,2.7610502
1679914352376,1094340732745560,0.63105005,8.71395,2.62905
1679914352379,1094340735248041,0.58095,8.611051,2.52195
1679914352381,1094340737750503,0.62100005,8.6970005,2.5140002
1679914352385,1094340740253195,0.43905002,8.75205,2.5170002
1679914352387,1094340742755657,0.57105005,8.773951,2.4550502
1679914352390,1094340745257883,0.65505004,8.874001,2.4190502
1679914352391,1094340747760344,0.693,8.800051,2.493
1679914352394,1094340750262806,0.64095,8.913,2.5069501
1679914352396,1094340752765267,0.669,9.219001,2.4379501
1679914352399,1094340755267729,0.56595004,9.14505,2.3850002
1679914352401,1094340757770185,0.55395,9.31005,2.3800502
1679914352404,1094340760272647,0.51000005,9.36795,2.3440502
1679914352406,1094340762775108,0.52995,9.44205,2.29605
1679914352409,1094340765277493,0.51405,9.483001,2.11695
1679914352411,1094340767779960,0.52995,9.379951,2.05695
1679914352414,1094340770282498,0.64500004,9.418051,2.1379502
1679914352416,1094340772784883,0.55200005,9.430051,2.1100502
1679914352421,1094340775287344,0.64305,9.34605,2.08305
1679914352423,1094340777789811,0.73200005,9.375,2.043
1679914352424,1094340780292272,0.66705,9.4470005,2.0689502
1679914352426,1094340782794503,0.72,9.32505,2.1000001
1679914352430,1094340785297195,0.67395,9.47595,2.4550502
1679914352431,1094340787799657,0.67905,9.53295,2.505
1679914352434,1094340790302118,0.69795,9.526051,2.6220002
1679914352438,1094340792804580,0.74805003,9.64305,2.5459502
1679914352439,1094340795306811,0.67200005,9.64095,2.56995
1679914352442,1094340797809272,0.79200006,9.72,2.5410001
1679914352444,1094340800311969,0.76305,9.700951,2.6580002
1679914352446,1094340802814430,0.72195005,9.732,2.53395
1679914352449,1094340805316892,0.64995,9.7560005,2.3850002
1679914352451,1094340807819122,0.693,9.732,2.39895
1679914352454,1094340810321609,0.78000003,9.792001,2.3130002
1679914352457,1094340812824071,0.75105006,9.703051,2.08095
1679914352462,1094340815326763,0.897,9.62895,2.08605
1679914352462,1094340817829224,0.83205,9.579,1.9590001
1679914352464,1094340820331441,0.84705,9.660001,1.87995
1679914352467,1094340822833903,0.81795,9.588,1.8649501
1679914352470,1094340825336364,0.813,9.5119505,1.79595
1679914352472,1094340827839057,0.83895004,9.46395,1.79595
1679914352474,1094340830341273,0.89505005,9.519,1.8169501
1679914352476,1094340832843735,0.95595,9.516001,1.8409501
1679914352479,1094340835346196,1.059,9.543,1.91295
1679914352481,1094340837848658,0.97695005,9.53505,1.9200001
1679914352484,1094340840351038,0.91695005,9.583051,1.8870001
1679914352487,1094340842853576,0.837,9.588,1.9660501
1679914352489,1094340845356038,0.633,9.636001,1.9009501
1679914352491,1094340847858499,0.55005,9.612,1.9849501
1679914352494,1094340850360864,0.564,9.65505,2.052
1679914352498,1094340852863325,0.423,9.571051,2.1670501
1679914352500,1094340855365787,0.47505003,9.516001,2.01405
1679914352502,1094340857868325,0.43500003,9.538051,2.0670002
1679914352505,1094340860370730,0.504,9.588,1.83405
1679914352506,1094340862873192,0.39195,9.559051,1.8529501
1679914352510,1094340865375653,0.35295,9.49695,1.6999501
1679914352512,1094340867878115,0.31005,9.531,1.64295
1679914352514,1094340870380378,0.44400004,9.427951,1.47
1679914352517,1094340872883071,0.34800002,9.399,1.422
1679914352520,1094340875385532,0.36495003,9.436951,1.36695
1679914352522,1094340877887994,0.43500003,9.418051,1.3579501
1679914352524,1094340880390225,0.41295,9.40095,1.2210001
1679914352526,1094340882892686,0.39600003,9.49005,1.164
1679914352529,1094340885395148,0.42495003,9.516001,1.26705
1679914352531,1094340887897840,0.46305,9.63105,1.29495
1679914352537,1094340890400071,0.47505003,9.739051,1.28805
1679914352537,1094340892902532,0.45600003,9.67905,1.2019501
1679914352539,1094340895404994,0.43905002,9.77295,1.2240001
1679914352541,1094340897907455,0.49905002,9.81105,1.1370001
1679914352544,1094340900409917,0.41595003,9.83205,1.17795
1679914352547,1094340902912359,0.49695003,9.82005,1.1539501
1679914352550,1094340905414821,0.39600003,9.873,1.1370001
1679914352552,1094340907917283,0.44205,10.026,1.0180501
1679914352554,1094340910419744,0.49500003,9.991051,1.0680001
1679914352557,1094340912922134,0.39405003,9.957001,1.0819501
1679914352559,1094340915424672,0.48705003,9.880051,1.18005
1679914352562,1094340917927134,0.46800002,9.868051,1.05795
1679914352564,1094340920429595,0.70305,9.98295,1.1539501
1679914352567,1094340922932076,0.67200005,9.98595,1.116
1679914352570,1094340925434537,0.72900003,10.014001,1.18305
1679914352573,1094340927936922,0.80100006,10.042951,1.116
1679914352574,1094340930439460,0.72900003,9.99495,1.0320001
1679914352577,1094340932941917,0.81105006,9.99495,1.04595
1679914352579,1094340935444302,0.78000003,10.042951,0.9889501
1679914352582,1094340937946763,0.73905003,10.086,0.99105006
1679914352584,1094340940449225,0.67200005,10.08405,0.93600005
1679914352587,1094340942951681,0.57105005,10.09305,1.05795
1679914352590,1094340945454143,0.59295005,9.96195,0.98595005
1679914352592,1094340947956604,0.44205,9.97605,0.98595005
1679914352594,1094340950459066,0.47805002,9.91905,0.92205006
1679914352597,1094340952961527,0.42495003,9.792001,0.93600005
1679914352599,1094340955463758,0.48000002,9.63105,0.86700004
1679914352602,1094340957966220,0.56595004,9.705001,0.87105006
1679914352605,1094340960468912,0.51600003,9.47295,0.74205005
1679914352607,1094340962971394,0.68100005,9.46395,0.53400004
1679914352611,1094340965473624,0.61905,9.460951,0.462
1679914352612,1094340967976086,0.57795,9.4129505,0.27705002
1679914352614,1094340970478547,0.46095002,9.229051,0.25395
1679914352617,1094340972981004,0.50895,9.2029505,0.24195
1679914352620,1094340975483466,0.58305,9.183001,0.028050002
1679914352621,1094340977985927,0.63105005,9.054001,0.024
1679914352624,1094340980488389,0.648,8.98005,-0.14505
1679914352626,1094340982990859,0.70095,8.917951,-0.21000001
1679914352630,1094340985493321,0.71295005,8.818951,-0.39705002
1679914352632,1094340987995705,0.67395,8.87895,-0.53295004
1679914352634,1094340990498244,0.648,8.688001,-0.50895
1679914352637,1094340993000628,0.61695004,8.568001,-0.735
1679914352639,1094340995503167,0.669,8.39505,-0.81795
1679914352642,1094340998005628,0.588,8.40495,-0.83805007
1679914352644,1094341000508090,0.58605003,8.323951,-0.96495
1679914352648,1094341003010471,0.47295,8.332951,-1.1710501
1679914352649,1094341005512932,0.39900002,8.212951,-1.1179501
1679914352652,1094341008015394,0.44205,8.211,-1.0360501
1679914352654,1094341010517932,0.39195,8.16495,-1.008
1679914352657,1094341013020317,0.384,8.095051,-1.0000501
1679914352659,1094341015522778,0.49695003,8.082001,-0.92100006
1679914352662,1094341018025240,0.51405,8.155951,-0.864
1679914352664,1094341020527701,0.55695003,8.062051,-0.85005003
1679914352667,1094341023029932,0.64305,8.062051,-0.76305
1679914352670,1094341025532610,0.62595004,8.01,-0.771
1679914352672,1094341028035071,0.68595004,7.8949504,-0.73005
1679914352674,1094341030537533,0.67905,7.8829503,-0.72
1679914352677,1094341033039994,0.74100006,7.7370005,-0.80895007
1679914352679,1094341035542225,0.68100005,7.6189504,-0.73200005
1679914352682,1094341038044893,0.70995003,7.56405,-0.711
1679914352688,1094341040547355,0.83205,7.5280504,-0.80595005
1679914352688,1094341043049816,0.77505004,7.38495,-1.0339501
1679914352689,1094341045552047,0.84900004,7.3099504,-1.02405
1679914352692,1094341048054504,0.81495005,7.1689506,-1.14405
1679914352694,1094341050556965,0.74100006,7.1790004,-1.353
1679914352697,1094341053059657,0.76005006,7.0609503,-1.386
1679914352699,1094341055561888,0.624,6.98505,-1.48395
1679914352702,1094341058064350,0.70305,6.8890505,-1.59
1679914352705,1094341060566811,0.70500004,6.8890505,-1.6570501
1679914352707,1094341063069273,0.70995003,6.8269506,-1.8960001
1679914352710,1094341065571658,0.70500004,6.62295,-1.9579501
1679914352712,1094341068074172,0.73605,6.558,-2.22
1679914352714,1094341070576634,0.79605,6.5509505,-2.28195
1679914352717,1094341073079095,0.79605,6.59205,-2.49705
1679914352720,1094341075581480,0.76500005,6.4429502,-2.5930502
1679914352723,1094341078083936,0.82005006,6.4219503,-2.5549502
1679914352724,1094341080586398,0.88005006,6.321,-2.8660502
1679914352727,1094341083088936,0.897,6.33795,-2.9550002
1679914352729,1094341085591398,0.804,6.2970004,-2.8950002
1679914352732,1094341088093782,0.83895004,6.30705,-3.0529501
1679914352734,1094341090596239,0.95295006,6.09105,-3.0700502
1679914352738,1094341093098701,0.97695005,6.0480003,-3.1920002
1679914352739,1094341095601162,1.03995,6.04395,-3.1699502
1679914352742,1094341098103624,1.09695,5.9359503,-3.18
1679914352744,1094341100606076,1.0879501,6.04395,-3.1939502
1679914352747,1094341103108538,1.128,5.9329505,-3.2590501
1679914352750,1094341105610999,1.2220501,5.8300505,-3.18
1679914352752,1094341108113461,1.107,5.79405,-3.2299502
1679914352754,1094341110615706,1.07295,5.7300005,-3.1560001
1679914352757,1094341113118398,1.0180501,5.61495,-3.0960002
1679914352761,1094341115620859,1.03005,5.39895,-3.1369503
1679914352762,1094341118123321,0.87495005,5.30595,-3.051
1679914352764,1094341120625567,1.0350001,5.181,-2.9980502
1679914352767,1094341123128028,0.92505,5.0779505,-2.907
1679914352771,1094341125630490,0.915,4.80495,-2.8140001
1679914352772,1094341128133182,0.90195006,4.72905,-2.7250502
1679914352774,1094341130635624,0.86100006,4.63005,-2.8180501
1679914352777,1094341133137854,0.89205,4.5679502,-2.77305
1679914352779,1094341135640316,0.82305,4.30695,-2.4810002
1679914352782,1094341138142778,0.72705,4.2520504,-2.4520502
1679914352784,1094341140645239,0.804,4.09305,-2.3440502
1679914352788,1094341143147711,0.74100006,4.03905,-2.2459502
1679914352790,1094341145650172,0.78405005,3.9169502,-2.1000001
1679914352792,1094341148152634,0.753,3.7510502,-1.9300501
1679914352795,1094341150655018,0.708,3.7750502,-1.968
1679914352798,1094341153157485,0.813,3.65805,-1.8049501
1679914352800,1094341155660023,0.78405005,3.4810503,-1.6279501
1679914352802,1094341158162485,0.85095006,3.4620001,-1.5850501
1679914352804,1094341160664870,0.91995007,3.4090502,-1.44105
1679914352807,1094341163167350,0.94605005,3.3439503,-1.4119501
1679914352809,1094341165669812,1.0200001,3.1740003,-1.2019501
1679914352812,1094341168172273,1.0680001,3.04695,-1.0720501
1679914352814,1094341170674812,1.06605,3.01395,-1.08
1679914352817,1094341173177191,1.0710001,2.94705,-1.0030501
1679914352819,1094341175679653,1.0680001,2.8270502,-0.79905003
1679914352822,1094341178182114,1.07295,2.7499502,-0.771
1679914352824,1094341180684345,1.11405,2.6880002,-0.73200005
1679914352827,1094341183186797,1.22895,2.7240002,-0.68895006
1679914352830,1094341185689489,1.19505,2.6950502,-0.54300004
1679914352832,1094341188191951,1.21695,2.69295,-0.32505003
1679914352837,1094341190694412,1.28205,2.56605,-0.47595003
1679914352837,1094341193196643,1.1910001,2.4439502,-0.34695002
1679914352839,1094341195699104,1.176,2.523,-0.30105
1679914352842,1094341198201566,1.248,2.3719501,-0.29205
1679914352844,1094341200704258,1.21905,2.3119502,-0.32295
1679914352847,1094341203206730,1.212,2.23095,-0.17205001
1679914352849,1094341205709191,1.18095,2.2020001,-0.38295
1679914352852,1094341208211422,1.0159501,2.18805,-0.36600003
1679914352855,1094341210713884,1.008,2.01,-0.45705003
1679914352857,1094341213216345,0.897,1.797,-0.52395004
1679914352859,1094341215719043,0.79395,1.677,-0.46905002
1679914352862,1094341218221273,0.76005006,1.6369501,-0.52905005
1679914352864,1094341220723735,0.77505004,1.4980501,-0.624
1679914352867,1094341223226196,0.68895006,1.3780501,-0.50895
1679914352871,1094341225728643,0.71505004,1.14795,-0.57900006
1679914352874,1094341228231028,0.67695004,1.02405,-0.58095
1679914352875,1094341230733566,0.624,1.026,-0.38700002
1679914352877,1094341233236028,0.657,0.83400005,-0.23895001
1679914352879,1094341235738489,0.70995003,0.657,-0.06705
1679914352882,1094341238240913,0.70500004,0.64500004,0.08805001
1679914352884,1094341240743374,0.78000003,0.573,0.07395
1679914352887,1094341243245913,0.75795,0.36795002,0.44295
1679914352889,1094341245748374,0.75105006,0.28005,0.54105
1679914352892,1094341248250778,0.78705,0.25800002,0.61305004
1679914352894,1094341250753239,0.76305,0.16695,0.77805007
1679914352897,1094341253255701,0.67200005,0.06705,0.99405
1679914352900,1094341255757932,0.75600004,0.052050002,1.0320001
1679914352902,1094341258260638,0.81495005,-0.034050003,1.212
1679914352905,1094341260763100,0.81795,-0.19695,1.2040501
1679914352907,1094341263265561,0.96105003,-0.32895002,1.281
1679914352912,1094341265767787,1.04205,-0.47205,1.245
1679914352913,1094341268270248,1.11405,-0.606,1.2400501
1679914352915,1094341270772710,1.1910001,-0.67395,1.31505
1679914352917,1094341273275402,1.2100501,-0.85095006,1.14705
1679914352920,1094341275777864,1.3440001,-1.0570501,1.10595
1679914352922,1094341278280095,1.32,-1.1910001,1.113
1679914352924,1094341280782556,1.47105,-1.299,1.01505
1679914352927,1094341283285018,1.4440501,-1.5450001,1.0510501
1679914352929,1094341285787479,1.5979501,-1.6200001,0.99600005
1679914352932,1094341288290172,1.7410501,-1.7370001,0.94095004
1679914352934,1094341290792402,1.8250501,-1.88505,0.81195
1679914352937,1094341293294864,1.96395,-1.9879501,0.68895006
1679914352940,1094341295797325,1.9590001,-2.0269501,0.63900006
1679914352942,1094341298299787,2.09805,-2.25705,0.61800003
1679914352944,1094341300802278,2.0740502,-2.29695,0.53595
1679914352949,1094341303304739,2.08095,-2.4150002,0.54105
1679914352951,1094341305807201,2.19195,-2.4550502,0.55995005
1679914352954,1094341308309662,2.2399502,-2.64,0.57195
1679914352955,1094341310812094,2.457,-2.8270502,0.54105
1679914352957,1094341313314478,2.56305,-3.07605,0.711
1679914352960,1094341315816940,2.697,-3.186,0.9289501
1679914352962,1094341318319478,2.84805,-3.4279501,1.14405
1679914352964,1094341320821921,2.9680502,-3.492,1.2739501
1679914352967,1094341323324306,3.01305,-3.6840003,1.554
1679914352970,1094341325826767,2.9560502,-3.73005,1.6210501
1679914352972,1094341328329229,2.778,-3.8830502,1.7910001
1679914352974,1094341330831758,2.70705,-4.04295,2.08095
1679914352977,1094341333334143,2.4720001,-4.1610003,2.16
1679914352979,1094341335836604,2.19405,-4.302,2.42805
1679914352982,1094341338339066,1.9110001,-4.49805,2.73705
1679914352987,1094341340841517,1.5640501,-4.76205,3.22305
1679914352988,1094341343343748,1.3099501,-5.0539503,3.5160003
1679914352990,1094341345846440,0.9990001,-5.29605,4.12095
1679914352992,1094341348348902,0.65505004,-5.40105,4.60305
1679914352995,1094341350851364,0.39195,-5.71005,5.1109505
1679914352997,1094341353353599,0.043950003,-5.83995,5.736
1679914353000,1094341355856061,-0.06105,-5.9740505,6.4020004
1679914353003,1094341358358522,-0.19995001,-5.94,7.14405
1679914353005,1094341360861215,-0.24105,-6.08895,8.03295
1679914353007,1094341363363445,-0.29295,-5.82,8.82495
1679914353010,1094341365865907,-0.21000001,-5.7840004,9.457951
1679914353012,1094341368368369,-0.07305,-5.6070004,10.341001
1679914353014,1094341370870830,0.11895001,-5.4540005,11.179951
1679914353017,1094341373373215,0.17400001,-5.3370004,11.869051
1679914353021,1094341375875753,0.279,-5.1469502,12.661951
1679914353024,1094341378378215,0.37005,-4.8769503,13.431001
1679914353025,1094341380880676,0.58605003,-4.6249504,14.23305
1679914353027,1094341383383142,0.72705,-4.28805,14.916
1679914353030,1094341385885526,0.78195006,-3.7800002,15.688951
1679914353032,1094341388387988,0.99195004,-3.38505,16.329
1679914353034,1094341390890526,1.1329501,-2.9989502,16.92795
1679914353038,1094341393392998,0.94605005,-2.70195,17.601002
1679914353040,1094341395895460,0.84405005,-2.3070002,18.160952
1679914353042,1094341398397844,0.80100006,-2.05095,18.67095
1679914353044,1094341400900306,0.75105006,-1.6530001,19.09305
1679914353047,1094341403402743,0.71505004,-1.4950501,19.681952
1679914353050,1094341405905282,0.504,-1.1910001,20.194052
1679914353052,1094341408407743,0.147,-1.1020501,20.62095
1679914353055,1094341410910128,-0.19500001,-1.0350001,20.97495
1679914353057,1094341413412589,-0.59295005,-1.1050501,21.6
1679914353061,1094341415915022,-1.3279501,-1.0500001,21.960001
1679914353062,1094341418417253,-2.08695,-0.9799501,22.55805
1679914353065,1094341420919945,-2.62905,-0.74805003,22.879051
1679914353067,1094341423422407,-3.21795,-0.50100005,23.185951
1679914353070,1094341425924854,-3.7489502,-0.25905,23.491951
1679914353072,1094341428427085,-4.164,0.13395001,23.844002
1679914353074,1094341430929546,-4.5880504,0.54495,24.153002
1679914353077,1094341433432239,-5.17395,1.1389501,24.522001
1679914353080,1094341435934700,-5.4019504,1.6870501,24.781052
1679914353082,1094341438436935,-5.6580005,2.2350001,25.128
1679914353085,1094341440939397,-6.0220504,2.6790001,25.344002
1679914353089,1094341443441858,-6.2430005,3.0190501,25.854002
1679914353090,1094341445944320,-6.25005,3.3750002,26.350052
1679914353092,1094341448446757,-6.27405,3.62895,26.90805
1679914353095,1094341450949219,-5.9770503,3.80205,27.352951
1679914353099,1094341453451680,-5.565,4.056,27.913952
1679914353101,1094341455954142,-5.4550505,3.9480002,27.978
1679914353102,1094341458456584,-4.91295,4.18305,28.198952
1679914353105,1094341460958969,-4.39605,4.197,28.435951
1679914353107,1094341463461508,-3.9460502,4.116,28.515001
1679914353111,1094341465963969,-3.045,4.293,28.612951
1679914353112,1094341468466431,-2.3719501,4.386,28.39005
1679914353114,1094341470968892,-1.51005,4.7410502,28.03305
1679914353117,1094341473471277,-0.91395,5.07105,27.451052
1679914353120,1094341475973738,-0.42000002,5.2840505,26.992052
1679914353122,1094341478476277,0.022950001,5.4640503,26.254051
1679914353125,1094341480978748,0.48495004,5.6989503,25.725
1679914353128,1094341483481210,0.88995004,5.87295,25.039951
1679914353130,1094341485983595,1.13505,6.012,24.553051
1679914353132,1094341488486056,1.4080501,5.88105,24.052952
1679914353137,1094341490988522,1.43505,5.8450503,23.598001
1679914353138,1094341493491060,1.3960501,5.682,23.131052
1679914353140,1094341495993445,1.4320501,5.5189505,22.63305
1679914353142,1094341498495906,1.28205,5.35395,22.326
1679914353145,1094341500998368,1.07295,5.0950503,21.82995
1679914353147,1094341503500811,0.89895004,4.9110003,21.484951
1679914353151,1094341506003042,0.564,4.71705,20.949001
1679914353152,1094341508505734,0.33600003,4.4560504,20.64195
1679914353155,1094341511008196,0.162,4.197,20.275951
1679914353157,1094341513510668,-0.018000001,4.044,19.834951
1679914353160,1094341516012898,-0.28395,3.8140502,19.572
1679914353162,1094341518515360,-0.44700003,3.7009501,19.42605
1679914353165,1094341521017821,-0.648,3.4380002,19.074001
1679914353167,1094341523520301,-0.73905003,3.42105,18.765001
1679914353170,1094341526022762,-0.91605,3.1620002,18.48405
1679914353174,1094341528525224,-1.0189501,3.0670502,18.202051
1679914353175,1094341531027686,-1.011,3.0190501,17.88795
1679914353178,1094341533530079,-1.35,3.8620503,16.76505
1679914353180,1094341536032618,-1.5679501,4.14405,15.970051
1679914353182,1094341538535079,-2.11095,4.06995,16.212
1679914353185,1094341541037541,-2.04195,3.9379501,15.95505
1679914353187,1094341543539997,-1.7520001,3.7680001,15.7879505
1679914353190,1094341546042382,-1.4430001,3.76095,15.475951
1679914353192,1094341548544843,-1.39995,4.20195,14.76
1679914353195,1094341551047382,-1.3090501,4.2900004,14.596951
1679914353197,1094341553549825,-1.08105,4.43205,14.652
1679914353200,1094341556052287,-0.66,4.42005,14.84895
1679914353204,1094341558554672,-0.21195,4.2109504,15.142951
1679914353205,1094341561057133,0.37695003,4.0630503,15.418951
1679914353207,1094341563559599,0.64500004,3.8929503,15.675001
1679914353211,1094341566062137,1.011,3.55695,15.94305
1679914353212,1094341568564599,1.21695,3.3439503,16.29195
1679914353215,1094341571066983,1.42305,3.045,16.366951
1679914353217,1094341573569469,1.6020001,2.877,16.623001
1679914353220,1094341576071930,1.6480501,2.5780501,16.947
1679914353222,1094341578574392,1.8280501,2.3100002,17.125952
1679914353225,1094341581076854,1.761,2.214,17.125952
1679914353228,1094341583579315,1.71,1.8520501,17.07105
1679914353231,1094341586081806,1.6480501,1.8589501,16.875
1679914353232,1094341588584267,1.53495,1.6290001,16.69305
1679914353235,1094341591086498,1.3939501,1.5340501,16.462952
1679914353237,1094341593588959,1.35105,1.53795,16.299002
1679914353240,1094341596091657,1.2,1.4260501,15.994051
1679914353242,1094341598594118,1.1230501,1.2730501,15.828001
1679914353245,1094341601096349,1.044,1.215,15.471001
1679914353249,1094341603598830,0.9289501,1.2970501,15.043051
1679914353250,1094341606101291,0.81795,1.215,14.67195
1679914353254,1094341608603753,0.66705,1.1359501,14.236051
1679914353255,1094341611106214,0.57405,1.08105,13.929001
1679914353257,1094341613608676,0.54195005,0.88500005,13.504951
1679914353260,1094341616111137,0.44700003,0.76005006,12.99495
1679914353262,1094341618613522,0.46095002,0.75105006,12.624001
1679914353265,1094341621115984,0.33900002,0.64500004,12.23595
1679914353267,1094341623618522,0.45900002,0.52500004,11.886001
1679914353270,1094341626120984,0.37500003,0.513,11.55105
1679914353272,1094341628623445,0.33195,0.54495,11.319
1679914353275,1094341631125830,0.38205,0.40095,11.125051
1679914353278,1094341633628291,0.36495003,0.432,10.998
1679914353280,1094341636130753,0.43005002,0.36405003,10.734
1679914353282,1094341638633281,0.53505003,0.33705002,10.753051
1679914353288,1094341641135743,0.528,0.38895002,10.545
1679914353289,1094341643638127,0.67695004,0.30795002,10.392
1679914353290,1094341646140589,0.657,0.27495003,10.128
1679914353292,1094341648643067,0.67395,0.29895002,10.01595
1679914353295,1094341651145528,0.72900003,0.24405001,9.738001
1679914353297,1094341653647990,0.65505004,0.26295,9.58005
1679914353300,1094341656150451,0.768,0.31995,9.352051
1679914353302,1094341658652908,0.79905003,0.22905001,9.225
1679914353305,1094341661155369,0.79200006,0.27495003,9.036
1679914353308,1094341663657600,0.76500005,0.26505002,9.08205
1679914353311,1094341666160292,0.9990001,0.24900001,8.875951
1679914353313,1094341668662783,0.93195003,0.29205,8.878051
1679914353315,1094341671165244,1.02795,0.261,8.95905
1679914353318,1094341673667706,1.07805,0.22005,9.07695
1679914353320,1094341676170168,1.2019501,0.30600002,8.991
1679914353324,1094341678672407,1.2600001,0.23895001,9.08895
1679914353325,1094341681174869,1.3099501,0.252,9.213
1679914353328,1094341683677561,1.27005,0.201,9.28995
1679914353330,1094341686179792,1.35105,0.186,9.316051
1679914353332,1094341688682253,1.3750501,0.282,9.307051
1679914353335,1094341691184715,1.38495,0.201,9.529051
1679914353337,1094341693687177,1.3579501,0.14595,9.541051
1679914353340,1094341696189561,1.33905,0.034950003,9.807
1679914353343,1094341698692100,1.31505,0.031050002,9.8220005
1679914353345,1094341701194547,1.30095,-0.063,9.90495
1679914353347,1094341703697009,1.23105,-0.08205,10.047001
1679914353351,1094341706199393,1.22595,-0.13005,10.234051
1679914353353,1094341708701855,1.19505,-0.26595002,10.1980505
1679914353356,1094341711204306,1.167,-0.19500001,10.272
1679914353357,1094341713706845,1.1689501,-0.21105,10.449
1679914353362,1094341716209230,1.0030501,-0.36495003,10.399051
1679914353363,1094341718711691,0.96795005,-0.35505003,10.53495
1679914353365,1094341721214158,0.86805004,-0.38895002,10.758
1679914353367,1094341723716619,0.89895004,-0.50295,10.720051
1679914353371,1094341726219081,0.88305,-0.55905,10.726951
1679914353372,1094341728721542,0.75600004,-0.52305,10.858951
1679914353375,1094341731223970,0.78000003,-0.57105005,10.902
1679914353377,1094341733726431,0.85905004,-0.55605,10.93095
1679914353380,1094341736228893,0.83895004,-0.642,10.92105
1679914353383,1094341738731354,0.88305,-0.609,10.903951
1679914353385,1094341741233816,0.88500005,-0.54705,10.998
1679914353387,1094341743736278,0.82305,-0.60195005,11.115001
1679914353390,1094341746238739,0.88005006,-0.56295,10.935
1679914353392,1094341748740970,0.87795,-0.606,11.10795
1679914353395,1094341751243426,0.82305,-0.65205,11.022
1679914353399,1094341753745888,0.93705004,-0.60195005,10.983001
1679914353401,1094341756248580,0.91695005,-0.59205,10.939951
1679914353403,1094341758751042,0.84705,-0.609,10.882951
1679914353405,1094341761253254,0.9990001,-0.60405004,10.878
1679914353407,1094341763755715,0.88695,-0.59205,10.765051
1679914353410,1094341766258177,0.9889501,-0.62295,10.806001
1679914353412,1094341768760638,1.02495,-0.726,10.78695
1679914353415,1094341771263321,1.2550501,-0.71895003,10.80405
1679914353417,1094341773765551,1.27695,-0.60195005,10.61205
1679914353421,1094341776268013,1.3050001,-0.72900003,10.665001
1679914353422,1094341778770474,1.29795,-0.67605,10.6380005
1679914353425,1094341781272864,1.3099501,-0.68505,10.49505
1679914353427,1094341783775326,1.21695,-0.61800003,10.51095
1679914353431,1094341786277864,1.1880001,-0.79305005,10.444051
1679914353432,1094341788780326,1.179,-0.633,10.36095
1679914353438,1094341791282710,1.12605,-0.74805003,10.37205
1679914353439,1094341793785172,1.1020501,-0.65895003,10.18305
1679914353440,1094341796287633,1.18605,-0.70695,10.200001
1679914353442,1094341798790095,1.15005,-0.70695,10.068001
1679914353445,1094341801292556,1.0879501,-0.63495004,10.066051
1679914353447,1094341803795013,1.116,-0.762,9.979951
1679914353450,1094341806297474,1.1520001,-0.71400005,9.967951
1679914353454,1094341808799936,1.131,-0.753,9.951
1679914353455,1094341811302167,1.167,-0.78795004,9.94095
1679914353457,1094341813804613,1.095,-0.82695,9.913051
1679914353460,1094341816307306,1.0710001,-0.70500004,9.91005
1679914353463,1094341818809767,1.056,-0.78405005,9.89295
1679914353465,1094341821311998,1.092,-0.78795004,9.87195
1679914353468,1094341823814464,0.98205006,-0.81000006,9.807
1679914353471,1094341826316926,1.0200001,-0.74100006,9.880951
1679914353474,1094341828819618,0.96795005,-0.82395005,9.87195
1679914353475,1094341831322080,0.98700005,-0.82395005,9.723001
1679914353478,1094341833824526,1.10895,-0.89100003,9.798
1679914353480,1094341836326757,1.0180501,-0.76500005,9.747001
1679914353483,1094341838829219,0.96105003,-0.77400005,9.846001
1679914353485,1094341841331680,1.07595,-0.81705004,9.793051
1679914353487,1094341843834373,1.0200001,-0.79605,9.70905
1679914353490,1094341846336594,1.059,-0.717,9.604051
1679914353492,1094341848839056,0.97305006,-0.76905006,9.493951
1679914353495,1094341851341517,1.0200001,-0.79605,9.534
1679914353498,1094341853843979,1.03005,-0.81000006,9.517051
1679914353500,1094341856346445,1.0680001,-0.822,9.594001
1679914353505,1094341858848906,1.047,-0.82005006,9.537001
1679914353506,1094341861351368,1.11105,-0.82695,9.402
1679914353508,1094341863853829,1.02495,-0.73605,9.307051
1679914353513,1094341866356291,1.116,-0.78405005,9.394951
1679914353514,1094341868858675,1.18305,-0.75000006,9.38595
1679914353515,1094341871361137,1.1910001,-0.73095006,9.307051
1679914353518,1094341873863675,1.18305,-0.67395,9.345
1679914353520,1094341876366156,1.19295,-0.65205,9.37605
1679914353523,1094341878868541,1.15005,-0.69705003,9.369
1679914353525,1094341881371002,1.23405,-0.56595004,9.30195
1679914353528,1094341883873464,1.1880001,-0.59895,9.32295
1679914353530,1094341886375925,1.18095,-0.669,9.337951
1679914353532,1094341888878392,1.26705,-0.71205,9.297001
1679914353535,1094341891380853,1.23405,-0.68295,9.316051
1679914353538,1094341893883315,1.23105,-0.67095006,9.3810005
1679914353540,1094341896385580,1.3410001,-0.61095005,9.438001
1679914353543,1094341898888041,1.38195,-0.702,9.501
1679914353545,1094341901390503,1.416,-0.55605,9.4480505
1679914353549,1094341903893195,1.365,-0.62595004,9.55605
1679914353551,1094341906395421,1.3920001,-0.74100006,9.462001
1679914353554,1094341908897882,1.5090001,-0.62805,9.481951
1679914353556,1094341911400344,1.45395,-0.64500004,9.549001
1679914353557,1094341913902805,1.404,-0.56595004,9.489
1679914353560,1094341916405267,1.31295,-0.55095005,9.501
1679914353562,1094341918907699,1.2739501,-0.44595003,9.558001
1679914353565,1094341921410161,1.3099501,-0.48900002,9.538951
1679914353568,1094341923912623,1.24605,-0.33795002,9.4459505
1679914353570,1094341926415084,1.2070501,-0.37395,9.35505
1679914353573,1094341928917489,1.21905,-0.40800002,9.44295
1679914353575,1094341931420027,1.13505,-0.384,9.55095
1679914353578,1094341933922489,1.2379501,-0.35295,9.28995
1679914353580,1094341936424950,1.26705,-0.34500003,9.24195
1679914353583,1094341938927387,1.26195,-0.384,9.25905
1679914353587,1094341941429771,1.2580501,-0.36195,9.184951
1679914353589,1094341943932233,1.27005,-0.32895002,9.148951
1679914353591,1094341946434771,1.2889501,-0.36495003,9.11505
1679914353593,1094341948937243,1.368,-0.25905,9.04605
1679914353595,1094341951439705,1.27695,-0.252,9.015
1679914353598,1094341953942089,1.3410001,-0.19500001,8.908951
1679914353601,1094341956444551,1.26195,-0.19500001,8.740951
1679914353603,1094341958947017,1.26195,-0.22305001,8.79705
1679914353605,1094341961449556,1.2529501,-0.16800001,8.547
1679914353608,1094341963951940,1.2859501,0.009000001,8.455951
1679914353610,1094341966454402,1.3249501,0.0139500005,8.32995
1679914353612,1094341968956868,1.3369501,0.009000001,8.35095
1679914353615,1094341971459330,1.35105,0.03795,8.20695
1679914353618,1094341973961561,1.50405,0.093,8.274
1679914353620,1094341976464253,1.55505,0.08595,8.269951
1679914353624,1094341978966725,1.5670501,0.08595,8.46105
1679914353626,1094341981469186,1.60695,0.03795,8.47095
1679914353628,1094341983971417,1.54005,0.064050004,8.554951
1679914353631,1094341986473878,1.605,-0.00795,8.751
1679914353633,1094341988976340,1.4760001,0.009000001,8.710051
1679914353635,1094341991479037,1.46595,-0.075,8.611951
1679914353638,1094341993981268,1.3960501,-0.0049500004,8.72505
1679914353640,1094341996483730,1.44,-0.060000002,8.706
1679914353643,1094341998986191,1.4470501,-0.052950002,8.78205
1679914353645,1094342001488590,1.4080501,0.04695,8.907001
1679914353648,1094342003991051,1.3630501,-0.01995,9.031051
1679914353650,1094342006493590,1.3219501,-0.043950003,9.05805
1679914353654,1094342008996051,1.35105,0.016050002,9.187051
1679914353655,1094342011498518,1.4779501,0.040050004,9.237
1679914353658,1094342014000903,1.416,-0.024,9.328051
1679914353662,1094342016503364,1.452,0.031050002,9.36705
1679914353663,1094342019005903,1.437,0.081,9.41205
1679914353665,1094342021508340,1.42005,0.13800001,9.502951
1679914353667,1094342024010802,1.4830501,0.021000002,9.58005
1679914353671,1094342026513186,1.46595,-0.04095,9.592051
1679914353673,1094342029015648,1.3939501,0.033,9.616051
1679914353675,1094342031518114,1.365,-0.01995,9.88605
1679914353678,1094342034020653,1.38495,-0.024,9.903001
1679914353681,1094342036523037,1.3369501,0.025950002,9.87195
1679914353683,1094342039025499,1.30305,-0.043950003,10.083
1679914353685,1094342041527937,1.26705,-0.00795,10.03695
1679914353688,1094342044030398,1.26495,-0.108,10.092
1679914353690,1094342046532860,1.2889501,-0.08400001,10.155001
1679914353693,1094342049035321,1.3579501,-0.112950005,10.276951
1679914353695,1094342051537769,1.22595,-0.12495001,10.30305
1679914353699,1094342054040230,1.14705,-0.034050003,10.258051
1679914353701,1094342056542692,1.2100501,-0.063,10.408051
1679914353704,1094342059044923,1.22595,-0.10095,10.44705
1679914353705,1094342061547398,1.2859501,-0.024,10.474951
1679914353708,1094342064050090,1.131,-0.09900001,10.497001
1679914353711,1094342066552552,1.18095,-0.112950005,10.54695
1679914353713,1094342069054783,1.1550001,-0.10095,10.61205
1679914353715,1094342071557244,1.15695,-0.058050003,10.684051
1679914353718,1094342074059706,1.11405,-0.24000001,10.85595
1679914353720,1094342076562167,1.08,-0.34305,10.8490505
1679914353723,1094342079064629,1.07805,-0.31695002,10.942051
1679914353725,1094342081567085,1.0830001,-0.25005,11.035951
1679914353728,1094342084069547,1.03995,-0.16800001,11.206051
1679914353730,1094342086572009,1.1040001,-0.24000001,11.271001
1679914353733,1094342089074393,1.09695,-0.19500001,11.196
1679914353738,1094342091576831,1.19505,-0.120000005,11.227051
1679914353738,1094342094079369,1.1520001,-0.20205002,11.3209505
1679914353740,1094342096581831,1.2240001,-0.120000005,11.319
1679914353743,1094342099084215,1.29795,-0.108,11.247001
1679914353746,1094342101586677,1.353,-0.036000002,11.2560005
1679914353748,1094342104089162,1.2720001,-0.13905,11.2900505
1679914353751,1094342106591624,1.4320501,-0.14895001,11.28495
1679914353754,1094342109094162,1.4130001,-0.079950005,11.13195
1679914353755,1094342111596547,1.4250001,-0.11100001,11.151001
1679914353758,1094342114099009,1.58595,-0.17295001,10.885051
1679914353760,1094342116601470,1.6140001,-0.132,10.861051
1679914353763,1094342119103932,1.7080501,-0.19005,10.653001
1679914353765,1094342121606393,1.8010501,-0.09900001,10.59
1679914353768,1094342124108855,1.84905,-0.23805001,10.399051
1679914353770,1094342126611311,1.899,-0.20400001,10.155001
1679914353774,1094342129113773,1.9620001,-0.19500001,9.97305
1679914353776,1094342131616004,1.86405,-0.24000001,9.805051
1679914353778,1094342134118465,2.05995,-0.26595002,9.769051
1679914353780,1094342136621120,1.95,-0.19500001,9.70905
1679914353783,1094342139123581,1.9570501,-0.31695002,9.714001
1679914353785,1094342141626043,2.0650501,-0.36195,9.72105
1679914353788,1094342144128273,2.046,-0.32895002,9.793051
1679914353791,1094342146630735,1.9930501,-0.372,9.747001
1679914353793,1094342149133196,1.9759501,-0.37905002,9.699
1679914353796,1094342151635889,2.11695,-0.36495003,9.823951
1679914353798,1094342154138350,2.02305,-0.35505003,9.805051
1679914353800,1094342156640581,1.9930501,-0.31395,9.802051
1679914353804,1094342159143019,2.1460502,-0.33600003,9.958051
1679914353805,1094342161645480,2.12895,-0.45600003,9.86205
1679914353808,1094342164147865,2.187,-0.33795002,9.81
1679914353812,1094342166650403,2.18895,-0.37905002,9.7570505
1679914353813,1094342169152836,2.2369502,-0.32595003,9.75195
1679914353815,1094342171655297,2.232,-0.29295,9.73305
1679914353818,1094342174157682,2.2729502,-0.30195,9.826051
1679914353821,1094342176660144,2.187,-0.28305,9.879001
1679914353823,1094342179162605,2.22795,-0.44400004,9.826051
1679914353825,1094342181665144,2.1340501,-0.33600003,9.89595
1679914353828,1094342184167528,1.9810501,-0.39600003,10.03695
1679914353831,1094342186669990,2.0020502,-0.27600002,10.056001
1679914353833,1094342189172451,1.93095,-0.36195,10.068001
1679914353835,1094342191674942,1.8040501,-0.44400004,10.06095
1679914353838,1094342194177173,1.84395,-0.35295,10.108951
1679914353840,1094342196679865,1.7580001,-0.35295,10.16205
1679914353843,1094342199182326,1.66005,-0.36900002,10.08705
1679914353845,1094342201684783,1.746,-0.321,10.152
1679914353849,1094342204187245,1.7080501,-0.39600003,10.068001
1679914353850,1094342206689475,1.641,-0.43395,10.078051
1679914353854,1094342209191937,1.57095,-0.43905002,9.988951
1679914353855,1094342211694648,1.62405,-0.381,10.05405
1679914353858,1094342214197110,1.5810001,-0.46500003,9.97305
1679914353861,1094342216699341,1.5670501,-0.43605003,10.01595
1679914353863,1094342219201802,1.5139501,-0.44400004,9.8890505
1679914353865,1094342221704283,1.4680501,-0.381,10.00395
1679914353868,1094342224206975,1.45905,-0.36495003,10.04895
1679914353871,1094342226709206,1.5619501,-0.312,9.963
1679914353873,1094342229211667,1.61205,-0.34995002,9.988951
1679914353875,1094342231714110,1.725,-0.35700002,9.982051
1679914353878,1094342234216571,1.7580001,-0.28800002,9.949051
1679914353881,1094342236719033,1.7149501,-0.22995001,9.87405
1679914353883,1094342239221494,1.7370001,-0.20895001,9.84105
1679914353887,1094342241723951,1.84395,-0.24495001,9.834001
1679914353888,1094342244226412,1.8780001,-0.16605,9.85305
1679914353890,1094342246728874,1.88505,-0.17805001,9.8220005
1679914353893,1094342249231336,1.8900001,-0.27405003,9.798
1679914353896,1094342251733720,1.983,-0.20595,9.75195
1679914353898,1094342254236298,2.02305,-0.372,9.89295
1679914353900,1094342256738759,1.9810501,-0.27600002,9.835951
1679914353904,1094342259241144,1.9110001,-0.30195,9.89595
1679914353905,1094342261743605,1.95,-0.42900002,10.066051
1679914353908,1094342264246091,1.9810501,-0.441,9.96105
1679914353912,1094342266748552,2.0070002,-0.46005002,9.915001
1679914353913,1094342269251014,1.9900501,-0.40500003,9.73305
1679914353915,1094342271753476,1.914,-0.46005002,9.85305
1679914353918,1094342274255932,1.9519501,-0.46995002,9.74295
1679914353922,1094342276758394,1.96395,-0.50505,9.69705
1679914353925,1094342279260624,1.8829501,-0.46305,9.723001
1679914353925,1094342281763086,1.88505,-0.42405003,9.68505
1679914353928,1094342284265763,1.7989501,-0.48195,9.60105
1679914353930,1094342286768225,1.8400501,-0.33600003,9.799951
1679914353933,1094342289270456,1.8250501,-0.38895002,9.846001
1679914353935,1094342291772917,1.794,-0.321,9.85305
1679914353938,1094342294275379,1.8540001,-0.36900002,9.771001
1679914353941,1094342296777850,1.8780001,-0.30195,9.759001
1679914353943,1094342299280543,1.7680501,-0.44400004,9.622951
1679914353946,1094342301782773,1.7580001,-0.372,9.735001
1679914353949,1094342304285268,1.84905,-0.42900002,9.762
1679914353950,1094342306787729,1.7200501,-0.40800002,9.735001
1679914353954,1094342309290114,1.8250501,-0.333,9.58905
1679914353955,1094342311792652,1.71,-0.36495003,9.53205
1679914353958,1094342314295114,1.65495,-0.36495003,9.205951
1679914353962,1094342316797581,1.6810501,-0.36195,9.240001
1679914353963,1094342319300042,1.6890001,-0.34500003,9.187051
1679914353966,1094342321802504,1.58595,-0.27795002,9.204
1679914353968,1094342324304965,1.59,-0.36900002,9.313951
1679914353970,1094342326807427,1.6140001,-0.33600003,9.184951
1679914353973,1094342329309908,1.60695,-0.41505003,9.307051
1679914353976,1094342331812370,1.5109501,-0.31695002,9.30195
1679914353978,1094342334314831,1.55505,-0.34095,9.295051
1679914353981,1094342336817216,1.4640001,-0.33600003,9.24195
1679914353983,1094342339319701,1.46595,-0.27600002,9.10305
1679914353985,1094342341822239,1.5589501,-0.28605002,9.168
1679914353989,1094342344324701,1.5499501,-0.27600002,9.04605
1679914353990,1094342346827085,1.5330001,-0.32895002,9.019051
1679914353993,1094342349329533,1.6380001,-0.32895002,8.95695
1679914353995,1094342351831994,1.5330001,-0.28800002,9.0
1679914354000,1094342354334456,1.6099501,-0.23805001,9.040951
1679914354001,1094342356836917,1.6000501,-0.312,9.181951
1679914354005,1094342359339350,1.5109501,-0.324,9.25905
1679914354006,1094342361841811,1.4110501,-0.28800002,9.1699505
1679914354008,1094342364344273,1.42005,-0.24705002,9.331051
1679914354011,1094342366846504,1.3960501,-0.25695002,9.4140005
1679914354013,1094342369348970,1.4280001,-0.28800002,9.40995
1679914354016,1094342371851663,1.45395,-0.3,9.56805
1679914354018,1094342374353893,1.31505,-0.324,9.642
1679914354021,1094342376856355,1.29795,-0.25395,9.802051
1679914354023,1094342379358817,1.18095,-0.264,9.802051
1679914354025,1094342381861278,1.2379501,-0.38595003,10.116
1679914354029,1094342384363663,1.2790501,-0.30900002,10.20705
1679914354030,1094342386866201,1.28205,-0.312,10.212001
1679914354033,1094342389368663,1.3270501,-0.22800002,10.285951
1679914354037,1094342391871124,1.45905,-0.24495001,10.177951
1679914354038,1094342394373586,1.44,-0.20595,10.143001
1679914354041,1094342396875970,1.4470501,-0.17505,10.246051
1679914354043,1094342399378422,1.31295,-0.25905,10.288951
1679914354045,1094342401880960,1.3729501,-0.13695,10.176001
1679914354048,1094342404383422,1.3099501,-0.28095,10.288951
1679914354050,1094342406885807,1.2049501,-0.18705001,10.236
1679914354054,1094342409388249,1.18305,-0.16305001,10.33905
1679914354055,1094342411890711,1.1040001,-0.13905,10.248
1679914354058,1094342414393249,0.95295006,-0.18705001,10.285951
1679914354061,1094342416895711,1.023,-0.17295001,10.281
1679914354063,1094342419398162,0.94095004,-0.23295002,10.200001
1679914354066,1094342421900547,1.023,-0.20400001,10.104
1679914354069,1094342424403008,1.011,-0.15405001,10.03695
1679914354071,1094342426905470,1.0200001,-0.18300001,10.123051
1679914354075,1094342429407926,0.9990001,-0.15405001,10.14
1679914354076,1094342431910388,1.0009501,-0.06795,10.02495
1679914354078,1094342434412850,0.96300006,-0.19500001,10.000951
1679914354081,1094342436915311,1.1400001,-0.12495001,10.03005
1679914354083,1094342439417773,1.116,-0.29295,9.88605
1679914354086,1094342441919994,1.107,-0.20205002,9.91695
1679914354088,1094342444422687,1.044,-0.18,9.817051
1679914354091,1094342446925148,1.0680001,-0.23805001,9.91005
1679914354093,1094342449427610,1.03005,-0.30900002,11.22
1679914354096,1094342451929831,1.23405,-0.31695002,11.56305
1679914354099,1094342454432292,1.2600001,-0.24705002,11.637
1679914354101,1094342456934754,1.2600001,-0.26595002,11.139001
1679914354103,1094342459437446,1.15005,-0.29505002,10.737
1679914354106,1094342461939672,1.092,-0.29805002,10.353001
1679914354109,1094342464442133,0.97305006,-0.30900002,10.08705
1679914354112,1094342466944595,0.88005006,-0.36495003,9.999001
1679914354114,1094342469447056,0.73605,-0.34995002,9.89295
1679914354116,1094342471949436,0.60495,-0.35295,9.807
1679914354118,1094342474451975,0.43500003,-0.36495003,9.778951
1679914354121,1094342476954436,0.36795002,-0.34800002,9.52005
1679914354123,1094342479456898,0.37005,-0.20400001,9.156
1679914354125,1094342481959282,0.40095,-0.03195,9.010051
1679914354128,1094342484461735,0.46605003,0.11400001,8.52795
1679914354130,1094342486964196,0.56595004,0.27,8.48505
1679914354133,1094342489466735,0.70500004,0.45105,8.2890005
1679914354136,1094342491969119,0.86805004,0.40800002,8.161051
1679914354138,1094342494471566,1.06095,0.36105,8.155951
1679914354141,1094342496974027,1.08,0.22695,8.20995
1679914354143,1094342499476489,1.30305,0.19800001,8.28195
1679914354146,1094342501978720,1.21395,0.246,8.562
1679914354150,1094342504481408,1.3249501,0.18405001,8.81595
1679914354151,1094342506983870,1.38195,0.19800001,9.09405
1679914354155,1094342509486331,1.365,0.21300001,9.24405
1679914354156,1094342511988793,1.332,0.13605,9.538951
1679914354158,1094342514491024,1.3560001,0.24900001,9.51
1679914354161,1094342516993730,1.33395,0.08805001,9.690001
1679914354163,1094342519496191,1.38705,0.081,9.71595
1679914354167,1094342521998653,1.33395,-0.18300001,9.81
1679914354168,1094342524501114,1.1590501,-0.17505,9.74295
1679914354171,1094342527003345,1.0849501,-0.27600002,9.73095