system_ts_ms, sensor_ts_ns, gyrX, gyrY, gyrZ
1679914350140,1094338495551978,-0.0790625,0.02035,-0.2646875
1679914350142,1094338498054363,-0.0710875,0.017324999,-0.2817375
1679914350144,1094338500556901,-0.069025,0.0163625,-0.2987875
1679914350147,1094338503059363,-0.0671,0.0143,-0.31075
1679914350150,1094338505561810,-0.0570625,0.0154,-0.3147375
1679914350152,1094338508064195,-0.0600875,0.0154,-0.3168
1679914350160,1094338510566656,-0.06215,0.0114124995,-0.3097875
1679914350160,1094338513069118,-0.0600875,0.0033,-0.3018125
1679914350161,1094338515571656,-0.058025,-0.01265,-0.291775
1679914350162,1094338518074132,-0.061049998,-0.0325875,-0.27775
1679914350164,1094338520576593,-0.0600875,-0.0545875,-0.25575
1679914350167,1094338523078978,-0.0631125,-0.0796125,-0.2327875
1679914350172,1094338525581440,-0.0600875,-0.1067,-0.21175
1679914350172,1094338528083901,-0.0561,-0.13365,-0.1857625
1679914350174,1094338530586440,-0.0540375,-0.158675,-0.1557875
1679914350177,1094338533088901,-0.048125,-0.1736625,-0.126775
1679914350179,1094338535591286,-0.0451,-0.1947,-0.10175
1679914350182,1094338538093767,-0.0411125,-0.2057,-0.076725
1679914350184,1094338540596229,-0.0320375,-0.21065,-0.0507375
1679914350189,1094338543098690,-0.025024999,-0.2156,-0.0287375
1679914350191,1094338545601152,-0.0191125,-0.218625,-0.0116875
1679914350192,1094338548103604,-0.01815,-0.2156,0.0022
1679914350195,1094338550606065,-0.015125,-0.2085875,0.0143
1679914350198,1094338553108527,-0.014025,-0.2036375,0.0262625
1679914350199,1094338555610988,-0.01815,-0.196625,0.0292875
1679914350202,1094338558113464,-0.0191125,-0.185625,0.0363
1679914350206,1094338560615925,-0.0221375,-0.1755875,0.038225
1679914350208,1094338563118387,-0.037125,-0.1606,0.0391875
1679914350210,1094338565620848,-0.0441375,-0.1507,0.0391875
1679914350212,1094338568123325,-0.0551375,-0.1507,0.038225
1679914350214,1094338570625786,-0.06215,-0.1546875,0.0391875
1679914350217,1094338573128248,-0.0671,-0.1577125,0.041249998
1679914350224,1094338575630710,-0.069025,-0.1617,0.0462
1679914350224,1094338578133161,-0.0650375,-0.1645875,0.0532125
1679914350225,1094338580635623,-0.0631125,-0.1676125,0.0583
1679914350227,1094338583137853,-0.058025,-0.1755875,0.060225
1679914350230,1094338585640315,-0.0460625,-0.1816375,0.0642125
1679914350232,1094338588143007,-0.031075,-0.185625,0.0682
1679914350234,1094338590645469,-0.0111375,-0.196625,0.07425
1679914350241,1094338593147700,0.0089375,-0.2066625,0.0812625
1679914350241,1094338595650161,0.0328625,-0.2127125,0.088275
1679914350242,1094338598152623,0.056925,-0.2195875,0.0952875
1679914350259,1094338600655098,0.0859375,-0.2237125,0.0983125
1679914350259,1094338603157560,0.11385,-0.2206875,0.1082125
1679914350259,1094338605660021,0.144925,-0.218625,0.1142625
1679914350259,1094338608162483,0.171875,-0.207625,0.113299996
1679914350259,1094338610664944,0.1959375,-0.1926375,0.1203125
1679914350260,1094338613167427,0.221925,-0.1797125,0.1203125
1679914350260,1094338615669888,0.2409,-0.16665,0.1192125
1679914350266,1094338618172581,0.2589125,-0.147675,0.1203125
1679914350266,1094338620674812,0.2759625,-0.1326875,0.113299996
1679914350267,1094338623177301,0.2869625,-0.1216875,0.1082125
1679914350272,1094338625679763,0.29095,-0.1095875,0.1051875
1679914350273,1094338628182224,0.2949375,-0.0966625,0.1023
1679914350274,1094338630684686,0.2979625,-0.086625,0.099275
1679914350277,1094338633187123,0.29095,-0.0765875,0.0972125
1679914350280,1094338635689585,0.27995,-0.0666875,0.093225
1679914350283,1094338638192046,0.270875,-0.053625,0.0873125
1679914350284,1094338640694431,0.2528625,-0.037675,0.088275
1679914350289,1094338643196903,0.232925,-0.026675,0.0873125
1679914350289,1094338645699364,0.210925,-0.0105875,0.0792
1679914350292,1094338648201903,0.1879625,0.006325,0.0732875
1679914350294,1094338650704287,0.1659625,0.02035,0.069299996
1679914350297,1094338653206744,0.13695,0.034375,0.0622875
1679914350299,1094338655709205,0.1079375,0.045375,0.0572
1679914350306,1094338658211667,0.083875,0.0523875,0.049225
1679914350306,1094338660714205,0.056925,0.0573375,0.044275
1679914350307,1094338663216653,0.0328625,0.0583,0.0391875
1679914350311,1094338665719114,0.006875,0.0622875,0.033275
1679914350312,1094338668221499,-0.0210375,0.069299996,0.0281875
1679914350315,1094338670723961,-0.042075,0.0763125,0.0232375
1679914350317,1094338673226436,-0.06215,0.0743875,0.016224999
1679914350323,1094338675728975,-0.0851125,0.083325,0.0092124995
1679914350323,1094338678231436,-0.10505,0.0793375,0.00825
1679914350324,1094338680733821,-0.122099996,0.0732875,0.005225
1679914350327,1094338683236282,-0.130075,0.0683375,0.0033
1679914350329,1094338685738744,-0.13805,0.0603625,2.75E-4
1679914350332,1094338688240975,-0.1420375,0.0523875,-0.0037125
1679914350335,1094338690743667,-0.141075,0.045375,-0.0048125
1679914350340,1094338693246128,-0.13805,0.034375,-0.0037125
1679914350340,1094338695748605,-0.136125,0.0213125,0.0033
1679914350342,1094338698250836,-0.1260875,0.012375,0.0092124995
1679914350344,1094338700753297,-0.119075,0.0033,0.0132
1679914350348,1094338703255759,-0.1101375,-0.0077,0.0182875
1679914350350,1094338705758451,-0.100099996,-0.013612499,0.016224999
1679914350355,1094338708260913,-0.087037496,-0.0196625,0.016224999
1679914350355,1094338710763143,-0.078099996,-0.02365,0.0143
1679914350359,1094338713265605,-0.0671,-0.0196625,0.0202125
1679914350361,1094338715768081,-0.0561,-0.01265,0.0232375
1679914350362,1094338718270542,-0.0441375,-0.0037125,0.022275
1679914350365,1094338720773234,-0.036025,0.0023375,0.0213125
1679914350367,1094338723275696,-0.0270875,0.006325,0.0232375
1679914350372,1094338725778157,-0.01705,0.0083875,0.0242
1679914350372,1094338728280374,-0.0121,0.0114124995,0.0253
1679914350375,1094338730782836,-0.0100375,0.007425,0.0281875
1679914350377,1094338733285297,-0.0039875,0.0083875,0.0242
1679914350380,1094338735787759,0.001925,0.007425,0.0213125
1679914350382,1094338738290200,-0.003025,0.0083875,0.022275
1679914350384,1094338740792662,-0.0050875,0.001375,0.0202125
1679914350389,1094338743295124,-0.0020625,-0.00165,0.016224999
1679914350390,1094338745797508,-0.0039875,4.125E-4,0.016224999
1679914350392,1094338748300043,-0.011,-6.875E-4,0.0132
1679914350396,1094338750802504,-0.0121,-0.003575,0.0122375
1679914350397,1094338753304966,-0.013062499,-0.003575,0.0122375
1679914350399,1094338755807427,-0.01705,-0.0056375,0.0092124995
1679914350405,1094338758309811,-0.0210375,-0.0105875,0.011275
1679914350406,1094338760812272,-0.0231,-0.003575,0.0103124995
1679914350407,1094338763314811,-0.0210375,-0.003575,0.0103124995
1679914350410,1094338765817272,-0.0231,-0.004675,0.0092124995
1679914350412,1094338768319706,-0.020075,-0.00165,0.00825
1679914350414,1094338770822168,-0.01705,-0.0026125,0.0103124995
1679914350417,1094338773324552,-0.0180125,-0.0026125,0.011275
1679914350423,1094338775827014,-0.0149875,-0.0116875,0.0122375
1679914350424,1094338778329561,-0.013062499,-0.0176,0.0103124995
1679914350425,1094338780832023,-0.0070125,-0.0187,0.0103124995
1679914350427,1094338783334484,-0.0020625,-0.0187,0.016224999
1679914350430,1094338785836869,0.0028875,-0.0196625,0.0182875
1679914350434,1094338788339306,0.0039875,-0.013612499,0.0213125
1679914350435,1094338790841768,0.011,-0.0077,0.0242
1679914350439,1094338793344306,0.011,0.0033,0.0262625
1679914350440,1094338795846691,0.0138875,0.0133375,0.0292875
1679914350442,1094338798349153,0.0180125,0.0224125,0.0352
1679914350444,1094338800851614,0.0180125,0.0353375,0.038225
1679914350448,1094338803353845,0.0209,0.0484,0.0391875
1679914350450,1094338805856306,0.0229625,0.0573375,0.041249998
1679914350456,1094338808358999,0.0229625,0.0603625,0.0422125
1679914350456,1094338810861441,0.0290125,0.062425,0.0402875
1679914350457,1094338813363903,0.0259875,0.0543125,0.0433125
1679914350459,1094338815866134,0.0248875,0.050325,0.0433125
1679914350463,1094338818368595,0.0279125,0.034375,0.0402875
1679914350465,1094338820871071,0.0279125,0.018424999,0.0352
1679914350467,1094338823373763,0.023924999,0.012375,0.0363
1679914350472,1094338825876225,0.0209,0.0033,0.0312125
1679914350473,1094338828378686,0.022,-0.0026125,0.033275
1679914350475,1094338830881143,0.0180125,-0.0066,0.0312125
1679914350477,1094338833383373,0.0149875,-0.003575,0.0312125
1679914350480,1094338835885835,0.0169125,-0.0026125,0.0323125
1679914350482,1094338838388527,0.0138875,-0.0026125,0.0372625
1679914350485,1094338840890989,0.0119624995,0.001375,0.038225
1679914350489,1094338843393220,0.0149875,0.0044,0.0372625
1679914350490,1094338845895681,0.0180125,0.0133375,0.0372625
1679914350492,1094338848398143,0.0209,0.0213125,0.038225
1679914350495,1094338850900604,0.022,0.028324999,0.0422125
1679914350497,1094338853403066,0.0279125,0.0353375,0.0402875
1679914350500,1094338855905527,0.0279125,0.0374,0.0352
1679914350506,1094338858407989,0.0248875,0.0413875,0.0391875
1679914350506,1094338860910450,0.0279125,0.0383625,0.0363
1679914350509,1094338863412845,0.029975,0.0353375,0.0372625
1679914350511,1094338865915384,0.0309375,0.028324999,0.0391875
1679914350512,1094338868417845,0.033,0.023375,0.0402875
1679914350515,1094338870920307,0.0290125,0.0143,0.0433125
1679914350517,1094338873422768,0.0259875,0.0044,0.044275
1679914350524,1094338875925239,0.029975,-0.0026125,0.0462
1679914350524,1094338878427623,0.0248875,-0.014575,0.0452375
1679914350525,1094338880930162,0.0209,-0.020624999,0.0433125
1679914350527,1094338883432623,0.018975,-0.036575,0.044275
1679914350530,1094338885935085,0.012925,-0.047575,0.041249998
1679914350532,1094338888437546,0.00495,-0.0506,0.0391875
1679914350535,1094338890939931,0.0028875,-0.056649998,0.038225
1679914350539,1094338893442393,0.0028875,-0.059675,0.0391875
1679914350540,1094338895944931,-0.0050875,-0.0517,0.0372625
1679914350542,1094338898447316,-0.0149875,-0.0496375,0.038225
1679914350547,1094338900949777,-0.0180125,-0.0386375,0.0391875
1679914350547,1094338903452239,-0.020075,-0.0276375,0.0402875
1679914350550,1094338905954700,-0.022,-0.013612499,0.0402875
1679914350555,1094338908456931,-0.031075,-6.875E-4,0.038225
1679914350555,1094338910959623,-0.036025,0.0193875,0.038225
1679914350557,1094338913462085,-0.0400125,0.03135,0.038225
1679914350560,1094338915964546,-0.0479875,0.0363,0.0391875
1679914350562,1094338918467013,-0.055,0.050325,0.0363
1679914350565,1094338920969475,-0.0570625,0.0543125,0.0323125
1679914350567,1094338923471705,-0.0620125,0.0543125,0.0352
1679914350572,1094338925974398,-0.0631125,0.050325,0.0363
1679914350572,1094338928476840,-0.0631125,0.039325,0.0372625
1679914350575,1094338930979302,-0.0631125,0.0334125,0.0391875
1679914350577,1094338933481763,-0.0600875,0.02035,0.0402875
1679914350580,1094338935984225,-0.0561,0.0114124995,0.0391875
1679914350584,1094338938486470,-0.053075,0.0033,0.0402875
1679914350585,1094338940989162,-0.047025,-0.0026125,0.038225
1679914350588,1094338943491623,-0.042075,-0.0066,0.0433125
1679914350591,1094338945994085,-0.036025,-0.0056375,0.0433125
1679914350592,1094338948496316,-0.0301125,-6.875E-4,0.0402875
1679914350595,1094338950998752,-0.0259875,0.0033,0.0372625
1679914350598,1094338953501445,-0.01705,0.0114124995,0.038225
1679914350600,1094338956003906,-0.0160875,0.018424999,0.038225
1679914350604,1094338958506137,-0.0180125,0.0243375,0.0363
1679914350605,1094338961008609,-0.0160875,0.0253,0.0352
1679914350607,1094338963511070,-0.013062499,0.029424999,0.0312125
1679914350610,1094338966013532,-0.014025,0.0323125,0.0312125
1679914350612,1094338968515993,-0.01705,0.023375,0.0312125
1679914350615,1094338971018694,-0.01705,0.017324999,0.03025
1679914350617,1094338973520925,-0.020075,0.0133375,0.0292875
1679914350622,1094338976023387,-0.0210375,0.007425,0.0323125
1679914350622,1094338978525848,-0.025024999,0.0033,0.033275
1679914350625,1094338981028315,-0.0270875,-0.004675,0.0281875
1679914350627,1094338983531007,-0.0290125,-0.009625,0.03025
1679914350631,1094338986033238,-0.0341,-0.009625,0.0323125
1679914350632,1094338988535699,-0.0380875,-0.0116875,0.0292875
1679914350635,1094338991038171,-0.0400125,-0.0116875,0.0281875
1679914350638,1094338993540633,-0.0411125,-0.0116875,0.0312125
1679914350640,1094338996043017,-0.0411125,-0.01265,0.0312125
1679914350643,1094338998545556,-0.0411125,-0.013612499,0.0323125
1679914350645,1094339001048026,-0.042075,-0.01265,0.03025
1679914350648,1094339003550488,-0.042075,-0.015675,0.03025
1679914350650,1094339006052872,-0.0400125,-0.020624999,0.0292875
1679914350655,1094339008555334,-0.0400125,-0.0196625,0.0292875
1679914350655,1094339011057795,-0.0369875,-0.020624999,0.0323125
1679914350659,1094339013560257,-0.0320375,-0.02365,0.0363
1679914350661,1094339016062719,-0.031075,-0.0215875,0.038225
1679914350663,1094339018565180,-0.0341,-0.0215875,0.0391875
1679914350665,1094339021067642,-0.0270875,-0.0176,0.041249998
1679914350667,1094339023570103,-0.025024999,-0.02365,0.0452375
1679914350671,1094339026072565,-0.025024999,-0.0187,0.044275
1679914350673,1094339028575026,-0.0210375,-0.0176,0.0422125
1679914350675,1094339031077479,-0.0191125,-0.0187,0.0433125
1679914350677,1094339033579940,-0.020075,-0.0215875,0.0433125
1679914350680,1094339036082402,-0.0160875,-0.0196625,0.0422125
1679914350683,1094339038584863,-0.013062499,-0.0176,0.041249998
1679914350685,1094339041087094,-0.014025,-0.014575,0.0391875
1679914350688,1094339043589767,-0.0121,-0.0166375,0.041249998
1679914350690,1094339046092228,-0.0081124995,-0.013612499,0.0462
1679914350692,1094339048594690,-0.0050875,-0.013612499,0.044275
1679914350696,1094339051097151,-0.003025,-0.0116875,0.0462
1679914350697,1094339053599382,-0.0020625,-0.013612499,0.0482625
1679914350700,1094339056102074,0.0028875,-0.015675,0.0473
1679914350704,1094339058604536,0.0070125,-0.0166375,0.0473
1679914350705,1094339061106767,0.0099,-0.0166375,0.0473
1679914350707,1094339063609228,0.0138875,-0.0246125,0.0452375
1679914350711,1094339066111690,0.0169125,-0.0286,0.0452375
1679914350713,1094339068614151,0.0169125,-0.031625,0.0452375
1679914350715,1094339071116613,0.018975,-0.031625,0.0422125
1679914350718,1094339073619094,0.023924999,-0.0386375,0.0372625
1679914350721,1094339076121556,0.0199375,-0.047575,0.0363
1679914350723,1094339078624017,0.018975,-0.0545875,0.0352
1679914350725,1094339081126479,0.0169125,-0.0666875,0.0323125
1679914350728,1094339083628940,0.0149875,-0.075625,0.0281875
1679914350730,1094339086131416,0.012925,-0.0856625,0.0232375
1679914350734,1094339088633878,0.0099,-0.091575,0.0242
1679914350735,1094339091136339,0.007975,-0.097625,0.01925
1679914350738,1094339093638801,0.0099,-0.102575,0.0182875
1679914350740,1094339096141271,0.0070125,-0.1067,0.015262499
1679914350743,1094339098643733,0.0070125,-0.11165,0.0143
1679914350745,1094339101146194,0.0099,-0.1126125,0.0143
1679914350747,1094339103648656,0.007975,-0.1126125,0.0143
1679914350751,1094339106151113,0.0028875,-0.108625,0.011275
1679914350755,1094339108653575,0.0039875,-0.108625,0.0132
1679914350755,1094339111155960,0.00495,-0.097625,0.015262499
1679914350757,1094339113658421,0.0039875,-0.093637496,0.0143
1679914350760,1094339116160960,0.0028875,-0.086625,0.011275
1679914350763,1094339118663354,0.0039875,-0.0765875,0.0122375
1679914350765,1094339121165816,0.00495,-0.0666875,0.011275
1679914350768,1094339123668277,0.001925,-0.0576125,0.0122375
1679914350771,1094339126170739,0.0028875,-0.045649998,0.016224999
1679914350772,1094339128673200,0.007975,-0.031625,0.0143
1679914350775,1094339131175662,0.0070125,-0.02365,0.0132
1679914350778,1094339133678123,0.007975,-0.0116875,0.011275
1679914350780,1094339136180585,0.011,-0.0056375,0.011275
1679914350782,1094339138683037,0.0099,0.001375,0.0122375
1679914350785,1094339141185498,0.0199375,0.0083875,0.011275
1679914350788,1094339143687960,0.0209,0.0133375,0.0092124995
1679914350791,1094339146190421,0.0209,0.0143,0.00825
1679914350792,1094339148692883,0.02695,0.012375,0.0072875
1679914350795,1094339151195344,0.0339625,0.0103124995,0.0061875
1679914350798,1094339153697806,0.0358875,0.0114124995,0.00825
1679914350800,1094339156200267,0.0400125,0.007425,0.005225
1679914350807,1094339158702710,0.0499125,0.012375,0.005225
1679914350807,1094339161205171,0.0559625,0.007425,0.0042625
1679914350809,1094339163707633,0.0620125,4.125E-4,0.0061875
1679914350810,1094339166210095,0.0699875,-0.003575,0.005225
1679914350812,1094339168712325,0.0759,-0.0077,0.0061875
1679914350815,1094339171214787,0.088,-0.013612499,0.0072875
1679914350817,1094339173717479,0.09295,-0.0215875,0.0042625
1679914350821,1094339176219710,0.1049125,-0.0297,0.0072875
1679914350822,1094339178722171,0.1139875,-0.0356125,0.0092124995
1679914350825,1094339181224633,0.122925,-0.045649998,0.0092124995
1679914350828,1094339183727095,0.1329625,-0.0627,0.00825
1679914350831,1094339186229556,0.143,-0.0716375,0.0092124995
1679914350833,1094339188732018,0.150975,-0.080575,0.0103124995
1679914350835,1094339191234479,0.1568875,-0.0946,0.0092124995
1679914350837,1094339193736941,0.1678875,-0.1067,0.0103124995
1679914350840,1094339196239402,0.172975,-0.114675,0.0122375
1679914350843,1094339198741864,0.183975,-0.1205875,0.0132
1679914350847,1094339201244253,0.19195,-0.1266375,0.0122375
1679914350847,1094339203747023,0.199925,-0.1315875,0.0132
1679914350850,1094339206249253,0.2039125,-0.136675,0.0103124995
1679914350854,1094339208751715,0.20693749,-0.13365,0.0122375
1679914350855,1094339211254177,0.2129875,-0.1326875,0.0132
1679914350858,1094339213756643,0.221925,-0.135575,0.0103124995
1679914350861,1094339216259028,0.221925,-0.130625,0.0103124995
1679914350863,1094339218761566,0.2299,-0.130625,0.0132
1679914350865,1094339221264028,0.2319625,-0.1346125,0.0103124995
1679914350868,1094339223766407,0.2369125,-0.1406625,0.0072875
1679914350871,1094339226268869,0.2409,-0.1456125,0.00825
1679914350872,1094339228771330,0.2448875,-0.146575,0.0103124995
1679914350875,1094339231273792,0.25795,-0.1486375,0.011275
1679914350878,1094339233776234,0.260975,-0.1486375,0.0132
1679914350880,1094339236278695,0.2729375,-0.1456125,0.0122375
1679914350884,1094339238781157,0.2820125,-0.146575,0.011275
1679914350885,1094339241283618,0.29095,-0.1486375,0.0143
1679914350889,1094339243785840,0.3069,-0.14465,0.0202125
1679914350890,1094339246288532,0.3218875,-0.146575,0.01925
1679914350893,1094339248790994,0.3339875,-0.14465,0.0213125
1679914350895,1094339251293455,0.3480125,-0.1406625,0.0213125
1679914350898,1094339253795902,0.363,-0.1425875,0.01925
1679914350900,1094339256298363,0.3749625,-0.1436875,0.0213125
1679914350905,1094339258800825,0.3909125,-0.1397,0.0213125
1679914350906,1094339261303287,0.4049375,-0.136675,0.0213125
1679914350908,1094339263805744,0.41799998,-0.135575,0.0213125
1679914350911,1094339266308206,0.4329875,-0.1287,0.022275
1679914350913,1094339268810667,0.44288749,-0.124575,0.0202125
1679914350915,1094339271313129,0.45595,-0.114675,0.022275
1679914350918,1094339273815359,0.4690125,-0.1016125,0.0213125
1679914350922,1094339276318052,0.47795,-0.08965,0.0213125
1679914350924,1094339278820513,0.4879875,-0.0875875,0.022275
1679914350925,1094339281322744,0.502975,-0.081675,0.0213125
1679914350928,1094339283825206,0.50888747,-0.086625,0.0242
1679914350930,1094339286327651,0.517,-0.095699996,0.022275
1679914350933,1094339288830113,0.5259375,-0.1126125,0.022275
1679914350935,1094339291332574,0.5369375,-0.1315875,0.022275
1679914350938,1094339293835036,0.546975,-0.1596375,0.01925
1679914350940,1094339296337492,0.5589375,-0.1837,0.0132
1679914350943,1094339298839954,0.573925,-0.201575,0.0072875
1679914350945,1094339301342415,0.5889125,-0.21367499,0.00825
1679914350948,1094339303844800,0.6089875,-0.2286625,0.0122375
1679914350951,1094339306347335,0.6329125,-0.240625,0.015262499
1679914350954,1094339308849796,0.6560125,-0.2497,0.01925
1679914350955,1094339311352258,0.682,-0.2635875,0.0253
1679914350959,1094339313854719,0.7049625,-0.28861248,0.0253
1679914350961,1094339316357118,0.7269625,-0.317625,0.0253
1679914350963,1094339318859579,0.749925,-0.350625,0.022275
1679914350965,1094339321362118,0.766975,-0.377575,0.022275
1679914350968,1094339323864579,0.78595,-0.399575,0.0242
1679914350971,1094339326367041,0.803,-0.410575,0.0202125
1679914350973,1094339328869455,0.8089125,-0.4175875,0.00825
1679914350975,1094339331371916,0.8089125,-0.421575,-0.0088
1679914350978,1094339333874378,0.8089125,-0.421575,-0.02475
1679914350980,1094339336376916,0.8119375,-0.410575,-0.038775
1679914350983,1094339338879306,0.821975,-0.3955875,-0.0507375
1679914350985,1094339341381767,0.83599997,-0.3796375,-0.0587125
1679914350989,1094339343884229,0.85195,-0.356675,-0.0638
1679914350991,1094339346386690,0.8669375,-0.33467498,-0.0697125
1679914350993,1094339348889152,0.881925,-0.317625,-0.0776875
1679914350997,1094339351391613,0.9029625,-0.3056625,-0.0847
1679914350998,1094339353894075,0.931975,-0.3026375,-0.09075
1679914351001,1094339356396537,0.9609875,-0.3185875,-0.1007875
1679914351005,1094339358898762,0.997975,-0.339625,-0.109725
1679914351005,1094339361401224,1.0399125,-0.3636875,-0.1188
1679914351008,1094339363903916,1.085975,-0.388575,-0.1258125
1679914351011,1094339366406378,1.1339625,-0.416625,-0.13475
1679914351013,1094339368908815,1.188,-0.45265,-0.1387375
1679914351015,1094339371411046,1.2500125,-0.4896375,-0.137775
1679914351018,1094339373913508,1.3118875,-0.5336375,-0.131725
1679914351021,1094339376415969,1.3738999,-0.5676,-0.12375
1679914351023,1094339378918661,1.442925,-0.598675,-0.1137125
1679914351025,1094339381421123,1.508925,-0.6136625,-0.1027125
1679914351028,1094339383923585,1.57795,-0.61765,-0.09075
1679914351031,1094339386425815,1.6429875,-0.62067497,-0.0757625
1679914351034,1094339388928277,1.7109125,-0.62067497,-0.0677875
1679914351035,1094339391430738,1.7799375,-0.597575,-0.060775
1679914351038,1094339393933431,1.8398875,-0.5346,-0.060775
1679914351040,1094339396435661,1.8929625,-0.4456375,-0.0627
1679914351043,1094339398938123,1.9540125,-0.350625,-0.0666875
1679914351045,1094339401440585,2.013,-0.2476375,-0.071775
1679914351048,1094339403943046,2.0659375,-0.1296625,-0.076725
1679914351050,1094339406445431,2.1190126,-0.0086624995,-0.0867625
1679914351055,1094339408947969,2.163975,0.105325,-0.0968
1679914351055,1094339411450416,2.211,0.2204125,-0.1038125
1679914351058,1094339413952877,2.256925,0.325325,-0.1106875
1679914351061,1094339416455262,2.2919874,0.4184125,-0.1197625
1679914351063,1094339418957723,2.3309,0.5003625,-0.1247125
1679914351065,1094339421460185,2.3610125,0.5654,-0.131725
1679914351068,1094339423962723,2.388925,0.6204,-0.1368125
1679914351073,1094339426465185,2.4129875,0.6623375,-0.1417625
1679914351074,1094339428967570,2.4299,0.699325,-0.142725
1679914351075,1094339431470031,2.4459875,0.7293,-0.142725
1679914351078,1094339433972493,2.4558876,0.7513,-0.1447875
1679914351080,1094339436474954,2.4589124,0.7643625,-0.1417625
1679914351083,1094339438977493,2.4589124,0.7693125,-0.1368125
1679914351085,1094339441479973,2.4490125,0.765325,-0.12773749
1679914351088,1094339443982358,2.4409,0.7473125,-0.1227875
1679914351090,1094339446484819,2.427975,0.7264125,-0.120725
1679914351093,1094339448987281,2.410925,0.7013875,-0.1106875
1679914351096,1094339451489849,2.3940125,0.6733375,-0.1057375
1679914351098,1094339453992234,2.3709126,0.6424,-0.0968
1679914351100,1094339456494696,2.3439624,0.60335,-0.0897875
1679914351105,1094339458997157,2.322925,0.5493125,-0.076725
1679914351106,1094339461499624,2.299,0.491425,-0.0697125
1679914351110,1094339464001854,2.2759,0.424325,-0.060775
1679914351111,1094339466504547,2.2468874,0.3763375,-0.0556875
1679914351113,1094339469007008,2.2239249,0.3333,-0.049775
1679914351115,1094339471509484,2.196975,0.298375,-0.0397375
1679914351119,1094339474011715,2.1759374,0.2754125,-0.0336875
1679914351122,1094339476514176,2.146925,0.26235,-0.0257125
1679914351123,1094339479016638,2.1239624,0.254375,-0.0158125
1679914351125,1094339481519330,2.0989375,0.2534125,-0.0048125
1679914351128,1094339484021764,2.0739124,0.26633748,0.005225
1679914351130,1094339486523994,2.0469625,0.282425,0.015262499
1679914351133,1094339489026456,2.0249624,0.2904,0.0292875
1679914351137,1094339491528917,1.998975,0.309375,0.038225
1679914351138,1094339494031379,1.9760125,0.32835,0.0482625
1679914351141,1094339496534071,1.947,0.3403125,0.060225
1679914351143,1094339499036533,1.9168875,0.3553,0.069299996
1679914351147,1094339501538764,1.8909,0.375375,0.0782375
1679914351148,1094339504041225,1.8579,0.391325,0.088275
1679914351151,1094339506543687,1.8239375,0.39833748,0.0952875
1679914351154,1094339509046148,1.7879125,0.4043875,0.1023
1679914351155,1094339511548610,1.7479,0.408375,0.104225
1679914351158,1094339514051071,1.701975,0.4093375,0.1051875
1679914351161,1094339516553533,1.65495,0.4043875,0.104225
1679914351163,1094339519056008,1.602975,0.397375,0.104225
1679914351165,1094339521558393,1.54495,0.3843125,0.0972125
1679914351168,1094339524060855,1.4829375,0.3674,0.0922625
1679914351170,1094339526563393,1.4139125,0.3553,0.082225
1679914351173,1094339529065860,1.3369125,0.336325,0.071225
1679914351175,1094339531568244,1.2610124,0.314325,0.0572
1679914351178,1094339534070706,1.178925,0.2943875,0.0422125
1679914351180,1094339536573167,1.089,0.2773375,0.0262625
1679914351185,1094339539075730,0.9928875,0.2553375,0.011275
1679914351185,1094339541578114,0.89595,0.2424125,-0.0017875
1679914351188,1094339544080576,0.793925,0.226325,-0.016775
1679914351191,1094339546583038,0.6879125,0.2024,-0.0268125
1679914351193,1094339549085499,0.5759875,0.183425,-0.0397375
1679914351196,1094339551587942,0.463925,0.1573,-0.0457875
1679914351198,1094339554090403,0.3509,0.1373625,-0.0528
1679914351200,1094339556592865,0.232925,0.1144,-0.05775
1679914351204,1094339559095326,0.1079375,0.0933625,-0.0617375
1679914351206,1094339561597792,-0.020075,0.0653125,-0.0627
1679914351208,1094339564100253,-0.1551,0.0433125,-0.060775
1679914351211,1094339566602715,-0.2930125,0.02035,-0.054725
1679914351213,1094339569105176,-0.4411,-0.00165,-0.04675
1679914351216,1094339571607658,-0.5951,-0.0196625,-0.0407
1679914351218,1094339574110120,-0.7530875,-0.0356125,-0.03575
1679914351222,1094339576612581,-0.9141,-0.0576125,-0.0297
1679914351223,1094339579114812,-1.0819875,-0.0796125,-0.02475
1679914351225,1094339581617301,-1.2511125,-0.1016125,-0.0237875
1679914351228,1094339584119994,-1.422025,-0.1296625,-0.0226875
1679914351231,1094339586622455,-1.598025,-0.1617,-0.0226875
1679914351233,1094339589124686,-1.77705,-0.19167499,-0.0198
1679914351236,1094339591627177,-1.95305,-0.2195875,-0.0207625
1679914351238,1094339594129638,-2.1280875,-0.245575,-0.01375
1679914351240,1094339596632100,-2.302025,-0.2756875,-0.005775
1679914351243,1094339599134561,-2.4800875,-0.3075875,0.0033
1679914351246,1094339601637047,-2.654025,-0.33261248,0.0122375
1679914351248,1094339604139508,-2.8230126,-0.3586,0.0281875
1679914351251,1094339606641970,-2.984025,-0.3927,0.041249998
1679914351254,1094339609144354,-3.1450374,-0.433675,0.0543125
1679914351255,1094339611646797,-3.2940874,-0.4846875,0.0642125
1679914351260,1094339614149335,-3.4340625,-0.5506875,0.0782375
1679914351261,1094339616651797,-3.55905,-0.6127,0.0922625
1679914351263,1094339619154259,-3.677025,-0.6705875,0.1062875
1679914351265,1094339621656705,-3.7800124,-0.724625,0.11825
1679914351268,1094339624159090,-3.8649874,-0.7726125,0.1362625
1679914351271,1094339626661551,-3.9351125,-0.79667497,0.1552375
1679914351273,1094339629164090,-3.996025,-0.80465,0.1711875
1679914351275,1094339631666536,-4.0409875,-0.8036875,0.1892
1679914351278,1094339634168998,-4.0730247,-0.7866375,0.2083125
1679914351281,1094339636671382,-4.092,-0.7536375,0.2261875
1679914351283,1094339639173844,-4.103,-0.713625,0.242275
1679914351286,1094339641676377,-4.1050625,-0.663575,0.2563
1679914351288,1094339644178839,-4.09805,-0.6106375,0.269225
1679914351291,1094339646681224,-4.08705,-0.5506875,0.2762375
1679914351293,1094339649183685,-4.062025,-0.477675,0.2783
1679914351298,1094339651686162,-4.029025,-0.4026,0.27719998
1679914351298,1094339654188392,-3.991075,-0.323675,0.2762375
1679914351300,1094339656691085,-3.941025,-0.234575,0.27225
1679914351304,1094339659193546,-3.88905,-0.146575,0.258225
1679914351306,1094339661696008,-3.8319874,-0.0666875,0.2343
1679914351308,1094339664198239,-3.776025,-6.875E-4,0.2022625
1679914351311,1094339666700700,-3.710025,0.0603625,0.1672
1679914351313,1094339669203162,-3.644025,0.105325,0.121275
1679914351316,1094339671705854,-3.5780249,0.14135,0.0732875
1679914351318,1094339674208316,-3.5080376,0.1683,0.0262625
1679914351321,1094339676710546,-3.43805,0.182325,-0.021724999
1679914351323,1094339679213008,-3.3671,0.1843875,-0.0708125
1679914351326,1094339681715469,-3.2929876,0.1683,-0.115775
1679914351328,1094339684217931,-3.223,0.1434125,-0.15675
1679914351331,1094339686720594,-3.146,0.1104125,-0.1907125
1679914351335,1094339689222825,-3.072025,0.0713625,-0.2217875
1679914351337,1094339691725287,-2.9959874,0.0353375,-0.241725
1679914351338,1094339694227748,-2.9140375,0.001375,-0.2508
1679914351341,1094339696730210,-2.8309875,-0.0276375,-0.2497
1679914351343,1094339699232671,-2.7460124,-0.0526625,-0.2487375
1679914351346,1094339701735133,-2.6580124,-0.0716375,-0.2358125
1679914351348,1094339704237594,-2.5711124,-0.08965,-0.21779999
1679914351352,1094339706740056,-2.484075,-0.1067,-0.2047375
1679914351354,1094339709242517,-2.3940125,-0.125675,-0.1876875
1679914351356,1094339711744902,-2.3029876,-0.1425875,-0.1617
1679914351358,1094339714247364,-2.209075,-0.157575,-0.1436875
1679914351361,1094339716749902,-2.1170876,-0.1706375,-0.1287
1679914351363,1094339719252397,-2.0251,-0.17765,-0.115775
1679914351366,1094339721754781,-1.934075,-0.174625,-0.104775
1679914351369,1094339724257243,-1.8390625,-0.1645875,-0.095699996
1679914351372,1094339726759704,-1.7430875,-0.1507,-0.0867625
1679914351373,1094339729262181,-1.648075,-0.1357125,-0.0847
1679914351376,1094339731764642,-1.5560875,-0.119625,-0.0847
1679914351378,1094339734267104,-1.4620374,-0.1027125,-0.0847
1679914351381,1094339736769566,-1.3660625,-0.0847,-0.0847
1679914351383,1094339739272031,-1.274075,-0.059675,-0.0818125
1679914351386,1094339741774262,-1.1851125,-0.0356125,-0.0818125
1679914351389,1094339744277031,-1.089,-0.0105875,-0.0748
1679914351391,1094339746779416,-0.99605,0.0053625,-0.065725
1679914351393,1094339749281868,-0.9059875,0.0323125,-0.0666875
1679914351396,1094339751784330,-0.8240375,0.0543125,-0.0697125
1679914351398,1094339754286791,-0.751025,0.069299996,-0.0708125
1679914351401,1094339756789022,-0.6859875,0.0873125,-0.0708125
1679914351404,1094339759291699,-0.62205,0.0994125,-0.0708125
1679914351406,1094339761794161,-0.559075,0.1062875,-0.0727375
1679914351410,1094339764296623,-0.509025,0.113299996,-0.0748
1679914351411,1094339766799084,-0.4610375,0.1104125,-0.073699996
1679914351413,1094339769301306,-0.4191,0.1073875,-0.0708125
1679914351416,1094339771803767,-0.3790875,0.10835,-0.0697125
1679914351418,1094339774306460,-0.3449875,0.1013375,-0.0677875
1679914351421,1094339776808921,-0.3119875,0.0903375,-0.0627
1679914351423,1094339779311157,-0.289025,0.083325,-0.0587125
1679914351426,1094339781813619,-0.2679875,0.078375,-0.054725
1679914351429,1094339784316080,-0.2501125,0.072325,-0.0528
1679914351431,1094339786818542,-0.2300375,0.0603625,-0.0457875
1679914351433,1094339789320988,-0.21807499,0.050325,-0.0446875
1679914351438,1094339791823450,-0.2050125,0.0374,-0.0446875
1679914351439,1094339794325911,-0.1940125,0.0193875,-0.0418
1679914351441,1094339796828373,-0.179025,0.0033,-0.0418
1679914351443,1094339799330767,-0.1689875,-0.009625,-0.0427625
1679914351447,1094339801833229,-0.1560625,-0.0196625,-0.0427625
1679914351448,1094339804335767,-0.1390125,-0.0276375,-0.0446875
1679914351451,1094339806838229,-0.1249875,-0.0367125,-0.0446875
1679914351454,1094339809340705,-0.109037496,-0.048675,-0.049775
1679914351456,1094339811843089,-0.0891,-0.0526625,-0.0528
1679914351459,1094339814345551,-0.07205,-0.053625,-0.054725
1679914351461,1094339816848012,-0.053075,-0.0587125,-0.05775
1679914351464,1094339819350551,-0.0301125,-0.064625,-0.0638
1679914351466,1094339821853012,-0.011,-0.0627,-0.0638
1679914351473,1094339824355397,0.007975,-0.0616,-0.0697125
1679914351473,1094339826857858,0.0290125,-0.064625,-0.0776875
1679914351475,1094339829360320,0.056925,-0.0587125,-0.0837375
1679914351476,1094339831862858,0.078925,-0.0506,-0.0886875
1679914351478,1094339834365243,0.1049125,-0.037675,-0.0947375
1679914351481,1094339836867705,0.1269125,-0.0286,-0.104775
1679914351485,1094339839370181,0.1489125,-0.0105875,-0.1167375
1679914351487,1094339841872643,0.1709125,4.125E-4,-0.1247125
1679914351488,1094339844375104,0.1898875,0.0044,-0.1337875
1679914351491,1094339846877566,0.2079,0.0083875,-0.1408
1679914351493,1094339849380027,0.2259125,0.0103124995,-0.148775
1679914351496,1094339851882498,0.2399375,0.0044,-0.153725
1679914351498,1094339854384959,0.2490125,0.0023375,-0.1577125
1679914351501,1094339856887190,0.2619375,-6.875E-4,-0.1617
1679914351505,1094339859389652,0.2679875,-0.0077,-0.1667875
1679914351506,1094339861892339,0.2699125,-0.01265,-0.1667875
1679914351509,1094339864394570,0.2699125,-0.0187,-0.1698125
1679914351511,1094339866897031,0.2619375,-0.02365,-0.17173749
1679914351513,1094339869399493,0.2519,-0.0297,-0.1727
1679914351516,1094339871901935,0.242,-0.034649998,-0.1766875
1679914351518,1094339874404320,0.2259125,-0.0367125,-0.1747625
1679914351522,1094339876906859,0.2039125,-0.0416625,-0.1747625
1679914351523,1094339879409320,0.1819125,-0.0446875,-0.1766875
1679914351526,1094339881911772,0.154,-0.0466125,-0.17379999
1679914351528,1094339884414233,0.12595,-0.0587125,-0.1687125
1679914351531,1094339886916695,0.0999625,-0.0666875,-0.164725
1679914351533,1094339889419079,0.0669625,-0.0776875,-0.15675
1679914351538,1094339891921614,0.0358875,-0.086625,-0.148775
1679914351539,1094339894424075,0.001925,-0.1076625,-0.1417625
1679914351541,1094339896926537,-0.036025,-0.1236125,-0.1357125
1679914351545,1094339899428998,-0.0730125,-0.1287,-0.12979999
1679914351546,1094339901931431,-0.1111,-0.130625,-0.1216875
1679914351549,1094339904433816,-0.1450625,-0.1296625,-0.1188
1679914351551,1094339906936354,-0.1799875,-0.130625,-0.1137125
1679914351554,1094339909438816,-0.2129875,-0.1276,-0.1078
1679914351556,1094339911941272,-0.242,-0.1287,-0.1027125
1679914351560,1094339914443657,-0.2660625,-0.1326875,-0.0968
1679914351561,1094339916946118,-0.2899875,-0.13365,-0.0968
1679914351564,1094339919448580,-0.308,-0.136675,-0.098725
1679914351566,1094339921951046,-0.3260125,-0.1346125,-0.0917125
1679914351569,1094339924453508,-0.3370125,-0.1296625,-0.0917125
1679914351571,1094339926955970,-0.3491125,-0.119625,-0.0928125
1679914351573,1094339929458431,-0.3601125,-0.115637496,-0.09075
1679914351576,1094339931960676,-0.3641,-0.108625,-0.093775
1679914351578,1094339934463368,-0.3700125,-0.0985875,-0.095699996
1679914351581,1094339936965830,-0.3779875,-0.0917125,-0.093775
1679914351583,1094339939468291,-0.38005,-0.0807125,-0.093775
1679914351587,1094339941970734,-0.3861,-0.075625,-0.095699996
1679914351589,1094339944472965,-0.383075,-0.0666875,-0.0968
1679914351591,1094339946975426,-0.3840375,-0.0655875,-0.0947375
1679914351593,1094339949478118,-0.3840375,-0.0627,-0.093775
1679914351598,1094339951980575,-0.3760625,-0.0576125,-0.093775
1679914351599,1094339954483036,-0.36905,-0.0545875,-0.0928125
1679914351601,1094339956985267,-0.3559875,-0.0526625,-0.09075
1679914351605,1094339959487729,-0.33605,-0.0517,-0.0858
1679914351606,1094339961990190,-0.3180375,-0.0435875,-0.07975
1679914351608,1094339964492888,-0.2941125,-0.042625,-0.07975
1679914351611,1094339966995349,-0.267025,-0.037675,-0.0757625
1679914351613,1094339969497580,-0.2391125,-0.034649998,-0.073699996
1679914351616,1094339972000042,-0.2080375,-0.0407,-0.0727375
1679914351618,1094339974502493,-0.1731125,-0.048675,-0.0697125
1679914351622,1094339977004955,-0.1401125,-0.0576125,-0.0748
1679914351623,1094339979507416,-0.1029875,-0.06765,-0.0776875
1679914351626,1094339982009878,-0.0650375,-0.086625,-0.082775
1679914351629,1094339984512330,-0.0259875,-0.1067,-0.0886875
1679914351631,1094339987014792,0.0070125,-0.1326875,-0.0917125
1679914351635,1094339989517176,0.0449625,-0.1436875,-0.095699996
1679914351636,1094339992019638,0.0840125,-0.147675,-0.0996875
1679914351638,1094339994522176,0.1189375,-0.1496,-0.1067
1679914351641,1094339997024604,0.154,-0.1486375,-0.11275
1679914351643,1094339999526989,0.1830125,-0.1376375,-0.120725
1679914351646,1094340002029450,0.2160125,-0.1287,-0.1258125
1679914351649,1094340004531912,0.2448875,-0.119625,-0.1357125
1679914351651,1094340007034358,0.27101249,-0.11165,-0.142725
1679914351655,1094340009536820,0.2930125,-0.104637496,-0.14973749
1679914351656,1094340012039281,0.315975,-0.1016125,-0.1546875
1679914351659,1094340014541743,0.32999998,-0.097625,-0.1588125
1679914351661,1094340017044219,0.342925,-0.0946,-0.16775
1679914351664,1094340019546681,0.35694999,-0.0856625,-0.17379999
1679914351666,1094340022048912,0.363,-0.0765875,-0.1747625
1679914351671,1094340024551604,0.3658875,-0.064625,-0.175725
1679914351672,1094340027054056,0.374,-0.0576125,-0.17379999
1679914351673,1094340029556517,0.3779875,-0.0506,-0.17173749
1679914351676,1094340032058979,0.3779875,-0.0336875,-0.16775
1679914351679,1094340034561440,0.374,-0.026675,-0.1628
1679914351681,1094340037063902,0.3729,-0.013612499,-0.1577125
1679914351683,1094340039566392,0.370975,-0.01265,-0.14973749
1679914351689,1094340042068854,0.364925,-0.014712499,-0.142725
1679914351689,1094340044571315,0.3548875,-0.014712499,-0.13475
1679914351691,1094340047073546,0.348975,-0.02365,-0.120725
1679914351694,1094340049575984,0.3389375,-0.0325875,-0.1106875
1679914351696,1094340052078676,0.3260125,-0.0477125,-0.095699996
1679914351699,1094340054581138,0.315975,-0.0655875,-0.0847
1679914351701,1094340057083368,0.30195,-0.0836,-0.071775
1679914351705,1094340059585811,0.2869625,-0.095699996,-0.0556875
1679914351706,1094340062088272,0.2729375,-0.108625,-0.0418
1679914351711,1094340064590734,0.2600125,-0.1186625,-0.0268125
1679914351712,1094340067093196,0.249975,-0.1315875,-0.0116875
1679914351714,1094340069595666,0.22893749,-0.1406625,2.75E-4
1679914351716,1094340072098128,0.2099625,-0.1425875,0.011275
1679914351721,1094340074600589,0.194975,-0.1406625,0.0213125
1679914351722,1094340077102974,0.177925,-0.141625,0.0281875
1679914351723,1094340079605435,0.15895,-0.147675,0.03025
1679914351726,1094340082107955,0.1419,-0.1467125,0.033275
1679914351729,1094340084610416,0.122925,-0.1436875,0.0312125
1679914351731,1094340087112801,0.1049125,-0.1376375,0.0292875
1679914351733,1094340089615263,0.0859375,-0.125675,0.0253
1679914351737,1094340092117719,0.0688875,-0.1205875,0.0253
1679914351739,1094340094620181,0.0510125,-0.1186625,0.0202125
1679914351741,1094340097122719,0.0358875,-0.1095875,0.0122375
1679914351743,1094340099625104,0.022,-0.11165,0.0042625
1679914351748,1094340102127536,-0.0,-0.108625,-0.0037125
1679914351749,1094340104629998,-0.013062499,-0.1027125,-0.0088
1679914351751,1094340107132459,-0.0259875,-0.0966625,-0.0177375
1679914351754,1094340109634921,-0.0411125,-0.086625,-0.021724999
1679914351756,1094340112137382,-0.0479875,-0.07865,-0.0226875
1679914351759,1094340114639854,-0.0589875,-0.06765,-0.0187
1679914351761,1094340117142315,-0.0671,-0.0526625,-0.016775
1679914351764,1094340119644777,-0.0741125,-0.0416625,-0.01375
1679914351766,1094340122147239,-0.077,-0.0297,-0.0077
1679914351769,1094340124649469,-0.0840125,-0.0196625,-0.0037125
1679914351771,1094340127152187,-0.0851125,-0.0086624995,0.0022
1679914351774,1094340129654648,-0.087037496,0.001375,0.0061875
1679914351776,1094340132156879,-0.086075,-6.875E-4,0.0122375
1679914351779,1094340134659341,-0.088,-0.004675,0.0213125
1679914351781,1094340137161801,-0.086075,-0.014712499,0.0213125
1679914351785,1094340139664493,-0.0790625,-0.0286,0.022275
1679914351786,1094340142166724,-0.07205,-0.053625,0.0253
1679914351790,1094340144669186,-0.061049998,-0.08965,0.0262625
1679914351791,1094340147171647,-0.0460625,-0.1216875,0.0292875
1679914351794,1094340149674105,-0.031075,-0.1606,0.027224999
1679914351796,1094340152176566,-0.014025,-0.1975875,0.027224999
1679914351799,1094340154679028,0.0028875,-0.2286625,0.022275
1679914351801,1094340157181489,0.022,-0.25959998,0.0213125
1679914351804,1094340159683975,0.0369875,-0.295625,0.0202125
1679914351806,1094340162186437,0.0539,-0.3196875,0.0182875
1679914351809,1094340164688821,0.0730125,-0.345675,0.015262499
1679914351811,1094340167191283,0.0908875,-0.3686375,0.0143
1679914351815,1094340169693840,0.1079375,-0.3916,0.0092124995
1679914351816,1094340172196302,0.1249875,-0.4126375,0.0072875
1679914351821,1094340174698763,0.1390125,-0.4296875,0.0033
1679914351823,1094340177201148,0.1549625,-0.444675,2.75E-4
1679914351824,1094340179703604,0.1720125,-0.4587,-0.00275
1679914351827,1094340182206066,0.1830125,-0.4587,-0.0067375
1679914351829,1094340184708604,0.194975,-0.449625,-0.010725
1679914351831,1094340187211066,0.2079,-0.4327125,-0.0097624995
1679914351833,1094340189713451,0.221925,-0.4147,-0.01375
1679914351838,1094340192215912,0.2338875,-0.3936625,-0.01375
1679914351839,1094340194718374,0.2490125,-0.3826625,-0.0158125
1679914351841,1094340197220835,0.260975,-0.37867498,-0.0198
1679914351844,1094340199723316,0.276925,-0.3806,-0.0187
1679914351846,1094340202225777,0.29095,-0.3887125,-0.0177375
1679914351849,1094340204728239,0.3069,-0.39765,-0.0198
1679914351851,1094340207230700,0.3249125,-0.416625,-0.0177375
1679914351854,1094340209732931,0.3399,-0.43559998,-0.0116875
1679914351857,1094340212235393,0.35901248,-0.4505875,-0.0067375
1679914351862,1094340214738085,0.385,-0.46365,-0.00275
1679914351862,1094340217240547,0.4079625,-0.471625,0.005225
1679914351864,1094340219742796,0.4279,-0.4676375,0.0122375
1679914351867,1094340222245258,0.452925,-0.4596625,0.016224999
1679914351871,1094340224747719,0.474925,-0.4426125,0.022275
1679914351871,1094340227250412,0.49995,-0.416625,0.0292875
1679914351874,1094340229752643,0.5209875,-0.383625,0.033275
1679914351876,1094340232255109,0.5399625,-0.3487,0.0372625
1679914351880,1094340234757571,0.557975,-0.3036,0.0372625
1679914351881,1094340237260032,0.573925,-0.2646875,0.0363
1679914351884,1094340239762494,0.590975,-0.224675,0.0391875
1679914351887,1094340242265201,0.6029375,-0.1865875,0.0402875
1679914351889,1094340244767432,0.6169625,-0.1606,0.0352
1679914351891,1094340247269893,0.6249375,-0.146575,0.0281875
1679914351894,1094340249772355,0.627,-0.1496,0.0253
1679914351898,1094340252274820,0.6329125,-0.1546875,0.01925
1679914351899,1094340254777282,0.6329125,-0.168575,0.0122375
1679914351901,1094340257279744,0.623975,-0.185625,0.0061875
1679914351904,1094340259782205,0.612975,-0.2066625,0.0012375
1679914351906,1094340262284667,0.6039,-0.23265,-0.0017875
1679914351910,1094340264787114,0.5929,-0.262625,-0.00275
1679914351912,1094340267289499,0.5839625,-0.3026375,-0.0037125
1679914351914,1094340269791960,0.579975,-0.3515875,-0.0017875
1679914351916,1094340272294499,0.573925,-0.405625,-0.0017875
1679914351921,1094340274796960,0.5709,-0.4477,2.75E-4
1679914351922,1094340277299354,0.5748875,-0.48565,0.005225
1679914351924,1094340279801816,0.579975,-0.5006375,0.005225
1679914351926,1094340282304277,0.5809375,-0.5066875,0.0092124995
1679914351929,1094340284806739,0.5889125,-0.49568748,0.0122375
1679914351931,1094340287309200,0.5999125,-0.4736875,0.0182875
1679914351935,1094340289811662,0.6149,-0.4426125,0.0182875
1679914351938,1094340292314123,0.6249375,-0.3966875,0.01925
1679914351940,1094340294816354,0.6369,-0.34759998,0.016224999
1679914351941,1094340297318816,0.6549125,-0.278575,0.0132
1679914351944,1094340299821277,0.672925,-0.19965,0.00825
1679914351946,1094340302323969,0.68488747,-0.114675,0.0061875
1679914351950,1094340304826431,0.69795,-0.0056375,-0.0017875
1679914351951,1094340307328677,0.7099125,0.1324125,-0.0088
1679914351955,1094340309831138,0.7178875,0.221375,-0.016775
1679914351956,1094340312333600,0.7269625,0.2773375,-0.0297
1679914351960,1094340314836061,0.7379625,0.31735,-0.043725
1679914351961,1094340317338754,0.7508875,0.347325,-0.060775
1679914351964,1094340319840974,0.77,0.3634125,-0.0757625
1679914351967,1094340322343436,0.79695,0.3653375,-0.087725
1679914351969,1094340324845898,0.825,0.359425,-0.0996875
1679914351975,1094340327348359,0.8449375,0.358325,-0.1087625
1679914351975,1094340329851042,0.865975,0.35433748,-0.1188
1679914351976,1094340332353504,0.8889375,0.3463625,-0.12375
1679914351980,1094340334855735,0.909975,0.3344,-0.12773749
1679914351982,1094340337358196,0.936925,0.3194125,-0.1326875
1679914351984,1094340339860653,0.968,0.2943875,-0.137775
1679914351987,1094340342363037,0.9959125,0.265375,-0.1397
1679914351990,1094340344865576,1.0218999,0.2424125,-0.14575
1679914351991,1094340347368037,1.0520124,0.2233,-0.1518
1679914351994,1094340349870504,1.0869375,0.1953875,-0.1607375
1679914351996,1094340352372889,1.1209,0.1544125,-0.17173749
1679914351999,1094340354875350,1.162975,0.1243,-0.181775
1679914352001,1094340357377812,1.20395,0.1023,-0.1887875
1679914352004,1094340359880326,1.2500125,0.094325,-0.197725
1679914352007,1094340362382711,1.299925,0.0933625,-0.2068
1679914352011,1094340364885172,1.3490125,0.08635,-0.21175
1679914352011,1094340367387634,1.4040124,0.0823625,-0.219725
1679914352014,1094340369890095,1.4609375,0.0823625,-0.2248125
1679914352016,1094340372392316,1.5140125,0.0853875,-0.2316875
1679914352020,1094340374895008,1.569975,0.1144,-0.23773749
1679914352023,1094340377397470,1.624975,0.14739999,-0.2437875
1679914352024,1094340379899932,1.679975,0.193325,-0.2497
1679914352026,1094340382402364,1.7329125,0.243375,-0.2487375
1679914352030,1094340384904595,1.7879125,0.287375,-0.25575
1679914352032,1094340387407056,1.8419499,0.3344,-0.2627625
1679914352034,1094340389909749,1.903,0.3793625,-0.26675
1679914352038,1094340392412224,1.9608874,0.425425,-0.269775
1679914352039,1094340394914686,2.01795,0.4723125,-0.269775
1679914352042,1094340397416917,2.0769374,0.5163125,-0.2627625
1679914352045,1094340399919378,2.1300125,0.54835,-0.258775
1679914352048,1094340402421850,2.18295,0.578325,-0.2487375
1679914352049,1094340404924542,2.234925,0.5984,-0.2398
1679914352051,1094340407427004,2.2798874,0.6083,-0.2248125
1679914352054,1094340409929234,2.324025,0.611325,-0.2127125
1679914352056,1094340412431696,2.3639,0.6094,-0.2017125
1679914352059,1094340414934152,2.4008875,0.5963375,-0.1907125
1679914352062,1094340417436614,2.4270124,0.58341247,-0.1827375
1679914352064,1094340419939076,2.4569874,0.5583875,-0.17875
1679914352066,1094340422441537,2.482975,0.5284125,-0.1747625
1679914352071,1094340424944028,2.5089624,0.4983,-0.17379999
1679914352071,1094340427446489,2.537975,0.4593875,-0.17379999
1679914352074,1094340429948874,2.5689125,0.41635,-0.1766875
1679914352077,1094340432451412,2.5969625,0.38541248,-0.186725
1679914352080,1094340434953879,2.6250124,0.3553,-0.19373749
1679914352081,1094340437456340,2.65595,0.3304125,-0.2047375
1679914352086,1094340439958725,2.685925,0.309375,-0.2187625
1679914352087,1094340442461187,2.720025,0.2963125,-0.2267375
1679914352089,1094340444963648,2.7509625,0.2904,-0.2387
1679914352092,1094340447466192,2.7819,0.276375,-0.2508
1679914352094,1094340449968576,2.816,0.2563,-0.2578125
1679914352096,1094340452471038,2.85395,0.2343,-0.2677125
1679914352099,1094340454973499,2.8969874,0.2123,-0.274725
1679914352102,1094340457475965,2.9359,0.18933749,-0.2817375
1679914352105,1094340459978196,2.97495,0.1703625,-0.2866875
1679914352106,1094340462480888,3.00795,0.1533125,-0.2877875
1679914352111,1094340464983349,3.0449374,0.144375,-0.2866875
1679914352112,1094340467485786,3.0760124,0.14739999,-0.2817375
1679914352114,1094340469988017,3.1059875,0.14739999,-0.2827
1679914352116,1094340472490709,3.1329374,0.155375,-0.280775
1679914352123,1094340474992940,3.1530125,0.16733749,-0.2756875
1679914352123,1094340477495618,3.18395,0.177375,-0.2717
1679914352124,1094340479998080,3.2099376,0.1863125,-0.2688125
1679914352127,1094340482500541,3.2329,0.1923625,-0.2607
1679914352129,1094340485003003,3.257925,0.1973125,-0.2567125
1679914352132,1094340487505234,3.2839124,0.205425,-0.252725
1679914352134,1094340490007695,3.3089375,0.2134,-0.2437875
1679914352138,1094340492510387,3.333,0.2094125,-0.23773749
1679914352139,1094340495012849,3.3539,0.1903,-0.2347125
1679914352141,1094340497515080,3.38195,0.177375,-0.2297625
1679914352144,1094340500017536,3.4089,0.1573,-0.2206875
1679914352147,1094340502519998,3.4359875,0.1364,-0.2127125
1679914352150,1094340505022382,3.4549625,0.117425,-0.2096875
1679914352151,1094340507524921,3.4788876,0.09735,-0.2028125
1679914352154,1094340510027368,3.50295,0.072325,-0.1986875
1679914352156,1094340512529830,3.5209625,0.0493625,-0.1958
1679914352161,1094340515032215,3.5399375,0.0353375,-0.1918125
1679914352162,1094340517534676,3.5589125,0.0224125,-0.1848
1679914352164,1094340520037138,3.5710125,0.0143,-0.1837
1679914352167,1094340522539680,3.5809126,0.0083875,-0.1797125
1679914352170,1094340525042065,3.586,0.0053625,-0.181775
1679914352171,1094340527544526,3.59095,0.0133375,-0.181775
1679914352174,1094340530046988,3.5888875,0.02035,-0.1797125
1679914352176,1094340532549478,3.5869625,0.0303875,-0.1827375
1679914352180,1094340535052017,3.5839374,0.040425,-0.1837
1679914352181,1094340537554401,3.5849,0.0493625,-0.186725
1679914352184,1094340540056863,3.5820124,0.051425,-0.186725
1679914352188,1094340542559344,3.57995,0.05335,-0.1876875
1679914352190,1094340545061805,3.576925,0.0473,-0.1848
1679914352192,1094340547564036,3.5729375,0.03135,-0.1876875
1679914352194,1094340550066728,3.567025,0.0243375,-0.1887875
1679914352198,1094340552569190,3.5619376,0.0243375,-0.1848
1679914352200,1094340555071651,3.5509374,0.0224125,-0.1827375
1679914352201,1094340557574113,3.5429626,0.0253,-0.1777875
1679914352204,1094340560076344,3.532925,0.006325,-0.16775
1679914352207,1094340562578805,3.5239875,-0.004675,-0.1607375
1679914352210,1094340565081478,3.5160124,-0.0166375,-0.1518
1679914352212,1094340567583940,3.5139499,-0.0325875,-0.142725
1679914352214,1094340570086171,3.5079,-0.0466125,-0.1326875
1679914352216,1094340572588632,3.499925,-0.058575,-0.1227875
1679914352221,1094340575091089,3.49195,-0.064625,-0.115775
1679914352222,1094340577593550,3.4830124,-0.075625,-0.1117875
1679914352224,1094340580096243,3.4720125,-0.0826375,-0.1067
1679914352226,1094340582598474,3.4579875,-0.091575,-0.0996875
1679914352230,1094340585100930,3.4419,-0.0985875,-0.0947375
1679914352232,1094340587603392,3.4219625,-0.0985875,-0.0917125
1679914352236,1094340590105853,3.402025,-0.091575,-0.0886875
1679914352236,1094340592608238,3.378925,-0.0847,-0.0867625
1679914352240,1094340595110757,3.355,-0.0666875,-0.0858
1679914352242,1094340597613219,3.3290124,-0.0466125,-0.0837375
1679914352245,1094340600115680,3.3089375,-0.015675,-0.0776875
1679914352247,1094340602618065,3.2949126,0.0114124995,-0.073699996
1679914352249,1094340605120527,3.274975,0.0334125,-0.0697125
1679914352252,1094340607622998,3.259025,0.0463375,-0.0638
1679914352254,1094340610125460,3.2469249,0.0543125,-0.05775
1679914352257,1094340612627921,3.234,0.062425,-0.0446875
1679914352260,1094340615130383,3.213925,0.0653125,-0.032725
1679914352262,1094340617632844,3.1959126,0.0554125,-0.0198
1679914352264,1094340620135306,3.1750126,0.0554125,-0.0088
1679914352267,1094340622637767,3.1559,0.056375,0.0012375
1679914352272,1094340625140229,3.1268876,0.0554125,0.0122375
1679914352273,1094340627642675,3.0980124,0.0554125,0.022275
1679914352274,1094340630145137,3.07395,0.0543125,0.0292875
1679914352276,1094340632647598,3.0449374,0.0554125,0.038225
1679914352280,1094340635149829,3.0119374,0.056375,0.041249998
1679914352282,1094340637652522,2.9770124,0.0554125,0.044275
1679914352285,1094340640154988,2.95295,0.056375,0.044275
1679914352287,1094340642657450,2.9178874,0.051425,0.0482625
1679914352289,1094340645159911,2.88695,0.0413875,0.0473
1679914352292,1094340647662142,2.8549125,0.0323125,0.044275
1679914352295,1094340650164618,2.8199875,0.02035,0.0433125
1679914352297,1094340652667310,2.7919376,0.0103124995,0.0422125
1679914352300,1094340655169771,2.7559125,-0.004675,0.0391875
1679914352302,1094340657672002,2.718925,-0.0166375,0.0363
1679914352305,1094340660174488,2.6819375,-0.0276375,0.0352
1679914352307,1094340662676949,2.643025,-0.0246125,0.0281875
1679914352312,1094340665179411,2.6030126,-0.0116875,0.0253
1679914352313,1094340667681872,2.5658875,0.0023375,0.022275
1679914352314,1094340670184344,2.5359125,0.0273625,0.01925
1679914352317,1094340672686805,2.5059376,0.0413875,0.0122375
1679914352321,1094340675189267,2.4869626,0.0603625,0.0092124995
1679914352322,1094340677691652,2.4649625,0.0653125,0.00825
1679914352324,1094340680194113,2.445025,0.0763125,0.0072875
1679914352327,1094340682696681,2.431,0.0743875,0.00825
1679914352330,1094340685199142,2.41395,0.073425,0.0072875
1679914352332,1094340687701527,2.40295,0.069299996,0.0042625
1679914352334,1094340690203988,2.3929124,0.0704,0.0022
1679914352337,1094340692706440,2.3819125,0.072325,-0.0017875
1679914352340,1094340695208901,2.36995,0.067375,2.75E-4
1679914352342,1094340697711363,2.3599124,0.073425,-6.875E-4
1679914352344,1094340700213825,2.344925,0.0704,-0.0048125
1679914352349,1094340702716252,2.3329625,0.0704,-0.0067375
1679914352350,1094340705218714,2.3189375,0.0664125,-0.0067375
1679914352352,1094340707721175,2.3060124,0.056375,-0.0077
1679914352355,1094340710223406,2.289925,0.051425,-0.0097624995
1679914352357,1094340712726098,2.278925,0.0493625,-0.010725
1679914352360,1094340715228546,2.27095,0.0473,-0.0088
1679914352362,1094340717731007,2.2559624,0.0433125,-0.01375
1679914352364,1094340720233238,2.2429,0.0363,-0.0088
1679914352367,1094340722735700,2.2309375,0.0303875,-0.0077
1679914352370,1094340725238406,2.21595,0.02035,-0.0037125
1679914352372,1094340727740867,2.2009625,0.012375,-0.0017875
1679914352374,1094340730243329,2.1850126,0.012375,-0.00275
1679914352377,1094340732745560,2.1649375,0.012375,0.0042625
1679914352380,1094340735248041,2.1459625,0.0143,0.0103124995
1679914352382,1094340737750503,2.1239624,0.0154,0.0122375
1679914352386,1094340740253195,2.101,0.0303875,0.01925
1679914352388,1094340742755657,2.0750124,0.0473,0.0262625
1679914352390,1094340745257883,2.0439374,0.067375,0.0352
1679914352392,1094340747760344,2.014925,0.0853875,0.0433125
1679914352395,1094340750262806,1.9870125,0.0963875,0.0473
1679914352397,1094340752765267,1.9569,0.105325,0.055275
1679914352399,1094340755267729,1.9309125,0.1123375,0.0592625
1679914352401,1094340757770185,1.9039625,0.1123375,0.0642125
1679914352404,1094340760272647,1.881,0.106425,0.071225
1679914352407,1094340762775108,1.8579,0.0933625,0.0782375
1679914352409,1094340765277493,1.8379625,0.078375,0.0812625
1679914352412,1094340767779960,1.811975,0.061325,0.0842875
1679914352415,1094340770282498,1.7919,0.0463375,0.0862125
1679914352417,1094340772784883,1.774025,0.0374,0.089237496
1679914352421,1094340775287344,1.749,0.029424999,0.089237496
1679914352424,1094340777789811,1.728925,0.0224125,0.0862125
1679914352424,1094340780292272,1.7120125,0.0154,0.0862125
1679914352427,1094340782794503,1.694,0.0053625,0.0812625
1679914352431,1094340785297195,1.679975,-0.004675,0.0782375
1679914352432,1094340787799657,1.668975,-0.0077,0.0752125
1679914352434,1094340790302118,1.6559125,-0.0116875,0.0702625
1679914352438,1094340792804580,1.653025,-0.0176,0.0653125
1679914352440,1094340795306811,1.6539875,-0.02365,0.060225
1679914352442,1094340797809272,1.653025,-0.025575,0.0532125
1679914352445,1094340800311969,1.65495,-0.0286,0.0473
1679914352447,1094340802814430,1.662925,-0.0336875,0.0433125
1679914352449,1094340805316892,1.6669124,-0.0336875,0.0402875
1679914352452,1094340807819122,1.664025,-0.0286,0.0363
1679914352454,1094340810321609,1.668975,-0.0196625,0.0352
1679914352457,1094340812824071,1.6699375,-0.0166375,0.0281875
1679914352462,1094340815326763,1.668975,-0.0077,0.0182875
1679914352462,1094340817829224,1.664025,-0.0056375,0.0092124995
1679914352464,1094340820331441,1.6559125,4.125E-4,0.005225
1679914352467,1094340822833903,1.651925,0.006325,0.0022
1679914352470,1094340825336364,1.6350125,0.0143,-0.005775
1679914352472,1094340827839057,1.6179625,0.0253,-0.0088
1679914352474,1094340830341273,1.6009125,0.0484,-0.0116875
1679914352477,1094340832843735,1.5829,0.072325,-0.0177375
1679914352480,1094340835346196,1.5690125,0.09735,-0.027775
1679914352482,1094340837848658,1.5549875,0.1144,-0.03575
1679914352485,1094340840351038,1.54,0.1373625,-0.0427625
1679914352487,1094340842853576,1.5279,0.1513875,-0.0488125
1679914352489,1094340845356038,1.5140125,0.1563375,-0.0517
1679914352492,1094340847858499,1.5109875,0.1573,-0.0537625
1679914352495,1094340850360864,1.503975,0.155375,-0.049775
1679914352499,1094340852863325,1.4988875,0.144375,-0.04675
1679914352500,1094340855365787,1.4889874,0.1343375,-0.0446875
1679914352502,1094340857868325,1.4859625,0.128425,-0.0397375
1679914352505,1094340860370730,1.4839,0.111375,-0.0407
1679914352507,1094340862873192,1.47895,0.0963875,-0.0367125
1679914352510,1094340865375653,1.4729,0.0814,-0.0336875
1679914352512,1094340867878115,1.4669875,0.06435,-0.0308
1679914352514,1094340870380378,1.459975,0.0473,-0.027775
1679914352517,1094340872883071,1.4499375,0.028324999,-0.0226875
1679914352521,1094340875385532,1.4389375,0.0143,-0.0177375
1679914352522,1094340877887994,1.4279375,0.001375,-0.0127875
1679914352524,1094340880390225,1.411025,-0.0086624995,-0.0097624995
1679914352527,1094340882892686,1.3899875,-0.0176,-0.005775
1679914352530,1094340885395148,1.3759625,-0.0246125,-0.0037125
1679914352532,1094340887897840,1.3539625,-0.0356125,-6.875E-4
1679914352537,1094340890400071,1.3369125,-0.0435875,-0.00275
1679914352538,1094340892902532,1.3189,-0.0517,-0.0017875
1679914352540,1094340895404994,1.3019875,-0.0606375,2.75E-4
1679914352542,1094340897907455,1.2940125,-0.070675,-6.875E-4
1679914352544,1094340900409917,1.2830125,-0.0765875,-6.875E-4
1679914352547,1094340902912359,1.2689875,-0.0836,0.0033
1679914352550,1094340905414821,1.261975,-0.086625,0.005225
1679914352552,1094340907917283,1.2549624,-0.081675,0.011275
1679914352555,1094340910419744,1.2519375,-0.075625,0.0132
1679914352557,1094340912922134,1.250975,-0.0636625,0.0213125
1679914352560,1094340915424672,1.2469875,-0.0545875,0.0232375
1679914352562,1094340917927134,1.2439625,-0.031625,0.0253
1679914352564,1094340920429595,1.2309,-0.0105875,0.0292875
1679914352567,1094340922932076,1.222925,0.0154,0.0323125
1679914352571,1094340925434537,1.2170125,0.0413875,0.0323125
1679914352574,1094340927936922,1.2079375,0.0704,0.0323125
1679914352575,1094340930439460,1.2060125,0.09735,0.0323125
1679914352577,1094340932941917,1.199,0.11935,0.0292875
1679914352580,1094340935444302,1.19295,0.14135,0.0253
1679914352582,1094340937946763,1.188,0.155375,0.01925
1679914352585,1094340940449225,1.1829125,0.161425,0.0122375
1679914352587,1094340942951681,1.1779625,0.161425,0.00825
1679914352590,1094340945454143,1.177,0.16733749,0.00825
1679914352592,1094340947956604,1.1699874,0.1703625,0.0072875
1679914352594,1094340950459066,1.166,0.1694,0.0042625
1679914352597,1094340952961527,1.1620125,0.1733875,0.00825
1679914352600,1094340955463758,1.1609125,0.1793,0.0092124995
1679914352602,1094340957966220,1.15995,0.1843875,0.0122375
1679914352605,1094340960468912,1.1510125,0.183425,0.0132
1679914352607,1094340962971394,1.145925,0.188375,0.0122375
1679914352611,1094340965473624,1.1419375,0.193325,0.0132
1679914352612,1094340967976086,1.133,0.193325,0.0143
1679914352615,1094340970478547,1.1180125,0.1984125,0.0103124995
1679914352617,1094340972981004,1.10495,0.205425,0.015262499
1679914352620,1094340975483466,1.090925,0.2143625,0.015262499
1679914352622,1094340977985927,1.0709875,0.2134,0.0143
1679914352624,1094340980488389,1.0529749,0.2143625,0.0103124995
1679914352627,1094340982990859,1.0300125,0.2143625,0.0092124995
1679914352630,1094340985493321,0.9999,0.2123,0.00825
1679914352632,1094340987995705,0.979,0.210375,-6.875E-4
1679914352634,1094340990498244,0.9499875,0.2033625,-0.0037125
1679914352637,1094340993000628,0.9158875,0.2013,-0.0037125
1679914352640,1094340995503167,0.88,0.2013,-0.0088
1679914352642,1094340998005628,0.8459,0.1973125,-0.0116875
1679914352644,1094341000508090,0.8069875,0.193325,-0.016775
1679914352649,1094341003010471,0.766975,0.1793,-0.016775
1679914352650,1094341005512932,0.73095,0.1623875,-0.0187
1679914352652,1094341008015394,0.68901247,0.1373625,-0.0177375
1679914352655,1094341010517932,0.6529875,0.1123375,-0.0187
1679914352657,1094341013020317,0.6169625,0.08635,-0.0207625
1679914352660,1094341015522778,0.5809375,0.06435,-0.0177375
1679914352662,1094341018025240,0.55,0.0363,-0.0198
1679914352665,1094341020527701,0.52195,0.0133375,-0.0187
1679914352667,1094341023029932,0.4989875,-0.00165,-0.0226875
1679914352671,1094341025532610,0.4758875,-0.01265,-0.0226875
1679914352672,1094341028035071,0.4569125,-0.025575,-0.0226875
1679914352674,1094341030537533,0.441925,-0.034649998,-0.0237875
1679914352677,1094341033039994,0.4239125,-0.0407,-0.021724999
1679914352680,1094341035542225,0.4098875,-0.0435875,-0.021724999
1679914352682,1094341038044893,0.3939375,-0.0435875,-0.02475
1679914352688,1094341040547355,0.374,-0.0356125,-0.0257125
1679914352688,1094341043049816,0.3619,-0.0325875,-0.027775
1679914352690,1094341045552047,0.342925,-0.031625,-0.032725
1679914352692,1094341048054504,0.320925,-0.0286,-0.032725
1679914352694,1094341050556965,0.2998875,-0.0187,-0.0336875
1679914352697,1094341053059657,0.276925,-0.0086624995,-0.032725
1679914352700,1094341055561888,0.24695,0.001375,-0.0336875
1679914352702,1094341058064350,0.2179375,0.0114124995,-0.0336875
1679914352705,1094341060566811,0.188925,0.0253,-0.0308
1679914352708,1094341063069273,0.155925,0.0374,-0.02475
1679914352711,1094341065571658,0.121,0.0493625,-0.021724999
1679914352712,1094341068074172,0.078925,0.0633875,-0.0198
1679914352715,1094341070576634,0.0389125,0.069299996,-0.016775
1679914352717,1094341073079095,-0.00605,0.0823625,-0.01375
1679914352720,1094341075581480,-0.0600875,0.095425,-0.0116875
1679914352724,1094341078083936,-0.122099996,0.1034,-0.0077
1679914352725,1094341080586398,-0.1810875,0.113299996,-0.0067375
1679914352727,1094341083088936,-0.2459875,0.1214125,-0.005775
1679914352730,1094341085591398,-0.311025,0.1313125,-0.00275
1679914352732,1094341088093782,-0.3821125,0.14135,2.75E-4
1679914352735,1094341090596239,-0.4580125,0.15235,0.0033
1679914352738,1094341093098701,-0.5291,0.161425,0.0012375
1679914352740,1094341095601162,-0.6021125,0.1783375,0.0022
1679914352742,1094341098103624,-0.680075,0.1953875,0.0022
1679914352744,1094341100606076,-0.7530875,0.210375,-6.875E-4
1679914352747,1094341103108538,-0.8270625,0.232375,-0.0048125
1679914352751,1094341105610999,-0.898975,0.249425,-0.0088
1679914352752,1094341108113461,-0.9700625,0.2633125,-0.0116875
1679914352755,1094341110615706,-1.0390875,0.282425,-0.0177375
1679914352757,1094341113118398,-1.111,0.29535,-0.0237875
1679914352761,1094341115620859,-1.1781,0.31033748,-0.027775
1679914352762,1094341118123321,-1.2441,0.326425,-0.0297
1679914352764,1094341120625567,-1.3110625,0.3403125,-0.032725
1679914352767,1094341123128028,-1.3800875,0.3553,-0.0367125
1679914352771,1094341125630490,-1.44705,0.3663,-0.038775
1679914352773,1094341128133182,-1.510025,0.3773,-0.0446875
1679914352775,1094341130635624,-1.5741,0.3843125,-0.0488125
1679914352777,1094341133137854,-1.6350125,0.38541248,-0.0528
1679914352780,1094341135640316,-1.6979874,0.3793625,-0.05775
1679914352782,1094341138142778,-1.7610999,0.3674,-0.0638
1679914352784,1094341140645249,-1.8161,0.3553,-0.0697125
1679914352788,1094341143147711,-1.8720624,0.342375,-0.0727375
1679914352790,1094341145650172,-1.9210125,0.320375,-0.0787875
1679914352792,1094341148152634,-1.969,0.2943875,-0.0837375
1679914352795,1094341150655023,-2.0150626,0.2644125,-0.09075
1679914352799,1094341153157485,-2.057,0.23539999,-0.0968
1679914352800,1094341155660023,-2.0950875,0.204325,-0.1027125
1679914352802,1094341158162485,-2.130975,0.1703625,-0.109725
1679914352805,1094341160664889,-2.1630125,0.1313125,-0.1188
1679914352807,1094341163167350,-2.1990376,0.094325,-0.1287
1679914352810,1094341165669812,-2.2259874,0.0603625,-0.1387375
1679914352812,1094341168172273,-2.2521124,0.0253,-0.14973749
1679914352815,1094341170674812,-2.2760375,-0.0086624995,-0.1628
1679914352817,1094341173177191,-2.3001,-0.0407,-0.1777875
1679914352819,1094341175679653,-2.3221,-0.0627,-0.192775
1679914352822,1094341178182114,-2.3420374,-0.0776875,-0.2057
1679914352825,1094341180684345,-2.363075,-0.0826375,-0.2206875
1679914352827,1094341183186797,-2.38205,-0.08965,-0.2297625
1679914352831,1094341185689489,-2.4050124,-0.086625,-0.2398
1679914352832,1094341188191951,-2.4270124,-0.086625,-0.2517625
1679914352837,1094341190694412,-2.4440625,-0.0826375,-0.2646875
1679914352838,1094341193196643,-2.467025,-0.07865,-0.2787125
1679914352840,1094341195699104,-2.4871,-0.0796125,-0.2897125
1679914352842,1094341198201566,-2.5051124,-0.0847,-0.3058
1679914352845,1094341200704258,-2.5290375,-0.091575,-0.3196875
1679914352847,1094341203206730,-2.555025,-0.102575,-0.3278
1679914352850,1094341205709191,-2.577025,-0.11165,-0.3377
1679914352852,1094341208211422,-2.599025,-0.125675,-0.3427875
1679914352855,1094341210713884,-2.6280375,-0.136675,-0.3498
1679914352857,1094341213216350,-2.660075,-0.1486375,-0.3477375
1679914352860,1094341215719043,-2.698025,-0.157575,-0.3487
1679914352862,1094341218221273,-2.731025,-0.163625,-0.3447125
1679914352865,1094341220723735,-2.768975,-0.1706375,-0.340725
1679914352867,1094341223226196,-2.8089874,-0.18259999,-0.3287625
1679914352871,1094341225728643,-2.852025,-0.1947,-0.32381248
1679914352874,1094341228231028,-2.8950624,-0.21065,-0.3157
1679914352875,1094341230733566,-2.940025,-0.2226125,-0.302775
1679914352877,1094341233236028,-2.9849875,-0.2415875,-0.2908125
1679914352880,1094341235738489,-3.0270624,-0.25959998,-0.27775
1679914352883,1094341238240913,-3.0710626,-0.2776125,-0.2707375
1679914352885,1094341240743374,-3.1180875,-0.2916375,-0.2567125
1679914352888,1094341243245913,-3.157,-0.30965,-0.2437875
1679914352890,1094341245748374,-3.1970124,-0.3306875,-0.2297625
1679914352892,1094341248250778,-3.237025,-0.3515875,-0.219725
1679914352895,1094341250753239,-3.2720876,-0.37661248,-0.2077625
1679914352897,1094341253255701,-3.30605,-0.4046625,-0.1958
1679914352900,1094341255757932,-3.3369875,-0.4296875,-0.1837
1679914352902,1094341258260638,-3.3669624,-0.4596625,-0.1698125
1679914352906,1094341260763100,-3.3959749,-0.488675,-0.153725
1679914352907,1094341263265561,-3.4219625,-0.5137,-0.1408
1679914352913,1094341265767787,-3.4500124,-0.5357,-0.1287
1679914352914,1094341268270248,-3.4799874,-0.5495875,-0.1167375
1679914352915,1094341270772710,-3.5120249,-0.56265,-0.1067
1679914352917,1094341273275402,-3.54805,-0.5687,-0.095699996
1679914352921,1094341275777864,-3.586,-0.5676,-0.0867625
1679914352922,1094341278280095,-3.62505,-0.5556375,-0.07975
1679914352925,1094341280782556,-3.666025,-0.537625,-0.0727375
1679914352927,1094341283285018,-3.7149749,-0.515625,-0.0627
1679914352930,1094341285787479,-3.7640624,-0.4917,-0.0567875
1679914352933,1094341288290172,-3.8190625,-0.4697,-0.0528
1679914352935,1094341290792402,-3.883,-0.4426125,-0.049775
1679914352938,1094341293294864,-3.9499624,-0.4096125,-0.0446875
1679914352940,1094341295797325,-4.02105,-0.372625,-0.04675
1679914352942,1094341298299787,-4.0990124,-0.333575,-0.049775
1679914352945,1094341300802278,-4.18,-0.2996125,-0.0537625
1679914352949,1094341303304739,-4.266075,-0.256575,-0.0587125
1679914352951,1094341305807201,-4.3569627,-0.202675,-0.0677875
1679914352954,1094341308309662,-4.4589877,-0.1346125,-0.0787875
1679914352955,1094341310812094,-4.561975,-0.056649998,-0.0897875
1679914352957,1094341313314478,-4.6770625,0.0243375,-0.1087625
1679914352960,1094341315816940,-4.792975,0.1153625,-0.12979999
1679914352962,1094341318319478,-4.917,0.2094125,-0.1577125
1679914352965,1094341320821921,-5.045975,0.31033748,-0.1918125
1679914352967,1094341323324306,-5.177975,0.4114,-0.2297625
1679914352971,1094341325826767,-5.3120375,0.4973375,-0.2737625
1679914352972,1094341328329229,-5.4500875,0.5743375,-0.32175
1679914352975,1094341330831758,-5.5870376,0.6384125,-0.3707
1679914352978,1094341333334143,-5.7270126,0.6793875,-0.4217125
1679914352980,1094341335836604,-5.866025,0.7044125,-0.47079998
1679914352982,1094341338339066,-6.004075,0.710325,-0.51975
1679914352988,1094341340841517,-6.1419873,0.6953375,-0.56374997
1679914352989,1094341343343748,-6.2800374,0.666325,-0.6037625
1679914352991,1094341345846440,-6.4120374,0.62535,-0.64075
1679914352992,1094341348348902,-6.541975,0.5743375,-0.670725
1679914352995,1094341350851364,-6.664075,0.5214,-0.6967125
1679914352998,1094341353353599,-6.7810874,0.46035,-0.7156875
1679914353000,1094341355856061,-6.89205,0.3964125,-0.7297125
1679914353003,1094341358358522,-6.9980626,0.32835,-0.7348
1679914353006,1094341360861215,-7.0900497,0.2673,-0.73768747
1679914353007,1094341363363445,-7.181075,0.2244,-0.73768747
1679914353010,1094341365865907,-7.25505,0.1953875,-0.736725
1679914353012,1094341368368369,-7.3250375,0.1813625,-0.736725
1679914353015,1094341370870830,-7.38705,0.1863125,-0.73768747
1679914353017,1094341373373215,-7.4399877,0.19635,-0.7447
1679914353021,1094341375875753,-7.4930625,0.216425,-0.7467625
1679914353024,1094341378378215,-7.531975,0.2574,-0.7517125
1679914353025,1094341380880676,-7.5640125,0.31735,-0.7568
1679914353028,1094341383383142,-7.586975,0.386375,-0.7638125
1679914353031,1094341385885526,-7.608975,0.458425,-0.7706875
1679914353033,1094341388387988,-7.608975,0.535425,-0.7887
1679914353035,1094341390890526,-7.5970125,0.6164125,-0.8228
1679914353039,1094341393392998,-7.5750127,0.69836247,-0.8617125
1679914353040,1094341395895460,-7.55205,0.78429997,-0.8927875
1679914353042,1094341398397844,-7.5169873,0.86735,-0.91574997
1679914353045,1094341400900306,-7.4699626,0.95535,-0.9356875
1679914353048,1094341403402743,-7.412075,1.051325,-0.9527375
1679914353050,1094341405905282,-7.348,1.14235,-0.9647
1679914353052,1094341408407743,-7.27705,1.2133,-0.97377497
1679914353055,1094341410910128,-7.20005,1.261425,-0.9807875
1679914353057,1094341413412560,-7.1179624,1.2753125,-0.978725
1679914353062,1094341415915022,-7.0329876,1.2573,-0.967725
1679914353063,1094341418417253,-6.941,1.2183875,-0.9477875
1679914353065,1094341420919945,-6.849975,1.1664125,-0.9117625
1679914353067,1094341423422407,-6.750975,1.0824,-0.8696875
1679914353071,1094341425924854,-6.6490874,0.95535,-0.8127625
1679914353073,1094341428427085,-6.5390873,0.79035,-0.7517125
1679914353075,1094341430929546,-6.4260626,0.590425,-0.6897
1679914353078,1094341433432239,-6.2970877,0.3553,-0.6237
1679914353080,1094341435934700,-6.1609626,0.091299996,-0.55275
1679914353083,1094341438436935,-6.017,-0.1926375,-0.48675
1679914353085,1094341440939397,-5.859975,-0.5016,-0.4197875
1679914353089,1094341443441858,-5.6940126,-0.8146875,-0.3498
1679914353090,1094341445944320,-5.520075,-1.1176,-0.2827
1679914353092,1094341448446757,-5.338025,-1.401675,-0.2167
1679914353095,1094341450949219,-5.151025,-1.642575,-0.153725
1679914353099,1094341453451680,-4.9600377,-1.8566625,-0.0947375
1679914353101,1094341455954142,-4.766025,-2.0306,-0.0427625
1679914353103,1094341458456584,-4.58205,-2.176625,0.0042625
1679914353106,1094341460958969,-4.403025,-2.2695749,0.049225
1679914353107,1094341463461508,-4.2200127,-2.3205874,0.0803
1679914353112,1094341465963969,-4.04305,-2.336675,0.110275
1679914353113,1094341468466431,-3.872,-2.3046374,0.1203125
1679914353115,1094341470968892,-3.7010875,-2.2446876,0.1093125
1679914353118,1094341473471277,-3.534025,-2.16865,0.089237496
1679914353121,1094341475973738,-3.3680625,-2.093575,0.0592625
1679914353123,1094341478476277,-3.2060876,-2.0125875,0.01925
1679914353125,1094341480978748,-3.0460374,-1.92665,-0.0257125
1679914353128,1094341483481210,-2.904,-1.8365875,-0.0776875
1679914353130,1094341485983595,-2.761,-1.7445999,-0.1357125
1679914353132,1094341488486056,-2.625975,-1.653575,-0.192775
1679914353137,1094341490988522,-2.4979625,-1.5566375,-0.2517625
1679914353138,1094341493491060,-2.3799875,-1.467675,-0.307725
1679914353140,1094341495993445,-2.264075,-1.3776125,-0.3667125
1679914353142,1094341498495906,-2.154075,-1.291675,-0.4186875
1679914353145,1094341500998368,-2.0560374,-1.2106875,-0.46475
1679914353148,1094341503500811,-1.9589624,-1.1325876,-0.505725
1679914353151,1094341506003042,-1.87,-1.0646625,-0.5407875
1679914353153,1094341508505734,-1.785025,-1.005675,-0.56374997
1679914353155,1094341511008196,-1.708025,-0.949575,-0.582725
1679914353157,1094341513510668,-1.6319875,-0.906675,-0.588775
1679914353160,1094341516012898,-1.5629625,-0.8685875,-0.5867125
1679914353162,1094341518515360,-1.4980625,-0.8276125,-0.577775
1679914353165,1094341521017821,-1.433025,-0.7986,-0.566775
1679914353167,1094341523520301,-1.3690875,-0.76669997,-0.5438125
1679914353171,1094341526022762,-1.3140875,-0.73768747,-0.5218125
1679914353174,1094341528525224,-1.2579875,-0.7176125,-0.4917
1679914353176,1094341531027686,-1.2010624,-0.6996,-0.4577375
1679914353179,1094341533530079,-1.155,-0.680625,-0.42075
1679914353180,1094341536032618,-1.1369874,-0.6846125,-0.3867875
1679914353183,1094341538535079,-1.1570625,-0.7176125,-0.3348125
1679914353186,1094341541037541,-1.1779625,-0.746625,-0.2607
1679914353188,1094341543539997,-1.1889625,-0.774675,-0.17379999
1679914353191,1094341546042382,-1.21605,-0.807675,-0.093775
1679914353192,1094341548544843,-1.252075,-0.8437,-0.0237875
1679914353195,1094341551047382,-1.305975,-0.8795875,0.041249998
1679914353198,1094341553549825,-1.3649625,-0.91162497,0.1032625
1679914353200,1094341556052287,-1.4180375,-0.927575,0.1612875
1679914353204,1094341558554672,-1.459975,-0.94063747,0.2083125
1679914353205,1094341561057133,-1.488025,-0.949575,0.2462625
1679914353208,1094341563559599,-1.5010875,-0.9516375,0.2682625
1679914353212,1094341566062137,-1.4950374,-0.9317,0.2783
1679914353213,1094341568564599,-1.46905,-0.8916875,0.2842125
1679914353215,1094341571066983,-1.4240875,-0.8476875,0.280225
1679914353218,1094341573569469,-1.3649625,-0.7997,0.2732125
1679914353221,1094341576071930,-1.2860374,-0.7447,0.2602875
1679914353223,1094341578574392,-1.195975,-0.68365,0.24419999
1679914353225,1094341581076854,-1.092025,-0.6136625,0.22825
1679914353228,1094341583579344,-0.97405,-0.543675,0.2112
1679914353231,1094341586081806,-0.847,-0.4615875,0.1942875
1679914353233,1094341588584267,-0.7170625,-0.3817,0.181225
1679914353235,1094341591086498,-0.5839625,-0.306625,0.1722875
1679914353238,1094341593588964,-0.4519625,-0.2305875,0.1632125
1679914353240,1094341596091657,-0.3210625,-0.157575,0.15619999
1679914353243,1094341598594118,-0.187,-0.0836,0.15125
1679914353245,1094341601096349,-0.061049998,-0.0176,0.1522125
1679914353249,1094341603598830,0.0609125,0.0413875,0.148225
1679914353250,1094341606101291,0.1750375,0.0994125,0.1491875
1679914353254,1094341608603753,0.2820125,0.1533125,0.1522125
1679914353255,1094341611106214,0.3810125,0.194425,0.1522125
1679914353258,1094341613608676,0.474925,0.2223375,0.154275
1679914353260,1094341616111137,0.5559125,0.2464,0.1573
1679914353263,1094341618613522,0.63002497,0.2644125,0.159225
1679914353265,1094341621115984,0.696025,0.271425,0.1612875
1679914353268,1094341623618522,0.748,0.2723875,0.1632125
1679914353271,1094341626120984,0.7899375,0.2693625,0.1612875
1679914353273,1094341628623445,0.83503747,0.2633125,0.1582625
1679914353275,1094341631125830,0.869,0.25135,0.1601875
1679914353279,1094341633628291,0.9010375,0.24035,0.165275
1679914353280,1094341636130753,0.9299125,0.2303125,0.165275
1679914353283,1094341638633281,0.95301247,0.2193125,0.165275
1679914353288,1094341641135743,0.9739125,0.205425,0.1683
1679914353289,1094341643638127,0.9879375,0.1953875,0.1692625
1679914353291,1094341646140589,0.9959125,0.188375,0.1692625
1679914353293,1094341648643067,1.001,0.1813625,0.165275
1679914353296,1094341651145528,0.997975,0.17435,0.1632125
1679914353298,1094341653647990,0.99,0.161425,0.1582625
1679914353300,1094341656150451,0.9750125,0.1544125,0.1582625
1679914353303,1094341658652908,0.95094997,0.139425,0.1582625
1679914353306,1094341661155369,0.92097497,0.128425,0.1533125
1679914353308,1094341663657600,0.8870125,0.1123375,0.1463
1679914353312,1094341666160292,0.854975,0.094325,0.1472625
1679914353313,1094341668662783,0.814,0.0803,0.143275
1679914353315,1094341671165244,0.771925,0.0743875,0.1381875
1679914353318,1094341673667706,0.7299875,0.067375,0.1282875
1679914353321,1094341676170168,0.68901247,0.062425,0.1161875
1679914353324,1094341678672407,0.645975,0.061325,0.1062875
1679914353325,1094341681174869,0.601975,0.061325,0.0922625
1679914353328,1094341683677561,0.564025,0.0664125,0.077275
1679914353330,1094341686179792,0.5259375,0.069299996,0.0702625
1679914353333,1094341688682253,0.491975,0.0774125,0.0572
1679914353335,1094341691184715,0.45993748,0.0814,0.0433125
1679914353338,1094341693687177,0.4349125,0.08635,0.033275
1679914353340,1094341696189561,0.410025,0.0884125,0.016224999
1679914353343,1094341698692100,0.3859625,0.091299996,0.0061875
1679914353345,1094341701194547,0.366025,0.100375,-0.0067375
1679914353348,1094341703697009,0.3480125,0.1034,-0.0177375
1679914353351,1094341706199393,0.3359125,0.113299996,-0.0297
1679914353353,1094341708701855,0.3260125,0.1153625,-0.0427625
1679914353356,1094341711204306,0.322025,0.1144,-0.0537625
1679914353358,1094341713706845,0.3180375,0.1144,-0.0638
1679914353362,1094341716209230,0.319,0.113299996,-0.071775
1679914353363,1094341718711691,0.3229875,0.1104125,-0.076725
1679914353365,1094341721214158,0.3249125,0.1034,-0.0818125
1679914353368,1094341723716619,0.32793748,0.100375,-0.0847
1679914353372,1094341726219081,0.3328875,0.089375,-0.0867625
1679914353373,1094341728721542,0.341,0.083325,-0.087725
1679914353375,1094341731223970,0.353925,0.0763125,-0.0858
1679914353378,1094341733726431,0.363,0.0653125,-0.0867625
1679914353380,1094341736228893,0.3768875,0.0633875,-0.0867625
1679914353383,1094341738731354,0.38995,0.0603625,-0.082775
1679914353385,1094341741233816,0.40094998,0.0512875,-0.0858
1679914353388,1094341743736278,0.41387498,0.0444125,-0.0837375
1679914353391,1094341746238739,0.4279,0.0463375,-0.082775
1679914353393,1094341748740970,0.441925,0.0473,-0.0787875
1679914353396,1094341751243426,0.4569125,0.0493625,-0.0787875
1679914353400,1094341753745888,0.46695,0.0484,-0.0757625
1679914353401,1094341756248580,0.480975,0.0512875,-0.0757625
1679914353404,1094341758751042,0.48894998,0.05335,-0.0748
1679914353405,1094341761253254,0.49995,0.0493625,-0.073699996
1679914353408,1094341763755715,0.507925,0.0523875,-0.0697125
1679914353411,1094341766258177,0.513975,0.0473,-0.0727375
1679914353413,1094341768760638,0.5209875,0.039325,-0.071775
1679914353416,1094341771263321,0.5269,0.0323125,-0.076725
1679914353418,1094341773765551,0.5269,0.03135,-0.0897875
1679914353422,1094341776268013,0.5308875,0.023375,-0.095699996
1679914353423,1094341778770474,0.5319875,0.023375,-0.1027125
1679914353425,1094341781272864,0.5339125,0.0243375,-0.11275
1679914353428,1094341783775326,0.5379,0.0243375,-0.1188
1679914353431,1094341786277864,0.5379,0.0273625,-0.1287
1679914353433,1094341788780326,0.535975,0.0273625,-0.131725
1679914353438,1094341791282710,0.5379,0.0253,-0.1368125
1679914353439,1094341793785172,0.534875,0.023375,-0.137775
1679914353441,1094341796287633,0.535975,0.0213125,-0.1417625
1679914353443,1094341798790095,0.5319875,0.0213125,-0.142725
1679914353446,1094341801292556,0.5259375,0.0213125,-0.1436875
1679914353449,1094341803795013,0.5229125,0.017324999,-0.14575
1679914353450,1094341806297474,0.5198875,0.0143,-0.1436875
1679914353455,1094341808799936,0.5159,0.0103124995,-0.1397
1679914353455,1094341811302167,0.50888747,0.0044,-0.1368125
1679914353458,1094341813804613,0.5069625,-0.00165,-0.137775
1679914353460,1094341816307306,0.5049,-0.0086624995,-0.1337875
1679914353463,1094341818809767,0.502975,-0.01265,-0.131725
1679914353466,1094341821311998,0.4989875,-0.0257125,-0.12773749
1679914353468,1094341823814464,0.4989875,-0.042625,-0.1227875
1679914353472,1094341826316926,0.501875,-0.0517,-0.120725
1679914353474,1094341828819618,0.4989875,-0.0636625,-0.11275
1679914353475,1094341831322080,0.49995,-0.0776875,-0.1078
1679914353478,1094341833824526,0.501875,-0.0856625,-0.1067
1679914353480,1094341836326757,0.5069625,-0.0946,-0.10175
1679914353483,1094341838829219,0.5119125,-0.1016125,-0.0947375
1679914353485,1094341841331680,0.5179625,-0.1126125,-0.087725
1679914353488,1094341843834364,0.5229125,-0.125675,-0.0847
1679914353490,1094341846336594,0.523875,-0.1315875,-0.0787875
1679914353493,1094341848839056,0.528,-0.1425875,-0.06875
1679914353496,1094341851341517,0.529925,-0.1496,-0.0627
1679914353498,1094341853843983,0.5379,-0.158675,-0.0567875
1679914353501,1094341856346445,0.534875,-0.16665,-0.0488125
1679914353506,1094341858848906,0.535975,-0.1676125,-0.0397375
1679914353507,1094341861351368,0.5369375,-0.180675,-0.0347875
1679914353509,1094341863853829,0.5339125,-0.1876875,-0.0268125
1679914353513,1094341866356291,0.535975,-0.19965,-0.0207625
1679914353514,1094341868858675,0.5319875,-0.2116125,-0.0158125
1679914353515,1094341871361137,0.53295,-0.2226125,-0.01375
1679914353518,1094341873863675,0.5319875,-0.23265,-0.0077
1679914353520,1094341876366156,0.5319875,-0.2457125,-0.0048125
1679914353523,1094341878868541,0.524975,-0.257675,-0.0037125
1679914353525,1094341881371002,0.524975,-0.268675,2.75E-4
1679914353528,1094341883873464,0.5198875,-0.28861248,0.0033
1679914353531,1094341886375930,0.518925,-0.301675,0.0061875
1679914353533,1094341888878392,0.517,-0.3166625,0.0103124995
1679914353536,1094341891380853,0.51094997,-0.3386625,0.0132
1679914353538,1094341893883315,0.507925,-0.361625,0.0132
1679914353541,1094341896385580,0.5039375,-0.3887125,0.015262499
1679914353543,1094341898888041,0.502975,-0.4126375,0.015262499
1679914353546,1094341901390503,0.502975,-0.427625,0.0122375
1679914353550,1094341903893195,0.501875,-0.43559998,0.0072875
1679914353551,1094341906395421,0.4989875,-0.4466,0.0033
1679914353554,1094341908897882,0.4899125,-0.4486625,-6.875E-4
1679914353556,1094341911400344,0.4929375,-0.4456375,-0.0077
1679914353558,1094341913902805,0.490875,-0.4466,-0.0116875
1679914353560,1094341916405267,0.4929375,-0.4426125,-0.016775
1679914353563,1094341918907699,0.491975,-0.4395875,-0.0187
1679914353565,1094341921410161,0.4899125,-0.4395875,-0.0226875
1679914353568,1094341923912623,0.4899125,-0.4376625,-0.021724999
1679914353570,1094341926415084,0.4879875,-0.4395875,-0.0198
1679914353573,1094341928917489,0.4899125,-0.4395875,-0.021724999
1679914353576,1094341931420027,0.4849625,-0.44165,-0.021724999
1679914353578,1094341933922489,0.4789125,-0.44165,-0.0187
1679914353581,1094341936424950,0.4739625,-0.4456375,-0.0187
1679914353583,1094341938927387,0.4648875,-0.444675,-0.0198
1679914353588,1094341941429771,0.4519625,-0.44165,-0.02475
1679914353590,1094341943932233,0.44,-0.4395875,-0.0237875
1679914353592,1094341946434771,0.4208875,-0.44165,-0.0187
1679914353593,1094341948937243,0.4059,-0.4346375,-0.0187
1679914353596,1094341951439705,0.381975,-0.4285875,-0.021724999
1679914353598,1094341953942089,0.353925,-0.4266625,-0.0187
1679914353601,1094341956444551,0.3249125,-0.4257,-0.021724999
1679914353604,1094341958947017,0.2919125,-0.42267498,-0.016775
1679914353605,1094341961449556,0.2619375,-0.4136,-0.0097624995
1679914353608,1094341963951940,0.2209625,-0.4076875,-0.0048125
1679914353611,1094341966454402,0.1788875,-0.3955875,2.75E-4
1679914353613,1094341968956868,0.13695,-0.3796375,0.00825
1679914353615,1094341971459330,0.0908875,-0.3586,0.0122375
1679914353618,1094341973961561,0.044,-0.3337125,0.0202125
1679914353621,1094341976464253,-0.003025,-0.3056625,0.022275
1679914353625,1094341978966725,-0.0521125,-0.2816,0.0292875
1679914353626,1094341981469186,-0.1010625,-0.25959998,0.033275
1679914353628,1094341983971417,-0.1441,-0.2396625,0.0363
1679914353632,1094341986473878,-0.1881,-0.2206875,0.044275
1679914353634,1094341988976340,-0.229075,-0.2006125,0.049225
1679914353636,1094341991479037,-0.27005,-0.180675,0.0543125
1679914353638,1094341993981268,-0.311025,-0.163625,0.06325
1679914353640,1094341996483730,-0.350075,-0.1486375,0.066275
1679914353643,1094341998986191,-0.3821125,-0.1376375,0.069299996
1679914353646,1094342001488590,-0.41305,-0.1287,0.0782375
1679914353648,1094342003991051,-0.44907498,-0.1186625,0.0873125
1679914353651,1094342006493590,-0.47808748,-0.108625,0.088275
1679914353655,1094342008996051,-0.5050375,-0.0946,0.093225
1679914353656,1094342011498518,-0.528,-0.0836,0.099275
1679914353658,1094342014000903,-0.5520625,-0.0716375,0.1051875
1679914353662,1094342016503364,-0.572,-0.059675,0.110275
1679914353663,1094342019005903,-0.5900125,-0.053625,0.111237496
1679914353665,1094342021508340,-0.6070625,-0.0506,0.1122
1679914353668,1094342024010802,-0.620125,-0.0506,0.1142625
1679914353671,1094342026513186,-0.63305,-0.0496375,0.1161875
1679914353673,1094342029015648,-0.641025,-0.0435875,0.1192125
1679914353675,1094342031518114,-0.647075,-0.034649998,0.11825
1679914353678,1094342034020653,-0.647075,-0.031625,0.1161875
1679914353681,1094342036523037,-0.6480375,-0.0297,0.1161875
1679914353683,1094342039025499,-0.649,-0.0286,0.11825
1679914353686,1094342041527937,-0.647075,-0.0276375,0.11825
1679914353688,1094342044030398,-0.6480375,-0.0306625,0.1203125
1679914353691,1094342046532860,-0.642125,-0.031625,0.122237496
1679914353693,1094342049035321,-0.636075,-0.037675,0.1252625
1679914353696,1094342051537769,-0.63208747,-0.0466125,0.1282875
1679914353700,1094342054040230,-0.6260375,-0.0587125,0.1362625
1679914353701,1094342056542692,-0.6150375,-0.0697125,0.1491875
1679914353705,1094342059044923,-0.6040375,-0.0796125,0.1573
1679914353706,1094342061547398,-0.5990875,-0.0826375,0.1672
1679914353708,1094342064050090,-0.5900125,-0.093637496,0.1753125
1679914353712,1094342066552552,-0.5850625,-0.11165,0.1863125
1679914353714,1094342069054783,-0.5790125,-0.1287,0.192225
1679914353716,1094342071557244,-0.5710375,-0.1507,0.2013
1679914353718,1094342074059706,-0.565125,-0.180675,0.2102375
1679914353721,1094342076562167,-0.55605,-0.21065,0.2182125
1679914353724,1094342079064629,-0.5490375,-0.2486,0.23127499
1679914353726,1094342081567085,-0.5330875,-0.284625,0.24419999
1679914353729,1094342084069547,-0.51205,-0.33467498,0.253275
1679914353731,1094342086572009,-0.4921125,-0.3826625,0.269225
1679914353733,1094342089074393,-0.471075,-0.4246,0.280225
1679914353739,1094342091576831,-0.443025,-0.4626875,0.2893
1679914353739,1094342094079369,-0.4151125,-0.5055875,0.302225
1679914353741,1094342096581831,-0.385,-0.5385875,0.3102
1679914353744,1094342099084215,-0.3540625,-0.5687,0.3202375
1679914353746,1094342101586677,-0.3210625,-0.598675,0.32725
1679914353748,1094342104089162,-0.290125,-0.6237,0.3372875
1679914353752,1094342106591624,-0.2600125,-0.6446,0.3443
1679914353754,1094342109094162,-0.22605,-0.6546375,0.3471875
1679914353756,1094342111596547,-0.19305,-0.6637125,0.3532375
1679914353758,1094342114099009,-0.16005,-0.664675,0.3553
1679914353761,1094342116601470,-0.130075,-0.6595875,0.3553
1679914353763,1094342119103932,-0.103125,-0.6546375,0.35227498
1679914353766,1094342121606393,-0.0820875,-0.63965,0.3471875
1679914353768,1094342124108855,-0.0631125,-0.6216375,0.3403125
1679914353771,1094342126611311,-0.0521125,-0.6006,0.3312375
1679914353775,1094342129113773,-0.0451,-0.5776375,0.324225
1679914353776,1094342131616004,-0.042075,-0.5586625,0.3122625
1679914353778,1094342134118465,-0.0411125,-0.5396875,0.3003
1679914353781,1094342136621120,-0.044,-0.5126,0.291225
1679914353783,1094342139123581,-0.0460625,-0.4917,0.2783
1679914353786,1094342141626043,-0.0510125,-0.4725875,0.26427498
1679914353788,1094342144128273,-0.0540375,-0.444675,0.2542375
1679914353791,1094342146630735,-0.0510125,-0.4156625,0.2382875
1679914353793,1094342149133196,-0.053075,-0.38665,0.22825
1679914353796,1094342151635889,-0.0561,-0.361625,0.2151875
1679914353798,1094342154138350,-0.053075,-0.3227125,0.20019999
1679914353801,1094342156640581,-0.0561,-0.2916375,0.1942875
1679914353804,1094342159143019,-0.0521125,-0.25959998,0.1863125
1679914353806,1094342161645480,-0.0540375,-0.2226125,0.176275
1679914353808,1094342164147865,-0.059125,-0.1797125,0.165275
1679914353813,1094342166650403,-0.055,-0.1436875,0.1612875
1679914353814,1094342169152836,-0.058025,-0.108625,0.1573
1679914353816,1094342171655297,-0.0561,-0.0666875,0.1463
1679914353818,1094342174157682,-0.0540375,-0.0246125,0.1423125
1679914353822,1094342176660144,-0.059125,0.0083875,0.1302125
1679914353824,1094342179162605,-0.0570625,0.0334125,0.122237496
1679914353826,1094342181665144,-0.0540375,0.0622875,0.11825
1679914353828,1094342184167528,-0.0521125,0.089375,0.110275
1679914353831,1094342186669990,-0.042075,0.113299996,0.1122
1679914353833,1094342189172480,-0.0350625,0.13035,0.1142625
1679914353836,1094342191674942,-0.025024999,0.1544125,0.113299996
1679914353839,1094342194177173,-0.01705,0.166375,0.1161875
1679914353841,1094342196679865,-0.0081124995,0.1804,0.11825
1679914353843,1094342199182326,9.625E-4,0.1942875,0.1243
1679914353846,1094342201684783,0.0099,0.1984125,0.132275
1679914353850,1094342204187245,0.0169125,0.193325,0.1392875
1679914353851,1094342206689475,0.0229625,0.1923625,0.1452
1679914353855,1094342209191937,0.028875,0.182325,0.148225
1679914353856,1094342211694648,0.0309375,0.1694,0.1491875
1679914353858,1094342214197110,0.033,0.155375,0.1522125
1679914353862,1094342216699341,0.0358875,0.138325,0.1582625
1679914353863,1094342219201802,0.0369875,0.11935,0.165275
1679914353866,1094342221704283,0.03795,0.0963875,0.1722875
1679914353868,1094342224206975,0.0358875,0.0763125,0.1772375
1679914353872,1094342226709206,0.0358875,0.061325,0.18425
1679914353873,1094342229211667,0.03795,0.0473,0.1903
1679914353876,1094342231714110,0.03795,0.0383625,0.1903
1679914353879,1094342234216571,0.0400125,0.028324999,0.192225
1679914353881,1094342236719033,0.034925,0.0154,0.1903
1679914353883,1094342239221494,0.0339625,0.0103124995,0.1903
1679914353888,1094342241723951,0.034925,0.0033,0.1882375
1679914353889,1094342244226412,0.033,4.125E-4,0.1882375
1679914353891,1094342246728874,0.029975,0.001375,0.181225
1679914353893,1094342249231336,0.0279125,0.0083875,0.1742125
1679914353896,1094342251733720,0.0290125,0.0083875,0.1683
1679914353898,1094342254236298,0.0279125,0.0133375,0.1643125
1679914353901,1094342256738759,0.0309375,0.02035,0.1582625
1679914353904,1094342259241144,0.034925,0.0303875,0.1463
1679914353906,1094342261743605,0.0400125,0.0334125,0.1412125
1679914353908,1094342264246091,0.0449625,0.0363,0.1313125
1679914353912,1094342266748552,0.0539,0.0383625,0.121275
1679914353914,1094342269251014,0.05995,0.0363,0.115225
1679914353916,1094342271753476,0.0578875,0.0402875,0.10725
1679914353919,1094342274255932,0.0609125,0.0444125,0.099275
1679914353923,1094342276758394,0.0620125,0.0523875,0.0941875
1679914353925,1094342279260624,0.0609125,0.0622875,0.0922625
1679914353926,1094342281763086,0.0589875,0.0704,0.0922625
1679914353929,1094342284265763,0.0539,0.0814,0.091299996
1679914353931,1094342286768225,0.055,0.0994125,0.091299996
1679914353933,1094342289270456,0.066,0.1324125,0.0922625
1679914353936,1094342291772917,0.078925,0.171325,0.0922625
1679914353939,1094342294275379,0.0908875,0.210375,0.0922625
1679914353941,1094342296777850,0.1018875,0.2382875,0.0952875
1679914353943,1094342299280543,0.11,0.265375,0.0983125
1679914353946,1094342301782773,0.1199,0.298375,0.099275
1679914353949,1094342304285268,0.1269125,0.3183125,0.09625
1679914353951,1094342306787729,0.1329625,0.336325,0.09625
1679914353954,1094342309290114,0.133925,0.353375,0.093225
1679914353956,1094342311792652,0.1359875,0.3653375,0.091299996
1679914353958,1094342314295114,0.1359875,0.380325,0.0873125
1679914353963,1094342316797581,0.1329625,0.386375,0.0862125
1679914353964,1094342319300042,0.1269125,0.386375,0.0803
1679914353966,1094342321802504,0.121,0.397375,0.0752125
1679914353968,1094342324304965,0.1128875,0.40535,0.071225
1679914353971,1094342326807427,0.10395,0.41635,0.0702625
1679914353974,1094342329309908,0.0999625,0.4283125,0.069299996
1679914353976,1094342331812370,0.09295,0.43835,0.0653125
1679914353979,1094342334314831,0.088,0.4543,0.066275
1679914353981,1094342336817216,0.0809875,0.4664,0.0653125
1679914353983,1094342339319701,0.0749375,0.479325,0.0622875
1679914353986,1094342341822239,0.0639375,0.4833125,0.0611875
1679914353990,1094342344324701,0.051975,0.48839998,0.060225
1679914353991,1094342346827085,0.03795,0.4873,0.0562375
1679914353994,1094342349329533,0.023924999,0.48633748,0.049225
1679914353996,1094342351831994,0.001925,0.4833125,0.0452375
1679914354000,1094342354334456,-0.01705,0.4802875,0.038225
1679914354002,1094342356836917,-0.0341,0.47134998,0.0323125
1679914354005,1094342359339350,-0.0561,0.4664,0.027224999
1679914354006,1094342361841811,-0.0760375,0.4613125,0.0213125
1679914354009,1094342364344273,-0.09405,0.4514125,0.016224999
1679914354011,1094342366846504,-0.1060125,0.4514125,0.0132
1679914354014,1094342369348970,-0.119075,0.4503125,0.0072875
1679914354016,1094342371851663,-0.12705,0.4514125,0.0061875
1679914354019,1094342374353893,-0.135025,0.46035,0.0103124995
1679914354021,1094342376856355,-0.13805,0.4703875,0.011275
1679914354024,1094342379358817,-0.1310375,0.48235,0.0143
1679914354026,1094342381861278,-0.1260875,0.496375,0.0213125
1679914354029,1094342384363663,-0.1170125,0.5143875,0.022275
1679914354031,1094342386866201,-0.100099996,0.5333625,0.0262625
1679914354033,1094342389368663,-0.080025,0.551375,0.03025
1679914354038,1094342391871124,-0.0620125,0.5643,0.03025
1679914354039,1094342394373586,-0.0460625,0.5724125,0.0312125
1679914354041,1094342396875970,-0.031075,0.5753,0.0312125
1679914354044,1094342399378422,-0.01705,0.5753,0.0312125
1679914354046,1094342401880960,-0.0020625,0.578325,0.0292875
1679914354048,1094342404383422,0.0138875,0.5764,0.03025
1679914354051,1094342406885807,0.0290125,0.5663625,0.03025
1679914354054,1094342409388249,0.0449625,0.5603125,0.0292875
1679914354056,1094342411890711,0.0578875,0.5462875,0.03025
1679914354059,1094342414393249,0.0730125,0.540375,0.0312125
1679914354061,1094342416895711,0.0829125,0.5313,0.038225
1679914354063,1094342419398162,0.0939125,0.5193375,0.0422125
1679914354066,1094342421900547,0.1049125,0.50435,0.0473
1679914354070,1094342424403008,0.1128875,0.48839998,0.049225
1679914354071,1094342426905470,0.121,0.4723125,0.0512875
1679914354075,1094342429407926,0.1269125,0.4593875,0.052249998
1679914354076,1094342431910388,0.1359875,0.4453625,0.0572
1679914354078,1094342434412850,0.1419,0.4373875,0.0572
1679914354081,1094342436915311,0.144925,0.4323,0.0592625
1679914354084,1094342439417773,0.150975,0.4263875,0.0572
1679914354086,1094342441919994,0.1568875,0.4142875,0.055275
1679914354088,1094342444422687,0.154,0.40535,0.0543125
1679914354091,1094342446925148,0.155925,0.39833748,0.0543125
1679914354093,1094342449427610,0.15895,0.3894,0.0543125
1679914354096,1094342451929831,0.199925,0.402325,0.052249998
1679914354099,1094342454432292,0.304975,0.4433,0.0372625
1679914354101,1094342456934754,0.4079625,0.4923875,0.015262499
1679914354104,1094342459437446,0.474925,0.5242875,2.75E-4
1679914354106,1094342461939672,0.513975,0.5303375,-0.0198
1679914354109,1094342464442133,0.5350125,0.5093,-0.0347875
1679914354113,1094342466944595,0.551925,0.4673625,-0.0517
1679914354114,1094342469447056,0.5680125,0.4043875,-0.071775
1679914354116,1094342471949436,0.5839625,0.3353625,-0.0897875
1679914354118,1094342474451975,0.590975,0.2563,-0.1007875
1679914354121,1094342476954436,0.5979875,0.193325,-0.1057375
1679914354123,1094342479456898,0.5900125,0.1434125,-0.109725
1679914354126,1094342481959282,0.572,0.0933625,-0.1106875
1679914354129,1094342484461735,0.54395,0.0484,-0.1067
1679914354131,1094342486964196,0.5020125,0.006325,-0.1057375
1679914354133,1094342489466735,0.4499,-0.037675,-0.1027125
1679914354136,1094342491969119,0.3909125,-0.0836,-0.10175
1679914354138,1094342494471566,0.32793748,-0.1186625,-0.1038125
1679914354141,1094342496974027,0.2649625,-0.152625,-0.1038125
1679914354143,1094342499476489,0.1969,-0.1846625,-0.1078
1679914354146,1094342501978720,0.1348875,-0.2085875,-0.1137125
1679914354151,1094342504481408,0.0798875,-0.2277,-0.1227875
1679914354151,1094342506983870,0.0449625,-0.2316875,-0.12979999
1679914354155,1094342509486331,0.0180125,-0.2226125,-0.1368125
1679914354156,1094342511988793,-0.0039875,-0.207625,-0.142725
1679914354158,1094342514491024,-0.01705,-0.19167499,-0.1527625
1679914354161,1094342516993730,-0.02805,-0.1736625,-0.1588125
1679914354163,1094342519496191,-0.0350625,-0.1535875,-0.1687125
1679914354167,1094342521998653,-0.0380875,-0.1315875,-0.181775
1679914354169,1094342524501114,-0.039049998,-0.1236125,-0.192775
1679914354171,1094342527003359,-0.036025,-0.117699996,-0.20075