system_ts_ms, sensor_ts_ns, gyrX, gyrY, gyrZ
1680013339487,1193327831554489,0.110275,-0.167475,0.1434125
1680013339487,1193327834056566,0.1032625,-0.1483625,0.1324125
1680013339488,1193327836558792,0.088275,-0.124437496,0.116325
1680013339488,1193327839060869,0.0721875,-0.0933625,0.106425
1680013339488,1193327841562792,0.0532125,-0.0644875,0.094325
1680013339489,1193327844064946,0.0312125,-0.035475,0.0804375
1680013339492,1193327846567008,0.014162499,-0.0144375,0.067375
1680013339502,1193327849068931,0.0042625,0.0045375,0.0573375
1680013339502,1193327851571008,-0.0097624995,0.0215875,0.0523875
1680013339502,1193327854073239,-0.0207625,0.036575,0.0463375
1680013339502,1193327856575302,-0.02475,0.0515625,0.040425
1680013339507,1193327859077455,-0.0237875,0.0565125,0.0383625
1680013339508,1193327861579378,-0.0207625,0.0655875,0.0364375
1680013339509,1193327864081455,-0.0188375,0.0686125,0.0364375
1680013339515,1193327866583590,-0.010725,0.0735625,0.0364375
1680013339515,1193327869085744,-0.0048125,0.0826375,0.034375
1680013339516,1193327871587667,2.75E-4,0.0875875,0.0383625
1680013339519,1193327874089744,0.00715,0.0906125,0.039325
1680013339521,1193327876591898,0.0132,0.0895125,0.040425
1680013339523,1193327879093835,0.0242,0.0906125,0.0413875
1680013339526,1193327881595912,0.0262625,0.0906125,0.0413875
1680013339528,1193327884098066,0.0281875,0.0906125,0.034375
1680013339532,1193327886600220,0.0352,0.093637496,0.0364375
1680013339533,1193327889102374,0.038225,0.0946,0.0374
1680013339536,1193327891604297,0.038225,0.0925375,0.0364375
1680013339539,1193327894106374,0.038225,0.086625,0.0364375
1680013339541,1193327896608527,0.04015,0.0826375,0.032449998
1680013339545,1193327899110436,0.0352,0.0796125,0.03135
1680013339551,1193327901612590,0.0352,0.0705375,0.0334125
1680013339551,1193327904114744,0.0372625,0.063525,0.032449998
1680013339551,1193327906616821,0.0372625,0.0625625,0.034375
1680013339554,1193327909118744,0.0352,0.05555,0.0383625
1680013339556,1193327911620811,0.0352,0.0506,0.040425
1680013339559,1193327914122965,0.033275,0.0435875,0.0444125
1680013339562,1193327916624888,0.0312125,0.0375375,0.0474375
1680013339568,1193327919127042,0.0352,0.0356125,0.0523875
1680013339569,1193327921629162,0.0342375,0.0295625,0.054449998
1680013339570,1193327924131239,0.033275,0.030524999,0.0573375
1680013339571,1193327926633393,0.0312125,0.0295625,0.06545
1680013339574,1193327929135316,0.0312125,0.0276375,0.0694375
1680013339576,1193327931637393,0.0312125,0.0295625,0.0704
1680013339582,1193327934139316,0.0312125,0.0295625,0.073425
1680013339584,1193327936641700,0.02915,0.030524999,0.0743875
1680013339585,1193327939143623,0.02915,0.03355,0.078375
1680013339587,1193327941645696,0.0281875,0.0375375,0.0793375
1680013339588,1193327944147850,0.03025,0.0386375,0.0774125
1680013339592,1193327946649773,0.033275,0.0396,0.07645
1680013339593,1193327949151850,0.03025,0.0485375,0.07535
1680013339599,1193327951654081,0.03025,0.0545875,0.073425
1680013339600,1193327954156153,0.027224999,0.05555,0.072325
1680013339602,1193327956658307,0.022275,0.0675125,0.0713625
1680013339604,1193327959160230,0.021175,0.0765875,0.073425
1680013339606,1193327961662307,0.0202125,0.0845625,0.0694375
1680013339609,1193327964164451,0.01815,0.0875875,0.061325
1680013339611,1193327966666374,0.014162499,0.0946,0.0603625
1680013339617,1193327969168527,0.014162499,0.1035375,0.056375
1680013339617,1193327971670604,0.0132,0.1065625,0.0554125
1680013339621,1193327974172503,0.011275,0.1095875,0.054449998
1680013339623,1193327976674580,0.0122375,0.11055,0.0523875
1680013339624,1193327979176811,0.0122375,0.1126125,0.050325
1680013339626,1193327981678888,0.014162499,0.1145375,0.0474375
1680013339628,1193327984181042,0.01815,0.115637496,0.0493625
1680013339633,1193327986682970,0.01925,0.1095875,0.0493625
1680013339634,1193327989185047,0.022275,0.1035375,0.0484
1680013339636,1193327991687201,0.022275,0.1035375,0.050325
1680013339639,1193327994189124,0.021175,0.104637496,0.0493625
1680013339643,1193327996691283,0.0202125,0.102575,0.0474375
1680013339643,1193327999193437,0.0202125,0.1095875,0.0493625
1680013339649,1193328001695514,0.0171875,0.104637496,0.050325
1680013339649,1193328004197437,0.01815,0.102575,0.050325
1680013339651,1193328006699504,0.015262499,0.104637496,0.05335
1680013339654,1193328009201657,0.010175,0.1095875,0.054449998
1680013339658,1193328011703811,0.0092124995,0.1016125,0.0493625
1680013339659,1193328014205965,0.00825,0.09955,0.0493625
1680013339663,1193328016707893,0.00715,0.1005125,0.0523875
1680013339667,1193328019209970,0.0061875,0.09955,0.05335
1680013339668,1193328021712124,0.0042625,0.096525,0.0584375
1680013339669,1193328024214047,0.0042625,0.096525,0.061325
1680013339672,1193328026716124,0.0042625,0.096525,0.062425
1680013339674,1193328029218388,0.005225,0.097625,0.0573375
1680013339676,1193328031720465,0.0061875,0.097625,0.0573375
1680013339679,1193328034222388,0.0042625,0.0955625,0.0584375
1680013339683,1193328036724465,0.00825,0.0925375,0.054449998
1680013339684,1193328039226629,0.00825,0.0925375,0.0523875
1680013339687,1193328041728552,0.010175,0.096525,0.05335
1680013339689,1193328044230629,0.0122375,0.093637496,0.050325
1680013339691,1193328046732859,0.0171875,0.0875875,0.050325
1680013339700,1193328049234902,0.01925,0.0845625,0.0523875
1680013339701,1193328051737056,0.022275,0.0826375,0.0554125
1680013339701,1193328054238979,0.0232375,0.0796125,0.056375
1680013339702,1193328056741056,0.021175,0.075625,0.054449998
1680013339704,1193328059243210,0.022275,0.075625,0.056375
1680013339706,1193328061745350,0.0262625,0.0675125,0.0573375
1680013339709,1193328064247273,0.0281875,0.0625625,0.0573375
1680013339712,1193328066749427,0.03025,0.0576125,0.0584375
1680013339715,1193328069251504,0.02915,0.052525,0.061325
1680013339717,1193328071753408,0.033275,0.047575,0.0594
1680013339719,1193328074255485,0.0361625,0.0455125,0.0603625
1680013339722,1193328076757639,0.038225,0.0435875,0.0594
1680013339724,1193328079259792,0.0391875,0.0375375,0.0603625
1680013339726,1193328081761716,0.041249998,0.0356125,0.061325
1680013339729,1193328084263869,0.0422125,0.0345125,0.0633875
1680013339735,1193328086765946,0.044275,0.0276375,0.062425
1680013339736,1193328089268100,0.0482625,0.0235125,0.0633875
1680013339737,1193328091770023,0.0501875,0.0155375,0.06435
1680013339739,1193328094272100,0.0452375,0.009625,0.0704
1680013339742,1193328096774331,0.0482625,0.01155,0.0694375
1680013339744,1193328099276408,0.05115,0.014575,0.0704
1680013339749,1193328101778331,0.0482625,0.0105875,0.07535
1680013339750,1193328104280408,0.0471625,0.01155,0.078375
1680013339752,1193328106782562,0.0471625,0.0066,0.0814
1680013339755,1193328109284485,0.0482625,0.0026125,0.08745
1680013339756,1193328111786639,0.0501875,5.5E-4,0.0933625
1680013339759,1193328114288807,0.05115,0.0015125,0.095425
1680013339761,1193328116790883,0.05115,5.5E-4,0.09735
1680013339766,1193328119293037,0.05115,-4.125E-4,0.0994125
1680013339766,1193328121794960,0.0482625,-4.125E-4,0.09735
1680013339771,1193328124297037,0.0452375,0.0026125,0.102437496
1680013339773,1193328126799191,0.0471625,0.0026125,0.09845
1680013339774,1193328129301345,0.0482625,0.0026125,0.095425
1680013339776,1193328131803268,0.044275,0.0056375,0.09735
1680013339779,1193328134305364,0.044275,0.0105875,0.0994125
1680013339782,1193328136807518,0.0462,0.0105875,0.09735
1680013339785,1193328139309441,0.0422125,0.0155375,0.09735
1680013339786,1193328141811537,0.0361625,0.0185625,0.0963875
1680013339789,1193328144313768,0.0342375,0.0215875,0.09845
1680013339792,1193328146815845,0.033275,0.030524999,0.100375
1680013339794,1193328149317768,0.0281875,0.0286,0.106425
1680013339798,1193328151819922,0.03025,0.0356125,0.10945
1680013339799,1193328154322018,0.03025,0.0375375,0.1123375
1680013339801,1193328156824172,0.0342375,0.031625,0.1153625
1680013339804,1193328159326095,0.0342375,0.030524999,0.113437496
1680013339808,1193328161828249,0.0342375,0.03355,0.111375
1680013339809,1193328164330412,0.033275,0.0345125,0.106425
1680013339812,1193328166832489,0.02915,0.0345125,0.09735
1680013339814,1193328169334412,0.0262625,0.036575,0.0903375
1680013339816,1193328171836489,0.022275,0.0396,0.0793375
1680013339819,1193328174338643,0.022275,0.0386375,0.073425
1680013339822,1193328176840807,0.0232375,0.042625,0.06545
1680013339824,1193328179342730,0.021175,0.042625,0.0594
1680013339827,1193328181844884,0.0202125,0.042625,0.0573375
1680013339829,1193328184346961,0.01925,0.04455,0.0484
1680013339832,1193328186848879,0.014162499,0.0506,0.0463375
1680013339834,1193328189351263,0.0122375,0.053625,0.045375
1680013339836,1193328191853186,0.0122375,0.0545875,0.045375
1680013339839,1193328194355263,0.0132,0.0576125,0.045375
1680013339842,1193328196857412,0.0092124995,0.0565125,0.039325
1680013339846,1193328199359335,0.0061875,0.05555,0.0413875
1680013339847,1193328201861412,0.005225,0.053625,0.040425
1680013339849,1193328204363335,0.00715,0.0545875,0.0413875
1680013339852,1193328206865710,0.00825,0.0515625,0.0413875
1680013339854,1193328209367633,0.00715,0.0496375,0.04235
1680013339856,1193328211869710,0.005225,0.0435875,0.0413875
1680013339859,1193328214371864,0.0022,0.0396,0.0413875
1680013339862,1193328216873807,0.0022,0.0396,0.04235
1680013339864,1193328219375961,0.0031625,0.036575,0.040425
1680013339866,1193328221878115,2.75E-4,0.03355,0.0413875
1680013339869,1193328224380191,-0.0017875,0.031625,0.04235
1680013339872,1193328226882345,2.75E-4,0.031625,0.040425
1680013339874,1193328229384282,-0.00275,0.0276375,0.0374
1680013339877,1193328231886359,-0.00275,0.0286,0.0383625
1680013339879,1193328234388282,-0.005775,0.0276375,0.0374
1680013339884,1193328236890441,-0.005775,0.0276375,0.034375
1680013339886,1193328239392595,-0.0048125,0.0215875,0.0334125
1680013339889,1193328241894672,-0.0067375,0.020624999,0.03135
1680013339890,1193328244396826,-0.005775,0.0265375,0.0303875
1680013339892,1193328246898749,-0.0088,0.0265375,0.0334125
1680013339894,1193328249400826,-0.0067375,0.0276375,0.0334125
1680013339897,1193328251902980,-0.00275,0.0286,0.032449998
1680013339899,1193328254405134,-0.0048125,0.0295625,0.03135
1680013339902,1193328256907287,-0.00385,0.03355,0.0334125
1680013339904,1193328259409220,-0.00385,0.0325875,0.03135
1680013339907,1193328261911296,-0.005775,0.03355,0.032449998
1680013339910,1193328264413220,-0.0017875,0.0345125,0.034375
1680013339912,1193328266915373,-0.00275,0.03355,0.034375
1680013339914,1193328269417450,-0.00385,0.0356125,0.03135
1680013339917,1193328271919604,-0.00275,0.036575,0.032449998
1680013339922,1193328274421758,-0.00275,0.0405625,0.03135
1680013339925,1193328276922724,-0.00275,0.0396,0.029424999
1680013339925,1193328279423687,-0.0048125,0.042625,0.032449998
1680013339927,1193328281927917,-0.00275,0.0435875,0.0303875
1680013339929,1193328284429840,-0.00385,0.0435875,0.0273625
1680013339932,1193328286931994,-0.00385,0.0455125,0.0303875
1680013339934,1193328289434148,-0.00385,0.0455125,0.029424999
1680013339936,1193328291936210,-0.00385,0.047575,0.0303875
1680013339939,1193328294438363,-0.0017875,0.047575,0.032449998
1680013339942,1193328296940210,-0.0017875,0.047575,0.028324999
1680013339945,1193328299442363,-0.0017875,0.04455,0.028324999
1680013339948,1193328301944263,-0.00385,0.0485375,0.0303875
1680013339950,1193328304446647,-0.00275,0.0455125,0.029424999
1680013339952,1193328306948570,-0.00275,0.047575,0.029424999
1680013339955,1193328309450647,-0.00385,0.047575,0.029424999
1680013339959,1193328311952791,1.375E-4,0.0455125,0.029424999
1680013339961,1193328314454714,0.0022,0.0485375,0.029424999
1680013339963,1193328316956791,0.0022,0.0485375,0.029424999
1680013339964,1193328319458945,1.375E-4,0.047575,0.029424999
1680013339967,1193328321961099,0.0012375,0.0495,0.0264
1680013339969,1193328324463248,1.375E-4,0.0485375,0.028324999
1680013339972,1193328326965094,1.375E-4,0.0485375,0.029424999
1680013339974,1193328329467248,1.375E-4,0.047575,0.0264
1680013339977,1193328331969171,1.375E-4,0.047575,0.0254375
1680013339981,1193328334471311,0.0022,0.0466125,0.0264
1680013339982,1193328336973387,0.0031625,0.0506,0.0254375
1680013339984,1193328339475541,0.0012375,0.0506,0.023375
1680013339988,1193328341977695,1.375E-4,0.0515625,0.023375
1680013339990,1193328344479618,1.375E-4,0.047575,0.0224125
1680013339992,1193328346981690,0.0031625,0.0455125,0.023375
1680013339997,1193328349483844,0.0012375,0.0455125,0.023375
1680013340000,1193328351985767,-0.00385,0.0455125,0.0224125
1680013340001,1193328354487921,-0.00275,0.0466125,0.02145
1680013340003,1193328356990066,0.0022,0.0435875,0.02035
1680013340006,1193328359492143,-0.0017875,0.0435875,0.02145
1680013340008,1193328361994066,0.0012375,0.0466125,0.017324999
1680013340010,1193328364496124,-0.00385,0.04455,0.017324999
1680013340012,1193328366998278,0.0012375,0.0455125,0.0193875
1680013340014,1193328369500201,0.0012375,0.0466125,0.017324999
1680013340017,1193328372002585,0.0022,0.04455,0.02035
1680013340020,1193328374504508,0.004125,0.0466125,0.02145
1680013340022,1193328377006590,0.004125,0.0455125,0.0193875
1680013340024,1193328379508744,0.0022,0.0405625,0.02035
1680013340027,1193328382010898,0.005225,0.042625,0.017324999
1680013340029,1193328384512821,0.005225,0.0405625,0.017324999
1680013340033,1193328387014903,0.0061875,0.036575,0.0154
1680013340036,1193328389517057,0.005225,0.036575,0.0163625
1680013340039,1193328392018980,0.0061875,0.03355,0.02145
1680013340044,1193328394521057,0.0061875,0.0295625,0.017324999
1680013340047,1193328397022980,0.00715,0.0286,0.0154
1680013340050,1193328399525360,0.00825,0.0295625,0.0163625
1680013340052,1193328402027283,0.00825,0.0265375,0.0163625
1680013340055,1193328404529360,0.00715,0.0235125,0.0163625
1680013340057,1193328407031514,0.00715,0.0265375,0.017324999
1680013340059,1193328409533460,0.00825,0.0246125,0.0154
1680013340061,1193328412035537,0.00715,0.0246125,0.0163625
1680013340064,1193328414537767,0.00715,0.0275,0.0133375
1680013340066,1193328417039844,0.010175,0.0275,0.012375
1680013340068,1193328419542012,0.00825,0.0275,0.0114124995
1680013340070,1193328422043935,0.0061875,0.0275,0.0114124995
1680013340073,1193328424546012,0.00825,0.0286,0.0114124995
1680013340075,1193328427047935,0.005225,0.0235125,0.00935
1680013340077,1193328429550084,0.0061875,0.0246125,0.0083875
1680013340079,1193328432052238,0.0092124995,0.0275,0.007425
1680013340081,1193328434554315,0.0132,0.0265375,0.0044
1680013340084,1193328437056469,0.010175,0.0286,0.0023375
1680013340085,1193328439558392,0.0092124995,0.0275,0.0023375
1680013340089,1193328442060474,0.010175,0.0275,0.0034375
1680013340091,1193328444562628,0.00825,0.0295625,0.0023375
1680013340093,1193328447064551,0.00715,0.0325875,0.001375
1680013340095,1193328449566935,0.010175,0.0275,4.125E-4
1680013340097,1193328452068858,0.00715,0.031625,-0.00165
1680013340102,1193328454570935,0.00825,0.03355,-5.5E-4
1680013340117,1193328457072858,0.0092124995,0.03355,-0.0026125
1680013340117,1193328459574935,0.0092124995,0.03355,-0.0086624995
1680013340118,1193328462077060,0.010175,0.0325875,-0.0075625
1680013340119,1193328464579214,0.010175,0.0325875,-0.0075625
1680013340119,1193328467081368,0.00825,0.03355,-0.0086624995
1680013340120,1193328469583291,0.00825,0.0345125,-0.0086624995
1680013340121,1193328472085368,0.00715,0.0356125,-0.0105875
1680013340122,1193328474587532,0.00715,0.0385,-0.0105875
1680013340126,1193328477089455,0.010175,0.0356125,-0.01265
1680013340126,1193328479591532,0.010175,0.0325875,-0.01265
1680013340127,1193328482093762,0.010175,0.0325875,-0.01265
1680013340129,1193328484595839,0.010175,0.031625,-0.014575
1680013340132,1193328487097762,0.0111375,0.03355,-0.014575
1680013340134,1193328489599916,0.00825,0.031625,-0.009625
1680013340137,1193328492101993,0.010175,0.030524999,-0.0075625
1680013340140,1193328494603901,0.0122375,0.0246125,-0.0075625
1680013340143,1193328497106286,0.0092124995,0.0295625,-0.0066
1680013340146,1193328499608209,0.010175,0.03355,-0.0075625
1680013340148,1193328502110286,0.0111375,0.0295625,-0.004675
1680013340149,1193328504612440,0.0092124995,0.0286,-0.0056375
1680013340152,1193328507114378,0.00825,0.0356125,-0.0056375
1680013340155,1193328509616455,0.00715,0.036575,-0.0026125
1680013340157,1193328512118609,0.0061875,0.036575,-0.003575
1680013340160,1193328514620772,0.00825,0.0375375,-0.0056375
1680013340162,1193328517122695,0.010175,0.0396,-0.003575
1680013340164,1193328519624772,0.00825,0.042625,-0.0056375
1680013340167,1193328522126925,0.00715,0.042625,-0.0056375
1680013340169,1193328524628848,0.00825,0.0435875,-0.003575
1680013340172,1193328527130935,0.005225,0.04455,-0.004675
1680013340175,1193328529633089,0.0092124995,0.04455,-0.003575
1680013340177,1193328532135243,0.00825,0.0466125,-0.004675
1680013340179,1193328534637397,0.00825,0.0455125,-0.0056375
1680013340183,1193328537139320,0.0092124995,0.0485375,-0.0056375
1680013340185,1193328539641397,0.0092124995,0.0506,-0.0056375
1680013340187,1193328542143551,0.00825,0.0495,-0.0026125
1680013340189,1193328544645474,0.00825,0.0506,-0.0026125
1680013340192,1193328547147614,0.00825,0.0485375,-0.00165
1680013340195,1193328549649768,0.0061875,0.0455125,-5.5E-4
1680013340196,1193328552151845,0.00715,0.0506,-5.5E-4
1680013340199,1193328554653768,0.00825,0.0506,-5.5E-4
1680013340202,1193328557155844,0.010175,0.0495,4.125E-4
1680013340205,1193328559657997,0.010175,0.047575,0.001375
1680013340207,1193328562159920,0.0111375,0.047575,-5.5E-4
1680013340209,1193328564662305,0.0092124995,0.0466125,0.001375
1680013340212,1193328567164224,0.00715,0.0435875,0.001375
1680013340215,1193328569666301,0.0092124995,0.0435875,0.0023375
1680013340218,1193328572168455,0.0092124995,0.04455,0.0023375
1680013340222,1193328574670378,0.010175,0.0405625,0.0023375
1680013340224,1193328577172426,0.010175,0.03355,0.006325
1680013340226,1193328579674580,0.0061875,0.0325875,0.0023375
1680013340227,1193328582176734,0.0092124995,0.0325875,0.0034375
1680013340230,1193328584678657,0.0122375,0.0295625,0.0034375
1680013340232,1193328587180715,0.00825,0.0286,0.0023375
1680013340235,1193328589682638,0.00825,0.0275,4.125E-4
1680013340237,1193328592185022,0.010175,0.0265375,0.0023375
1680013340239,1193328594686945,0.0111375,0.0215875,0.001375
1680013340242,1193328597189099,0.0111375,0.0165,-5.5E-4
1680013340244,1193328599691175,0.0092124995,0.013612499,-5.5E-4
1680013340247,1193328602193098,0.00825,0.0165,-5.5E-4
1680013340250,1193328604695252,0.00825,0.0105875,-5.5E-4
1680013340252,1193328607197402,0.004125,5.5E-4,0.001375
1680013340256,1193328609699479,0.005225,-4.125E-4,4.125E-4
1680013340259,1193328612201633,0.0061875,-0.0044,-5.5E-4
1680013340261,1193328614703556,0.00715,-0.0034375,-5.5E-4
1680013340262,1193328617205633,0.0061875,-0.0083875,-5.5E-4
1680013340264,1193328619707556,0.00715,-0.0144375,-5.5E-4
1680013340267,1193328622209710,0.00825,-0.0144375,0.001375
1680013340270,1193328624711864,0.0061875,-0.0174625,0.001375
1680013340273,1193328627213941,0.00825,-0.0174625,0.0023375
1680013340275,1193328629716113,0.0092124995,-0.0174625,0.0053625
1680013340277,1193328632218037,0.00825,-0.02145,0.0053625
1680013340280,1193328634720190,0.00715,-0.0224125,0.006325
1680013340285,1193328637222252,0.0092124995,-0.0193875,0.006325
1680013340286,1193328639724175,0.010175,-0.0193875,0.007425
1680013340288,1193328642226560,0.010175,-0.0193875,0.0083875
1680013340290,1193328644728483,0.010175,-0.02145,0.007425
1680013340292,1193328647230560,0.0111375,-0.0224125,0.006325
1680013340296,1193328649732483,0.0111375,-0.02145,0.00935
1680013340299,1193328652234637,0.0111375,-0.024475,0.00935
1680013340300,1193328654736714,0.00715,-0.0224125,0.00935
1680013340303,1193328657238868,0.0122375,-0.024475,0.012375
1680013340305,1193328659741022,0.0132,-0.018424999,0.00935
1680013340307,1193328662242955,0.0122375,-0.0165,0.00935
1680013340310,1193328664745109,0.0111375,-0.018424999,0.01045
1680013340312,1193328667247185,0.010175,-0.0154,0.01045
1680013340315,1193328669749109,0.014162499,-0.0174625,0.00935
1680013340317,1193328672251262,0.0122375,-0.0154,0.012375
1680013340319,1193328674753416,0.0111375,-0.013475,0.0114124995
1680013340324,1193328677255493,0.014162499,-0.013475,0.0114124995
1680013340325,1193328679757416,0.010175,-0.012375,0.01045
1680013340330,1193328682259580,0.0092124995,-0.01045,0.00935
1680013340330,1193328684761657,0.0122375,-0.01045,0.01045
1680013340334,1193328687263580,0.0111375,-0.01045,0.0133375
1680013340335,1193328689765734,0.0132,-0.0044,0.0114124995
1680013340338,1193328692267888,0.010175,-0.0044,0.0083875
1680013340343,1193328694769950,0.00715,-0.0055,0.0114124995
1680013340343,1193328697272104,0.00825,0.0015125,0.01045
1680013340346,1193328699774027,0.00825,-4.125E-4,0.0083875
1680013340348,1193328702276176,0.00825,5.5E-4,0.007425
1680013340349,1193328704778252,0.00715,0.003575,0.007425
1680013340353,1193328707280406,0.0061875,0.0045375,0.0053625
1680013340355,1193328709782560,0.005225,0.0075625,0.0023375
1680013340357,1193328712284483,0.0061875,0.0066,0.0034375
1680013340360,1193328714786570,0.004125,0.0066,0.001375
1680013340363,1193328717288493,0.005225,0.0105875,0.0023375
1680013340365,1193328719790647,0.0031625,0.0165,4.125E-4
1680013340367,1193328722292714,0.0022,0.013612499,-0.00165
1680013340372,1193328724794868,0.0012375,0.014575,-0.003575
1680013340375,1193328727297022,0.0022,0.014575,-5.5E-4
1680013340376,1193328729798945,0.0022,0.013612499,4.125E-4
1680013340378,1193328732301022,0.0031625,0.013612499,4.125E-4
1680013340380,1193328734803186,0.004125,0.0066,-0.0026125
1680013340383,1193328737305109,1.375E-4,0.009625,-5.5E-4
1680013340384,1193328739807493,-0.0017875,0.0075625,4.125E-4
1680013340389,1193328742309349,-0.0017875,0.0055,-0.004675
1680013340390,1193328744811503,-0.0048125,0.0066,-0.00165
1680013340392,1193328747313426,-0.0017875,0.0055,-0.0026125
1680013340395,1193328749815580,1.375E-4,0.0075625,0.001375
1680013340397,1193328752317657,-0.0048125,0.009625,0.006325
1680013340400,1193328754819599,-0.006875,0.0055,0.0053625
1680013340402,1193328757321984,1.375E-4,0.0066,0.0053625
1680013340405,1193328759823907,-0.00385,0.009625,0.0053625
1680013340409,1193328762325993,-0.006875,0.0075625,0.0053625
1680013340411,1193328764828147,-0.006875,0.0055,0.0053625
1680013340414,1193328767330070,-0.005775,0.0075625,0.0044
1680013340416,1193328769832224,-0.006875,0.0015125,0.0083875
1680013340417,1193328772334301,-0.006875,0.003575,0.007425
1680013340420,1193328774836445,-0.005775,0.0026125,0.00935
1680013340422,1193328777338369,-0.005775,0.00165,0.00935
1680013340425,1193328779840445,-0.005775,0.0026125,0.01045
1680013340427,1193328782342599,-0.0077,0.00165,0.0114124995
1680013340430,1193328784844507,-0.0067375,-4.125E-4,0.012375
1680013340433,1193328787346661,-0.0067375,-0.0044,0.0144375
1680013340434,1193328789848815,-0.0077,-4.125E-4,0.0163625
1680013340438,1193328792350892,-0.0097624995,-4.125E-4,0.0163625
1680013340440,1193328794853061,-0.0088,-0.002475,0.017324999
1680013340443,1193328797354984,-0.0067375,-0.001375,0.02145
1680013340446,1193328799857061,-0.0048125,-0.002475,0.0224125
1680013340448,1193328802359215,-0.005775,-0.0053625,0.02145
1680013340450,1193328804861369,-0.0067375,-0.001375,0.0224125
1680013340453,1193328807363302,-0.005775,0.00165,0.02145
1680013340458,1193328809865379,-0.005775,0.0026125,0.02035
1680013340459,1193328812367302,-0.0067375,0.0045375,0.023375
1680013340462,1193328814869437,-0.005775,0.0026125,0.02035
1680013340464,1193328817371590,-0.0067375,0.0066,0.017324999
1680013340466,1193328819873667,-0.005775,0.0045375,0.02145
1680013340467,1193328822375821,-0.005775,0.0056375,0.0193875
1680013340470,1193328824877744,-0.0037125,0.00165,0.017324999
1680013340472,1193328827379893,-0.00275,0.003575,0.0193875
1680013340475,1193328829881970,-0.00275,0.0075625,0.0193875
1680013340477,1193328832383893,-0.0017875,0.0066,0.017324999
1680013340480,1193328834886278,0.0012375,0.0026125,0.017324999
1680013340484,1193328837388201,0.0012375,0.0026125,0.0154
1680013340487,1193328839890278,-0.0017875,0.003575,0.0154
1680013340488,1193328842392201,2.75E-4,0.0045375,0.0154
1680013340491,1193328844894355,0.0012375,0.0045375,0.0163625
1680013340493,1193328847396408,0.0012375,-0.0034375,0.0154
1680013340495,1193328849898561,2.75E-4,-0.0083875,0.0163625
1680013340497,1193328852400715,-0.0017875,-0.0083875,0.0154
1680013340500,1193328854902638,0.0022,-0.007425,0.0154
1680013340502,1193328857404710,0.0012375,-0.00935,0.0193875
1680013340505,1193328859906864,0.0022,-0.0114124995,0.017324999
1680013340507,1193328862408787,0.0033,-0.0144375,0.017324999
1680013340510,1193328864910941,0.0022,-0.0193875,0.0163625
1680013340513,1193328867413105,0.0033,-0.02035,0.0193875
1680013340515,1193328869915182,0.0022,-0.02145,0.0193875
1680013340518,1193328872417336,0.0033,-0.0264,0.02035
1680013340522,1193328874919259,0.0042625,-0.0303875,0.023375
1680013340524,1193328877421326,0.0042625,-0.03135,0.02035
1680013340526,1193328879923249,0.005225,-0.03135,0.02035
1680013340528,1193328882425403,0.0042625,-0.0334125,0.0224125
1680013340530,1193328884927557,0.0042625,-0.035475,0.0254375
1680013340532,1193328887429634,0.0033,-0.0394625,0.023375
1680013340535,1193328889931801,0.0042625,-0.0413875,0.028324999
1680013340538,1193328892433724,0.0042625,-0.0394625,0.0264
1680013340540,1193328894935878,0.0033,-0.0413875,0.0224125
1680013340542,1193328897437955,0.0022,-0.0394625,0.0243375
1680013340545,1193328899940124,2.75E-4,-0.0413875,0.023375
1680013340547,1193328902442047,0.0022,-0.0444125,0.023375
1680013340550,1193328904944124,0.0033,-0.043449998,0.0243375
1680013340552,1193328907446278,0.0033,-0.04235,0.0243375
1680013340555,1193328909948215,0.005225,-0.0413875,0.0243375
1680013340561,1193328912450369,0.0061875,-0.0394625,0.0254375
1680013340563,1193328914952446,0.005225,-0.0413875,0.0243375
1680013340564,1193328917454600,0.005225,-0.043449998,0.0224125
1680013340565,1193328919956730,0.005225,-0.0413875,0.023375
1680013340567,1193328922458653,0.005225,-0.0413875,0.023375
1680013340570,1193328924960730,0.00825,-0.0383625,0.02035
1680013340572,1193328927462883,0.0061875,-0.0413875,0.0193875
1680013340575,1193328929964806,0.0061875,-0.0394625,0.02145
1680013340577,1193328932466979,0.00825,-0.0374,0.02145
1680013340580,1193328934969133,0.010175,-0.0374,0.023375
1680013340582,1193328937471210,0.010175,-0.0374,0.023375
1680013340584,1193328939973133,0.0092124995,-0.0364375,0.02035
1680013340587,1193328942475297,0.011275,-0.0364375,0.02035
1680013340590,1193328944977374,0.011275,-0.034375,0.0224125
1680013340592,1193328947479297,0.0092124995,-0.029424999,0.02145
1680013340596,1193328949981682,0.0122375,-0.03135,0.0224125
1680013340598,1193328952483624,0.0132,-0.032449998,0.02145
1680013340600,1193328954985701,0.011275,-0.0273625,0.02035
1680013340603,1193328957487855,0.0132,-0.0264,0.02145
1680013340605,1193328959989778,0.0182875,-0.0273625,0.0193875
1680013340607,1193328962491855,0.01925,-0.0254375,0.0163625
1680013340610,1193328964994008,0.0171875,-0.02035,0.0163625
1680013340612,1193328967496162,0.01925,-0.0224125,0.0144375
1680013340615,1193328969998316,0.01925,-0.018424999,0.0144375
1680013340617,1193328972500239,0.021175,-0.02145,0.0144375
1680013340620,1193328975002306,0.0232375,-0.0193875,0.0133375
1680013340622,1193328977504229,0.01925,-0.0174625,0.012375
1680013340625,1193328980006383,0.01925,-0.018424999,0.01045
1680013340627,1193328982508537,0.0202125,-0.018424999,0.0114124995
1680013340630,1193328985010614,0.0232375,-0.0163625,0.012375
1680013340634,1193328987512778,0.0262625,-0.0163625,0.00935
1680013340636,1193328990014701,0.022275,-0.02145,0.007425
1680013340638,1193328992516778,0.0232375,-0.0224125,0.0083875
1680013340640,1193328995018932,0.0262625,-0.0224125,0.007425
1680013340642,1193328997520855,0.0242,-0.0264,0.006325
1680013340644,1193329000023008,0.0242,-0.0254375,0.00935
1680013340647,1193329002525085,0.022275,-0.0273625,0.0044
1680013340651,1193329005026994,0.0202125,-0.0254375,0.006325
1680013340653,1193329007529148,0.022275,-0.0284625,0.01045
1680013340655,1193329010031302,0.0242,-0.0273625,0.01045
1680013340657,1193329012533456,0.0232375,-0.034375,0.00935
1680013340660,1193329015035533,0.022275,-0.0374,0.00935
1680013340663,1193329017537465,0.0232375,-0.0383625,0.006325
1680013340665,1193329020039619,0.021175,-0.034375,0.00935
1680013340667,1193329022541696,0.021175,-0.0394625,0.0114124995
1680013340672,1193329025043634,0.022275,-0.04235,0.0083875
1680013340674,1193329027546019,0.0232375,-0.0394625,0.00935
1680013340675,1193329030047942,0.0242,-0.0383625,0.00935
1680013340677,1193329032550019,0.0232375,-0.045375,0.007425
1680013340680,1193329035052172,0.021175,-0.045375,0.006325
1680013340683,1193329037554080,0.021175,-0.0474375,0.0044
1680013340685,1193329040056157,0.021175,-0.0493625,0.006325
1680013340687,1193329042558311,0.0171875,-0.0484,0.007425
1680013340690,1193329045060465,0.0182875,-0.0504625,0.00935
1680013340693,1193329047562388,0.022275,-0.051425,0.007425
1680013340696,1193329050064547,0.021175,-0.0493625,0.006325
1680013340698,1193329052566624,0.0253,-0.0504625,0.006325
1680013340700,1193329055068547,0.0242,-0.051425,0.00935
1680013340703,1193329057570706,0.0242,-0.054449998,0.00935
1680013340705,1193329060072860,0.022275,-0.057475,0.01045
1680013340709,1193329062574937,0.022275,-0.0504625,0.00935
1680013340711,1193329065076860,0.0242,-0.0484,0.006325
1680013340713,1193329067579009,0.0242,-0.0504625,0.0083875
1680013340715,1193329070081086,0.0262625,-0.0504625,0.0083875
1680013340718,1193329072583009,0.0242,-0.051425,0.00935
1680013340720,1193329075085162,0.0253,-0.051425,0.0053625
1680013340722,1193329077587316,0.0262625,-0.0474375,0.006325
1680013340727,1193329080089460,0.0292875,-0.0504625,0.006325
1680013340731,1193329082591537,0.0312125,-0.0504625,0.007425
1680013340731,1193329085093460,0.0312125,-0.0504625,0.0053625
1680013340733,1193329087595614,0.0292875,-0.0484,0.0034375
1680013340734,1193329090097701,0.0292875,-0.0504625,0.0034375
1680013340737,1193329092599855,0.0342375,-0.0504625,0.0053625
1680013340739,1193329095102009,0.0372625,-0.05335,0.0053625
1680013340743,1193329097603932,0.0391875,-0.051425,0.0034375
1680013340746,1193329100106004,0.0342375,-0.051425,0.0023375
1680013340748,1193329102607927,0.0352,-0.0493625,0.0034375
1680013340750,1193329105110081,0.038225,-0.0493625,0.0044
1680013340752,1193329107612158,0.0372625,-0.057475,0.0034375
1680013340755,1193329110114311,0.038225,-0.057475,0.0023375
1680013340757,1193329112616460,0.038225,-0.05335,0.0023375
1680013340760,1193329115118383,0.0352,-0.05335,0.0023375
1680013340763,1193329117620537,0.0402875,-0.0523875,0.0023375
1680013340765,1193329120122614,0.0422125,-0.054449998,0.0023375
1680013340767,1193329122624528,0.0422125,-0.05335,0.0053625
1680013340770,1193329125126682,0.0402875,-0.054449998,0.0023375
1680013340773,1193329127628836,0.0391875,-0.057475,0.001375
1680013340775,1193329130130913,0.041249998,-0.054449998,4.125E-4
1680013340777,1193329132632836,0.041249998,-0.0594,4.125E-4
1680013340779,1193329135134990,0.0402875,-0.0603625,4.125E-4
1680013340784,1193329137637067,0.0402875,-0.0584375,-5.5E-4
1680013340786,1193329140138990,0.038225,-0.0584375,0.001375
1680013340788,1193329142641383,0.0372625,-0.057475,0.0023375
1680013340790,1193329145143307,0.038225,-0.057475,4.125E-4
1680013340793,1193329147645460,0.038225,-0.0603625,-0.00165
1680013340795,1193329150147537,0.0363,-0.0633875,-0.00165
1680013340797,1193329152649460,0.0352,-0.062425,-5.5E-4
1680013340800,1193329155151633,0.0391875,-0.0584375,-0.0026125
1680013340802,1193329157653710,0.038225,-0.057475,-0.00165
1680013340805,1193329160155864,0.038225,-0.0614625,-0.00165
1680013340808,1193329162657787,0.038225,-0.062425,-0.004675
1680013340810,1193329165159946,0.038225,-0.0633875,-0.003575
1680013340813,1193329167662023,0.038225,-0.0664125,-0.003575
1680013340815,1193329170163946,0.0372625,-0.0633875,-0.003575
1680013340817,1193329172666100,0.038225,-0.062425,-0.0056375
1680013340822,1193329175168191,0.0372625,-0.0633875,-0.0075625
1680013340824,1193329177670345,0.0342375,-0.06435,-0.0086624995
1680013340826,1193329180172498,0.0352,-0.06545,-0.0066
1680013340828,1193329182674422,0.033275,-0.062425,-0.0066
1680013340830,1193329185176575,0.0363,-0.0633875,-0.0075625
1680013340832,1193329187678624,0.0312125,-0.0614625,-0.0086624995
1680013340835,1193329190180547,0.033275,-0.062425,-0.0086624995
1680013340838,1193329192682701,0.033275,-0.06435,-0.0066
1680013340840,1193329195184855,0.033275,-0.0603625,-0.0056375
1680013340843,1193329197686922,0.033275,-0.06435,-0.0066
1680013340845,1193329200188845,0.0312125,-0.0594,-0.0105875
1680013340848,1193329202690999,0.033275,-0.05335,-0.009625
1680013340850,1193329205193076,0.0312125,-0.0554125,-0.0105875
1680013340853,1193329207695018,0.0281875,-0.054449998,-0.0105875
1680013340855,1193329210197403,0.03025,-0.0493625,-0.0086624995
1680013340859,1193329212699326,0.03025,-0.0474375,-0.0105875
1680013340862,1193329215201403,0.0312125,-0.0484,-0.009625
1680013340864,1193329217703321,0.03025,-0.0474375,-0.009625
1680013340865,1193329220205705,0.0292875,-0.043449998,-0.0105875
1680013340867,1193329222707628,0.0281875,-0.043449998,-0.0105875
1680013340870,1193329225209705,0.03025,-0.04235,-0.01155
1680013340872,1193329227711628,0.0292875,-0.035475,-0.01155
1680013340875,1193329230213768,0.0292875,-0.0413875,-0.0105875
1680013340877,1193329232715845,0.0281875,-0.0394625,-0.014575
1680013340880,1193329235217768,0.0253,-0.0334125,-0.009625
1680013340883,1193329237720153,0.0281875,-0.0364375,-0.0086624995
1680013340885,1193329240222052,0.0281875,-0.035475,-0.009625
1680013340887,1193329242724206,0.0262625,-0.03135,-0.0105875
1680013340890,1193329245226283,0.03025,-0.0284625,-0.009625
1680013340892,1193329247728206,0.03025,-0.0273625,-0.0066
1680013340897,1193329250230365,0.033275,-0.0273625,-0.0086624995
1680013340898,1193329252732519,0.0312125,-0.024475,-0.01265
1680013340901,1193329255234595,0.0312125,-0.0284625,-0.009625
1680013340903,1193329257736749,0.033275,-0.0273625,-0.014575
1680013340905,1193329260238672,0.0292875,-0.0284625,-0.009625
1680013340908,1193329262740744,0.0312125,-0.0284625,-0.0086624995
1680013340910,1193329265242667,0.033275,-0.034375,-0.0086624995
1680013340913,1193329267744821,0.03025,-0.029424999,-0.0075625
1680013340915,1193329270246975,0.03025,-0.03135,-0.0105875
1680013340919,1193329272749114,0.0292875,-0.029424999,-0.0075625
1680013340922,1193329275251191,0.02915,-0.029424999,-0.0086624995
1680013340924,1193329277753114,0.03025,-0.0314875,-0.01265
1680013340926,1193329280255268,0.0262625,-0.032449998,-0.009625
1680013340927,1193329282757345,0.0262625,-0.0334125,-0.01265
1680013340930,1193329285259263,0.027224999,-0.032449998,-0.0105875
1680013340934,1193329287761417,0.0242,-0.035475,-0.015675
1680013340936,1193329290263571,0.0232375,-0.0364375,-0.01265
1680013340938,1193329292765647,0.0251625,-0.0364375,-0.01265
1680013340940,1193329295267571,0.0221375,-0.0364375,-0.014575
1680013340943,1193329297769724,0.0242,-0.0383625,-0.014575
1680013340945,1193329300271801,0.0221375,-0.0374,-0.01265
1680013340948,1193329302773955,0.0221375,-0.0364375,-0.0166375
1680013340950,1193329305276119,0.0232375,-0.0424875,-0.015675
1680013340953,1193329307778042,0.021175,-0.045375,-0.015675
1680013340955,1193329310280196,0.0221375,-0.0504625,-0.01265
1680013340958,1193329312782273,0.021175,-0.0484,-0.0166375
1680013340960,1193329315284196,0.01925,-0.051425,-0.014575
1680013340963,1193329317786355,0.021175,-0.054449998,-0.0105875
1680013340965,1193329320288509,0.0202125,-0.0584375,-0.014575
1680013340967,1193329322790586,0.01815,-0.0594,-0.0105875
1680013340972,1193329325292470,0.021175,-0.0614625,-0.009625
1680013340974,1193329327794624,0.0202125,-0.062425,-0.0086624995
1680013340978,1193329330296700,0.0202125,-0.0614625,-0.0075625
1680013340980,1193329332798624,0.01925,-0.0614625,-0.0086624995
1680013340981,1193329335301008,0.0171875,-0.0633875,-0.0075625
1680013340984,1193329337802950,0.01815,-0.0584375,-0.0056375
1680013340985,1193329340305027,0.015262499,-0.0594,-0.004675
1680013340988,1193329342807181,0.01815,-0.0594,-0.004675
1680013340990,1193329345309104,0.015262499,-0.0584375,-0.003575
1680013340992,1193329347811258,0.0132,-0.054449998,-0.004675
1680013340995,1193329350313321,0.014162499,-0.051425,-0.004675
1680013340997,1193329352815475,0.015262499,-0.0534875,-0.0026125
1680013341000,1193329355317398,0.0132,-0.0493625,-5.5E-4
1680013341003,1193329357819552,0.0122375,-0.045375,-5.5E-4
1680013341005,1193329360321648,0.0111375,-0.0394625,4.125E-4
1680013341009,1193329362823571,0.0132,-0.0383625,4.125E-4
1680013341012,1193329365325725,0.0132,-0.0374,0.0023375
1680013341014,1193329367827801,0.0111375,-0.032449998,0.0023375
1680013341015,1193329370329955,0.0111375,-0.029424999,4.125E-4
1680013341018,1193329372832109,0.010175,-0.02145,0.001375
1680013341020,1193329375334032,0.0111375,-0.018424999,0.001375
1680013341023,1193329377836186,0.010175,-0.0163625,0.001375
1680013341025,1193329380338258,0.010175,-0.0144375,-5.5E-4
1680013341028,1193329382840181,0.00825,-0.0083875,0.0023375
1680013341030,1193329385342335,0.005225,-0.0083875,0.001375
1680013341033,1193329387844412,0.0061875,-0.0053625,4.125E-4
1680013341035,1193329390346561,0.0022,5.5E-4,-0.00165
1680013341039,1193329392848484,0.0031625,0.0015125,-0.00165
1680013341040,1193329395350638,0.0031625,0.0026125,-0.0026125
1680013341043,1193329397852715,0.0042625,5.5E-4,-0.0026125
1680013341048,1193329400354600,0.0022,0.003575,-0.003575
1680013341049,1193329402856984,0.0022,0.0026125,-0.0026125
1680013341051,1193329405358907,0.0012375,0.0056375,-0.00165
1680013341052,1193329407860984,-0.0017875,0.0066,-0.0026125
1680013341056,1193329410363138,-0.00275,0.0066,-0.0026125
1680013341058,1193329412865061,-0.00385,0.0045375,-0.00165
1680013341061,1193329415367138,-0.005775,0.003575,4.125E-4
1680013341063,1193329417869061,-0.0078375,0.0026125,-5.5E-4
1680013341065,1193329420371446,-0.0067375,-0.0034375,0.001375
1680013341068,1193329422873364,-0.0078375,-0.0053625,0.001375
1680013341073,1193329425375441,-0.0048125,-0.0064625,0.0034375
1680013341074,1193329427877595,-0.0067375,-0.0064625,0.0053625
1680013341076,1193329430379749,-0.011825,-0.0044,0.0053625
1680013341078,1193329432881667,-0.011825,-0.0094875,0.006325
1680013341080,1193329435383821,-0.0108624995,-0.0114124995,0.006325
1680013341085,1193329437885898,-0.0127875,-0.0163625,0.0053625
1680013341086,1193329440388051,-0.0158125,-0.0163625,0.0083875
1680013341090,1193329442889903,-0.0158125,-0.0204875,0.00935
1680013341090,1193329445392133,-0.0158125,-0.0224125,0.01045
1680013341093,1193329447894210,-0.0198,-0.024475,0.0133375
1680013341095,1193329450396133,-0.0188375,-0.0254375,0.012375
1680013341098,1193329452898287,-0.0198,-0.0284625,0.0114124995
1680013341102,1193329455400364,-0.0207625,-0.0273625,0.012375
1680013341107,1193329457902518,-0.0198,-0.0273625,0.0133375
1680013341109,1193329460404441,-0.0237875,-0.029424999,0.0144375
1680013341110,1193329462906595,-0.02475,-0.0273625,0.0133375
1680013341112,1193329465408744,-0.0207625,-0.0303875,0.0144375
1680013341114,1193329467910821,-0.022824999,-0.034375,0.0144375
1680013341116,1193329470412744,-0.0237875,-0.0303875,0.0144375
1680013341118,1193329472914898,-0.02475,-0.029424999,0.017324999
1680013341122,1193329475416961,-0.0237875,-0.0264,0.0193875
1680013341124,1193329477918884,-0.02475,-0.0224125,0.017324999
1680013341126,1193329480421037,-0.02585,-0.024475,0.0163625
1680013341128,1193329482923191,-0.022824999,-0.0224125,0.0163625
1680013341130,1193329485425268,-0.02475,-0.024475,0.02035
1680013341133,1193329487927422,-0.0268125,-0.0204875,0.02145
1680013341135,1193329490429345,-0.0268125,-0.018424999,0.02035
1680013341138,1193329492931422,-0.0268125,-0.018424999,0.02145
1680013341140,1193329495433653,-0.027775,-0.018424999,0.0243375
1680013341143,1193329497935759,-0.02585,-0.0163625,0.023375
1680013341145,1193329500437682,-0.0237875,-0.0163625,0.0243375
1680013341148,1193329502939836,-0.02475,-0.0204875,0.0243375
1680013341150,1193329505441913,-0.02475,-0.0193875,0.023375
1680013341153,1193329507943826,-0.02475,-0.0204875,0.023375
1680013341159,1193329510445903,-0.02475,-0.018424999,0.0243375
1680013341161,1193329512948133,-0.0268125,-0.02145,0.0254375
1680013341163,1193329515450210,-0.02475,-0.0204875,0.028324999
1680013341164,1193329517952133,-0.02585,-0.0204875,0.0254375
1680013341166,1193329520454287,-0.0268125,-0.0204875,0.0264
1680013341168,1193329522956364,-0.022824999,-0.0224125,0.029424999
1680013341172,1193329525458518,-0.02475,-0.0224125,0.0273625
1680013341174,1193329527960441,-0.02585,-0.0193875,0.0224125
1680013341176,1193329530462585,-0.02585,-0.024475,0.0264
1680013341178,1193329532964739,-0.022824999,-0.024475,0.028324999
1680013341180,1193329535466816,-0.022824999,-0.02145,0.0254375
1680013341183,1193329537968739,-0.022824999,-0.0284625,0.029424999
1680013341185,1193329540470903,-0.022824999,-0.0264,0.023375
1680013341189,1193329542972980,-0.02475,-0.02145,0.0243375
1680013341190,1193329545475134,-0.02585,-0.0273625,0.023375
1680013341193,1193329547977057,-0.02475,-0.029424999,0.02145
1680013341197,1193329550479200,-0.02585,-0.029424999,0.0224125
1680013341199,1193329552981277,-0.02475,-0.0273625,0.023375
1680013341201,1193329555483200,-0.0218625,-0.0254375,0.0224125
1680013341203,1193329557985354,-0.0207625,-0.0254375,0.0193875
1680013341205,1193329560487431,-0.0218625,-0.0264,0.0193875
1680013341208,1193329562989662,-0.0207625,-0.029424999,0.02035
1680013341210,1193329565491739,-0.0207625,-0.024475,0.0163625
1680013341213,1193329567993662,-0.022824999,-0.0254375,0.0163625
1680013341215,1193329570495816,-0.02475,-0.0224125,0.0163625
1680013341218,1193329572997917,-0.02475,-0.024475,0.017324999
1680013341221,1193329575499840,-0.0237875,-0.02145,0.0154
1680013341224,1193329578001994,-0.0237875,-0.0224125,0.0114124995
1680013341226,1193329580504148,-0.02585,-0.0193875,0.0154
1680013341228,1193329583006206,-0.0268125,-0.0193875,0.0193875
1680013341231,1193329585508129,-0.0268125,-0.0193875,0.0163625
1680013341234,1193329588010282,-0.02585,-0.0204875,0.017324999
1680013341237,1193329590512359,-0.022824999,-0.0163625,0.0154
1680013341239,1193329593014513,-0.0268125,-0.012375,0.0163625
1680013341240,1193329595516681,-0.0268125,-0.012375,0.0224125
1680013341243,1193329598018604,-0.027775,-0.012375,0.0193875
1680013341246,1193329600520758,-0.027775,-0.0083875,0.02035
1680013341249,1193329603022840,-0.0287375,-0.0083875,0.0224125
1680013341253,1193329605524763,-0.0287375,-0.01045,0.0224125
1680013341257,1193329608026840,-0.0268125,-0.0064625,0.0243375
1680013341259,1193329610528994,-0.0298375,-0.0044,0.023375
1680013341261,1193329613031148,-0.0287375,-0.0044,0.0224125
1680013341264,1193329615533076,-0.0268125,-0.007425,0.023375
1680013341267,1193329618035230,-0.0268125,-0.0083875,0.0224125
1680013341269,1193329620537307,-0.0268125,-0.0034375,0.0243375
1680013341271,1193329623039230,-0.027775,-0.001375,0.023375
1680013341273,1193329625541383,-0.0287375,-0.002475,0.0243375
1680013341276,1193329628043537,-0.0298375,0.0026125,0.0254375
1680013341278,1193329630545614,-0.0298375,0.0026125,0.0264
1680013341280,1193329633047537,-0.0308,5.5E-4,0.0273625
1680013341283,1193329635549691,-0.0298375,0.0056375,0.028324999
1680013341286,1193329638051749,-0.0308,0.009625,0.029424999
1680013341288,1193329640553903,-0.027775,0.0125124995,0.028324999
1680013341290,1193329643055826,-0.0317625,0.0166375,0.0264
1680013341292,1193329645557980,-0.0298375,0.019524999,0.032449998
1680013341294,1193329648060061,-0.0268125,0.0185625,0.032449998
1680013341296,1193329650562215,-0.0287375,0.02255,0.032449998
1680013341298,1193329653064138,-0.0298375,0.0235125,0.03135
1680013341302,1193329655566292,-0.027775,0.0276375,0.032449998
1680013341304,1193329658068445,-0.0298375,0.03355,0.032449998
1680013341307,1193329660570522,-0.0287375,0.0325875,0.0303875
1680013341309,1193329663072446,-0.02475,0.03355,0.0303875
1680013341312,1193329665574599,-0.0237875,0.0356125,0.0303875
1680013341314,1193329668076672,-0.0268125,0.0345125,0.0273625
1680013341316,1193329670578595,-0.0268125,0.03355,0.028324999
1680013341319,1193329673080749,-0.0218625,0.0375375,0.0264
1680013341322,1193329675582903,-0.0237875,0.036575,0.0264
1680013341324,1193329678084960,-0.0237875,0.0375375,0.023375
1680013341326,1193329680586883,-0.0237875,0.0325875,0.0254375
1680013341328,1193329683089037,-0.022824999,0.0356125,0.0273625
1680013341331,1193329685591114,-0.0207625,0.030524999,0.0264
1680013341334,1193329688093345,-0.0198,0.0265375,0.0273625
1680013341336,1193329690595422,-0.0207625,0.0215875,0.0273625
1680013341339,1193329693097345,-0.0198,0.0166375,0.029424999
1680013341342,1193329695599499,-0.0207625,0.0125124995,0.028324999
1680013341344,1193329698101575,-0.0207625,0.0125124995,0.028324999
1680013341347,1193329700603509,-0.0188375,0.014575,0.028324999
1680013341349,1193329703105585,-0.0188375,0.009625,0.028324999
1680013341355,1193329705607816,-0.0188375,-0.001375,0.029424999
1680013341364,1193329708109893,-0.0188375,-0.002475,0.0303875
1680013341364,1193329710611816,-0.0177375,-0.0053625,0.032449998
1680013341365,1193329713113960,-0.0188375,-0.0083875,0.03135
1680013341365,1193329715616037,-0.0188375,-0.0144375,0.032449998
1680013341365,1193329718117960,-0.0198,-0.0114124995,0.0364375
1680013341366,1193329720620114,-0.0188375,-0.0163625,0.034375
1680013341368,1193329723122263,-0.0207625,-0.02145,0.0374
1680013341371,1193329725624417,-0.016775,-0.024475,0.040425
1680013341373,1193329728126494,-0.0177375,-0.0254375,0.039325
1680013341376,1193329730628417,-0.0177375,-0.0284625,0.040425
1680013341378,1193329733130509,-0.0177375,-0.0334125,0.0413875
1680013341382,1193329735632662,-0.0177375,-0.035475,0.040425
1680013341384,1193329738134816,-0.016775,-0.0413875,0.043449998
1680013341386,1193329740636739,-0.0158125,-0.0424875,0.0444125
1680013341389,1193329743138907,-0.011825,-0.045375,0.043449998
1680013341391,1193329745640984,-0.011825,-0.0484,0.0444125
1680013341393,1193329748142907,-0.01375,-0.0554125,0.045375
1680013341395,1193329750645061,-0.011825,-0.057475,0.043449998
1680013341398,1193329753147138,-0.0108624995,-0.0594,0.0444125
1680013341402,1193329755649388,-0.0088,-0.0633875,0.0463375
1680013341403,1193329758151465,-0.011825,-0.06545,0.043449998
1680013341405,1193329760653388,-0.0088,-0.0694375,0.0444125
1680013341408,1193329763155465,-0.0097624995,-0.0743875,0.045375
1680013341411,1193329765657369,-0.0088,-0.0754875,0.0444125
1680013341413,1193329768159523,-0.0078375,-0.0834625,0.0444125
1680013341415,1193329770661600,-0.0078375,-0.084425,0.0444125
1680013341418,1193329773163830,-0.0088,-0.0853875,0.043449998
1680013341423,1193329775665883,-0.0078375,-0.08745,0.04235
1680013341425,1193329778167806,-0.006875,-0.091437496,0.0413875
1680013341426,1193329780669960,-0.006875,-0.091437496,0.043449998
1680013341428,1193329783172037,-0.0078375,-0.095425,0.0413875
1680013341431,1193329785673960,-0.006875,-0.0994125,0.0444125
1680013341433,1193329788176345,-0.005775,-0.0994125,0.043449998
1680013341438,1193329790678268,-0.006875,-0.100375,0.04235
1680013341439,1193329793180422,-0.00385,-0.09845,0.045375
1680013341441,1193329795682268,-0.00275,-0.0994125,0.0444125
1680013341443,1193329798184436,-0.006875,-0.102437496,0.04235
1680013341445,1193329800686513,-0.006875,-0.1034,0.04235
1680013341448,1193329803188667,-0.005775,-0.104499996,0.04235
1680013341451,1193329805690820,-0.006875,-0.102437496,0.040425
1680013341453,1193329808192744,-0.005775,-0.102437496,0.04235
1680013341456,1193329810694926,-0.005775,-0.101475,0.0413875
1680013341461,1193329813197003,-0.0078375,-0.0974875,0.043449998
1680013341462,1193329815698926,-0.0078375,-0.095425,0.04235
1680013341464,1193329818201075,-0.0088,-0.09845,0.0413875
1680013341465,1193329820703229,-0.0078375,-0.0974875,0.0383625
1680013341468,1193329823205383,-0.006875,-0.0944625,0.0364375
1680013341473,1193329825707229,-0.006875,-0.0944625,0.0374
1680013341473,1193329828209383,-0.011825,-0.0974875,0.0374
1680013341475,1193329830711460,-0.0108624995,-0.0924,0.034375
1680013341478,1193329833213383,-0.011825,-0.0864875,0.0334125
1680013341481,1193329835715537,-0.011825,-0.08745,0.0303875
1680013341483,1193329838217691,-0.0127875,-0.084425,0.03135
1680013341485,1193329840719773,-0.011825,-0.0834625,0.029424999
1680013341488,1193329843221926,-0.011825,-0.0853875,0.0273625
1680013341492,1193329845723850,-0.0088,-0.0814,0.0264
1680013341493,1193329848226003,-0.0097624995,-0.0743875,0.0243375
1680013341497,1193329850728176,-0.0108624995,-0.0743875,0.0254375
1680013341499,1193329853230253,-0.0127875,-0.0724625,0.023375
1680013341501,1193329855732407,-0.011825,-0.0664125,0.0224125
1680013341506,1193329858234253,-0.0097624995,-0.0664125,0.02145
1680013341507,1193329860736407,-0.0127875,-0.0644875,0.02035
1680013341508,1193329863238340,-0.0108624995,-0.06545,0.02145
1680013341511,1193329865740725,-0.0127875,-0.0584375,0.02035
1680013341513,1193329868242648,-0.0127875,-0.0584375,0.0163625
1680013341517,1193329870744725,-0.0108624995,-0.0534875,0.0163625
1680013341518,1193329873246889,-0.011825,-0.0474375,0.0163625
1680013341523,1193329875748812,-0.01375,-0.0495,0.0163625
1680013341524,1193329878250889,-0.011825,-0.0474375,0.0163625
1680013341525,1193329880753042,-0.0108624995,-0.0444125,0.017324999
1680013341528,1193329883255210,-0.0127875,-0.0374,0.0154
1680013341531,1193329885757133,-0.01375,-0.035475,0.0154
1680013341534,1193329888259287,-0.011825,-0.035475,0.0154
1680013341536,1193329890761364,-0.01375,-0.0314875,0.012375
1680013341539,1193329893263320,-0.0127875,-0.0303875,0.0144375
1680013341542,1193329895765397,-0.01375,-0.0254375,0.017324999
1680013341543,1193329898267628,-0.01485,-0.0204875,0.0163625
1680013341546,1193329900769705,-0.017875,-0.0193875,0.0163625
1680013341548,1193329903271859,-0.0158125,-0.0254375,0.02035
1680013341551,1193329905773767,-0.0127875,-0.018424999,0.017324999
1680013341553,1193329908275844,-0.01485,-0.012375,0.017324999
1680013341556,1193329910777998,-0.0158125,-0.0144375,0.0154
1680013341558,1193329913279921,-0.01485,-0.0144375,0.017324999
1680013341564,1193329915782052,-0.0158125,-0.0094875,0.023375
1680013341564,1193329918284205,-0.01485,-0.012375,0.017324999
1680013341566,1193329920786282,-0.01375,-0.01045,0.0144375
1680013341568,1193329923288205,-0.0158125,-0.013475,0.02035
1680013341574,1193329925790263,-0.016775,-0.013475,0.0163625
1680013341575,1193329928292417,-0.016775,-0.013475,0.0133375
1680013341576,1193329930794571,-0.017875,-0.0154,0.0133375
1680013341578,1193329933296494,-0.016775,-0.018424999,0.0144375
1680013341582,1193329935798648,-0.017875,-0.02145,0.0154
1680013341584,1193329938300734,-0.017875,-0.0254375,0.0133375
1680013341586,1193329940802888,-0.0207625,-0.0264,0.0133375
1680013341590,1193329943304811,-0.017875,-0.0334125,0.0114124995
1680013341592,1193329945806888,-0.017875,-0.035475,0.01045
1680013341593,1193329948309067,-0.017875,-0.0364375,0.0114124995
1680013341595,1193329950811220,-0.0158125,-0.0385,0.0114124995
1680013341598,1193329953313144,-0.0188375,-0.0424875,0.012375
1680013341602,1193329955815221,-0.0207625,-0.043449998,0.01045
1680013341603,1193329958317374,-0.017875,-0.045375,0.00935
1680013341605,1193329960819287,-0.0218625,-0.046475,0.012375
1680013341610,1193329963321364,-0.0237875,-0.0474375,0.0133375
1680013341612,1193329965823595,-0.0207625,-0.0504625,0.012375
1680013341614,1193329968325672,-0.0218625,-0.057475,0.012375
1680013341616,1193329970827826,-0.0218625,-0.0584375,0.0163625
1680013341618,1193329973329749,-0.0198,-0.0614625,0.0133375
1680013341623,1193329975831826,-0.0198,-0.0614625,0.01045
1680013341624,1193329978333980,-0.0198,-0.0664125,0.0133375
1680013341626,1193329980836124,-0.017875,-0.068475,0.0163625
1680013341628,1193329983338047,-0.01485,-0.0715,0.0144375
1680013341634,1193329985840124,-0.0158125,-0.079475,0.0144375
1680013341635,1193329988342278,-0.01375,-0.0853875,0.0163625
1680013341637,1193329990844216,-0.01375,-0.08745,0.0163625
1680013341639,1193329993346293,-0.0188375,-0.0853875,0.017324999
1680013341642,1193329995848446,-0.0158125,-0.090475,0.02035
1680013341644,1193329998350600,-0.0108624995,-0.095425,0.017324999
1680013341650,1193330000852489,-0.016775,-0.0974875,0.0144375
1680013341651,1193330003354643,-0.01375,-0.0974875,0.0193875
1680013341653,1193330005856720,-0.016775,-0.100375,0.0193875
1680013341655,1193330008358874,-0.017875,-0.1054625,0.0193875
1680013341657,1193330010860797,-0.0158125,-0.104499996,0.0224125
1680013341659,1193330013362874,-0.016775,-0.1054625,0.02035
1680013341662,1193330015865105,-0.01485,-0.1084875,0.0193875
1680013341664,1193330018367182,-0.01485,-0.111375,0.0193875
1680013341666,1193330020869105,-0.016775,-0.112475,0.02145
1680013341668,1193330023371172,-0.0188375,-0.1155,0.02145
1680013341672,1193330025873326,-0.0188375,-0.117425,0.02145
1680013341674,1193330028375249,-0.017875,-0.1164625,0.02145
1680013341676,1193330030877402,-0.017875,-0.1194875,0.02035
1680013341678,1193330033379571,-0.0188375,-0.12045,0.02035
1680013341682,1193330035881648,-0.016775,-0.1214125,0.02035
1680013341684,1193330038383571,-0.016775,-0.1214125,0.02035
1680013341686,1193330040885725,-0.016775,-0.1214125,0.0193875
1680013341689,1193330043387802,-0.016775,-0.122375,0.0193875
1680013341691,1193330045889956,-0.0158125,-0.124437496,0.017324999
1680013341693,1193330048391879,-0.01485,-0.12045,0.0193875
1680013341696,1193330050893956,-0.0127875,-0.1214125,0.0163625
1680013341699,1193330053396095,-0.01375,-0.1214125,0.0133375
1680013341702,1193330055898018,-0.0127875,-0.117425,0.0133375
1680013341703,1193330058400172,-0.0097624995,-0.1155,0.0144375
1680013341706,1193330060902326,-0.011825,-0.1144,0.012375
1680013341708,1193330063404403,-0.01375,-0.1144,0.0114124995
1680013341711,1193330065906537,-0.0108624995,-0.1104125,0.0114124995
1680013341714,1193330068408460,-0.0088,-0.112475,0.0114124995
1680013341716,1193330070910537,-0.0088,-0.1084875,0.007425
1680013341719,1193330073412706,-0.0078375,-0.104499996,0.006325
1680013341724,1193330075914860,-0.006875,-0.104499996,0.007425
1680013341727,1193330078416783,-0.006875,-0.100375,0.0053625
1680013341730,1193330080918860,-0.005775,-0.0963875,0.0034375
1680013341732,1193330083421014,-0.0078375,-0.091437496,0.001375
1680013341734,1193330085922956,-0.00275,-0.090475,-5.5E-4
1680013341736,1193330088425033,-0.00275,-0.0853875,-0.0026125
1680013341737,1193330090927264,-0.0017875,-0.0814,-0.00165
1680013341739,1193330093429341,-0.00275,-0.07645,-0.003575
1680013341742,1193330095931514,-0.00385,-0.078375,-0.0066
1680013341743,1193330098433437,-0.00275,-0.07645,-0.0056375
1680013341745,1193330100935514,0.0031625,-0.0754875,-0.0066
1680013341748,1193330103437667,0.0022,-0.0774125,-0.009625
1680013341752,1193330105939580,0.0022,-0.0743875,-0.01155
1680013341754,1193330108441734,0.0022,-0.0704,-0.0105875
1680013341756,1193330110943888,0.004125,-0.0774125,-0.01155
1680013341762,1193330113445965,0.004125,-0.0814,-0.015675
1680013341763,1193330115947898,0.004125,-0.0804375,-0.0166375
1680013341765,1193330118449975,0.00715,-0.079475,-0.015675
1680013341767,1193330120952129,0.00715,-0.0804375,-0.0185625
1680013341768,1193330123454052,0.00825,-0.0754875,-0.0196625
1680013341772,1193330125956196,0.00825,-0.0715,-0.0185625
1680013341774,1193330128458350,0.0092124995,-0.078375,-0.020624999
1680013341776,1193330130960427,0.0122375,-0.07645,-0.0196625
1680013341778,1193330133462581,0.0111375,-0.078375,-0.020624999
1680013341782,1193330135964504,0.0122375,-0.079475,-0.02255
1680013341783,1193330138466591,0.014162499,-0.079475,-0.025575
1680013341786,1193330140968821,0.0171875,-0.078375,-0.0286
1680013341790,1193330143470898,0.0171875,-0.079475,-0.034649998
1680013341792,1193330145972821,0.0171875,-0.0774125,-0.0325875
1680013341793,1193330148474893,0.01925,-0.0804375,-0.036575
1680013341799,1193330150977047,0.0221375,-0.078375,-0.0386375
1680013341800,1193330153478970,0.026124999,-0.079475,-0.0416625
1680013341803,1193330155981047,0.026124999,-0.0834625,-0.045649998
1680013341806,1193330158483268,0.0281875,-0.0884125,-0.0506
1680013341808,1193330160985345,0.0331375,-0.08745,-0.0526625
1680013341809,1193330163487268,0.02915,-0.091437496,-0.05555
1680013341811,1193330165989422,0.0312125,-0.0944625,-0.056649998
1680013341814,1193330168491499,0.037125,-0.09845,-0.058575
1680013341816,1193330170993672,0.0361625,-0.1034,-0.059675
1680013341818,1193330173495825,0.038225,-0.1054625,-0.058575
1680013341823,1193330175997748,0.038225,-0.1104125,-0.0625625
1680013341827,1193330178499825,0.04015,-0.112475,-0.0625625
1680013341830,1193330181001979,0.041249998,-0.1144,-0.0655875
1680013341831,1193330183503902,0.0452375,-0.1164625,-0.06765
1680013341834,1193330186005979,0.043175,-0.1155,-0.064625
1680013341835,1193330188508124,0.0471625,-0.112475,-0.0625625
1680013341836,1193330191010278,0.0471625,-0.113437496,-0.0655875
1680013341839,1193330193512201,0.0452375,-0.113437496,-0.0655875
1680013341841,1193330196014355,0.0471625,-0.1084875,-0.064625
1680013341843,1193330198516432,0.0462,-0.101475,-0.06655
1680013341846,1193330201018562,0.0462,-0.095425,-0.069575
1680013341849,1193330203520485,0.0471625,-0.0924,-0.070675
1680013341851,1193330206022562,0.0471625,-0.0834625,-0.070675
1680013341853,1193330208524792,0.0501875,-0.07645,-0.0726
1680013341856,1193330211026859,0.054175,-0.0704,-0.075625
1680013341859,1193330213528783,0.0532125,-0.0633875,-0.07755
1680013341862,1193330216030859,0.054175,-0.0534875,-0.07865
1680013341864,1193330218533013,0.0532125,-0.045375,-0.081675
1680013341865,1193330221034936,0.0551375,-0.0374,-0.0856625
1680013341868,1193330223537090,0.054175,-0.0275,-0.08965
1680013341873,1193330226039244,0.052249998,-0.0204875,-0.091575
1680013341874,1193330228541321,0.052249998,-0.012375,-0.093637496
1680013341876,1193330231043239,0.052249998,-0.0034375,-0.097625
1680013341879,1193330233545393,0.0532125,0.0055,-0.097625
1680013341881,1193330236047470,0.05115,0.0165,-0.097625
1680013341883,1193330238549624,0.0501875,0.0215875,-0.1016125
1680013341886,1193330241051783,0.0471625,0.0286,-0.104637496
1680013341889,1193330243553706,0.0452375,0.0356125,-0.1056
1680013341892,1193330246055783,0.048125,0.042625,-0.104637496
1680013341893,1193330248557936,0.0462,0.047575,-0.103675
1680013341896,1193330251059860,0.0452375,0.0506,-0.1076625
1680013341898,1193330253562023,0.0441375,0.0565125,-0.11055
1680013341902,1193330256064100,0.0462,0.064625,-0.1095875
1680013341903,1193330258566254,0.0441375,0.0625625,-0.1095875
1680013341906,1193330261068177,0.043175,0.0686125,-0.108625
1680013341910,1193330263570282,0.0422125,0.0726,-0.115637496
1680013341912,1193330266072436,0.0441375,0.0705375,-0.114675
1680013341914,1193330268574590,0.04015,0.0715,-0.1126125
1680013341917,1193330271076744,0.04015,0.0765875,-0.115637496
1680013341919,1193330273578590,0.041249998,0.0765875,-0.1126125
1680013341922,1193330276080754,0.041249998,0.0726,-0.115637496
1680013341924,1193330278582677,0.038225,0.0785125,-0.1175625
1680013341926,1193330281084831,0.037125,0.0765875,-0.1186625
1680013341929,1193330283586985,0.037125,0.0735625,-0.12155
1680013341932,1193330286089071,0.0352,0.0686125,-0.1175625
1680013341933,1193330288591225,0.0342375,0.063525,-0.1175625
1680013341936,1193330291093148,0.0361625,0.0595375,-0.1166
1680013341940,1193330293595225,0.0361625,0.0595375,-0.115637496
1680013341942,1193330296097374,0.0342375,0.0545875,-0.119625
1680013341943,1193330298599297,0.0331375,0.0455125,-0.119625
1680013341948,1193330301101682,0.0312125,0.0466125,-0.1186625
1680013341950,1193330303603605,0.03025,0.0385,-0.1175625
1680013341952,1193330306105686,0.0312125,0.03355,-0.115637496
1680013341953,1193330308607840,0.02915,0.030524999,-0.1126125
1680013341956,1193330311109686,0.02915,0.0246125,-0.11165
1680013341959,1193330313611840,0.0331375,0.02255,-0.11165
1680013341962,1193330316113773,0.0281875,0.0185625,-0.11165
1680013341963,1193330318616157,0.0281875,0.013612499,-0.11055
1680013341966,1193330321118081,0.02915,0.0075625,-0.1095875
1680013341968,1193330323620157,0.0312125,0.003575,-0.102575
1680013341972,1193330326122305,0.0312125,5.5E-4,-0.1016125
1680013341973,1193330328624228,0.03025,-4.125E-4,-0.102575
1680013341978,1193330331126305,0.0281875,-0.0055,-0.10065
1680013341981,1193330333628536,0.0281875,-0.0064625,-0.0985875
1680013341982,1193330336130642,0.02915,-0.007425,-0.0946
1680013341985,1193330338632796,0.0312125,-0.01045,-0.092675
1680013341987,1193330341134719,0.02915,-0.0083875,-0.0906125
1680013341989,1193330343636796,0.0281875,-0.0094875,-0.08855
1680013341992,1193330346138705,0.02915,-0.0064625,-0.086625
1680013341993,1193330348640859,0.0281875,-0.0094875,-0.0856625
1680013341996,1193330351143013,0.027224999,-0.007425,-0.0836
1680013341998,1193330353645090,0.026124999,-0.0044,-0.07865
1680013342002,1193330356147243,0.0242,-0.0034375,-0.075625
1680013342003,1193330358649186,0.0251625,-0.002475,-0.0735625
1680013342006,1193330361151262,0.026124999,0.0026125,-0.0726
1680013342008,1193330363653416,0.0242,0.003575,-0.0746625
1680013342013,1193330366155339,0.0221375,0.0045375,-0.0716375
1680013342013,1193330368657488,0.0221375,0.0055,-0.070675
1680013342016,1193330371159565,0.021175,0.0105875,-0.0686125
1680013342019,1193330373661719,0.0202125,0.0185625,-0.06765
1680013342023,1193330376163657,0.021175,0.019524999,-0.06765
1680013342025,1193330378665734,0.021175,0.0265375,-0.06765
1680013342027,1193330381167888,0.01925,0.0286,-0.0655875
1680013342031,1193330383670042,0.0171875,0.0286,-0.064625
1680013342032,1193330386172196,0.015125,0.0325875,-0.0625625
1680013342034,1193330388674123,0.014162499,0.0345125,-0.059675
1680013342036,1193330391176200,0.0132,0.0385,-0.056649998
1680013342040,1193330393678353,0.0111375,0.0375375,-0.05555
1680013342042,1193330396180277,0.0092124995,0.0466125,-0.0545875
1680013342044,1193330398682353,0.010175,0.0455125,-0.053625
1680013342046,1193330401184589,0.0111375,0.0466125,-0.045649998
1680013342050,1193330403686666,0.0092124995,0.0506,-0.047575
1680013342052,1193330406188820,0.00715,0.052525,-0.04455
1680013342055,1193330408690666,0.0061875,0.053625,-0.04455
1680013342056,1193330411192806,0.0061875,0.05555,-0.04455
1680013342062,1193330413694729,0.004125,0.052525,-0.0386375
1680013342063,1193330416197114,0.0031625,0.0545875,-0.036575
1680013342064,1193330418699027,0.005225,0.05555,-0.03355
1680013342066,1193330421201104,1.375E-4,0.0576125,-0.03355
1680013342068,1193330423703258,-0.00385,0.0565125,-0.034649998
1680013342072,1193330426205181,-0.00275,0.0545875,-0.0286
1680013342073,1193330428707258,-0.00385,0.0515625,-0.0286
1680013342076,1193330431209377,-0.006875,0.052525,-0.026675
1680013342078,1193330433711531,-0.0097624995,0.0466125,-0.026675
1680013342082,1193330436213454,-0.0088,0.042625,-0.0246125
1680013342084,1193330438715531,-0.0108624995,0.0435875,-0.02255
1680013342086,1193330441217681,-0.01375,0.0396,-0.025575
1680013342089,1193330443719604,-0.01485,0.0375375,-0.020624999
1680013342092,1193330446221681,-0.017875,0.0356125,-0.0176
1680013342094,1193330448723835,-0.016775,0.0345125,-0.015675
1680013342097,1193330451225980,-0.017875,0.030524999,-0.0105875
1680013342099,1193330453728134,-0.0198,0.030524999,-0.014575
1680013342101,1193330456230057,-0.0198,0.0295625,-0.014575
1680013342103,1193330458732134,-0.022824999,0.0286,-0.0105875
1680013342106,1193330461234288,-0.0218625,0.0286,-0.0066
1680013342108,1193330463736464,-0.0237875,0.0286,-0.0066
1680013342112,1193330466238388,-0.0237875,0.0295625,-0.0056375
1680013342114,1193330468740465,-0.027775,0.0286,-0.003575
1680013342116,1193330471242388,-0.033825,0.0275,-0.00165
1680013342119,1193330473744513,-0.0308,0.0286,-0.0026125
1680013342123,1193330476246590,-0.0308,0.0286,-0.003575
1680013342124,1193330478748744,-0.03575,0.0246125,0.001375
1680013342127,1193330481250898,-0.0378125,0.0275,0.0023375
1680013342128,1193330483752821,-0.03575,0.030524999,0.0023375
1680013342131,1193330486254898,-0.0378125,0.0265375,0.0044
1680013342138,1193330488757052,-0.038775,0.020624999,0.0034375
1680013342139,1193330491258964,-0.039875,0.0215875,0.0053625
1680013342140,1193330493761118,-0.0408375,0.0215875,0.0053625
1680013342142,1193330496263272,-0.0427625,0.0165,0.01045
1680013342144,1193330498765349,-0.0427625,0.0165,0.01045
1680013342146,1193330501267503,-0.0427625,0.0125124995,0.00935
1680013342148,1193330503769426,-0.044825,0.0075625,0.0144375
1680013342151,1193330506271489,-0.050875,0.003575,0.0163625
1680013342153,1193330508773412,-0.0488125,0.0015125,0.017324999
1680013342156,1193330511275796,-0.04675,0.0015125,0.02035
1680013342158,1193330513777719,-0.050875,5.5E-4,0.02145
1680013342162,1193330516279796,-0.050875,-0.0034375,0.023375
1680013342163,1193330518781950,-0.050875,-0.0064625,0.023375
1680013342166,1193330521283873,-0.0528,-0.01045,0.0254375
1680013342168,1193330523785950,-0.0528,-0.0144375,0.028324999
1680013342173,1193330526288171,-0.0567875,-0.02145,0.0264
1680013342175,1193330528790248,-0.055825,-0.0224125,0.0273625
1680013342176,1193330531292171,-0.0548625,-0.0254375,0.0273625
1680013342178,1193330533794325,-0.055825,-0.0275,0.028324999
1680013342182,1193330536296402,-0.058849998,-0.029424999,0.028324999
1680013342183,1193330538798344,-0.060775,-0.035475,0.0303875
1680013342186,1193330541300421,-0.0598125,-0.0374,0.03135
1680013342189,1193330543802651,-0.0598125,-0.0413875,0.032449998
1680013342192,1193330546304728,-0.061875,-0.0413875,0.0334125
1680013342194,1193330548806868,-0.0628375,-0.043449998,0.0364375
1680013342196,1193330551308791,-0.0638,-0.0444125,0.0374
1680013342199,1193330553810868,-0.061875,-0.046475,0.0374
1680013342202,1193330556313022,-0.0638,-0.0474375,0.0383625
1680013342203,1193330558814950,-0.0677875,-0.0474375,0.039325
1680013342206,1193330561317104,-0.0647625,-0.0504625,0.040425
1680013342210,1193330563819258,-0.06875,-0.046475,0.039325
1680013342212,1193330566321335,-0.06875,-0.043449998,0.04235
1680013342214,1193330568823493,-0.0638,-0.0413875,0.04235
1680013342216,1193330571325416,-0.066825,-0.043449998,0.0444125
1680013342218,1193330573827493,-0.06875,-0.0385,0.045375
1680013342222,1193330576329647,-0.0677875,-0.0374,0.0444125
1680013342223,1193330578831800,-0.0638,-0.0334125,0.043449998
1680013342226,1193330581333709,-0.0628375,-0.029424999,0.0413875
1680013342229,1193330583835786,-0.0647625,-0.0303875,0.0383625
1680013342234,1193330586337940,-0.0677875,-0.0284625,0.040425
1680013342235,1193330588839863,-0.0628375,-0.0275,0.039325
1680013342239,1193330591341954,-0.0628375,-0.024475,0.039325
1680013342240,1193330593844185,-0.0647625,-0.0264,0.0383625
1680013342242,1193330596346262,-0.066825,-0.0224125,0.0383625
1680013342244,1193330598848185,-0.0677875,-0.0254375,0.0374
1680013342250,1193330601350330,-0.0647625,-0.02145,0.0383625
1680013342250,1193330603852407,-0.066825,-0.0193875,0.0374
1680013342253,1193330606354561,-0.066825,-0.0193875,0.034375
1680013342256,1193330608856484,-0.0677875,-0.0165,0.0364375
1680013342257,1193330611358638,-0.0677875,-0.0174625,0.0364375
1680013342259,1193330613860686,-0.0647625,-0.018424999,0.0374
1680013342262,1193330616362839,-0.06985,-0.0174625,0.034375
1680013342263,1193330618864762,-0.06875,-0.0193875,0.034375
1680013342267,1193330621366839,-0.06875,-0.0193875,0.0364375
1680013342269,1193330623868993,-0.06875,-0.018424999,0.0334125
1680013342272,1193330626371147,-0.0677875,-0.02145,0.0334125
1680013342273,1193330628873070,-0.066825,-0.02145,0.034375
1680013342276,1193330631375224,-0.0638,-0.024475,0.0334125
1680013342279,1193330633877301,-0.0677875,-0.0254375,0.032449998
1680013342281,1193330636379445,-0.0677875,-0.0314875,0.032449998
1680013342285,1193330638881368,-0.066825,-0.0334125,0.03135
1680013342289,1193330641383445,-0.06875,-0.0314875,0.0303875
1680013342291,1193330643885676,-0.06985,-0.035475,0.0334125
1680013342293,1193330646387522,-0.0677875,-0.0385,0.03135
1680013342294,1193330648889676,-0.0677875,-0.0394625,0.0303875
1680013342296,1193330651391753,-0.0677875,-0.0374,0.028324999
1680013342299,1193330653893906,-0.06875,-0.0374,0.0303875
1680013342301,1193330656395839,-0.06875,-0.0413875,0.03135
1680013342303,1193330658897993,-0.0647625,-0.0394625,0.029424999
1680013342306,1193330661400147,-0.066825,-0.0424875,0.0264
1680013342309,1193330663902224,-0.066825,-0.043449998,0.0303875
1680013342311,1193330666404177,-0.066825,-0.0424875,0.028324999
1680013342313,1193330668906331,-0.0647625,-0.0424875,0.0264
1680013342316,1193330671408485,-0.0638,-0.0444125,0.0243375
1680013342322,1193330673910562,-0.061875,-0.043449998,0.0224125
1680013342324,1193330676412711,-0.0598125,-0.0394625,0.02035
1680013342326,1193330678914634,-0.060775,-0.043449998,0.02145
1680013342327,1193330681416711,-0.0598125,-0.0413875,0.017324999
1680013342329,1193330683918634,-0.060775,-0.0364375,0.0154
1680013342332,1193330686421042,-0.05775,-0.034375,0.0133375
1680013342333,1193330688922965,-0.0567875,-0.0314875,0.0114124995
1680013342336,1193330691425042,-0.0567875,-0.0314875,0.006325
1680013342339,1193330693927196,-0.0548625,-0.0314875,0.0053625
1680013342342,1193330696429138,-0.0518375,-0.0303875,0.0044
1680013342347,1193330698931215,-0.0488125,-0.0314875,0.0023375
1680013342347,1193330701433369,-0.044825,-0.0314875,0.0023375
1680013342349,1193330703935523,-0.0457875,-0.029424999,0.0023375
1680013342352,1193330706437412,-0.0438625,-0.0254375,-0.003575
1680013342354,1193330708939566,-0.0418,-0.0264,-0.003575
1680013342356,1193330711441643,-0.039875,-0.0224125,-0.003575
1680013342361,1193330713943566,-0.0408375,-0.02145,-0.0056375
1680013342363,1193330716445730,-0.038775,-0.0224125,-0.0075625
1680013342364,1193330718947807,-0.0378125,-0.02145,-0.0086624995
1680013342366,1193330721449961,-0.039875,-0.02145,-0.01265
1680013342372,1193330723952114,-0.038775,-0.02145,-0.014575
1680013342373,1193330726454038,-0.039875,-0.0204875,-0.014575
1680013342374,1193330728956123,-0.038775,-0.0193875,-0.015675
1680013342376,1193330731458277,-0.036849998,-0.0204875,-0.0176
1680013342380,1193330733960200,-0.036849998,-0.0224125,-0.0185625
1680013342382,1193330736462585,-0.03575,-0.024475,-0.0185625
1680013342384,1193330738964523,-0.03575,-0.024475,-0.0196625
1680013342386,1193330741466600,-0.033825,-0.0224125,-0.02255
1680013342389,1193330743968754,-0.038775,-0.024475,-0.0246125
1680013342392,1193330746470677,-0.0347875,-0.0174625,-0.020624999
1680013342394,1193330748972783,-0.0317625,-0.0204875,-0.02365
1680013342399,1193330751474706,-0.03575,-0.02145,-0.025575
1680013342399,1193330753977091,-0.0308,-0.0204875,-0.025575
1680013342402,1193330756479014,-0.0317625,-0.02145,-0.02365
1680013342403,1193330758981091,-0.03575,-0.0174625,-0.0246125
1680013342406,1193330761483234,-0.033825,-0.0165,-0.025575
1680013342409,1193330763985158,-0.0308,-0.0154,-0.02365
1680013342412,1193330766487234,-0.0268125,-0.013475,-0.0246125
1680013342414,1193330768989465,-0.0308,-0.0094875,-0.0246125
1680013342417,1193330771491571,-0.033825,-0.0114124995,-0.020624999
1680013342419,1193330773993725,-0.0298375,-0.0083875,-0.0246125
1680013342422,1193330776495648,-0.0298375,-0.0044,-0.0246125
1680013342424,1193330778997725,-0.0268125,-0.001375,-0.0215875
1680013342426,1193330781499667,-0.02475,-4.125E-4,-0.0196625
1680013342429,1193330784001821,-0.02475,0.0026125,-0.02255
1680013342432,1193330786503975,-0.02585,0.0056375,-0.0215875
1680013342436,1193330789006047,-0.027775,0.0075625,-0.020624999
1680013342440,1193330791508201,-0.02585,0.0105875,-0.020624999
1680013342442,1193330794010124,-0.0237875,0.0125124995,-0.0215875
1680013342443,1193330796512201,-0.02475,0.0176,-0.0215875
1680013342444,1193330799014354,-0.0237875,0.019524999,-0.020624999
1680013342447,1193330801516278,-0.022824999,0.0185625,-0.020624999
1680013342450,1193330804018431,-0.022824999,0.019524999,-0.0215875
1680013342452,1193330806520585,-0.02475,0.0235125,-0.0185625
1680013342455,1193330809022662,-0.022824999,0.0246125,-0.020624999
1680013342456,1193330811524816,-0.0218625,0.0286,-0.0196625
1680013342459,1193330814026681,-0.0207625,0.0295625,-0.0196625
1680013342462,1193330816528835,-0.0207625,0.0276375,-0.020624999
1680013342464,1193330819030989,-0.0218625,0.0235125,-0.020624999
1680013342466,1193330821533143,-0.022824999,0.0246125,-0.0196625
1680013342469,1193330824035061,-0.0218625,0.019524999,-0.02255
1680013342473,1193330826537138,-0.0207625,0.0176,-0.0246125
1680013342475,1193330829039292,-0.0188375,0.0125124995,-0.0246125
1680013342476,1193330831541215,-0.016775,0.009625,-0.0215875
1680013342479,1193330834043263,-0.01485,-4.125E-4,-0.0215875
1680013342482,1193330836545493,-0.01485,-0.01045,-0.0246125
1680013342484,1193330839047570,-0.01375,-0.0144375,-0.025575
1680013342487,1193330841549724,-0.0127875,-0.02145,-0.025575
1680013342489,1193330844051637,-0.01375,-0.0273625,-0.0185625
1680013342492,1193330846553714,-0.0108624995,-0.034375,-0.015675
1680013342494,1193330849055637,-0.0097624995,-0.0374,-0.0166375
1680013342496,1193330851557714,-0.0088,-0.0424875,-0.0166375
1680013342499,1193330854059945,-0.0097624995,-0.051425,-0.0105875
1680013342502,1193330856562027,-0.0097624995,-0.0523875,-0.0066
1680013342504,1193330859064181,-0.0097624995,-0.054449998,-0.0066
1680013342507,1193330861566104,-0.0078375,-0.057475,-0.0056375
1680013342511,1193330864068176,-0.0067375,-0.0584375,-0.003575
1680013342513,1193330866570330,-0.0097624995,-0.054449998,-5.5E-4
1680013342514,1193330869072483,-0.0078375,-0.0584375,-0.00165
1680013342516,1193330871574407,-0.0067375,-0.0594,-0.003575
1680013342519,1193330874076560,-0.005775,-0.0614625,-0.0026125
1680013342522,1193330876578647,-0.0078375,-0.0614625,-0.00165
1680013342524,1193330879080801,-0.0078375,-0.0603625,-0.003575
1680013342527,1193330881582724,-0.005775,-0.0554125,-0.0026125
1680013342530,1193330884084878,-0.005775,-0.0534875,-0.003575
1680013342532,1193330886586940,-0.0067375,-0.0504625,-0.003575
1680013342534,1193330889088863,-0.005775,-0.0493625,-0.0066
1680013342536,1193330891590940,-0.0078375,-0.0474375,-0.0075625
1680013342540,1193330894093094,-0.00385,-0.046475,-0.009625
1680013342543,1193330896595243,-0.0067375,-0.0484,-0.015675
1680013342544,1193330899097397,-0.0078375,-0.0493625,-0.01155
1680013342548,1193330901599320,-0.0097624995,-0.0474375,-0.009625
1680013342549,1193330904101397,-0.0097624995,-0.0493625,-0.01265
1680013342552,1193330906603546,-0.0078375,-0.0554125,-0.01155
1680013342554,1193330909105470,-0.0108624995,-0.0594,-0.014575
1680013342556,1193330911607546,-0.0097624995,-0.0603625,-0.01155
1680013342559,1193330914109777,-0.0088,-0.062425,-0.009625
1680013342562,1193330916611854,-0.0097624995,-0.068475,-0.0086624995
1680013342564,1193330919113772,-0.0088,-0.0743875,-0.0086624995
1680013342566,1193330921615926,-0.0097624995,-0.079475,-0.0056375
1680013342572,1193330924118003,-0.0078375,-0.0853875,-0.0026125
1680013342573,1193330926619911,-0.005775,-0.0933625,-5.5E-4
1680013342575,1193330929122065,-0.0067375,-0.0924,0.001375
1680013342576,1193330931624219,-0.0078375,-0.0933625,0.0023375
1680013342579,1193330934126296,-0.0088,-0.0944625,0.006325
1680013342582,1193330936628450,-0.0078375,-0.095425,0.006325
1680013342587,1193330939130368,-0.0097624995,-0.095425,0.007425
1680013342588,1193330941632445,-0.0108624995,-0.0933625,0.0083875
1680013342590,1193330944134598,-0.0097624995,-0.091437496,0.01045
1680013342593,1193330946636752,-0.0078375,-0.0933625,0.00935
1680013342594,1193330949138675,-0.0088,-0.0924,0.0083875
1680013342598,1193330951640844,-0.0127875,-0.08745,0.0083875
1680013342600,1193330954142921,-0.0088,-0.0884125,0.006325
1680013342603,1193330956644844,-0.0088,-0.0864875,0.006325
1680013342608,1193330959146921,-0.011825,-0.08745,0.0053625
1680013342608,1193330961649075,-0.0108624995,-0.0853875,0.0053625
1680013342609,1193330964151229,-0.0097624995,-0.0823625,0.0053625
1680013342611,1193330966653383,-0.0067375,-0.079475,0.0044
1680013342614,1193330969155306,-0.011825,-0.0754875,0.0034375
1680013342616,1193330971657383,-0.0108624995,-0.0694375,0.0023375
1680013342618,1193330974159532,-0.0097624995,-0.0664125,0.001375
1680013342623,1193330976661455,-0.0097624995,-0.0633875,0.0053625
1680013342625,1193330979163609,-0.0097624995,-0.0594,0.0044
1680013342626,1193330981665762,-0.0097624995,-0.0554125,0.001375
1680013342629,1193330984167839,-0.0127875,-0.0534875,0.0023375
1680013342632,1193330986669762,-0.0108624995,-0.0504625,0.0023375
1680013342634,1193330989171916,-0.011825,-0.0484,-5.5E-4
1680013342636,1193330991673993,-0.011825,-0.0474375,0.001375
1680013342641,1193330994175897,-0.0127875,-0.0444125,-5.5E-4
1680013342642,1193330996678051,-0.0108624995,-0.0394625,-0.003575
1680013342644,1193330999180205,-0.0127875,-0.0394625,-0.0026125
1680013342647,1193331001682282,-0.0078375,-0.0374,-5.5E-4
1680013342649,1193331004184436,-0.005775,-0.0374,-0.00165
1680013342653,1193331006686379,-0.0067375,-0.0383625,-0.0026125
1680013342655,1193331009188456,-0.0097624995,-0.0374,-0.00165
1680013342657,1193331011690687,-0.0097624995,-0.0364375,-0.00165
1680013342660,1193331014192763,-0.0067375,-0.043449998,-0.00165
1680013342663,1193331016694715,-0.005775,-0.0394625,-5.5E-4
1680013342664,1193331019196868,-0.0078375,-0.0383625,-5.5E-4
1680013342666,1193331021698945,-0.0078375,-0.045375,-5.5E-4
1680013342669,1193331024200868,-0.00385,-0.0394625,-0.0026125
1680013342672,1193331026702941,-0.0088,-0.0424875,4.125E-4
1680013342678,1193331029205172,-0.005775,-0.0474375,-5.5E-4
1680013342678,1193331031707249,-0.0067375,-0.045375,-0.00165
1680013342679,1193331034209172,-0.0088,-0.0444125,-0.0026125
1680013342682,1193331036711311,-0.0078375,-0.0484,-0.0056375
1680013342684,1193331039213388,-0.0048125,-0.0493625,-0.0026125
1680013342687,1193331041715542,-0.0078375,-0.051425,-0.0026125
1680013342689,1193331044217465,-0.0088,-0.0493625,-0.003575
1680013342692,1193331046719619,-0.0088,-0.051425,-0.003575
1680013342694,1193331049221788,-0.0078375,-0.0554125,-0.004675
1680013342698,1193331051723865,-0.0078375,-0.0554125,-0.0056375
1680013342700,1193331054225788,-0.011825,-0.057475,-0.004675
1680013342702,1193331056727960,-0.0088,-0.0534875,-0.0026125
1680013342705,1193331059230037,-0.011825,-0.051425,-0.0026125
1680013342706,1193331061732191,-0.0108624995,-0.0584375,-0.0026125
1680013342709,1193331064234114,-0.0088,-0.0594,-0.00165
1680013342712,1193331066736268,-0.0078375,-0.0523875,-5.5E-4
1680013342714,1193331069238330,-0.0088,-0.0534875,0.0034375
1680013342717,1193331071740253,-0.0097624995,-0.0523875,0.0044
1680013342719,1193331074242407,-0.011825,-0.0474375,0.0023375
1680013342722,1193331076744484,-0.011825,-0.046475,0.0034375
1680013342724,1193331079246701,-0.011825,-0.045375,0.0034375
1680013342729,1193331081748778,-0.01375,-0.0444125,0.0044
1680013342730,1193331084250701,-0.0127875,-0.0424875,0.0034375
1680013342732,1193331086752778,-0.01485,-0.0383625,0.0053625
1680013342737,1193331089254993,-0.0158125,-0.0383625,0.006325
1680013342738,1193331091757070,-0.011825,-0.0413875,0.0053625
1680013342739,1193331094259224,-0.01375,-0.0413875,0.0034375
1680013342742,1193331096761147,-0.01485,-0.0413875,4.125E-4
1680013342744,1193331099263224,-0.011825,-0.0424875,0.0023375
1680013342748,1193331101765143,-0.0108624995,-0.0444125,0.0023375
1680013342749,1193331104267297,-0.011825,-0.045375,4.125E-4
1680013342752,1193331106769451,-0.0097624995,-0.0493625,-0.00165
1680013342755,1193331109271528,-0.011825,-0.0504625,-0.0026125
1680013342757,1193331111773682,-0.01485,-0.054449998,-5.5E-4
1680013342759,1193331114275619,-0.0097624995,-0.0584375,-0.004675
1680013342762,1193331116777696,-0.011825,-0.062425,-0.0026125
1680013342764,1193331119279850,-0.01485,-0.06545,-0.003575
1680013342768,1193331121782004,-0.011825,-0.0713625,-0.004675
1680013342771,1193331124284138,-0.011825,-0.0754875,-0.004675
1680013342774,1193331126786061,-0.01485,-0.0804375,-0.003575
1680013342776,1193331129288138,-0.0158125,-0.0834625,-0.0026125
1680013342777,1193331131790061,-0.0127875,-0.090475,-0.004675
1680013342782,1193331134292133,-0.01485,-0.095425,-0.0066
1680013342783,1193331136794287,-0.0158125,-0.09845,-0.0066
1680013342784,1193331139296441,-0.016775,-0.1043625,-0.0056375
1680013342789,1193331141798595,-0.016775,-0.111375,-0.0066
1680013342790,1193331144300518,-0.0198,-0.1153625,-0.0086624995
1680013342792,1193331146802600,-0.0158125,-0.117425,-0.0075625
1680013342794,1193331149304754,-0.01485,-0.117425,-0.0056375
1680013342798,1193331151806677,-0.0188375,-0.1254,-0.009625
1680013342800,1193331154308754,-0.0177375,-0.1274625,-0.014575
1680013342802,1193331156810985,-0.0188375,-0.133375,-0.015675
1680013342805,1193331159313062,-0.0177375,-0.1324125,-0.014575
1680013342807,1193331161815215,-0.0177375,-0.1364,-0.0176
1680013342811,1193331164317157,-0.0188375,-0.1373625,-0.0185625
1680013342813,1193331166819234,-0.016775,-0.1464375,-0.0215875
1680013342814,1193331169321157,-0.016775,-0.14245,-0.0215875
1680013342817,1193331171823542,-0.01485,-0.1403875,-0.02255
1680013342819,1193331174325465,-0.0158125,-0.144375,-0.02255
1680013342824,1193331176827522,-0.0158125,-0.145475,-0.025575
1680013342825,1193331179329676,-0.01485,-0.1464375,-0.0276375
1680013342827,1193331181831599,-0.016775,-0.1513875,-0.0295625
1680013342830,1193331184333676,-0.0158125,-0.1483625,-0.036575
1680013342834,1193331186835782,-0.016775,-0.14739999,-0.036575
1680013342836,1193331189337936,-0.0177375,-0.1464375,-0.036575
1680013342837,1193331191839859,-0.01485,-0.145475,-0.0405625
1680013342839,1193331194342013,-0.01485,-0.1483625,-0.036575
1680013342842,1193331196844090,-0.0158125,-0.1494625,-0.036575
1680013342844,1193331199346204,-0.016775,-0.14739999,-0.0405625
1680013342850,1193331201848051,-0.0177375,-0.1464375,-0.042625
1680013342851,1193331204350204,-0.016775,-0.1513875,-0.042625
1680013342853,1193331206852358,-0.0127875,-0.150425,-0.042625
1680013342855,1193331209354522,-0.01375,-0.15345,-0.04455
1680013342858,1193331211856445,-0.01485,-0.1584,-0.045649998
1680013342861,1193331214358522,-0.011825,-0.1604625,-0.045649998
1680013342862,1193331216860676,-0.0108624995,-0.1623875,-0.042625
1680013342864,1193331219362604,-0.01375,-0.1654125,-0.04455
1680013342868,1193331221864758,-0.0097624995,-0.167475,-0.04455
1680013342870,1193331224366912,-0.0108624995,-0.1694,-0.042625
1680013342872,1193331226868989,-0.0097624995,-0.177375,-0.0435875
1680013342874,1193331229371123,-0.0097624995,-0.1794375,-0.0405625
1680013342876,1193331231873046,-0.0088,-0.1813625,-0.0405625
1680013342879,1193331234375123,-0.0067375,-0.1813625,-0.0396
1680013342882,1193331236877046,-0.0067375,-0.183425,-0.037675
1680013342886,1193331239379209,-0.005775,-0.183425,-0.037675
1680013342888,1193331241881363,-0.00275,-0.1854875,-0.036575
1680013342889,1193331244383440,-0.00385,-0.1874125,-0.0356125
1680013342893,1193331246885594,-0.00385,-0.1874125,-0.034649998
1680013342894,1193331249387517,1.375E-4,-0.188375,-0.03355
1680013342897,1193331251889584,0.0031625,-0.1904375,-0.036575
1680013342899,1193331254391815,0.005225,-0.188375,-0.036575
1680013342902,1193331256893892,0.005225,-0.1874125,-0.036575
1680013342904,1193331259395815,0.005225,-0.1904375,-0.0356125
1680013342907,1193331261897974,0.0042625,-0.188375,-0.036575
1680013342909,1193331264400051,0.00825,-0.1854875,-0.037675
1680013342912,1193331266902205,0.0111375,-0.1843875,-0.0405625
1680013342914,1193331269404128,0.0122375,-0.183425,-0.0435875
1680013342917,1193331271906295,0.015262499,-0.18645,-0.0435875
1680013342919,1193331274408372,0.0132,-0.1843875,-0.04455
1680013342924,1193331276910526,0.014162499,-0.188375,-0.048675
1680013342926,1193331279412449,0.0171875,-0.1874125,-0.0526625
1680013342928,1193331281914498,0.015125,-0.18645,-0.056649998
1680013342929,1193331284416652,0.0191125,-0.1843875,-0.058575
1680013342932,1193331286918575,0.01815,-0.1934625,-0.058575
1680013342934,1193331289420729,0.01815,-0.1934625,-0.0606375
1680013342936,1193331291922883,0.0202125,-0.1925,-0.0655875
1680013342939,1193331294424974,0.021175,-0.20047499,-0.06765
1680013342942,1193331296926897,0.021175,-0.20845,-0.069575
1680013342944,1193331299429051,0.0202125,-0.211475,-0.069575
1680013342947,1193331301931205,0.0221375,-0.2094125,-0.0726
1680013342950,1193331304433267,0.021175,-0.216425,-0.0765875
1680013342952,1193331306935190,0.0191125,-0.2204125,-0.07755
1680013342955,1193331309437267,0.0232375,-0.2314125,-0.081675
1680013342957,1193331311939420,0.027224999,-0.2404875,-0.0856625
1680013342961,1193331314441364,0.0281875,-0.2454375,-0.08855
1680013342966,1193331316943517,0.0242,-0.2564375,-0.0906125
1680013342967,1193331319445671,0.0251625,-0.2644125,-0.0985875
1680013342969,1193331321947748,0.027224999,-0.276375,-0.10065
1680013342972,1193331324449902,0.02915,-0.287375,-0.104637496
1680013342974,1193331326951825,0.0281875,-0.3014,-0.108625
1680013342976,1193331329453902,0.0301125,-0.3144625,-0.115637496
1680013342978,1193331331956133,0.0312125,-0.3273875,-0.1166
1680013342980,1193331334458210,0.02915,-0.34347498,-0.1236125
1680013342982,1193331336960118,0.0312125,-0.353375,-0.1266375
1680013342984,1193331339462272,0.0342375,-0.370425,-0.1266375
1680013342989,1193331341964349,0.0342375,-0.38541248,-0.1266375
1680013342990,1193331344466502,0.0312125,-0.40039998,-0.1315875
1680013342992,1193331346968360,0.0331375,-0.4125,-0.1376375
1680013342994,1193331349470590,0.037125,-0.4244625,-0.1406625
1680013342998,1193331351972667,0.038225,-0.4345,-0.1395625
1680013343000,1193331354474821,0.0391875,-0.4434375,-0.1456125
1680013343003,1193331356976763,0.0422125,-0.4565,-0.152625
1680013343004,1193331359478840,0.0452375,-0.4624125,-0.15455
1680013343007,1193331361980994,0.0471625,-0.4703875,-0.163625
1680013343009,1193331364483148,0.05115,-0.480425,-0.1716
1680013343012,1193331366985100,0.0532125,-0.486475,-0.1846625
1680013343015,1193331369487254,0.059125,-0.4954125,-0.196625
1680013343017,1193331371989331,0.060225,-0.5014625,-0.2085875
1680013343019,1193331374491254,0.06215,-0.507375,-0.218625
1680013343021,1193331376993398,0.0672375,-0.5124625,-0.2336125
1680013343024,1193331379495475,0.0631125,-0.5143875,-0.24365
1680013343027,1193331381997628,0.06215,-0.5143875,-0.2495625
1680013343029,1193331384499552,0.0631125,-0.5143875,-0.257675
1680013343032,1193331387001705,0.0611875,-0.519475,-0.2616625
1680013343035,1193331389503782,0.059125,-0.5225,-0.26455
1680013343038,1193331392005936,0.060225,-0.5214,-0.268675
1680013343039,1193331394507859,0.0581625,-0.51645,-0.2715625
1680013343042,1193331397009955,0.060225,-0.519475,-0.273625
1680013343044,1193331399512186,0.0642125,-0.5214,-0.2776125
1680013343047,1193331402014263,0.0691625,-0.5284125,-0.2825625
1680013343049,1193331404516186,0.0741125,-0.5253875,-0.2855875
1680013343051,1193331407018340,0.0771375,-0.52745,-0.289575
1680013343054,1193331409520422,0.0862125,-0.5314375,-0.2935625
1680013343057,1193331412022345,0.0911625,-0.530475,-0.3026375
1680013343059,1193331414524499,0.0941875,-0.52648747,-0.30965
1680013343062,1193331417026672,0.100237496,-0.52442497,-0.3185875
1680013343064,1193331419528748,0.1021625,-0.5154875,-0.323675
1680013343067,1193331422030672,0.100237496,-0.507375,-0.333575
1680013343069,1193331424532825,0.1012,-0.4984375,-0.34155
1680013343074,1193331427034902,0.104225,-0.485375,-0.3496625
1680013343075,1193331429537056,0.1021625,-0.4785,-0.3546125
1680013343076,1193331432039210,0.100237496,-0.474375,-0.356675
1680013343080,1193331434541133,0.1021625,-0.47341248,-0.3625875
1680013343082,1193331437043287,0.104225,-0.469425,-0.3686375
1680013343085,1193331439545369,0.1012,-0.47245,-0.3705625
1680013343087,1193331442047292,0.098175,-0.474375,-0.3735875
1680013343089,1193331444549446,0.0961125,-0.47547498,-0.37661248
1680013343092,1193331447051523,0.093225,-0.4703875,-0.377575
1680013343094,1193331449553677,0.092125,-0.474375,-0.3806
1680013343096,1193331452055618,0.0911625,-0.4675,-0.3815625
1680013343099,1193331454557772,0.087175,-0.469425,-0.3796375
1680013343102,1193331457059848,0.087175,-0.47547498,-0.3806
1680013343106,1193331459561772,0.08415,-0.4785,-0.3796375
1680013343108,1193331462063912,0.081125,-0.485375,-0.3796375
1680013343113,1193331464566066,0.0782375,-0.496375,-0.37661248
1680013343115,1193331467068220,0.0782375,-0.5064125,-0.3735875
1680013343116,1193331469570297,0.0792,-0.519475,-0.37661248
1680013343118,1193331472072229,0.0771375,-0.529375,-0.3796375
1680013343121,1193331474574383,0.0752125,-0.53845,-0.377575
1680013343123,1193331477076460,0.0721875,-0.5454625,-0.377575
1680013343125,1193331479578383,0.0741125,-0.5583875,-0.377575
1680013343127,1193331482080537,0.076175,-0.5654,-0.3796375
1680013343130,1193331484582677,0.07315,-0.5693875,-0.3815625
1680013343132,1193331487084754,0.0672375,-0.573375,-0.3815625
1680013343134,1193331489586677,0.0672375,-0.584375,-0.3845875
1680013343137,1193331492088831,0.0682,-0.5944125,-0.38555
1680013343140,1193331494590902,0.0691625,-0.6054125,-0.38555
1680013343142,1193331497093133,0.0691625,-0.6114625,-0.3906375
1680013343145,1193331499595210,0.0672375,-0.61242497,-0.3925625
1680013343149,1193331502097133,0.0661375,-0.61448747,-0.39655
1680013343150,1193331504599220,0.0642125,-0.6084375,-0.3986125
1680013343152,1193331507101143,0.0611875,-0.596475,-0.4035625
1680013343156,1193331509603528,0.0581625,-0.5864375,-0.4035625
1680013343157,1193331512105451,0.059125,-0.57145,-0.405625
1680013343160,1193331514607528,0.0562375,-0.56045,-0.405625
1680013343163,1193331517109682,0.0562375,-0.5484875,-0.4016375
1680013343165,1193331519611605,0.054175,-0.529375,-0.4016375
1680013343166,1193331522113682,0.054175,-0.5124625,-0.3986125
1680013343169,1193331524615913,0.054175,-0.4954125,-0.3955875
1680013343172,1193331527117984,0.0501875,-0.4764375,-0.3936625
1680013343174,1193331529620138,0.0532125,-0.4654375,-0.3906375
1680013343177,1193331532122061,0.054175,-0.453475,-0.388575
1680013343179,1193331534624138,0.0521125,-0.436425,-0.388575
1680013343182,1193331537126292,0.0501875,-0.4244625,-0.3876125
1680013343187,1193331539628215,0.048125,-0.409475,-0.383625
1680013343188,1193331542130369,0.0471625,-0.38747498,-0.38665
1680013343190,1193331544632446,0.0441375,-0.3724875,-0.389675
1680013343192,1193331547134605,0.0411125,-0.3564,-0.3906375
1680013343194,1193331549636528,0.0411125,-0.342375,-0.39765
1680013343197,1193331552138605,0.04015,-0.3273875,-0.400675
1680013343201,1193331554640759,0.0361625,-0.309375,-0.4046625
1680013343202,1193331557142682,0.0342375,-0.2864125,-0.405625
1680013343206,1193331559645066,0.0361625,-0.27445,-0.4026
1680013343207,1193331562146990,0.038225,-0.2624875,-0.40755
1680013343209,1193331564649067,0.0361625,-0.254375,-0.4065875
1680013343212,1193331567151200,0.04015,-0.249425,-0.40755
1680013343215,1193331569653047,0.0411125,-0.24447499,-0.40755
1680013343217,1193331572155200,0.0411125,-0.243375,-0.4065875
1680013343220,1193331574657354,0.0452375,-0.24145,-0.4046625
1680013343224,1193331577159494,0.0471625,-0.23539999,-0.4026
1680013343225,1193331579661417,0.05115,-0.2255,-0.4026
1680013343228,1193331582163494,0.048125,-0.2244,-0.4016375
1680013343233,1193331584665648,0.0501875,-0.227425,-0.4046625
1680013343233,1193331587167571,0.0521125,-0.2204125,-0.4046625
1680013343234,1193331589669643,0.0501875,-0.2134,-0.4046625
1680013343237,1193331592171874,0.048125,-0.2094125,-0.4096125
1680013343239,1193331594673951,0.0452375,-0.199375,-0.40865
1680013343242,1193331597176105,0.0441375,-0.188375,-0.4145625
1680013343244,1193331599678043,0.043175,-0.1843875,-0.416625
1680013343247,1193331602180120,0.0422125,-0.1815,-0.41854998
1680013343249,1193331604682043,0.0422125,-0.1904375,-0.4236375
1680013343252,1193331607184427,0.0422125,-0.1843875,-0.421575
1680013343256,1193331609686335,0.0441375,-0.1794375,-0.421575
1680013343257,1193331612188412,0.0452375,-0.1843875,-0.42267498
1680013343263,1193331614690566,0.048125,-0.1874125,-0.42267498
1680013343265,1193331617192489,0.048125,-0.1854875,-0.41854998
1680013343266,1193331619694528,0.0521125,-0.1854875,-0.4156625
1680013343267,1193331622196682,0.0551375,-0.183425,-0.416625
1680013343269,1193331624698836,0.054175,-0.1815,-0.4145625
1680013343276,1193331627200759,0.0521125,-0.17847499,-0.4136
1680013343276,1193331629702836,0.0562375,-0.1804,-0.4136
1680013343277,1193331632205009,0.060225,-0.1804,-0.4126375
1680013343282,1193331634706932,0.060225,-0.1824625,-0.4096125
1680013343282,1193331637209009,0.0631125,-0.188375,-0.40865
1680013343285,1193331639711163,0.0631125,-0.2044625,-0.4096125
1680013343291,1193331642213297,0.070125,-0.2154625,-0.40865
1680013343291,1193331644715451,0.071225,-0.2255,-0.4096125
1680013343293,1193331647217374,0.07315,-0.227425,-0.4136
1680013343294,1193331649719451,0.076175,-0.23539999,-0.41854998
1680013343298,1193331652221605,0.0771375,-0.24145,-0.4255625
1680013343300,1193331654723528,0.0771375,-0.23045,-0.433675
1680013343303,1193331657225682,0.0801625,-0.233475,-0.44055
1680013343304,1193331659727759,0.0851125,-0.2475,-0.4475625
1680013343307,1193331662229913,0.0881375,-0.2503875,-0.4505875
1680013343309,1193331664731831,0.092125,-0.2514875,-0.455675
1680013343312,1193331667233908,0.0941875,-0.2503875,-0.46254998
1680013343314,1193331669736062,0.0972125,-0.2585,-0.4676375
1680013343320,1193331672237985,0.1021625,-0.26345,-0.4695625
1680013343320,1193331674740383,0.1071125,-0.265375,-0.4706625
1680013343323,1193331677242306,0.1122,-0.260425,-0.4725875
1680013343324,1193331679744383,0.111237496,-0.254375,-0.47355
1680013343327,1193331682246537,0.1161875,-0.25245,-0.4725875
1680013343330,1193331684748479,0.122237496,-0.2574,-0.47465
1680013343332,1193331687250556,0.125125,-0.2674375,-0.4706625
1680013343336,1193331689752479,0.1291125,-0.2754125,-0.465575
1680013343338,1193331692254864,0.1302125,-0.28545,-0.46667498
1680013343339,1193331694756787,0.1342,-0.2915,-0.46461248
1680013343343,1193331697258893,0.136125,-0.2924625,-0.46254998
1680013343346,1193331699761047,0.137225,-0.298375,-0.460625
1680013343347,1193331702262970,0.136125,-0.298375,-0.4596625
1680013343350,1193331704765047,0.136125,-0.2943875,-0.4576
1680013343352,1193331707267264,0.1332375,-0.29741248,-0.4566375
1680013343356,1193331709769341,0.136125,-0.3004375,-0.4585625
1680013343357,1193331712271264,0.1351625,-0.3014,-0.4566375
1680013343359,1193331714773341,0.1332375,-0.3135,-0.4566375
1680013343362,1193331717275585,0.131175,-0.310475,-0.455675
1680013343366,1193331719777662,0.12815,-0.3034625,-0.4576
1680013343368,1193331722279585,0.125125,-0.3025,-0.455675
1680013343370,1193331724781662,0.1241625,-0.3014,-0.454575
1680013343374,1193331727283811,0.122237496,-0.293425,-0.454575
1680013343375,1193331729785734,0.1211375,-0.3004375,-0.449625
1680013343377,1193331732287888,0.1232,-0.3135,-0.4475625
1680013343379,1193331734790042,0.1232,-0.31845,-0.443575
1680013343382,1193331737292119,0.1232,-0.3245,-0.4395875
1680013343384,1193331739794292,0.126225,-0.3334375,-0.43559998
1680013343387,1193331742296138,0.1232,-0.3334375,-0.432575
1680013343390,1193331744798292,0.126225,-0.3284875,-0.4346375
1680013343392,1193331747300215,0.125125,-0.3334375,-0.4316125
1680013343394,1193331749802374,0.122237496,-0.34347498,-0.433675
1680013343397,1193331752304527,0.120175,-0.353375,-0.43065
1680013343400,1193331754806604,0.1211375,-0.353375,-0.4266625
1680013343402,1193331757308758,0.11715,-0.359425,-0.4266625
1680013343405,1193331759810667,0.109175,-0.3685,-0.42267498
1680013343407,1193331762312744,0.109175,-0.3774375,-0.41854998
1680013343413,1193331764814898,0.1051875,-0.38445,-0.4175875
1680013343415,1193331767317052,0.1051875,-0.39545,-0.410575
1680013343416,1193331769819196,0.10615,-0.4104375,-0.405625
1680013343417,1193331772321119,0.1051875,-0.4244625,-0.400675
1680013343420,1193331774823196,0.1012,-0.4263875,-0.3986125
1680013343423,1193331777325119,0.100237496,-0.42941248,-0.3936625
1680013343424,1193331779827273,0.09515,-0.436425,-0.3906375
1680013343427,1193331782329364,0.0961125,-0.4384875,-0.38665
1680013343430,1193331784831518,0.093225,-0.4483875,-0.3796375
1680013343432,1193331787333671,0.0961125,-0.463375,-0.37454998
1680013343439,1193331789835594,0.0961125,-0.47547498,-0.3735875
1680013343439,1193331792337700,0.092125,-0.4794625,-0.3705625
1680013343440,1193331794839854,0.0941875,-0.480425,-0.3686375
1680013343443,1193331797341777,0.098175,-0.4895,-0.36465
1680013343445,1193331799843854,0.1021625,-0.4923875,-0.3576375
1680013343450,1193331802346066,0.1051875,-0.5014625,-0.3515875
1680013343451,1193331804848143,0.1071125,-0.5104,-0.344575
1680013343453,1193331807350066,0.1082125,-0.5033875,-0.3405875
1680013343457,1193331809852143,0.109175,-0.5033875,-0.3366
1680013343458,1193331812354297,0.104225,-0.5014625,-0.333575
1680013343460,1193331814856254,0.1012,-0.4984375,-0.33261248
1680013343462,1193331817358639,0.1012,-0.507375,-0.3216125
1680013343464,1193331819860562,0.098175,-0.5143875,-0.31955
1680013343467,1193331822362639,0.0941875,-0.5124625,-0.312675
1680013343470,1193331824864787,0.0941875,-0.5115,-0.3056625
1680013343472,1193331827366711,0.0911625,-0.519475,-0.3026375
1680013343475,1193331829868787,0.089237496,-0.5234625,-0.2935625
1680013343477,1193331832370711,0.087175,-0.52745,-0.2916375
1680013343479,1193331834873095,0.0801625,-0.529375,-0.2855875
1680013343482,1193331837375023,0.0801625,-0.52648747,-0.279675
1680013343486,1193331839877100,0.0792,-0.52442497,-0.273625
1680013343489,1193331842379254,0.076175,-0.52442497,-0.268675
1680013343491,1193331844881153,0.0752125,-0.5234625,-0.2635875
1680013343494,1193331847383230,0.0752125,-0.52442497,-0.2556125
1680013343495,1193331849885461,0.076175,-0.529375,-0.251625
1680013343497,1193331852387538,0.0752125,-0.5394125,-0.2476375
1680013343499,1193331854889692,0.076175,-0.5434,-0.246675
1680013343502,1193331857391600,0.076175,-0.5344625,-0.2415875
1680013343506,1193331859893677,0.0741125,-0.518375,-0.2376
1680013343507,1193331862395600,0.07315,-0.518375,-0.2385625
1680013343510,1193331864897754,0.0741125,-0.519475,-0.2385625
1680013343512,1193331867399897,0.0741125,-0.5124625,-0.23265
1680013343515,1193331869901974,0.0782375,-0.5064125,-0.2286625
1680013343519,1193331872404128,0.0792,-0.5143875,-0.22659999
1680013343522,1193331874906051,0.0782375,-0.5214,-0.2256375
1680013343525,1193331877408143,0.081125,-0.5253875,-0.223575
1680013343526,1193331879910297,0.08415,-0.52745,-0.22055
1680013343527,1193331882412220,0.081125,-0.5214,-0.2195875
1680013343530,1193331884914605,0.0752125,-0.51645,-0.2146375
1680013343532,1193331887416509,0.076175,-0.5154875,-0.21065
1680013343535,1193331889918586,0.0752125,-0.508475,-0.2146375
1680013343537,1193331892420740,0.070125,-0.5005,-0.2146375
1680013343541,1193331894922663,0.0642125,-0.4954125,-0.20955
1680013343542,1193331897424749,0.06215,-0.4824875,-0.207625
1680013343544,1193331899926902,0.06215,-0.4684625,-0.207625
1680013343547,1193331902429056,0.0572,-0.46048748,-0.2055625
1680013343550,1193331904930979,0.0572,-0.45045,-0.201575
1680013343552,1193331907433056,0.0572,-0.43945,-0.201575
1680013343555,1193331909935210,0.0551375,-0.42941248,-0.19965
1680013343557,1193331912437133,0.054175,-0.419375,-0.196625
1680013343562,1193331914939287,0.0551375,-0.4153875,-0.1926375
1680013343565,1193331917441427,0.0562375,-0.4074125,-0.19167499
1680013343566,1193331919943504,0.0551375,-0.3914625,-0.19167499
1680013343568,1193331922445427,0.0551375,-0.3834875,-0.19167499
1680013343570,1193331924947581,0.054175,-0.375375,-0.1926375
1680013343572,1193331927449735,0.054175,-0.3664375,-0.190575
1680013343575,1193331929951821,0.0562375,-0.3603875,-0.1865875
1680013343578,1193331932453744,0.0551375,-0.3584625,-0.1865875
1680013343580,1193331934955898,0.054175,-0.348425,-0.185625
1680013343582,1193331937457984,0.0532125,-0.3344,-0.1786125
1680013343585,1193331939959908,0.0521125,-0.3254625,-0.1786125
1680013343588,1193331942462061,0.05115,-0.3114375,-0.1755875
1680013343590,1193331944964215,0.048125,-0.29947498,-0.168575
1680013343593,1193331947466364,0.0521125,-0.298375,-0.16555
1680013343595,1193331949968441,0.05115,-0.3014,-0.1615625
1680013343600,1193331952470364,0.05115,-0.2915,-0.163625
1680013343601,1193331954972441,0.0521125,-0.28545,-0.1596375
1680013343603,1193331957474383,0.05115,-0.2814625,-0.1596375
1680013343605,1193331959976768,0.0501875,-0.2794,-0.16665
1680013343607,1193331962478691,0.048125,-0.271425,-0.1706375
1680013343610,1193331964980845,0.048125,-0.2594625,-0.1725625
1680013343613,1193331967482922,0.04015,-0.2404875,-0.1755875
1680013343615,1193331969984865,0.037125,-0.221375,-0.1816375
1680013343617,1193331972487019,0.038225,-0.2074875,-0.1835625
1680013343620,1193331974989095,0.0361625,-0.1984125,-0.185625
1680013343623,1193331977491249,0.0361625,-0.1953875,-0.1835625
1680013343625,1193331979993403,0.038225,-0.18645,-0.180675
1680013343627,1193331982495326,0.0391875,-0.17545,-0.17655
1680013343630,1193331984997403,0.04015,-0.161425,-0.1755875
1680013343632,1193331987499326,0.04015,-0.1485,-0.169675
1680013343636,1193331990001455,0.037125,-0.133375,-0.168575
1680013343639,1193331992503532,0.037125,-0.1164625,-0.16555
1680013343640,1193331995005763,0.0312125,-0.0974875,-0.1596375
1680013343643,1193331997507840,0.02915,-0.0814,-0.1566125
1680013343645,1193332000009763,0.0301125,-0.078375,-0.1535875
1680013343648,1193332002511908,0.027224999,-0.0853875,-0.1486375
1680013343650,1193332005013985,0.02915,-0.0944625,-0.1425875
1680013343652,1193332007515908,0.0361625,-0.1054625,-0.135575
1680013343656,1193332010018062,0.04015,-0.112475,-0.1315875
1680013343658,1193332012520224,0.038225,-0.112475,-0.1276
1680013343660,1193332015022301,0.037125,-0.10945,-0.12265
1680013343663,1193332017524224,0.037125,-0.1073875,-0.12155
1680013343665,1193332020026378,0.037125,-0.100375,-0.12265
1680013343667,1193332022528460,0.0361625,-0.0963875,-0.1205875
1680013343670,1193332025030383,0.0342375,-0.0994125,-0.115637496
1680013343675,1193332027532768,0.0342375,-0.102437496,-0.114675
1680013343677,1193332030034691,0.0342375,-0.1073875,-0.115637496
1680013343680,1193332032536840,0.0361625,-0.112475,-0.114675
1680013343683,1193332035038917,0.0361625,-0.10945,-0.1095875
1680013343686,1193332037540840,0.0342375,-0.12045,-0.11165
1680013343687,1193332040042994,0.0312125,-0.1293875,-0.11055
1680013343689,1193332042545052,0.0352,-0.133375,-0.1095875
1680013343690,1193332045047205,0.0361625,-0.144375,-0.115637496
1680013343693,1193332047549129,0.038225,-0.155375,-0.1126125
1680013343695,1193332050051282,0.04015,-0.16445,-0.1126125
1680013343697,1193332052553359,0.04015,-0.1705,-0.1126125
1680013343700,1193332055055287,0.0422125,-0.1623875,-0.1126125
1680013343703,1193332057557441,0.0411125,-0.14739999,-0.1205875
1680013343706,1193332060059595,0.0391875,-0.134475,-0.12155
1680013343707,1193332062561672,0.037125,-0.1293875,-0.124575
1680013343713,1193332065063792,0.038225,-0.124437496,-0.1266375
1680013343715,1193332067565715,0.04015,-0.122375,-0.1266375
1680013343715,1193332070067869,0.0391875,-0.133375,-0.125675
1680013343720,1193332072569715,0.0361625,-0.145475,-0.124575
1680013343723,1193332075071869,0.037125,-0.14739999,-0.12155
1680013343724,1193332077574023,0.0422125,-0.1524875,-0.119625
1680013343725,1193332080076177,0.0422125,-0.155375,-0.1186625
1680013343729,1193332082578254,0.0441375,-0.1524875,-0.115637496
1680013343730,1193332085080177,0.0501875,-0.1524875,-0.114675
1680013343733,1193332087582359,0.0471625,-0.1544125,-0.11165
1680013343735,1193332090084436,0.0521125,-0.1524875,-0.1065625
1680013343739,1193332092586590,0.054175,-0.144375,-0.1056
1680013343740,1193332095088744,0.054175,-0.133375,-0.102575
1680013343743,1193332097590667,0.0501875,-0.1293875,-0.103675
1680013343745,1193332100092821,0.054175,-0.1274625,-0.103675
1680013343749,1193332102594898,0.0562375,-0.1274625,-0.0985875
1680013343751,1193332105096821,0.060225,-0.13145,-0.093637496
1680013343753,1193332107598893,0.060225,-0.134475,-0.093637496
1680013343756,1193332110101047,0.0631125,-0.1364,-0.08855
1680013343757,1193332112603201,0.070125,-0.14245,-0.091575
1680013343760,1193332115105124,0.0741125,-0.1524875,-0.08855
1680013343763,1193332117607278,0.076175,-0.15345,-0.086625
1680013343765,1193332120109374,0.0792,-0.1574375,-0.0856625
1680013343768,1193332122611297,0.0862125,-0.1684375,-0.0875875
1680013343770,1193332125113450,0.0851125,-0.1764125,-0.0856625
1680013343773,1193332127615604,0.087175,-0.17847499,-0.0845625
1680013343775,1193332130117402,0.0862125,-0.177375,-0.0856625
1680013343777,1193332132619556,0.0862125,-0.1714625,-0.086625
1680013343780,1193332135121633,0.08415,-0.1544125,-0.0845625
1680013343783,1193332137623864,0.0752125,-0.1214125,-0.081675
1680013343787,1193332140125936,0.070125,-0.095425,-0.07865
1680013343789,1193332142627859,0.0661375,-0.0804375,-0.07865
1680013343790,1193332145130013,0.0682,-0.0704,-0.07865
1680013343793,1193332147632090,0.070125,-0.0644875,-0.0726
1680013343795,1193332150134013,0.0682,-0.0594,-0.06765
1680013343799,1193332152636153,0.0691625,-0.057475,-0.064625
1680013343800,1193332155138307,0.0741125,-0.0554125,-0.0606375
1680013343803,1193332157640460,0.0801625,-0.062425,-0.0576125
1680013343805,1193332160142307,0.0831875,-0.054449998,-0.0545875
1680013343808,1193332162644470,0.0881375,-0.0504625,-0.053625
1680013343810,1193332165146624,0.0941875,-0.051425,-0.0545875
1680013343813,1193332167648701,0.100237496,-0.0523875,-0.053625
1680013343817,1193332170150855,0.10615,-0.0554125,-0.056649998
1680013343817,1193332172652782,0.1101375,-0.0504625,-0.0576125
1680013343820,1193332175154936,0.1122,-0.043449998,-0.0616
1680013343824,1193332177657013,0.1131625,-0.043449998,-0.0655875
1680013343826,1193332180158936,0.1122,-0.0394625,-0.069575
1680013343827,1193332182661095,0.1122,-0.0413875,-0.070675
1680013343830,1193332185163172,0.109175,-0.046475,-0.06655
1680013343832,1193332187665326,0.1101375,-0.0523875,-0.0686125
1680013343836,1193332190167480,0.1101375,-0.057475,-0.0606375
1680013343839,1193332192669413,0.10615,-0.0584375,-0.05555
1680013343840,1193332195171490,0.1051875,-0.0644875,-0.0506
1680013343843,1193332197673413,0.103125,-0.067375,-0.0435875
1680013343845,1193332200175566,0.104225,-0.0633875,-0.037675
1680013343848,1193332202677696,0.0972125,-0.054449998,-0.0325875
1680013343850,1193332205179850,0.092125,-0.0594,-0.02365
1680013343855,1193332207681927,0.092125,-0.0644875,-0.0185625
1680013343859,1193332210183850,0.089237496,-0.068475,-0.014575
1680013343859,1193332212686033,0.0862125,-0.0715,-0.009625
1680013343862,1193332215188110,0.08415,-0.0743875,-0.004675
1680013343864,1193332217690033,0.0792,-0.0704,-0.003575
1680013343865,1193332220192187,0.0741125,-0.06545,0.0023375
1680013343867,1193332222694341,0.071225,-0.062425,0.0044
1680013343870,1193332225196413,0.071225,-0.0614625,0.006325
1680013343872,1193332227698336,0.0672375,-0.0584375,0.007425
1680013343875,1193332230200490,0.060225,-0.0584375,0.0114124995
1680013343878,1193332232702596,0.0562375,-0.0605,0.017324999
1680013343879,1193332235204519,0.0532125,-0.0644875,0.02035
1680013343882,1193332237706903,0.0462,-0.067375,0.023375
1680013343885,1193332240208826,0.043175,-0.068475,0.028324999
1680013343888,1193332242710960,0.0391875,-0.0704,0.032449998
1680013343890,1193332245213037,0.0312125,-0.0743875,0.0364375
1680013343893,1193332247714960,0.027224999,-0.0724625,0.039325
1680013343896,1193332250217037,0.021175,-0.0664125,0.0413875
1680013343903,1193332252719244,0.015125,-0.0644875,0.043449998
1680013343903,1193332255221321,0.0092124995,-0.0554125,0.050325
1680013343903,1193332257723244,0.0061875,-0.0504625,0.05335
1680013343905,1193332260225398,0.005225,-0.043449998,0.0554125
1680013343908,1193332262727475,0.004125,-0.029424999,0.0584375
1680013343911,1193332265229403,-0.0017875,-0.0165,0.0594
1680013343913,1193332267731557,-0.0048125,-0.0055,0.061325
1680013343915,1193332270233710,-0.0028875,0.0055,0.06435
1680013343918,1193332272735864,-0.006875,0.0185625,0.06435
1680013343923,1193332275237907,-0.0088,0.030524999,0.06545
1680013343924,1193332277739830,-0.0078375,0.042625,0.0694375
1680013343925,1193332280241907,-0.0097624995,0.0515625,0.0704
1680013343927,1193332282743830,-0.0088,0.0675125,0.0664125
1680013343930,1193332285245984,-0.011825,0.0735625,0.06435
1680013343933,1193332287748114,-0.0108624995,0.07755,0.06545
1680013343939,1193332290250268,-0.0127875,0.080575,0.062425
1680013343940,1193332292752345,-0.0078375,0.08855,0.061325
1680013343941,1193332295254307,-0.005775,0.0875875,0.061325
1680013343943,1193332297756461,-0.005775,0.086625,0.05335
1680013343945,1193332300258538,-0.0017875,0.08855,0.0474375
1680013343949,1193332302760692,-0.0017875,0.0925375,0.0444125
1680013343951,1193332305262845,-0.0017875,0.096525,0.0444125
1680013343953,1193332307764754,0.0012375,0.11055,0.043449998
1680013343956,1193332310266830,0.0022,0.1175625,0.04235
1680013343959,1193332312768754,0.004125,0.1236125,0.043449998
1680013343960,1193332315270907,0.0022,0.1276,0.045375
1680013343963,1193332317772994,0.0022,0.1335125,0.0474375
1680013343965,1193332320275225,0.0031625,0.13255,0.0484
1680013343967,1193332322777302,1.375E-4,0.1395625,0.0523875
1680013343970,1193332325279225,0.0022,0.1375,0.0554125
1680013343974,1193332327781374,-0.0017875,0.135575,0.0584375
1680013343975,1193332330283451,-0.00385,0.1375,0.0584375
1680013343977,1193332332785605,-0.00275,0.1375,0.0603625
1680013343980,1193332335287528,-0.0048125,0.1395625,0.061325
1680013343983,1193332337789682,-0.0048125,0.13653749,0.061325
1680013343985,1193332340291749,-0.0088,0.1375,0.067375
1680013343991,1193332342793672,-0.006875,0.13255,0.0704
1680013343991,1193332345295749,-0.0097624995,0.129525,0.067375
1680013343993,1193332347797979,-0.006875,0.129525,0.0694375
1680013343995,1193332350300042,-0.005775,0.1285625,0.0704
1680013343997,1193332352802196,-0.00385,0.119625,0.0664125
1680013344000,1193332355304119,-0.0048125,0.1155,0.067375
1680013344003,1193332357806196,-0.005775,0.1115125,0.067375
1680013344006,1193332360308350,-0.00385,0.11055,0.06545
1680013344008,1193332362810485,-0.00385,0.1056,0.0664125
1680013344012,1193332365312408,-0.00275,0.0985875,0.06435
1680013344014,1193332367814562,-0.00385,0.096525,0.0664125
1680013344016,1193332370316639,-0.005775,0.0925375,0.0664125
1680013344017,1193332372818576,-0.005775,0.0906125,0.06545
1680013344022,1193332375320653,-0.0048125,0.0895125,0.06545
1680013344023,1193332377822807,-0.0078375,0.085525,0.062425
1680013344025,1193332380324960,-0.0048125,0.085525,0.06545
1680013344027,1193332382826884,-0.005775,0.0836,0.062425
1680013344030,1193332385329037,-0.0078375,0.0836,0.0603625
1680013344033,1193332387831114,-0.005775,0.085525,0.0603625
1680013344035,1193332390333268,1.375E-4,0.082499996,0.0603625
1680013344037,1193332392835181,0.005225,0.0875875,0.0603625
1680013344040,1193332395337258,0.0022,0.0875875,0.0603625
1680013344043,1193332397839412,0.0031625,0.0935,0.0584375
1680013344045,1193332400341566,0.005225,0.0906125,0.0573375
1680013344051,1193332402843470,0.005225,0.096525,0.0573375
1680013344053,1193332405345547,0.0092124995,0.0985875,0.0554125
1680013344055,1193332407847701,0.0111375,0.097625,0.054449998
1680013344056,1193332410349624,0.014162499,0.0985875,0.054449998
1680013344058,1193332412851778,0.01815,0.0946,0.054449998
1680013344060,1193332415353951,0.01925,0.0955625,0.05335
1680013344062,1193332417856027,0.0171875,0.0925375,0.05335
1680013344065,1193332420358181,0.0202125,0.0906125,0.05335
1680013344067,1193332422860104,0.0232375,0.0895125,0.050325
1680013344070,1193332425362191,0.0242,0.0925375,0.0573375
1680013344074,1193332427864114,0.0202125,0.085525,0.0554125
1680013344076,1193332430366499,0.0202125,0.0836,0.054449998
1680013344077,1193332432868422,0.021175,0.0796125,0.054449998
1680013344080,1193332435370494,0.0221375,0.07755,0.0573375
1680013344083,1193332437872648,0.01925,0.0785125,0.0573375
1680013344087,1193332440374571,0.015125,0.0765875,0.0573375
1680013344089,1193332442876648,0.014162499,0.0735625,0.0584375
1680013344090,1193332445378918,0.014162499,0.0715,0.0584375
1680013344093,1193332447880995,0.0132,0.0735625,0.0594
1680013344095,1193332450382918,0.0122375,0.06655,0.061325
1680013344098,1193332452885072,0.0111375,0.0616,0.0603625
1680013344100,1193332455387148,0.0111375,0.0595375,0.0594
1680013344102,1193332457889306,0.014162499,0.0545875,0.0603625
1680013344105,1193332460391152,0.0122375,0.0545875,0.0603625
1680013344108,1193332462893383,0.0171875,0.0515625,0.0594
1680013344110,1193332465395460,0.01815,0.053625,0.0554125
1680013344112,1193332467897595,0.0202125,0.05555,0.056375
1680013344115,1193332470399518,0.0221375,0.0565125,0.0554125
1680013344119,1193332472901595,0.0251625,0.0605,0.05335
1680013344125,1193332475403763,0.026124999,0.0576125,0.050325
1680013344126,1193332477905686,0.0281875,0.0616,0.0493625
1680013344127,1193332480407840,0.03025,0.0576125,0.0444125
1680013344129,1193332482909994,0.03025,0.0565125,0.043449998
1680013344134,1193332485412067,0.03025,0.053625,0.040425
1680013344134,1193332487913990,0.037125,0.05555,0.0374
1680013344136,1193332490416067,0.0352,0.0595375,0.0303875
1680013344137,1193332492918220,0.0342375,0.0616,0.03135
1680013344140,1193332495420374,0.037125,0.0605,0.028324999
1680013344143,1193332497922316,0.037125,0.0655875,0.0264
1680013344145,1193332500424470,0.0361625,0.0675125,0.0243375
1680013344148,1193332502926547,0.0391875,0.06655,0.0224125
1680013344150,1193332505428701,0.04015,0.069575,0.0224125
1680013344153,1193332507930624,0.04015,0.069575,0.02145
1680013344156,1193332510432701,0.04015,0.0686125,0.0193875
1680013344158,1193332512934855,0.0391875,0.069575,0.0163625
1680013344162,1193332515437009,0.0391875,0.0765875,0.0163625
1680013344164,1193332517938932,0.041249998,0.075625,0.0144375
1680013344166,1193332520441009,0.0422125,0.0735625,0.012375
1680013344167,1193332522943163,0.0441375,0.0726,0.0114124995
1680013344170,1193332525445086,0.0422125,0.075625,0.007425
1680013344173,1193332527947168,0.0441375,0.0715,0.0053625
1680013344175,1193332530449398,0.0462,0.0705375,0.0034375
1680013344177,1193332532951475,0.0452375,0.0735625,4.125E-4
1680013344180,1193332535453629,0.0471625,0.0726,-5.5E-4
1680013344183,1193332537955475,0.0471625,0.0726,-0.003575
1680013344185,1193332540457720,0.0452375,0.0715,-0.004675
1680013344188,1193332542959797,0.0471625,0.0715,-0.0075625
1680013344190,1193332545461720,0.0462,0.06655,-0.009625
1680013344192,1193332547963797,0.0462,0.064625,-0.0105875
1680013344195,1193332550465941,0.0452375,0.0616,-0.01265
1680013344199,1193332552967864,0.0462,0.0595375,-0.0166375
1680013344201,1193332555470018,0.043175,0.05555,-0.0176
1680013344203,1193332557972196,0.0422125,0.0495,-0.0185625
1680013344205,1193332560474273,0.041249998,0.0485375,-0.0176
1680013344207,1193332562976426,0.0342375,0.0495,-0.0166375
1680013344210,1193332565478350,0.0361625,0.047575,-0.0185625
1680013344212,1193332567980427,0.038225,0.047575,-0.0176
1680013344215,1193332570482600,0.0331375,0.0506,-0.020624999
1680013344218,1193332572984754,0.0361625,0.047575,-0.0196625
1680013344220,1193332575486677,0.0312125,0.0466125,-0.015675
1680013344223,1193332577988754,0.02915,0.0455125,-0.0166375
1680013344225,1193332580490898,0.0281875,0.0435875,-0.0176
1680013344228,1193332582992821,0.0242,0.0405625,-0.0176
1680013344230,1193332585494898,0.0242,0.042625,-0.015675
1680013344233,1193332587997052,0.0242,0.0435875,-0.0176
1680013344237,1193332590499211,0.0232375,0.0375375,-0.0196625
1680013344238,1193332593001365,0.021175,0.0345125,-0.020624999
1680013344240,1193332595503288,0.021175,0.03355,-0.02255
1680013344243,1193332598005365,0.0202125,0.036575,-0.0276375
1680013344245,1193332600507519,0.0232375,0.0325875,-0.0295625
1680013344248,1193332603009427,0.0221375,0.03355,-0.0325875
1680013344250,1193332605511580,0.0232375,0.0325875,-0.0325875
1680013344253,1193332608013734,0.021175,0.031625,-0.0325875
1680013344256,1193332610515811,0.0242,0.0286,-0.0356125
1680013344258,1193332613017739,0.0232375,0.0235125,-0.03355
1680013344261,1193332615519816,0.0232375,0.020624999,-0.0356125
1680013344263,1193332618021970,0.021175,0.0185625,-0.036575
1680013344265,1193332620523893,0.0202125,0.019524999,-0.0356125
1680013344267,1193332623026047,0.0232375,0.0215875,-0.034649998
1680013344270,1193332625528201,0.0202125,0.0176,-0.036575
1680013344274,1193332628030278,0.01925,0.0185625,-0.037675
1680013344279,1193332630532432,0.0202125,0.020624999,-0.036575
1680013344280,1193332633034355,0.0202125,0.02255,-0.037675
1680013344282,1193332635536437,0.0202125,0.02255,-0.0396
1680013344284,1193332638038591,0.0171875,0.020624999,-0.0416625
1680013344286,1193332640540744,0.01815,0.0246125,-0.0396
1680013344289,1193332643042667,0.015125,0.0235125,-0.0416625
1680013344291,1193332645544734,0.015125,0.02255,-0.0435875
1680013344293,1193332648046888,0.01925,0.0235125,-0.04455
1680013344295,1193332650548811,0.014162499,0.0215875,-0.04455
1680013344297,1193332653050888,0.01815,0.0235125,-0.04455
1680013344301,1193332655553119,0.0132,0.0286,-0.045649998
1680013344303,1193332658055196,0.0111375,0.0286,-0.047575
1680013344310,1193332660557350,0.0111375,0.0286,-0.048675
1680013344310,1193332663059273,0.0111375,0.0295625,-0.045649998
1680013344313,1193332665561350,0.010175,0.03355,-0.047575
1680013344314,1193332668063504,0.00715,0.0325875,-0.0496375
1680013344316,1193332670565350,0.0061875,0.0325875,-0.047575
1680013344318,1193332673067581,0.0022,0.03355,-0.047575
1680013344320,1193332675569658,1.375E-4,0.0356125,-0.048675
1680013344323,1193332678071806,1.375E-4,0.0356125,-0.0496375
1680013344325,1193332680573729,-0.00275,0.036575,-0.048675
1680013344328,1193332683075806,-0.00275,0.0405625,-0.0496375
1680013344331,1193332685577960,1.375E-4,0.0396,-0.048675
1680013344333,1193332688080114,-0.00275,0.042625,-0.047575
1680013344335,1193332690582037,-0.00275,0.0466125,-0.0496375
1680013344338,1193332693084191,-0.00275,0.0495,-0.0515625
1680013344341,1193332695586268,-0.0048125,0.0495,-0.0506
1680013344343,1193332698088191,-0.00275,0.0515625,-0.053625
1680013344345,1193332700590253,-0.00275,0.0576125,-0.053625
1680013344349,1193332703092407,-0.0048125,0.064625,-0.053625
1680013344352,1193332705594561,-0.0048125,0.06655,-0.056649998
1680013344353,1193332708096720,-0.00385,0.069575,-0.05555
1680013344355,1193332710598643,-0.005775,0.075625,-0.05555
1680013344358,1193332713100720,-0.005775,0.080575,-0.0606375
1680013344361,1193332715602873,-0.0017875,0.0796125,-0.0625625
1680013344363,1193332718104796,-0.00275,0.0765875,-0.064625
1680013344366,1193332720606887,-0.00275,0.0815375,-0.0686125
1680013344368,1193332723109118,-0.00275,0.07755,-0.0716375
1680013344372,1193332725611195,-0.005775,0.075625,-0.0735625
1680013344374,1193332728113118,-0.00275,0.07755,-0.0735625
1680013344375,1193332730615272,-0.00275,0.075625,-0.0765875
1680013344378,1193332733117335,-0.00275,0.07755,-0.0735625
1680013344381,1193332735619258,-0.006875,0.0735625,-0.0716375
1680013344386,1193332738121412,-0.0017875,0.07755,-0.0735625
1680013344387,1193332740623570,-0.00275,0.0785125,-0.0716375
1680013344388,1193332743125647,-0.00275,0.075625,-0.070675
1680013344391,1193332745627570,-0.0048125,0.0705375,-0.0686125
1680013344393,1193332748129724,-0.005775,0.0675125,-0.0686125
1680013344395,1193332750631877,-0.006875,0.0675125,-0.070675
1680013344398,1193332753133950,-0.0078375,0.064625,-0.0686125
1680013344401,1193332755636104,-0.0078375,0.0605,-0.0655875
1680013344403,1193332758138027,-0.00275,0.0565125,-0.06655
1680013344405,1193332760640104,-0.005775,0.05555,-0.064625
1680013344408,1193332763142012,-0.0088,0.0506,-0.064625
1680013344411,1193332765644397,-0.0097624995,0.0455125,-0.0655875
1680013344413,1193332768146320,-0.01375,0.0455125,-0.0616
1680013344418,1193332770648397,-0.01375,0.036575,-0.0616
1680013344419,1193332773150570,-0.017875,0.03355,-0.0606375
1680013344421,1193332775652493,-0.0188375,0.031625,-0.0576125
1680013344424,1193332778154647,-0.0188375,0.0276375,-0.05555
