system_ts_ms, sensor_ts_ns, gyrX, gyrY, gyrZ
1680000008482,1179996835462028,-0.052249998,0.1518,0.0785125
1680000008483,1179996837964105,-0.0501875,0.1417625,0.079475
1680000008485,1179996840466028,-0.0532125,0.1436875,0.085525
1680000008487,1179996842968115,-0.0471625,0.12979999,0.085525
1680000008491,1179996845470038,-0.043175,0.1078,0.08855
1680000008493,1179996847972115,-0.0391875,0.0897875,0.0985875
1680000008505,1179996850473962,-0.0352,0.0807125,0.11055
1680000008505,1179996852975885,-0.032175,0.0858,0.1225125
1680000008506,1179996855477962,-0.032175,0.098725,0.1285625
1680000008506,1179996857979885,-0.032175,0.0977625,0.1304875
1680000008507,1179996860481962,-0.0342375,0.103675,0.1315875
1680000008508,1179996862983880,-0.032175,0.1117875,0.1285625
1680000008510,1179996865485957,-0.032175,0.114675,0.1225125
1680000008513,1179996867987803,-0.0281875,0.1106875,0.1145375
1680000008515,1179996870489726,-0.0171875,0.1027125,0.1084875
1680000008518,1179996872991875,-0.0132,0.09075,0.1065625
1680000008520,1179996875493721,-0.0092124995,0.0837375,0.1035375
1680000008523,1179996877995798,-0.0042625,0.0776875,0.102575
1680000008525,1179996880497721,-0.0042625,0.0787875,0.0985875
1680000008530,1179996882999577,-0.0042625,0.0748,0.0985875
1680000008530,1179996885501654,-0.0012375,0.073699996,0.1005125
1680000008533,1179996888003577,-0.0022,0.0697125,0.096525
1680000008535,1179996890505654,-0.0022,0.076725,0.0955625
1680000008537,1179996893007577,-0.0042625,0.0776875,0.0935
1680000008540,1179996895509659,-0.0042625,0.0807125,0.0944625
1680000008547,1179996898011505,-0.005225,0.0867625,0.08855
1680000008547,1179996900513428,-0.00825,0.0897875,0.085525
1680000008548,1179996903015505,-0.0092124995,0.093775,0.085525
1680000008550,1179996905517413,-0.011275,0.0996875,0.0834625
1680000008553,1179996908019490,-0.014162499,0.0977625,0.0815375
1680000008555,1179996910521413,-0.0132,0.098725,0.079475
1680000008557,1179996913023490,-0.014162499,0.0977625,0.0785125
1680000008560,1179996915525346,-0.0122375,0.095699996,0.0785125
1680000008565,1179996918027269,-0.0132,0.098725,0.07755
1680000008566,1179996920529346,-0.0132,0.093775,0.0754875
1680000008570,1179996923031500,-0.0092124995,0.0886875,0.0754875
1680000008571,1179996925533321,-0.00715,0.0886875,0.07755
1680000008573,1179996928035244,-0.00825,0.087725,0.0765875
1680000008575,1179996930537321,-0.005225,0.0867625,0.0785125
1680000008580,1179996933039244,-0.0031625,0.0837375,0.07755
1680000008580,1179996935541091,-0.0022,0.076725,0.074525
1680000008584,1179996938043154,0.00385,0.0787875,0.0735625
1680000008586,1179996940545307,0.0017875,0.076725,0.0754875
1680000008588,1179996943047230,-2.75E-4,0.0727375,0.074525
1680000008590,1179996945549077,0.0048125,0.0748,0.0724625
1680000008597,1179996948051144,0.005775,0.073699996,0.0715
1680000008598,1179996950553067,0.0078375,0.0697125,0.0675125
1680000008598,1179996953055144,0.010725,0.0727375,0.0655875
1680000008600,1179996955556990,0.0097624995,0.0677875,0.06655
1680000008605,1179996958058913,0.0127875,0.0666875,0.0625625
1680000008607,1179996960560990,0.01485,0.0627,0.063525
1680000008608,1179996963062913,0.0188375,0.05775,0.0614625
1680000008614,1179996965564759,0.0237875,0.0517,0.0565125
1680000008615,1179996968066913,0.02475,0.049775,0.0565125
1680000008615,1179996970569005,0.0287375,0.0446875,0.0534875
1680000008618,1179996973070928,0.0287375,0.038775,0.0495
1680000008620,1179996975572774,0.032725,0.032725,0.0485375
1680000008625,1179996978074851,0.0378125,0.0257125,0.046475
1680000008626,1179996980576774,0.038775,0.0187,0.0435875
1680000008630,1179996983078851,0.0427625,0.014712499,0.041525
1680000008631,1179996985580774,0.0457875,0.0067375,0.041525
1680000008634,1179996988082851,0.0457875,0.0037125,0.0375375
1680000008636,1179996990584774,0.04675,-0.0022,0.03355
1680000008637,1179996993086605,0.047849998,-0.0072875,0.0314875
1680000008642,1179996995588682,0.0518375,-0.017324999,0.0295625
1680000008647,1179996998090605,0.049775,-0.0242,0.024475
1680000008647,1179997000592759,0.0528,-0.03025,0.0265375
1680000008648,1179997003094615,0.054725,-0.0372625,0.024475
1680000008650,1179997005596692,0.055825,-0.0452375,0.025575
1680000008653,1179997008098615,0.058849998,-0.049225,0.0235125
1680000008655,1179997010600461,0.058849998,-0.0532125,0.0204875
1680000008657,1179997013102538,0.058849998,-0.060225,0.0174625
1680000008660,1179997015604442,0.060775,-0.06325,0.0165
1680000008664,1179997018106519,0.0628375,-0.0653125,0.0165
1680000008666,1179997020608442,0.0617375,-0.066275,0.0125124995
1680000008668,1179997023110533,0.060775,-0.0653125,0.0105875
1680000008670,1179997025612456,0.0638,-0.0653125,0.01155
1680000008673,1179997028114303,0.0647625,-0.0682,0.008525
1680000008675,1179997030616379,0.06875,-0.0672375,0.0064625
1680000008679,1179997033118294,0.0738375,-0.06325,0.0055
1680000008681,1179997035620371,0.071775,-0.0682,0.0055
1680000008683,1179997038122294,0.071775,-0.0702625,0.002475
1680000008685,1179997040624140,0.0708125,-0.066275,0.002475
1680000008687,1179997043126217,0.0738375,-0.06325,0.0015125
1680000008690,1179997045628130,0.0738375,-0.060225,-4.125E-4
1680000008693,1179997048130207,0.0727375,-0.0572,-4.125E-4
1680000008698,1179997050632130,0.06985,-0.0562375,-0.0015125
1680000008698,1179997053134207,0.06985,-0.0562375,-0.0034375
1680000008700,1179997055636116,0.0727375,-0.0482625,-0.0064625
1680000008704,1179997058138193,0.071775,-0.044275,-0.0064625
1680000008706,1179997060640039,0.0708125,-0.0433125,-0.0094875
1680000008708,1179997063141962,0.0708125,-0.041249998,-0.0125124995
1680000008715,1179997065644130,0.06985,-0.0363,-0.0165
1680000008717,1179997068146207,0.076725,-0.038225,-0.0144375
1680000008718,1179997070648053,0.076725,-0.038225,-0.0174625
1680000008719,1179997073149976,0.0727375,-0.033275,-0.0204875
1680000008721,1179997075652067,0.076725,-0.03025,-0.024475
1680000008724,1179997078153913,0.077825,-0.0292875,-0.0224125
1680000008725,1179997080655836,0.0787875,-0.0323125,-0.0235125
1680000008730,1179997083157990,0.076725,-0.0292875,-0.029424999
1680000008731,1179997085659836,0.07975,-0.0262625,-0.032449998
1680000008734,1179997088161923,0.077825,-0.0262625,-0.0334125
1680000008736,1179997090663846,0.077825,-0.027224999,-0.032449998
1680000008737,1179997093165923,0.0818125,-0.0292875,-0.035475
1680000008740,1179997095667769,0.082775,-0.03025,-0.0364375
1680000008748,1179997098169682,0.082775,-0.0292875,-0.0385
1680000008749,1179997100671836,0.0867625,-0.0262625,-0.043449998
1680000008750,1179997103173913,0.0867625,-0.0262625,-0.043449998
1680000008750,1179997105675759,0.0848375,-0.0323125,-0.0444125
1680000008755,1179997108177711,0.088825,-0.03025,-0.0455125
1680000008757,1179997110679788,0.09075,-0.0312125,-0.0474375
1680000008758,1179997113181634,0.09185,-0.0323125,-0.051425
1680000008760,1179997115683788,0.0928125,-0.0312125,-0.0495
1680000008765,1179997118185711,0.0928125,-0.0323125,-0.0504625
1680000008766,1179997120687793,0.09075,-0.0323125,-0.0495
1680000008768,1179997123189639,0.088825,-0.0323125,-0.0485375
1680000008770,1179997125691563,0.0897875,-0.0363,-0.0455125
1680000008773,1179997128193716,0.088825,-0.038225,-0.0485375
1680000008775,1179997130695563,0.0897875,-0.0402875,-0.0474375
1680000008780,1179997133197640,0.09075,-0.041249998,-0.0474375
1680000008781,1179997135699563,0.09075,-0.0402875,-0.0455125
1680000008785,1179997138201409,0.088825,-0.0433125,-0.043449998
1680000008786,1179997140703462,0.0867625,-0.044275,-0.043449998
1680000008788,1179997143205616,0.087725,-0.044275,-0.0455125
1680000008792,1179997145707462,0.0848375,-0.0473,-0.0444125
1680000008798,1179997148209385,0.082775,-0.0473,-0.040425
1680000008799,1179997150711457,0.08085,-0.0482625,-0.043449998
1680000008800,1179997153213303,0.0757625,-0.049225,-0.041525
1680000008801,1179997155715226,0.07975,-0.0512875,-0.0394625
1680000008804,1179997158217303,0.077825,-0.052249998,-0.0394625
1680000008805,1179997160719226,0.0757625,-0.050325,-0.0385
1680000008807,1179997163221317,0.0748,-0.0482625,-0.0364375
1680000008810,1179997165723240,0.0738375,-0.0543125,-0.035475
1680000008814,1179997168225317,0.0757625,-0.0572,-0.0345125
1680000008816,1179997170727163,0.0727375,-0.0572,-0.029424999
1680000008818,1179997173229077,0.0708125,-0.0592625,-0.0265375
1680000008820,1179997175731231,0.06875,-0.0592625,-0.0275
1680000008824,1179997178233077,0.0638,-0.0572,-0.0254375
1680000008826,1179997180735154,0.0647625,-0.0583,-0.0254375
1680000008830,1179997183237096,0.065725,-0.0583,-0.024475
1680000008831,1179997185739173,0.0617375,-0.0572,-0.0224125
1680000008834,1179997188241019,0.0628375,-0.0583,-0.0235125
1680000008836,1179997190742942,0.0628375,-0.0583,-0.0235125
1680000008837,1179997193245096,0.0617375,-0.0532125,-0.0235125
1680000008840,1179997195746928,0.0628375,-0.0532125,-0.0235125
1680000008844,1179997198249005,0.0617375,-0.0583,-0.0265375
1680000008848,1179997200750928,0.0628375,-0.0543125,-0.0235125
1680000008849,1179997203252775,0.058849998,-0.0532125,-0.024475
1680000008850,1179997205754831,0.05775,-0.050325,-0.0235125
1680000008854,1179997208256755,0.060775,-0.0562375,-0.02145
1680000008855,1179997210758908,0.060775,-0.0572,-0.0224125
1680000008858,1179997213260985,0.0598125,-0.0543125,-0.0235125
1680000008860,1179997215762846,0.058849998,-0.0572,-0.0224125
1680000008865,1179997218264770,0.060775,-0.0532125,-0.0204875
1680000008868,1179997220766846,0.05775,-0.050325,-0.0224125
1680000008870,1179997223268693,0.055825,-0.049225,-0.0254375
1680000008872,1179997225857630,0.05775,-0.049225,-0.024475
1680000008876,1179997228315099,0.0567875,-0.0482625,-0.02145
1680000008876,1179997230772784,0.055825,-0.0482625,-0.02145
1680000008878,1179997233276707,0.05775,-0.0462,-0.0235125
1680000008880,1179997235778630,0.054725,-0.0452375,-0.0254375
1680000008884,1179997238280683,0.0528,-0.0433125,-0.0235125
1680000008885,1179997240782529,0.0537625,-0.0452375,-0.024475
1680000008888,1179997243284683,0.054725,-0.038225,-0.0224125
1680000008890,1179997245786606,0.055825,-0.038225,-0.02145
1680000008894,1179997248288457,0.0537625,-0.0372625,-0.0235125
1680000008895,1179997250790534,0.054725,-0.033275,-0.019524999
1680000008898,1179997253292457,0.054725,-0.0312125,-0.0204875
1680000008900,1179997255794303,0.055825,-0.033275,-0.0204875
1680000008906,1179997258296370,0.0528,-0.0292875,-0.019524999
1680000008908,1179997260797446,0.0528,-0.028324999,-0.0174625
1680000008908,1179997263298525,0.0528,-0.0262625,-0.019524999
1680000008910,1179997265802293,0.049775,-0.0262625,-0.02145
1680000008914,1179997268304370,0.044825,-0.028324999,-0.0224125
1680000008915,1179997270806293,0.044825,-0.0213125,-0.0204875
1680000008918,1179997273308173,0.0457875,-0.0232375,-0.019524999
1680000008921,1179997275810327,0.0418,-0.0232375,-0.018424999
1680000008924,1179997278312404,0.0397375,-0.0262625,-0.0174625
1680000008925,1179997280814250,0.0408375,-0.027224999,-0.0144375
1680000008928,1179997283316158,0.0378125,-0.0312125,-0.0144375
1680000008930,1179997285818312,0.036849998,-0.03025,-0.0114124995
1680000008933,1179997288320158,0.03575,-0.028324999,-0.007425
1680000008936,1179997290822235,0.0347875,-0.03025,-0.007425
1680000008938,1179997293324163,0.0378125,-0.0363,-0.007425
1680000008941,1179997295826010,0.036849998,-0.0363,-0.0055
1680000008945,1179997298328086,0.036849998,-0.0372625,-0.0064625
1680000008947,1179997300830000,0.036849998,-0.0402875,-0.0064625
1680000008949,1179997303332153,0.03575,-0.038225,-0.002475
1680000008951,1179997305834000,0.0298375,-0.0372625,-0.002475
1680000008953,1179997308336076,0.0308,-0.038225,-0.002475
1680000008956,1179997310838000,0.0298375,-0.0363,-0.0034375
1680000008958,1179997313339870,0.0287375,-0.0342375,-0.002475
1680000008960,1179997315841947,0.0308,-0.033275,-0.0034375
1680000008964,1179997318343870,0.0287375,-0.0363,-0.0034375
1680000008965,1179997320846024,0.027775,-0.0372625,-0.0015125
1680000008969,1179997323347890,0.0287375,-0.0363,-0.0015125
1680000008970,1179997325849967,0.0287375,-0.033275,-0.002475
1680000008974,1179997328351890,0.0268125,-0.0312125,-0.002475
1680000008976,1179997330853967,0.0287375,-0.0323125,-0.0034375
1680000008980,1179997333355779,0.0308,-0.0292875,-0.0045375
1680000008981,1179997335857933,0.027775,-0.0312125,-0.0064625
1680000008985,1179997338359856,0.0268125,-0.0292875,-0.0055
1680000008987,1179997340861933,0.0268125,-0.028324999,-0.0045375
1680000008988,1179997343363779,0.027775,-0.0242,-0.0064625
1680000008991,1179997345865677,0.02475,-0.0253,-0.0064625
1680000008994,1179997348367523,0.02475,-0.0232375,-0.008525
1680000008996,1179997350869600,0.022824999,-0.0213125,-0.007425
1680000008997,1179997353371754,0.021724999,-0.017324999,-0.008525
1680000009000,1179997355873672,0.02475,-0.0143,-0.007425
1680000009004,1179997358375749,0.022824999,-0.0143,-0.007425
1680000009006,1179997360877595,0.021724999,-0.0132,-0.0034375
1680000009008,1179997363379518,0.021724999,-0.0132,-4.125E-4
1680000009011,1179997365881590,0.0207625,-0.0122375,-0.0034375
1680000009014,1179997368383436,0.021724999,-0.0103124995,-0.0034375
1680000009017,1179997370885590,0.0207625,-0.0042625,-0.0015125
1680000009020,1179997373387513,0.022824999,-0.005225,-0.0045375
1680000009021,1179997375889398,0.022824999,-0.0072875,-0.002475
1680000009025,1179997378391475,0.0207625,-0.005225,0.002475
1680000009027,1179997380893398,0.021724999,-0.005225,0.002475
1680000009028,1179997383395244,0.0207625,-0.0072875,0.0055
1680000009030,1179997385897398,0.0207625,-0.005225,0.0064625
1680000009033,1179997388399479,0.0198,-0.006325,0.0045375
1680000009036,1179997390901325,0.0188375,-0.0092124995,0.0075625
1680000009039,1179997393403249,0.0188375,-0.0143,0.0105875
1680000009040,1179997395905325,0.0158125,-0.015262499,0.008525
1680000009044,1179997398407172,0.0188375,-0.011275,0.0094875
1680000009046,1179997400909095,0.01375,-0.0122375,0.014575
1680000009048,1179997403411249,0.0158125,-0.0132,0.014575
1680000009051,1179997405913105,0.01375,-0.0143,0.014575
1680000009055,1179997408415182,0.0097624995,-0.011275,0.0155375
1680000009057,1179997410917105,0.0078375,-0.0092124995,0.0155375
1680000009059,1179997413419182,0.0088,-0.0092124995,0.0165
1680000009061,1179997415921105,0.0097624995,-0.011275,0.0204875
1680000009065,1179997418423168,0.0078375,-0.0122375,0.0204875
1680000009067,1179997420925091,0.00385,-0.0122375,0.019524999
1680000009069,1179997423427168,0.0017875,-0.011275,0.0204875
1680000009071,1179997425929014,0.0017875,-0.0103124995,0.019524999
1680000009074,1179997428430941,0.0048125,-0.0042625,0.0165
1680000009076,1179997430933018,0.0017875,-0.0022,0.0165
1680000009078,1179997433434941,0.0048125,-0.005225,0.0155375
1680000009081,1179997435937018,0.0048125,-0.0022,0.0125124995
1680000009084,1179997438438927,0.00385,0.004675,0.0125124995
1680000009086,1179997440941004,-2.75E-4,-2.75E-4,0.0125124995
1680000009088,1179997443442927,-0.0012375,0.004675,0.0125124995
1680000009092,1179997445944773,0.0017875,0.0088,0.0105875
1680000009094,1179997448446941,-2.75E-4,0.010725,0.0125124995
1680000009096,1179997450949018,-2.75E-4,0.0116875,0.013475
1680000009098,1179997453450864,0.00275,0.01375,0.014575
1680000009100,1179997455952787,0.00275,0.0187,0.0155375
1680000009107,1179997458454869,-0.0012375,0.016775,0.0155375
1680000009113,1179997460956715,-2.75E-4,0.016775,0.0165
1680000009113,1179997463458869,0.0017875,0.0177375,0.0165
1680000009113,1179997465960715,-0.0012375,0.0226875,0.0165
1680000009113,1179997468462869,0.0017875,0.02475,0.014575
1680000009115,1179997470964725,0.0017875,0.0237875,0.0155375
1680000009118,1179997473466648,-2.75E-4,0.021724999,0.019524999
1680000009120,1179997475968494,0.0017875,0.0187,0.0174625
1680000009124,1179997478470571,0.005775,0.0198,0.0174625
1680000009126,1179997480972715,0.0048125,0.0187,0.019524999
1680000009129,1179997483474638,0.0017875,0.0127875,0.0155375
1680000009131,1179997485976485,0.0048125,0.01375,0.0165
1680000009134,1179997488478561,0.0048125,0.0116875,0.0204875
1680000009136,1179997490980475,0.005775,0.0127875,0.019524999
1680000009138,1179997493482321,0.0067375,0.01375,0.019524999
1680000009141,1179997495984475,0.005775,0.005775,0.0215875
1680000009145,1179997498486551,0.0048125,0.0077,0.0215875
1680000009147,1179997500988398,0.0048125,0.005775,0.02255
1680000009148,1179997503490321,0.005775,0.00275,0.02255
1680000009151,1179997505992398,0.00275,0.00275,0.025575
1680000009155,1179997508494321,0.00385,0.0017875,0.0265375
1680000009155,1179997510996167,0.005775,-0.005225,0.030524999
1680000009158,1179997513498326,0.005775,-0.005225,0.0295625
1680000009161,1179997516000403,0.005775,-0.0033,0.030524999
1680000009165,1179997518502326,0.0048125,-0.005225,0.0314875
1680000009170,1179997521004143,0.0048125,-0.006325,0.0314875
1680000009171,1179997523506220,0.00385,-0.006325,0.0314875
1680000009172,1179997526008143,-2.75E-4,-0.0033,0.030524999
1680000009175,1179997528510220,0.00275,-0.0012375,0.0314875
1680000009177,1179997531012143,-0.0031625,-2.75E-4,0.030524999
1680000009179,1179997533514249,-0.0012375,6.875E-4,0.030524999
1680000009181,1179997536016172,0.0048125,6.875E-4,0.0314875
1680000009185,1179997538518018,0.005775,0.005775,0.0295625
1680000009187,1179997541020095,0.00275,0.01375,0.0295625
1680000009189,1179997543522013,0.00275,0.0088,0.030524999
1680000009190,1179997546024167,-2.75E-4,0.01375,0.0284625
1680000009194,1179997548526013,0.00275,0.014712499,0.0265375
1680000009196,1179997551028090,0.00275,0.0237875,0.0295625
1680000009199,1179997553529936,0.0017875,0.0207625,0.0295625
1680000009201,1179997556032071,0.0048125,0.0207625,0.0295625
1680000009206,1179997558533917,0.0067375,0.021724999,0.0284625
1680000009207,1179997561035840,0.005775,0.0257125,0.0295625
1680000009209,1179997563537917,0.0048125,0.0297,0.0295625
1680000009211,1179997566039826,0.0067375,0.0287375,0.0284625
1680000009214,1179997568541903,0.0067375,0.032725,0.0275
1680000009216,1179997571043749,0.0067375,0.0317625,0.0284625
1680000009220,1179997573545672,0.005775,0.0367125,0.0265375
1680000009221,1179997576047729,0.0048125,0.032725,0.025575
1680000009225,1179997578549883,0.0078375,0.032725,0.0275
1680000009226,1179997581051729,0.0067375,0.032725,0.0275
1680000009228,1179997583553653,0.0078375,0.0317625,0.025575
1680000009230,1179997586055729,0.0097624995,0.0297,0.0265375
1680000009234,1179997588557586,0.0078375,0.027775,0.0265375
1680000009236,1179997591059509,0.0097624995,0.0287375,0.0265375
1680000009238,1179997593561586,0.0097624995,0.0287375,0.025575
1680000009242,1179997596063466,0.0088,0.0257125,0.0284625
1680000009245,1179997598565543,0.005775,0.0317625,0.0275
1680000009247,1179997601067466,0.00385,0.0317625,0.0275
1680000009249,1179997603569543,0.005775,0.0287375,0.0284625
1680000009251,1179997606071389,0.00275,0.0317625,0.030524999
1680000009254,1179997608573307,0.0017875,0.032725,0.0295625
1680000009256,1179997611075384,-0.0022,0.0317625,0.030524999
1680000009258,1179997613577307,-0.0031625,0.0317625,0.03355
1680000009260,1179997616079384,-0.005225,0.02475,0.03355
1680000009265,1179997618581215,-0.005225,0.0237875,0.0325875
1680000009267,1179997621083138,-0.00825,0.0226875,0.03355
1680000009269,1179997623585292,-0.00715,0.015675,0.0345125
1680000009272,1179997626087138,-0.00825,0.01375,0.0375375
1680000009275,1179997628589215,-0.00825,0.015675,0.0345125
1680000009277,1179997631091138,-0.0092124995,0.015675,0.0345125
1680000009280,1179997633593215,-0.010175,0.01375,0.0394625
1680000009281,1179997636095061,-0.010175,0.015675,0.0375375
1680000009285,1179997638597191,-0.010175,0.0067375,0.036575
1680000009287,1179997641099114,-0.010175,0.0088,0.03355
1680000009288,1179997643600960,-0.010175,0.0077,0.0345125
1680000009290,1179997646103037,-0.014162499,0.005775,0.0345125
1680000009294,1179997648604960,-0.015262499,-2.75E-4,0.03355
1680000009296,1179997651106801,-0.014162499,-0.0022,0.0314875
1680000009298,1179997653608878,-0.0122375,0.0037125,0.030524999
1680000009301,1179997656111032,-0.0122375,0.004675,0.0284625
1680000009305,1179997658612878,-0.0111375,-2.75E-4,0.0275
1680000009307,1179997661115013,-0.0111375,-2.75E-4,0.0265375
1680000009309,1179997663616859,-0.010175,-0.0022,0.02255
1680000009310,1179997666118782,-0.010175,-2.75E-4,0.019524999
1680000009314,1179997668620859,-0.010175,-2.75E-4,0.0204875
1680000009317,1179997671122816,-0.0092124995,6.875E-4,0.019524999
1680000009320,1179997673624893,-0.0111375,-0.0012375,0.0165
1680000009321,1179997676126816,-0.010175,6.875E-4,0.013475
1680000009325,1179997678628663,-0.00715,0.0017875,0.013475
1680000009326,1179997681130740,-0.0122375,0.004675,0.013475
1680000009328,1179997683632678,-0.010175,0.0088,0.01155
1680000009331,1179997686134755,-0.00715,0.0067375,0.008525
1680000009334,1179997688636678,-0.00715,0.0077,0.0075625
1680000009336,1179997691138755,-0.00715,0.0067375,0.0064625
1680000009338,1179997693640692,-0.00715,0.0116875,0.0055
1680000009341,1179997696142538,-0.010175,0.014712499,0.0055
1680000009345,1179997698644615,-0.00825,0.01375,0.0045375
1680000009347,1179997701146538,-0.0092124995,0.015675,0.002475
1680000009348,1179997703648375,-0.010175,0.0198,0.002475
1680000009351,1179997706150529,-0.00715,0.021724999,5.5E-4
1680000009355,1179997708652606,-0.005225,0.0207625,-4.125E-4
1680000009357,1179997711154452,-0.005225,0.0207625,-4.125E-4
1680000009359,1179997713656360,-0.0061875,0.0198,-0.0015125
1680000009361,1179997716158437,-0.010175,0.0207625,-0.002475
1680000009364,1179997718660360,-0.0061875,0.0207625,-0.002475
1680000009366,1179997721162206,-0.00715,0.0207625,-0.0034375
1680000009368,1179997723664360,-0.00825,0.0226875,-0.0055
1680000009371,1179997726166442,-0.00825,0.021724999,-0.0055
1680000009373,1179997728668288,-0.00825,0.021724999,-0.0055
1680000009376,1179997731170211,-0.00825,0.021724999,-0.007425
1680000009378,1179997733672288,-0.0092124995,0.0187,-0.007425
1680000009381,1179997736174192,-0.010175,0.015675,-0.007425
1680000009386,1179997738676346,-0.00825,0.021724999,-0.007425
1680000009387,1179997741178192,-0.00825,0.0198,-0.0114124995
1680000009389,1179997743680269,-0.0122375,0.0198,-0.0114124995
1680000009392,1179997746182192,-0.0092124995,0.0177375,-0.0144375
1680000009397,1179997748684038,-0.010175,0.016775,-0.0125124995
1680000009397,1179997751186115,-0.0111375,0.015675,-0.0125124995
1680000009401,1179997753688038,-0.0122375,0.016775,-0.0144375
1680000009401,1179997756190192,-0.0132,0.0187,-0.0155375
1680000009404,1179997758692043,-0.0132,0.015675,-0.0174625
1680000009406,1179997761194120,-0.0122375,0.0177375,-0.0174625
1680000009408,1179997763695967,-0.0132,0.01375,-0.0144375
1680000009411,1179997766197890,-0.0122375,0.0077,-0.0144375
1680000009413,1179997768700000,-0.0122375,0.0088,-0.0125124995
1680000009415,1179997771202153,-0.0122375,0.0116875,-0.0165
1680000009418,1179997773704000,-0.0122375,0.0116875,-0.018424999
1680000009420,1179997776205923,-0.0122375,0.005775,-0.018424999
1680000009425,1179997778708005,-0.0122375,0.004675,-0.0174625
1680000009426,1179997781209928,-0.0122375,0.0067375,-0.018424999
1680000009430,1179997783712005,-0.010175,0.0067375,-0.0204875
1680000009432,1179997786213928,-0.0092124995,0.0037125,-0.019524999
1680000009435,1179997788715764,-0.00825,0.004675,-0.0204875
1680000009437,1179997791217841,-0.00715,0.0077,-0.0224125
1680000009439,1179997793719764,-0.00715,0.0127875,-0.019524999
1680000009441,1179997796221610,-0.0042625,0.01375,-0.019524999
1680000009446,1179997798723716,-0.0031625,0.010725,-0.019524999
1680000009447,1179997801225793,-0.0042625,0.0088,-0.0235125
1680000009449,1179997803727716,-0.0042625,0.005775,-0.0235125
1680000009451,1179997806229562,-0.0061875,0.0067375,-0.0235125
1680000009454,1179997808731639,-0.0031625,0.0077,-0.018424999
1680000009456,1179997811233586,-0.005225,-2.75E-4,-0.019524999
1680000009458,1179997813735432,-0.0061875,0.00275,-0.0224125
1680000009462,1179997816237586,-0.0031625,0.00275,-0.0204875
1680000009465,1179997818739663,-0.0031625,0.0037125,-0.0204875
1680000009469,1179997821241533,-0.0022,0.005775,-0.0204875
1680000009471,1179997823743456,-0.0022,0.004675,-0.019524999
1680000009473,1179997826283995,-0.005225,6.875E-4,-0.02145
1680000009476,1179997828747456,-0.0061875,6.875E-4,-0.02145
1680000009477,1179997831249302,-0.0031625,6.875E-4,-0.02145
1680000009479,1179997833751471,-0.0061875,6.875E-4,-0.0204875
1680000009482,1179997836253548,-0.00715,6.875E-4,-0.0224125
1680000009486,1179997838755471,-0.0061875,6.875E-4,-0.0235125
1680000009487,1179997841257317,-0.00825,6.875E-4,-0.02145
1680000009488,1179997843759164,-0.0092124995,-2.75E-4,-0.0204875
1680000009491,1179997846261297,-0.0132,-0.0012375,-0.019524999
1680000009495,1179997848763374,-0.010175,-0.0022,-0.019524999
1680000009496,1179997851265297,-0.0092124995,-0.0012375,-0.018424999
1680000009499,1179997853767374,-0.00825,-0.0033,-0.019524999
1680000009501,1179997856269287,-0.0061875,-0.0042625,-0.0155375
1680000009506,1179997858771134,-0.00715,-0.005225,-0.0174625
1680000009508,1179997863773211,-0.00825,-0.005225,-0.018424999
1680000009510,1179997863865903,-0.0042625,-0.005225,-0.0155375
1680000009512,1179997866277211,-0.0042625,-0.00825,-0.0125124995
1680000009515,1179997868779134,-0.005225,-0.0092124995,-0.0144375
1680000009517,1179997871281211,-0.00715,-0.00825,-0.0114124995
1680000009519,1179997873783134,-0.00715,-0.00825,-0.0144375
1680000009521,1179997876284980,-0.00715,-0.0072875,-0.0155375
1680000009524,1179997878787042,-0.005225,-0.011275,-0.0155375
1680000009526,1179997881289196,-0.0031625,-0.0143,-0.0114124995
1680000009529,1179997883791042,-0.0022,-0.0122375,-0.01045
1680000009533,1179997886292994,-1.375E-4,-0.0132,-0.0114124995
1680000009535,1179997888795071,-0.0022,-0.0103124995,-0.0114124995
1680000009537,1179997891296917,-0.0022,-0.0143,-0.0114124995
1680000009538,1179997893798840,-0.0012375,-0.0122375,-0.007425
1680000009543,1179997896300912,-0.0022,-0.0132,-0.0055
1680000009546,1179997898802835,-0.0012375,-0.0132,-0.0055
1680000009548,1179997901304912,-0.0012375,-0.017324999,-0.0055
1680000009549,1179997903806835,0.00275,-0.0143,-0.002475
1680000009551,1179997906308681,0.00385,-0.0143,-0.0034375
1680000009554,1179997908810802,0.0017875,-0.0132,-0.002475
1680000009556,1179997911312725,0.0048125,-0.016224999,5.5E-4
1680000009559,1179997913814802,0.0067375,-0.016224999,-0.0034375
1680000009561,1179997916316725,0.0048125,-0.0143,-0.002475
1680000009564,1179997918818831,0.0088,-0.016224999,0.0015125
1680000009566,1179997921320677,0.0088,-0.017324999,0.003575
1680000009570,1179997923822831,0.00385,-0.015262499,5.5E-4
1680000009571,1179997926324677,0.005775,-0.017324999,0.0045375
1680000009574,1179997928826595,0.0078375,-0.016224999,0.003575
1680000009576,1179997931328749,0.0067375,-0.0143,0.003575
1680000009580,1179997933830826,0.005775,-0.016224999,0.0015125
1680000009581,1179997936332672,0.0097624995,-0.015262499,0.002475
1680000009585,1179997938834595,0.010725,-0.0202125,5.5E-4
1680000009587,1179997941336672,0.011825,-0.015262499,0.003575
1680000009589,1179997943838519,0.0127875,-0.0143,0.0045375
1680000009591,1179997946340442,0.0127875,-0.016224999,0.003575
1680000009593,1179997948842519,0.01375,-0.015262499,0.0045375
1680000009596,1179997951344437,0.0127875,-0.017324999,0.003575
1680000009599,1179997953846514,0.0158125,-0.0182875,0.0055
1680000009601,1179997956348360,0.0188375,-0.0132,0.0045375
1680000009604,1179997958850514,0.016775,-0.0143,0.003575
1680000009606,1179997961352437,0.01375,-0.0143,0.003575
1680000009608,1179997963854514,0.0097624995,-0.011275,0.003575
1680000009611,1179997966356360,0.011825,-0.0072875,0.003575
1680000009614,1179997968858206,0.010725,-0.006325,0.0045375
1680000009617,1179997971360379,0.0078375,-0.0072875,0.0055
1680000009619,1179997973862225,0.0088,-0.0022,0.0055
1680000009621,1179997976364379,0.005775,-0.0033,0.0055
1680000009625,1179997978866302,0.0048125,-0.0033,0.0075625
1680000009627,1179997981368379,0.0048125,-2.75E-4,0.0075625
1680000009629,1179997983870211,0.0048125,-0.0012375,0.008525
1680000009631,1179997986372134,0.00275,-0.0042625,0.0094875
1680000009634,1179997988874211,0.0078375,-0.0072875,0.0125124995
1680000009636,1179997991376134,0.0078375,-0.0072875,0.0125124995
1680000009639,1179997993878196,0.0088,-0.0042625,0.0105875
1680000009641,1179997996380119,0.0097624995,-0.005225,0.01155
1680000009644,1179997998881965,0.0097624995,-0.0042625,0.014575
1680000009646,1179998001384042,0.0097624995,-0.0072875,0.013475
1680000009649,1179998003885980,0.01375,-0.005225,0.0125124995
1680000009651,1179998006387826,0.016775,-0.005225,0.0155375
1680000009655,1179998008889980,0.0158125,-0.0042625,0.0155375
1680000009657,1179998011392057,0.01485,-0.0042625,0.014575
1680000009659,1179998013893874,0.0158125,-2.75E-4,0.014575
1680000009661,1179998016395797,0.0188375,-0.005225,0.0125124995
1680000009665,1179998018897874,0.0188375,-0.0072875,0.0125124995
1680000009667,1179998021399720,0.0188375,-0.0092124995,0.0155375
1680000009671,1179998023901639,0.016775,-0.0092124995,0.013475
1680000009671,1179998026403792,0.016775,-0.0092124995,0.014575
1680000009675,1179998028905869,0.021724999,-0.011275,0.01155
1680000009677,1179998031407715,0.0237875,-0.0132,0.0125124995
1680000009679,1179998033909639,0.022824999,-0.0143,0.0125124995
1680000009681,1179998036411730,0.022824999,-0.0143,0.0105875
1680000009684,1179998038913653,0.02475,-0.0202125,0.008525
1680000009686,1179998041415730,0.0237875,-0.01925,0.0105875
1680000009689,1179998043917653,0.022824999,-0.017324999,0.0094875
1680000009693,1179998046419735,0.0268125,-0.017324999,0.0075625
1680000009695,1179998048921658,0.0268125,-0.017324999,0.008525
1680000009697,1179998051423504,0.0287375,-0.0182875,0.0094875
1680000009699,1179998053925581,0.027775,-0.0182875,0.0105875
1680000009704,1179998056427490,0.0287375,-0.01925,0.01155
1680000009705,1179998058929567,0.0308,-0.0182875,0.0094875
1680000009707,1179998061431490,0.0317625,-0.016224999,0.008525
1680000009709,1179998063933567,0.0308,-0.0103124995,0.0105875
1680000009712,1179998066435490,0.0308,-0.0122375,0.0094875
1680000009715,1179998068937331,0.0347875,-0.0092124995,0.008525
1680000009716,1179998071439408,0.0378125,-0.0092124995,0.0075625
1680000009720,1179998073941331,0.0378125,-0.00825,0.0094875
1680000009721,1179998076443408,0.0378125,-0.006325,0.01155
1680000009725,1179998078945307,0.0378125,-0.0042625,0.01155
1680000009726,1179998081447384,0.0397375,6.875E-4,0.0125124995
1680000009732,1179998083949230,0.038775,-0.0022,0.0125124995
1680000009736,1179998086451153,0.038775,-2.75E-4,0.0105875
1680000009737,1179998088953220,0.0397375,-2.75E-4,0.0125124995
1680000009737,1179998091455143,0.0397375,6.875E-4,0.013475
1680000009738,1179998093957220,0.0397375,-0.0022,0.0155375
1680000009741,1179998096459143,0.0408375,6.875E-4,0.019524999
1680000009745,1179998098960994,0.0408375,6.875E-4,0.019524999
1680000009746,1179998101463071,0.03575,-2.75E-4,0.0174625
1680000009748,1179998103964994,0.0397375,-0.0012375,0.0215875
1680000009751,1179998106466841,0.0397375,6.875E-4,0.0235125
1680000009754,1179998108968994,0.0378125,-0.0042625,0.02255
1680000009756,1179998111471061,0.0418,-0.0042625,0.0215875
1680000009758,1179998113972907,0.0427625,-0.0012375,0.025575
1680000009761,1179998116474831,0.0418,-0.0033,0.0295625
1680000009764,1179998118976984,0.044825,-0.0033,0.0235125
1680000009768,1179998121479061,0.0488125,-0.0022,0.0235125
1680000009770,1179998123980907,0.0488125,-0.0012375,0.0275
1680000009772,1179998126482831,0.0528,-0.0042625,0.0275
1680000009776,1179998128984677,0.0488125,-0.006325,0.0265375
1680000009776,1179998131486754,0.0528,-0.005225,0.025575
1680000009781,1179998133988658,0.0537625,-0.0033,0.0275
1680000009781,1179998136490812,0.0567875,-0.005225,0.0265375
1680000009786,1179998138992889,0.05775,-0.0033,0.025575
1680000009787,1179998141494735,0.0567875,-0.0042625,0.0235125
1680000009789,1179998143996658,0.0598125,-0.0042625,0.0235125
1680000009791,1179998146498518,0.060775,-2.75E-4,0.0215875
1680000009794,1179998149000672,0.0598125,-0.0012375,0.0235125
1680000009797,1179998151502749,0.060775,-0.0042625,0.025575
1680000009799,1179998154004672,0.060775,-0.005225,0.02255
1680000009803,1179998156506759,0.060775,-0.005225,0.02255
1680000009806,1179998159008605,0.0638,-0.00825,0.024475
1680000009808,1179998161510528,0.0647625,-0.0072875,0.02255
1680000009809,1179998164012605,0.0677875,-0.005225,0.025575
1680000009811,1179998166514451,0.0647625,-0.00825,0.024475
1680000009814,1179998169016610,0.06875,-0.0103124995,0.02255
1680000009816,1179998171518533,0.071775,-0.0103124995,0.0284625
1680000009820,1179998174020610,0.0727375,-0.0143,0.025575
1680000009821,1179998176522456,0.0757625,-0.0122375,0.024475
1680000009825,1179998179024360,0.0757625,-0.0122375,0.024475
1680000009827,1179998181526437,0.0787875,-0.015262499,0.025575
1680000009828,1179998184028283,0.082775,-0.015262499,0.0284625
1680000009831,1179998186530437,0.08085,-0.017324999,0.0275
1680000009834,1179998189032403,0.0867625,-0.017324999,0.0275
1680000009837,1179998191534249,0.0878625,-0.0182875,0.0284625
1680000009838,1179998194036326,0.0878625,-0.0202125,0.0265375
1680000009842,1179998196538249,0.0897875,-0.0182875,0.0275
1680000009845,1179998199040116,0.09075,-0.015262499,0.0295625
1680000009847,1179998201542269,0.088825,-0.017324999,0.0295625
1680000009849,1179998204044346,0.09185,-0.016224999,0.0275
1680000009851,1179998206546192,0.0947375,-0.0132,0.0284625
1680000009854,1179998209048082,0.09185,-0.0143,0.0275
1680000009856,1179998211550158,0.09075,-0.0092124995,0.030524999
1680000009859,1179998214052082,0.0897875,-0.0072875,0.0314875
1680000009861,1179998216553928,0.0878625,-0.0042625,0.030524999
1680000009865,1179998219056092,0.0878625,-0.005225,0.036575
1680000009867,1179998221558168,0.0867625,-0.006325,0.0385
1680000009869,1179998224060092,0.0818125,-0.006325,0.036575
1680000009871,1179998226561938,0.0848375,-0.005225,0.036575
1680000009875,1179998229064015,0.0787875,-0.0042625,0.0375375
1680000009876,1179998231565851,0.0818125,-0.0033,0.0375375
1680000009880,1179998234067774,0.082775,-0.0072875,0.0375375
1680000009882,1179998236569928,0.0757625,-0.0012375,0.0375375
1680000009885,1179998239072005,0.0768625,-0.0022,0.0385
1680000009887,1179998241573938,0.077825,6.875E-4,0.0405625
1680000009888,1179998244075784,0.0738375,0.0037125,0.0385
1680000009891,1179998246577861,0.0738375,-2.75E-4,0.0385
1680000009894,1179998249079784,0.0748,0.0037125,0.0405625
1680000009896,1179998251581861,0.071775,0.005775,0.0424875
1680000009899,1179998254083784,0.0727375,0.010725,0.0375375
1680000009901,1179998256585861,0.071775,0.0116875,0.0385
1680000009905,1179998259087707,0.0748,0.01375,0.041525
1680000009907,1179998261589630,0.0748,0.014712499,0.0394625
1680000009909,1179998264091697,0.0748,0.0198,0.0394625
1680000009911,1179998266593620,0.0768625,0.021724999,0.0385
1680000009914,1179998269095697,0.0757625,0.021724999,0.0394625
1680000009918,1179998271597620,0.071775,0.0237875,0.0394625
1680000009920,1179998274099697,0.0738375,0.0237875,0.0394625
1680000009922,1179998276601543,0.071775,0.027775,0.0385
1680000009925,1179998279103697,0.06875,0.0297,0.036575
1680000009926,1179998281605620,0.0658625,0.027775,0.0385
1680000009929,1179998284107466,0.06875,0.032725,0.0345125
1680000009932,1179998286609553,0.0658625,0.0336875,0.0345125
1680000009934,1179998289111399,0.0658625,0.032725,0.0345125
1680000009937,1179998291613323,0.0617375,0.03575,0.0345125
1680000009939,1179998294115399,0.0617375,0.037675,0.0385
1680000009941,1179998296617342,0.0638,0.0367125,0.0375375
1680000009945,1179998299119418,0.060775,0.0347875,0.036575
1680000009947,1179998301621342,0.060775,0.0317625,0.03355
1680000009949,1179998304123188,0.058849998,0.0287375,0.036575
1680000009954,1179998306625255,0.058849998,0.0257125,0.03355
1680000009956,1179998309127178,0.05775,0.021724999,0.03355
1680000009957,1179998311629332,0.055825,0.02475,0.0314875
1680000009961,1179998314131178,0.055825,0.0207625,0.0314875
1680000009961,1179998316633255,0.0567875,0.0177375,0.0314875
1680000009964,1179998319135106,0.0548625,0.021724999,0.0325875
1680000009969,1179998321637260,0.0537625,0.0226875,0.0345125
1680000009970,1179998324139106,0.0567875,0.014712499,0.03355
1680000009971,1179998326641029,0.055825,0.014712499,0.0314875
1680000009975,1179998329143164,0.0528,0.0127875,0.03355
1680000009976,1179998331645241,0.0548625,0.010725,0.03355
1680000009979,1179998334147087,0.0548625,0.0127875,0.03355
1680000009981,1179998336649010,0.0537625,0.014712499,0.030524999
1680000009987,1179998339151077,0.0528,0.01375,0.0345125
1680000009987,1179998341653000,0.049775,0.0088,0.0345125
1680000009989,1179998344154846,0.047849998,0.0077,0.03355
1680000009995,1179998346657000,0.0438625,0.0088,0.0325875
1680000009996,1179998349158832,0.044825,0.005775,0.0345125
1680000009998,1179998351660909,0.0427625,0.005775,0.0325875
1680000010000,1179998354162832,0.0418,0.004675,0.030524999
1680000010002,1179998356664678,0.0418,0.0017875,0.0295625
1680000010005,1179998359166755,0.0427625,6.875E-4,0.030524999
1680000010007,1179998361668865,0.0418,-0.0022,0.030524999
1680000010009,1179998364170711,0.0427625,6.875E-4,0.0295625
1680000010012,1179998366672634,0.0427625,0.0017875,0.0295625
1680000010014,1179998369174711,0.0418,-0.0033,0.0284625
1680000010016,1179998371676557,0.0397375,-0.0042625,0.0284625
1680000010020,1179998374178471,0.0378125,-0.0033,0.0275
1680000010021,1179998376680548,0.038775,-2.75E-4,0.0265375
1680000010025,1179998379182702,0.0408375,6.875E-4,0.025575
1680000010027,1179998381684585,0.0427625,0.004675,0.024475
1680000010030,1179998384186508,0.0408375,-0.0012375,0.0215875
1680000010032,1179998386688585,0.036849998,0.00275,0.02255
1680000010036,1179998389190509,0.0418,0.005775,0.019524999
1680000010036,1179998391692355,0.0418,0.0037125,0.0204875
1680000010039,1179998394194496,0.0427625,0.005775,0.0235125
1680000010041,1179998396696572,0.0408375,0.0077,0.02255
1680000010044,1179998399198419,0.0438625,0.0067375,0.0174625
1680000010046,1179998401700342,0.0438625,0.0088,0.014575
1680000010049,1179998404202414,0.0438625,0.0116875,0.014575
1680000010052,1179998406704337,0.0457875,0.0067375,0.014575
1680000010054,1179998409206183,0.044825,0.004675,0.0125124995
1680000010056,1179998411708337,0.044825,0.004675,0.013475
1680000010059,1179998414210423,0.04675,0.0088,0.013475
1680000010062,1179998416712346,0.0518375,0.014712499,0.01155
1680000010065,1179998419214192,0.0537625,0.010725,0.0094875
1680000010069,1179998421716269,0.0518375,0.010725,0.0094875
1680000010070,1179998424218215,0.0567875,0.0116875,0.008525
1680000010073,1179998426720061,0.060775,0.0127875,0.0075625
1680000010076,1179998429222215,0.0567875,0.0127875,0.0064625
1680000010078,1179998431754753,0.055825,0.0116875,0.0055
1680000010080,1179998434226138,0.05775,0.0127875,0.003575
1680000010082,1179998436728061,0.0638,0.0116875,0.003575
1680000010085,1179998439230138,0.0647625,0.0088,0.0015125
1680000010087,1179998441732061,0.06985,0.010725,-0.0015125
1680000010089,1179998444234138,0.0727375,0.0077,-0.0015125
1680000010091,1179998446736047,0.0738375,0.0088,-0.002475
1680000010094,1179998449237893,0.0768625,0.0077,-0.0034375
1680000010096,1179998451739970,0.0787875,0.0037125,-0.0045375
1680000010099,1179998454241893,0.08085,0.0037125,-0.007425
1680000010101,1179998456743975,0.0878625,0.0017875,-0.0055
1680000010107,1179998459245898,0.09075,-2.75E-4,-0.0045375
1680000010108,1179998461747975,0.09075,-0.0033,-0.0055
1680000010110,1179998464249821,0.093775,-0.0033,-0.0045375
1680000010112,1179998466751711,0.0977625,-2.75E-4,-0.002475
1680000010115,1179998469253788,0.0977625,6.875E-4,-0.0034375
1680000010116,1179998471755711,0.0977625,-0.0012375,-0.0055
1680000010119,1179998474257788,0.1038125,-0.0022,-0.0045375
1680000010123,1179998476759758,0.1038125,-0.0033,-0.0034375
1680000010124,1179998479261835,0.1038125,-0.0072875,-0.0015125
1680000010126,1179998481763682,0.106837496,-0.0072875,5.5E-4
1680000010129,1179998484265605,0.11275,-0.0072875,-4.125E-4
1680000010133,1179998486767687,0.1148125,-0.011275,5.5E-4
1680000010136,1179998489269840,0.11275,-0.0072875,0.0015125
1680000010136,1179998491771687,0.1117875,-0.0092124995,0.0045375
1680000010139,1179998494273610,0.115775,-0.0103124995,0.0064625
1680000010143,1179998496775663,0.115775,-0.0132,0.0055
1680000010146,1179998499277509,0.1227875,-0.016224999,0.0064625
1680000010148,1179998501779432,0.1258125,-0.0132,0.0055
1680000010150,1179998504281586,0.1258125,-0.0132,0.003575
1680000010152,1179998506783663,0.12773749,-0.017324999,0.003575
1680000010155,1179998509285505,0.12979999,-0.0253,0.0064625
1680000010156,1179998511787428,0.132825,-0.0253,0.003575
1680000010159,1179998514289505,0.137775,-0.0242,0.002475
1680000010161,1179998516791351,0.143825,-0.028324999,0.0015125
1680000010164,1179998519293292,0.1478125,-0.027224999,0.003575
1680000010166,1179998521795446,0.148775,-0.0242,0.002475
1680000010170,1179998524297292,0.1538625,-0.027224999,-4.125E-4
1680000010171,1179998526799369,0.15675,-0.03025,0.0015125
1680000010174,1179998529301326,0.1607375,-0.0323125,0.0015125
1680000010176,1179998531803172,0.1637625,-0.0352,-0.0015125
1680000010180,1179998534305249,0.16775,-0.038225,-0.0015125
1680000010183,1179998536807172,0.1758625,-0.0402875,-0.0034375
1680000010186,1179998539309234,0.1747625,-0.0473,-0.0055
1680000010187,1179998541811157,0.17985,-0.041249998,-0.0064625
1680000010189,1179998544313234,0.1868625,-0.044275,-0.008525
1680000010191,1179998546815157,0.1918125,-0.0433125,-0.008525
1680000010194,1179998549317003,0.1958,-0.0452375,-0.0094875
1680000010196,1179998551819061,0.1967625,-0.044275,-0.0125124995
1680000010202,1179998554320984,0.1978625,-0.041249998,-0.0125124995
1680000010202,1179998556823138,0.20185,-0.038225,-0.0155375
1680000010204,1179998559324984,0.203775,-0.0352,-0.0174625
1680000010206,1179998561827080,0.2047375,-0.033275,-0.0224125
1680000010208,1179998564329003,0.2058375,-0.027224999,-0.0254375
1680000010211,1179998566830850,0.209825,-0.0242,-0.0284625
1680000010215,1179998569332927,0.21175,-0.0232375,-0.0314875
1680000010218,1179998571835075,0.21285,-0.0122375,-0.032449998
1680000010219,1179998574336998,0.21285,-0.005225,-0.0334125
1680000010221,1179998576838845,0.21573749,-0.0022,-0.0364375
1680000010225,1179998579340922,0.21779999,0.00275,-0.0364375
1680000010227,1179998581842845,0.2187625,0.0067375,-0.040425
1680000010229,1179998584344691,0.2198625,0.015675,-0.041525
1680000010232,1179998586846768,0.2198625,0.021724999,-0.0375375
1680000010236,1179998589348922,0.2217875,0.0226875,-0.0385
1680000010237,1179998591850768,0.22385,0.0287375,-0.040425
1680000010239,1179998594352696,0.22385,0.0336875,-0.0385
1680000010242,1179998596854773,0.225775,0.03575,-0.0375375
1680000010245,1179998599356619,0.2297625,0.0418,-0.0375375
1680000010247,1179998601858542,0.23773749,0.043725,-0.0394625
1680000010250,1179998604360711,0.2398,0.0457875,-0.0364375
1680000010252,1179998606862557,0.242825,0.0507375,-0.032449998
1680000010256,1179998609364634,0.24475,0.0528,-0.0345125
1680000010258,1179998611866557,0.2508,0.054725,-0.0375375
1680000010261,1179998614368648,0.2517625,0.05775,-0.0345125
1680000010262,1179998616870571,0.25685,0.05775,-0.032449998
1680000010266,1179998619372648,0.258775,0.0617375,-0.0334125
1680000010268,1179998621874494,0.263725,0.060775,-0.032449998
1680000010270,1179998624376417,0.264825,0.0627,-0.032449998
1680000010272,1179998626878489,0.2688125,0.0638,-0.035475
1680000010277,1179998629380335,0.2707375,0.0638,-0.0345125
1680000010277,1179998631882489,0.2737625,0.0638,-0.0334125
1680000010279,1179998634384412,0.2737625,0.05775,-0.0334125
1680000010282,1179998636886277,0.2737625,0.0537625,-0.0334125
1680000010285,1179998639388354,0.274725,0.0517,-0.0345125
1680000010287,1179998641890277,0.2737625,0.0507375,-0.0314875
1680000010289,1179998644392124,0.275825,0.0446875,-0.0284625
1680000010294,1179998646894192,0.27885,0.037675,-0.0254375
1680000010296,1179998649396345,0.274725,0.0287375,-0.0235125
1680000010297,1179998651898268,0.2718375,0.021724999,-0.0224125
1680000010299,1179998654400115,0.2737625,0.0177375,-0.0224125
1680000010301,1179998656902192,0.2728,0.0127875,-0.0204875
1680000010305,1179998659404091,0.269775,0.0088,-0.018424999
1680000010307,1179998661906168,0.2707375,0.0037125,-0.018424999
1680000010309,1179998664408091,0.2707375,0.00275,-0.0165
1680000010312,1179998666910168,0.2718375,-2.75E-4,-0.0174625
1680000010315,1179998669412091,0.26785,-0.0042625,-0.0155375
1680000010317,1179998671913975,0.2718375,-0.0042625,-0.0144375
1680000010319,1179998674416052,0.2707375,-0.0072875,-0.0125124995
1680000010322,1179998676917975,0.274725,-0.006325,-0.0144375
1680000010324,1179998679419821,0.2767875,-0.0132,-0.01045
1680000010327,1179998681921989,0.27885,-0.011275,-0.0094875
1680000010331,1179998684424066,0.27981248,-0.0122375,-0.007425
1680000010333,1179998686925989,0.280775,-0.015262499,-0.0055
1680000010336,1179998689427835,0.2847625,-0.017324999,-0.007425
1680000010337,1179998691929927,0.286825,-0.017324999,-0.0064625
1680000010339,1179998694431773,0.28985,-0.0202125,-0.0045375
1680000010342,1179998696933696,0.2908125,-0.0213125,-0.0015125
1680000010345,1179998699435850,0.2957625,-0.0253,-0.0015125
1680000010347,1179998701937710,0.297825,-0.0232375,-0.0034375
1680000010349,1179998704439787,0.29975,-0.017324999,-0.0055
1680000010352,1179998706941710,0.30085,-0.015262499,-0.002475
1680000010355,1179998709443787,0.3048375,-0.015262499,-0.002475
1680000010360,1179998711945633,0.302775,-0.0122375,-0.002475
1680000010360,1179998714447586,0.3018125,-0.0122375,-0.0015125
1680000010362,1179998716949740,0.307725,-0.011275,-0.0045375
1680000010364,1179998719451817,0.3097875,-0.006325,-0.0064625
1680000010368,1179998721953692,0.308825,-0.0033,-0.0015125
1680000010369,1179998724455615,0.308825,-0.00825,-0.002475
1680000010371,1179998726957462,0.31075,-0.0072875,-0.002475
1680000010375,1179998729459615,0.308825,-0.0012375,0.0015125
1680000010376,1179998731961462,0.307725,-2.75E-4,0.0015125
1680000010379,1179998734463576,0.3048375,0.00275,0.0015125
1680000010382,1179998736965653,0.3018125,0.0037125,5.5E-4
1680000010385,1179998739467499,0.29975,0.0037125,5.5E-4
1680000010387,1179998741969423,0.29479998,0.0067375,5.5E-4
1680000010389,1179998744471534,0.2938375,0.0077,-4.125E-4
1680000010392,1179998746973457,0.29273748,0.005775,0.002475
1680000010395,1179998749475534,0.28875,0.005775,0.003575
1680000010397,1179998751977457,0.27981248,0.0067375,0.003575
1680000010399,1179998754479313,0.274725,0.005775,0.0045375
1680000010402,1179998756981390,0.274725,0.0037125,0.0055
1680000010406,1179998759483313,0.2707375,0.010725,0.0055
1680000010407,1179998761985159,0.26675,0.0177375,0.0055
1680000010409,1179998764487226,0.264825,0.0187,0.008525
1680000010412,1179998766989380,0.25685,0.0226875,0.0105875
1680000010414,1179998769491226,0.25685,0.02475,0.0105875
1680000010417,1179998771993149,0.2517625,0.0257125,0.013475
1680000010420,1179998774495226,0.247775,0.0317625,0.0155375
1680000010422,1179998776997062,0.2437875,0.0336875,0.019524999
1680000010425,1179998779499216,0.2388375,0.0308,0.0165
1680000010427,1179998782001139,0.23485,0.032725,0.019524999
1680000010429,1179998784502985,0.2288,0.0347875,0.019524999
1680000010433,1179998787005067,0.2267375,0.0347875,0.0235125
1680000010435,1179998789506990,0.22275,0.0397375,0.024475
1680000010437,1179998792009067,0.21573749,0.0397375,0.0265375
1680000010440,1179998794510913,0.21573749,0.0446875,0.024475
1680000010444,1179998797013033,0.2107875,0.0477125,0.025575
1680000010445,1179998799514879,0.209825,0.0418,0.0284625
1680000010448,1179998802016802,0.2028125,0.0407,0.0284625
1680000010449,1179998804518879,0.198825,0.0418,0.0275
1680000010453,1179998807020802,0.1948375,0.038775,0.0284625
1680000010455,1179998809522851,0.1918125,0.037675,0.030524999
1680000010457,1179998812024774,0.18975,0.0367125,0.0275
1680000010461,1179998814526851,0.1857625,0.0367125,0.0295625
1680000010462,1179998817028774,0.1808125,0.0367125,0.030524999
1680000010466,1179998819530860,0.17985,0.03575,0.030524999
1680000010467,1179998822032706,0.17985,0.03575,0.0295625
1680000010470,1179998824534630,0.175725,0.03575,0.0284625
1680000010472,1179998827036706,0.17379999,0.0367125,0.0314875
1680000010475,1179998829538630,0.170775,0.0347875,0.0325875
1680000010477,1179998832040716,0.16885,0.0297,0.0325875
1680000010481,1179998834542640,0.165825,0.0257125,0.0325875
1680000010486,1179998837044486,0.1628,0.0226875,0.0325875
1680000010488,1179998839546544,0.159775,0.0207625,0.0325875
1680000010489,1179998842048467,0.15785,0.0207625,0.0345125
1680000010489,1179998844550313,0.15785,0.016775,0.0345125
1680000010492,1179998847052467,0.153725,0.0127875,0.0345125
1680000010495,1179998849554544,0.1508375,0.004675,0.0345125
1680000010497,1179998852056390,0.14575,0.004675,0.0345125
1680000010499,1179998854558308,0.14685,6.875E-4,0.0325875
1680000010502,1179998857060385,0.142725,-0.005225,0.0345125
1680000010506,1179998859562231,0.1408,-0.0122375,0.036575
1680000010507,1179998862064154,0.1398375,-0.0143,0.0325875
1680000010509,1179998864566274,0.1368125,-0.016224999,0.0325875
1680000010512,1179998867068351,0.132825,-0.017324999,0.030524999
1680000010520,1179998869570139,0.1307625,-0.017324999,0.0295625
1680000010521,1179998872072062,0.126775,-0.0232375,0.0295625
1680000010523,1179998874574139,0.1258125,-0.0232375,0.0295625
1680000010524,1179998877075985,0.121825,-0.01925,0.0284625
1680000010525,1179998879577908,0.1197625,-0.0242,0.0265375
1680000010527,1179998882080062,0.117837496,-0.0292875,0.0284625
1680000010529,1179998884582139,0.1148125,-0.0262625,0.0275
1680000010532,1179998887084058,0.11275,-0.0262625,0.025575
1680000010535,1179998889585904,0.11385,-0.0253,0.0265375
1680000010537,1179998892087981,0.1148125,-0.0253,0.0265375
1680000010539,1179998894589812,0.109725,-0.0253,0.0235125
1680000010542,1179998897091735,0.1057375,-0.0213125,0.0235125
1680000010545,1179998899593889,0.106837496,-0.01925,0.02255
1680000010547,1179998902095966,0.106837496,-0.0182875,0.0204875
1680000010549,1179998904597841,0.10285,-0.017324999,0.0265375
1680000010552,1179998907099765,0.099825,-0.015262499,0.0235125
1680000010556,1179998909601841,0.099825,-0.011275,0.02255
1680000010557,1179998912103688,0.098725,-0.0092124995,0.024475
1680000010559,1179998914605611,0.095837496,-0.005225,0.0235125
1680000010562,1179998917107664,0.09185,-0.005225,0.0204875
1680000010565,1179998919609587,0.087725,-0.0012375,0.0215875
1680000010567,1179998922111664,0.087725,0.004675,0.0204875
1680000010569,1179998924613587,0.0867625,0.0116875,0.0215875
1680000010572,1179998927115423,0.07975,0.010725,0.0174625
1680000010575,1179998929617500,0.076725,0.0127875,0.0204875
1680000010576,1179998932119423,0.0757625,0.014712499,0.0215875
1680000010579,1179998934621500,0.0748,0.0127875,0.019524999
1680000010582,1179998937123404,0.0748,0.015675,0.0204875
1680000010585,1179998939625250,0.0757625,0.0177375,0.019524999
1680000010587,1179998942127327,0.0748,0.0207625,0.0174625
1680000010589,1179998944629481,0.076725,0.021724999,0.0174625
1680000010593,1179998947131327,0.076725,0.0187,0.0174625
1680000010596,1179998949633250,0.0787875,0.0177375,0.0165
1680000010597,1179998952135327,0.077825,0.0177375,0.0165
1680000010599,1179998954637250,0.071775,0.0207625,0.013475
1680000010601,1179998957139096,0.0738375,0.016775,0.0094875
1680000010605,1179998959641159,0.0757625,0.0207625,0.01155
1680000010607,1179998962143313,0.077825,0.0207625,0.008525
1680000010609,1179998964645159,0.0738375,0.0198,0.0055
1680000010612,1179998967147082,0.0738375,0.021724999,0.0045375
1680000010614,1179998969649183,0.0748,0.0198,0.0055
1680000010617,1179998972151106,0.0757625,0.0177375,0.0055
1680000010620,1179998974652952,0.0787875,0.0187,0.003575
1680000010621,1179998977155106,0.0818125,0.015675,0.0015125
1680000010625,1179998979657211,0.07975,0.014712499,5.5E-4
1680000010627,1179998982159134,0.082775,0.014712499,-0.0034375
1680000010631,1179998984660980,0.0867625,0.0127875,-0.002475
1680000010632,1179998987163057,0.0867625,0.0127875,-0.0045375
1680000010635,1179998989664880,0.088825,0.005775,-0.01045
1680000010637,1179998992166803,0.09075,0.0067375,-0.0064625
1680000010639,1179998994668956,0.095837496,0.0088,-0.008525
1680000010642,1179998997171033,0.0968,0.0077,-0.01045
1680000010645,1179998999672880,0.0947375,0.010725,-0.0144375
1680000010647,1179999002174794,0.10285,0.0077,-0.019524999
1680000010649,1179999004676871,0.1038125,0.010725,-0.0174625
1680000010652,1179999007178717,0.106837496,0.0067375,-0.018424999
1680000010655,1179999009680640,0.106837496,0.0088,-0.019524999
1680000010657,1179999012182813,0.110825,0.0127875,-0.0204875
1680000010660,1179999014684659,0.1117875,0.01375,-0.02145
1680000010662,1179999017186736,0.11385,0.0127875,-0.024475
1680000010666,1179999019688659,0.11275,0.0127875,-0.0254375
1680000010669,1179999022190510,0.1188,0.01375,-0.0265375
1680000010671,1179999024692587,0.121825,0.016775,-0.0284625
1680000010674,1179999027194741,0.120725,0.0187,-0.029424999
1680000010676,1179999029696664,0.121825,0.021724999,-0.0275
1680000010678,1179999032198510,0.12485,0.02475,-0.032449998
1680000010680,1179999034700606,0.12773749,0.0198,-0.032449998
1680000010682,1179999037202529,0.1307625,0.02475,-0.0334125
1680000010685,1179999039704375,0.1307625,0.0207625,-0.032449998
1680000010687,1179999042206452,0.1368125,0.0198,-0.0314875
1680000010690,1179999044708606,0.132825,0.021724999,-0.032449998
1680000010692,1179999047210582,0.13585,0.0207625,-0.035475
1680000010695,1179999049712659,0.13585,0.0207625,-0.032449998
1680000010697,1179999052214505,0.137775,0.021724999,-0.0334125
1680000010699,1179999054716351,0.142725,0.021724999,-0.032449998
1680000010702,1179999057218494,0.143825,0.021724999,-0.0314875
1680000010707,1179999059720340,0.143825,0.0226875,-0.029424999
1680000010709,1179999062222494,0.143825,0.0207625,-0.029424999
1680000010710,1179999064724417,0.148775,0.021724999,-0.029424999
1680000010714,1179999067226273,0.1508375,0.021724999,-0.029424999
1680000010716,1179999069728350,0.153725,0.0237875,-0.0284625
1680000010717,1179999072230197,0.154825,0.0226875,-0.032449998
1680000010720,1179999074732120,0.15675,0.0257125,-0.032449998
1680000010722,1179999077234273,0.1557875,0.027775,-0.032449998
1680000010725,1179999079736120,0.15785,0.027775,-0.035475
1680000010727,1179999082238197,0.159775,0.02475,-0.0364375
1680000010729,1179999084740120,0.1607375,0.027775,-0.0345125
1680000010732,1179999087241966,0.1607375,0.0287375,-0.0364375
1680000010736,1179999089744052,0.159775,0.0297,-0.041525
1680000010737,1179999092245975,0.1607375,0.0317625,-0.041525
1680000010740,1179999094748052,0.1618375,0.0317625,-0.0424875
1680000010743,1179999097249961,0.1618375,0.0287375,-0.041525
1680000010747,1179999099752038,0.1607375,0.0336875,-0.0424875
1680000010749,1179999102253961,0.1607375,0.03575,-0.0444125
1680000010751,1179999104756038,0.1557875,0.03575,-0.0444125
1680000010753,1179999107257961,0.159775,0.0367125,-0.0444125
1680000010755,1179999109760052,0.1628,0.0397375,-0.0455125
1680000010757,1179999112261898,0.1607375,0.0397375,-0.0474375
1680000010762,1179999114763821,0.159775,0.038775,-0.0455125
1680000010764,1179999117265898,0.16775,0.0407,-0.0474375
1680000010765,1179999119767816,0.16885,0.0397375,-0.0485375
1680000010768,1179999122269893,0.16885,0.038775,-0.0485375
1680000010770,1179999124771816,0.16885,0.0367125,-0.0474375
1680000010772,1179999127273893,0.17173749,0.0397375,-0.0485375
1680000010775,1179999129775730,0.175725,0.0407,-0.0474375
1680000010777,1179999132277653,0.175725,0.0367125,-0.0474375
1680000010781,1179999134779730,0.175725,0.0397375,-0.0455125
1680000010783,1179999137281653,0.1777875,0.0367125,-0.0474375
1680000010787,1179999139783706,0.1777875,0.0336875,-0.0485375
1680000010789,1179999142285629,0.1808125,0.0397375,-0.0455125
1680000010791,1179999144787475,0.1838375,0.0457875,-0.0474375
1680000010792,1179999147289552,0.186725,0.038775,-0.0495
1680000010796,1179999149791475,0.1857625,0.0347875,-0.051425
1680000010797,1179999152293331,0.18975,0.0336875,-0.0474375
1680000010800,1179999154795484,0.18975,0.037675,-0.043449998
1680000010802,1179999157297561,0.19085,0.0367125,-0.0444125
1680000010805,1179999159799484,0.19085,0.0367125,-0.043449998
1680000010807,1179999162301326,0.187825,0.037675,-0.0424875
1680000010810,1179999164803403,0.18975,0.0367125,-0.041525
1680000010813,1179999167305326,0.19373749,0.0367125,-0.041525
1680000010815,1179999169807172,0.1918125,0.0336875,-0.0394625
1680000010819,1179999172309350,0.192775,0.032725,-0.0394625
1680000010820,1179999174811427,0.19085,0.0397375,-0.0394625
1680000010823,1179999177313350,0.1958,0.038775,-0.0375375
1680000010826,1179999179815196,0.1948375,0.0407,-0.0345125
1680000010828,1179999182317273,0.1948375,0.038775,-0.0345125
1680000010830,1179999184819119,0.1948375,0.038775,-0.032449998
1680000010833,1179999187321350,0.1948375,0.0446875,-0.0334125
1680000010835,1179999189823196,0.1918125,0.0477125,-0.0345125
1680000010837,1179999192325273,0.19085,0.0446875,-0.0314875
1680000010840,1179999194827134,0.1887875,0.04675,-0.032449998
1680000010842,1179999197329057,0.18975,0.0457875,-0.032449998
1680000010845,1179999199831134,0.19085,0.043725,-0.029424999
1680000010849,1179999202333057,0.18975,0.04675,-0.0284625
1680000010850,1179999204835138,0.18975,0.0457875,-0.0275
1680000010853,1179999207337061,0.187825,0.049775,-0.0275
1680000010857,1179999209839138,0.1887875,0.049775,-0.0275
1680000010858,1179999212340984,0.186725,0.048675,-0.0265375
1680000010860,1179999214842898,0.1838375,0.0528,-0.024475
1680000010863,1179999217344744,0.1838375,0.0537625,-0.0204875
1680000010866,1179999219846821,0.1848,0.0517,-0.0235125
1680000010868,1179999222348975,0.1857625,0.0556875,-0.024475
1680000010870,1179999224850918,0.1838375,0.048675,-0.0224125
1680000010873,1179999227352764,0.17875,0.0477125,-0.0204875
1680000010876,1179999229854841,0.17875,0.0457875,-0.019524999
1680000010878,1179999232356764,0.1777875,0.0418,-0.019524999
1680000010880,1179999234858841,0.1747625,0.0397375,-0.0174625
1680000010882,1179999237360754,0.17379999,0.0418,-0.0174625
1680000010885,1179999239862831,0.1698125,0.0347875,-0.0165
1680000010887,1179999242364754,0.1698125,0.0308,-0.0144375
1680000010890,1179999244866831,0.16885,0.0297,-0.008525
1680000010894,1179999247368677,0.1628,0.0308,-0.008525
1680000010896,1179999249870601,0.15785,0.0237875,-0.008525
1680000010898,1179999252372447,0.1588125,0.0237875,-0.007425
1680000010899,1179999254874601,0.15785,0.0237875,-0.0055
1680000010902,1179999257376677,0.1508375,0.0198,-4.125E-4
1680000010907,1179999259878520,0.153725,0.014712499,0.0015125
1680000010908,1179999262380366,0.148775,0.0127875,0.0015125
1680000010909,1179999264882597,0.14685,0.010725,0.0045375
1680000010912,1179999267384443,0.14575,0.0088,0.003575
1680000010914,1179999269886534,0.1447875,0.0077,0.0064625
1680000010917,1179999272388457,0.142725,0.00275,0.0075625
1680000010920,1179999274890303,0.1408,6.875E-4,0.008525
1680000010922,1179999277392380,0.137775,-2.75E-4,0.0075625
1680000010925,1179999279894303,0.1368125,-0.0012375,0.0094875
1680000010927,1179999282396457,0.13585,6.875E-4,0.0105875
1680000010931,1179999284898303,0.1307625,-2.75E-4,0.01155
1680000010933,1179999287400380,0.1258125,-2.75E-4,0.0094875
1680000010935,1179999289902221,0.1258125,0.0017875,0.0105875
1680000010937,1179999292404144,0.1197625,0.0017875,0.01155
1680000010940,1179999294906221,0.1148125,0.0067375,0.0094875
1680000010942,1179999297408144,0.1087625,0.0067375,0.013475
1680000010946,1179999299910236,0.1038125,0.00275,0.01155
1680000010948,1179999302412159,0.099825,0.0037125,0.01155
1680000010949,1179999304914005,0.0947375,0.005775,0.0105875
1680000010954,1179999307416082,0.0928125,6.875E-4,0.01155
1680000010955,1179999309918005,0.0867625,6.875E-4,0.0094875
1680000010957,1179999312420106,0.08085,0.0017875,0.0105875
1680000010960,1179999314922029,0.076725,-0.0022,0.014575
1680000010962,1179999317424106,0.0757625,-0.005225,0.014575
1680000010965,1179999319925952,0.0727375,-0.0033,0.0155375
1680000010969,1179999322427846,0.065725,-0.0103124995,0.014575
1680000010971,1179999324929923,0.0647625,-0.0092124995,0.0125124995
1680000010973,1179999327431847,0.0647625,-0.015262499,0.0125124995
1680000010975,1179999329933923,0.0617375,-0.0182875,0.0125124995
1680000010977,1179999332435847,0.05775,-0.016224999,0.0105875
1680000010983,1179999334937942,0.055825,-0.015262499,0.0075625
1680000010991,1179999337439789,0.0528,-0.0182875,0.0075625
1680000010991,1179999339941712,0.0518375,-0.0182875,0.0075625
1680000010991,1179999342443789,0.047849998,-0.0182875,0.0055
1680000010991,1179999344945712,0.044825,-0.017324999,0.0055
1680000010992,1179999347447799,0.0418,-0.0143,0.002475
1680000010995,1179999349949722,0.0408375,-0.015262499,0.003575
1680000010997,1179999352451799,0.0378125,-0.017324999,0.003575
1680000010999,1179999354953645,0.03575,-0.0143,0.0015125
1680000011003,1179999357455568,0.032725,-0.015262499,0.0015125
1680000011006,1179999359957645,0.0298375,-0.0122375,0.002475
1680000011008,1179999362459491,0.027775,-0.011275,0.002475
1680000011010,1179999364961399,0.0268125,-0.0132,0.0015125
1680000011012,1179999367463553,0.02475,-0.017324999,0.002475
1680000011016,1179999369965630,0.021724999,-0.0143,0.003575
1680000011017,1179999372467476,0.0237875,-0.0132,5.5E-4
1680000011022,1179999374969370,0.021724999,-0.0132,-0.0015125
1680000011023,1179999377471447,0.0188375,-0.016224999,-0.0015125
1680000011027,1179999379973370,0.016775,-0.01925,-0.0015125
1680000011028,1179999382475447,0.0188375,-0.0242,-0.002475
1680000011030,1179999384977370,0.016775,-0.0232375,-0.0055
1680000011032,1179999387479442,0.0158125,-0.0232375,-0.008525
1680000011038,1179999389981288,0.01485,-0.0213125,-0.01045
1680000011040,1179999392483211,0.0127875,-0.0232375,-0.0125124995
1680000011040,1179999394985288,0.011825,-0.0253,-0.0144375
1680000011045,1179999397487197,0.010725,-0.0213125,-0.018424999
1680000011047,1179999399989274,0.01375,-0.0202125,-0.019524999
1680000011049,1179999402491197,0.011825,-0.017324999,-0.02145
1680000011051,1179999404993274,0.010725,-0.0182875,-0.0224125
1680000011052,1179999407495120,0.005775,-0.017324999,-0.0235125
1680000011055,1179999409997028,0.00275,-0.015262499,-0.0265375
1680000011057,1179999412498875,0.00275,-0.017324999,-0.0275
1680000011060,1179999415000952,0.0017875,-0.011275,-0.0254375
1680000011062,1179999417503105,-0.0012375,-0.00825,-0.0265375
1680000011066,1179999420005019,-0.0012375,-0.0103124995,-0.0284625
1680000011068,1179999422506866,-0.0012375,-0.0122375,-0.032449998
1680000011070,1179999425008943,-0.0042625,-0.00825,-0.0314875
1680000011072,1179999427510789,-0.005225,-0.005225,-0.0314875
1680000011076,1179999430012943,-0.0061875,-0.0072875,-0.0314875
1680000011078,1179999432514851,-0.0061875,-0.006325,-0.0284625
1680000011081,1179999435016697,-0.00715,-0.006325,-0.0284625
1680000011084,1179999437518774,-0.010175,-2.75E-4,-0.029424999
1680000011087,1179999440020697,-0.0092124995,6.875E-4,-0.0314875
1680000011088,1179999442522553,-0.010175,-0.0033,-0.029424999
1680000011090,1179999445024707,-0.00825,-0.0022,-0.0284625
1680000011093,1179999447526784,-0.00825,-0.0012375,-0.0275
1680000011095,1179999450028630,-0.0132,-0.0012375,-0.0275
1680000011097,1179999452530558,-0.011275,6.875E-4,-0.0275
1680000011100,1179999455032635,-0.014162499,-2.75E-4,-0.0314875
1680000011103,1179999457534481,-0.0122375,0.0017875,-0.0275
1680000011107,1179999460036635,-0.010175,0.004675,-0.0265375
1680000011108,1179999462538582,-0.0122375,0.0017875,-0.0254375
1680000011110,1179999465040659,-0.015262499,6.875E-4,-0.029424999
1680000011112,1179999467542582,-0.014162499,0.0017875,-0.0275
1680000011115,1179999470044659,-0.011275,0.00275,-0.0284625
1680000011122,1179999472546476,-0.014162499,0.00275,-0.0275
1680000011123,1179999475048399,-0.014162499,6.875E-4,-0.0265375
1680000011125,1179999477612015,-0.0132,0.004675,-0.0265375
1680000011127,1179999480052399,-0.01815,-0.0033,-0.0275
1680000011131,1179999482554476,-0.016224999,-0.0022,-0.0284625
1680000011132,1179999485056322,-0.014162499,-2.75E-4,-0.0265375
1680000011133,1179999487558245,-0.0132,-0.0012375,-0.0284625
1680000011137,1179999490060322,-0.0132,-0.0022,-0.0275
1680000011138,1179999492562169,-0.014162499,-0.0012375,-0.0265375
1680000011140,1179999495064096,-0.0132,-0.0012375,-0.0254375
1680000011142,1179999497566249,-0.0132,-0.0012375,-0.024475
1680000011146,1179999500068096,-0.00825,-0.0042625,-0.0235125
1680000011148,1179999502570173,-0.010175,-0.0033,-0.02145
1680000011150,1179999505072077,-0.010175,-0.0022,-0.0235125
1680000011152,1179999507574154,-0.010175,-0.0042625,-0.0275
1680000011157,1179999510076000,-0.00825,-0.006325,-0.02145
1680000011158,1179999512577923,-0.0061875,-0.006325,-0.024475
1680000011160,1179999515080077,-0.0061875,-0.005225,-0.024475
1680000011163,1179999517582145,-0.005225,-0.0072875,-0.0235125
1680000011165,1179999520083991,-0.00825,-0.011275,-0.0254375
1680000011167,1179999522585914,-0.005225,-0.005225,-0.0265375
1680000011170,1179999525087991,-0.0061875,-0.005225,-0.0275
1680000011173,1179999527589808,-0.0031625,-0.0033,-0.029424999
1680000011175,1179999530091731,-0.0012375,-0.006325,-0.029424999
1680000011177,1179999532593885,-0.0042625,-0.0022,-0.0314875
1680000011180,1179999535095731,-0.0042625,-0.00825,-0.032449998
1680000011182,1179999537597798,-0.0031625,-0.00825,-0.029424999
1680000011187,1179999540099721,-0.0031625,-0.006325,-0.032449998
1680000011189,1179999542601798,-0.0012375,-0.006325,-0.032449998
1680000011190,1179999545103644,0.0017875,-0.0092124995,-0.032449998
1680000011194,1179999547605577,-0.0022,-0.0092124995,-0.0334125
1680000011196,1179999550107654,0.005775,-0.0092124995,-0.0345125
1680000011199,1179999552609577,0.005775,-0.0072875,-0.035475
1680000011200,1179999555111654,0.0017875,-0.0072875,-0.035475
1680000011203,1179999557613500,0.0017875,-0.006325,-0.0334125
1680000011205,1179999560115413,0.0067375,-0.0022,-0.032449998
1680000011208,1179999562617490,0.0067375,-0.0022,-0.0364375
1680000011210,1179999565119644,0.00385,-0.0033,-0.0364375
1680000011212,1179999567621490,0.0048125,-0.0012375,-0.0334125
1680000011216,1179999570123427,0.00385,-0.0012375,-0.0345125
1680000011218,1179999572625274,0.00385,6.875E-4,-0.0345125
1680000011220,1179999575127427,0.005775,-0.0022,-0.0314875
1680000011223,1179999577629274,0.0048125,-0.005225,-0.0284625
1680000011226,1179999580131360,0.0067375,-0.006325,-0.0275
1680000011228,1179999582633514,0.0088,-0.0092124995,-0.0275
1680000011231,1179999585135361,0.0067375,-0.00825,-0.024475
1680000011235,1179999587637207,0.005775,-0.0092124995,-0.0265375
1680000011237,1179999590139130,0.0078375,-0.0132,-0.0224125
1680000011239,1179999592641207,0.0078375,-0.015262499,-0.024475
1680000011240,1179999595143361,0.0088,-0.011275,-0.0265375
1680000011242,1179999597645207,0.0088,-0.0122375,-0.0235125
1680000011245,1179999600147130,0.0108624995,-0.0202125,-0.0235125
1680000011247,1179999602649178,0.0138875,-0.015262499,-0.0235125
1680000011253,1179999605151101,0.0088,-0.0182875,-0.0224125
1680000011255,1179999607652947,0.006875,-0.011275,-0.0235125
1680000011257,1179999610155101,0.0078375,-0.0132,-0.0235125
1680000011258,1179999612656952,0.005775,-0.0122375,-0.0224125
1680000011260,1179999615159029,0.0078375,-0.0122375,-0.02145
1680000011263,1179999617660952,0.006875,-0.0132,-0.018424999
1680000011272,1179999620163000,0.0048125,-0.015262499,-0.0204875
1680000011274,1179999622664846,0.005775,-0.015262499,-0.019524999
1680000011275,1179999625166769,0.005775,-0.016224999,-0.019524999
1680000011277,1179999627668846,0.0078375,-0.015262499,-0.0204875
1680000011278,1179999630334947,0.0078375,-0.0202125,-0.0204875
1680000011279,1179999633000846,0.006875,-0.0232375,-0.0204875
1680000011281,1179999635174692,0.0048125,-0.0232375,-0.0174625
1680000011282,1179999637676601,0.0097624995,-0.0242,-0.019524999
1680000011286,1179999640178678,0.0108624995,-0.0253,-0.02145
1680000011287,1179999642680524,0.0088,-0.0253,-0.019524999
1680000011290,1179999645182678,0.0088,-0.0262625,-0.0224125
1680000011292,1179999647684634,0.0088,-0.0232375,-0.02145
1680000011295,1179999650186711,0.0108624995,-0.0232375,-0.0224125
1680000011297,1179999652688634,0.0097624995,-0.0242,-0.02145
1680000011300,1179999655190481,0.0078375,-0.01925,-0.0204875
1680000011303,1179999657692342,0.0088,-0.01925,-0.02145
1680000011310,1179999660194726,0.0108624995,-0.016224999,-0.0204875
1680000011311,1179999662696572,0.011825,-0.0143,-0.019524999
1680000011313,1179999665198496,0.0108624995,-0.015262499,-0.02145
1680000011315,1179999667700572,0.0097624995,-0.0122375,-0.019524999
1680000011316,1179999670202419,0.0108624995,-0.011275,-0.018424999
1680000011318,1179999672704342,0.0108624995,-0.0122375,-0.019524999
1680000011320,1179999675206419,0.0138875,-0.0092124995,-0.018424999
1680000011322,1179999677708572,0.0108624995,-0.0132,-0.018424999
1680000011325,1179999680210438,0.0108624995,-0.0092124995,-0.0224125
1680000011327,1179999682712361,0.011825,-0.0072875,-0.0174625
1680000011330,1179999685214207,0.0127875,-0.0122375,-0.0174625
1680000011332,1179999687716284,0.0138875,-0.0061875,-0.0165
1680000011335,1179999690218207,0.0108624995,-0.0042625,-0.0165
1680000011337,1179999692720053,0.0127875,-0.0042625,-0.0125124995
1680000011340,1179999695222207,0.011825,-0.005225,-0.0125124995
1680000011344,1179999697724284,0.0108624995,-0.0061875,-0.0144375
1680000011348,1179999700226139,0.0138875,-0.0033,-0.0094875
1680000011350,1179999702728062,0.011825,-0.0061875,-0.0114124995
1680000011351,1179999705230139,0.0078375,-0.0012375,-0.008525
1680000011355,1179999707731985,0.0088,-0.0022,-0.008525
1680000011357,1179999710234216,0.005775,-0.005225,-0.0094875
1680000011358,1179999712736072,0.005775,-0.0033,-0.0055
1680000011360,1179999715238149,0.005775,-0.0042625,-0.0055
1680000011363,1179999717740072,0.005775,-0.0061875,-0.008525
1680000011366,1179999720241918,0.0048125,-0.00825,-0.0064625
1680000011368,1179999722743995,0.0078375,-0.005225,-0.0064625
1680000011371,1179999725245860,0.0078375,-0.0042625,-0.0055
1680000011373,1179999727748014,0.005775,-0.005225,-0.0064625
1680000011377,1179999730249937,0.005775,-0.0033,-0.007425
1680000011379,1179999732752038,0.005775,-0.0042625,-0.007425
1680000011382,1179999735253884,0.005775,-0.0022,-0.008525
1680000011387,1179999737755807,0.005775,-0.0033,-0.0064625
1680000011389,1179999740257884,0.006875,-0.0012375,-0.008525
1680000011390,1179999742759706,0.0088,-0.0012375,-0.0094875
1680000011392,1179999745261859,0.0078375,-0.0022,-0.008525
1680000011393,1179999747763783,0.0097624995,6.875E-4,-0.008525
1680000011395,1179999750265629,0.0097624995,0.00275,-0.008525
1680000011398,1179999752767706,0.011825,0.0037125,-0.007425
1680000011400,1179999755269831,0.01485,0.0037125,-0.007425
1680000011405,1179999757771678,0.0158125,0.0048125,-0.0045375
1680000011407,1179999760273601,0.0138875,0.0088,-0.0034375
1680000011408,1179999762775678,0.0138875,0.0116875,-0.0034375
1680000011410,1179999765277504,0.0188375,0.010725,-0.0055
1680000011413,1179999767779427,0.0207625,0.010725,-0.002475
1680000011415,1179999770281581,0.0188375,0.0077,-4.125E-4
1680000011422,1179999772783451,0.016775,0.0067375,5.5E-4
1680000011423,1179999775285528,0.0198,0.0116875,-4.125E-4
1680000011425,1179999777787451,0.0218625,0.0077,-4.125E-4
1680000011428,1179999780289528,0.0237875,0.0048125,0.0015125
1680000011430,1179999782791374,0.0237875,0.0037125,0.003575
1680000011431,1179999785293293,0.022824999,0.0017875,0.0045375
1680000011433,1179999787795447,0.0218625,6.875E-4,0.0045375
1680000011437,1179999790297524,0.0248875,-0.0012375,0.0055
1680000011439,1179999792799370,0.027775,-2.75E-4,0.0045375
1680000011441,1179999795301302,0.028875,0.00275,0.0064625
1680000011443,1179999797803379,0.0317625,0.0017875,0.0064625
1680000011446,1179999800305225,0.028875,-0.0033,0.0045375
1680000011448,1179999802807148,0.0308,-0.0012375,0.0055
1680000011450,1179999805309302,0.0298375,0.0017875,0.003575
1680000011453,1179999807811167,0.028875,0.0017875,0.0064625
1680000011457,1179999810313244,0.028875,6.875E-4,0.0045375
1680000011459,1179999812815167,0.028875,-2.75E-4,0.0045375
1680000011463,1179999815317013,0.027775,0.0048125,0.0045375
1680000011466,1179999817819076,0.028875,0.00275,0.003575
1680000011470,1179999820320999,0.0298375,6.875E-4,0.0015125
1680000011472,1179999822823076,0.028875,0.0037125,0.003575
1680000011473,1179999825324999,0.028875,0.0067375,0.003575
1680000011475,1179999827827061,0.027775,0.0048125,0.002475
1680000011477,1179999830328908,0.0268125,0.0077,0.003575
1680000011479,1179999832830831,0.027775,0.0088,0.003575
1680000011481,1179999835332908,0.0268125,0.0127875,0.003575
1680000011483,1179999837835061,0.02585,0.0158125,0.002475
1680000011485,1179999840336918,0.02585,0.014712499,0.002475
1680000011488,1179999842838841,0.0268125,0.01375,0.002475
1680000011490,1179999845340687,0.0268125,0.016775,0.0045375
1680000011494,1179999847842836,0.02585,0.0198,0.003575
1680000011497,1179999850344682,0.028875,0.0237875,0.003575
1680000011500,1179999852846759,0.028875,0.0237875,0.0055
1680000011501,1179999855348682,0.0268125,0.0226875,0.0075625
1680000011506,1179999857850759,0.027775,0.0198,0.008525
1680000011508,1179999860352663,0.027775,0.0207625,0.0064625
1680000011509,1179999862854740,0.027775,0.0187,0.0075625
1680000011511,1179999865356586,0.028875,0.0177375,0.008525
1680000011513,1179999867858509,0.028875,0.021724999,0.0075625
1680000011516,1179999870360586,0.0308,0.021724999,0.008525
1680000011521,1179999872862523,0.0308,0.021724999,0.0094875
1680000011522,1179999875364600,0.0328625,0.0198,0.008525
1680000011523,1179999877866523,0.0347875,0.0207625,0.0075625
1680000011526,1179999880368369,0.0358875,0.0177375,0.008525
1680000011528,1179999882870446,0.0378125,0.014712499,0.0094875
1680000011532,1179999885372359,0.0378125,0.0088,0.0094875
1680000011534,1179999887874436,0.039875,0.0077,0.013475
1680000011536,1179999890376359,0.0408375,0.010725,0.01155
1680000011538,1179999892878436,0.0408375,0.0077,0.013475
1680000011540,1179999895380359,0.0408375,0.0048125,0.014575
1680000011542,1179999897882205,0.038775,6.875E-4,0.0155375
1680000011546,1179999900384282,0.0408375,-0.0012375,0.013475
1680000011549,1179999902886436,0.0418,-0.0022,0.014575
1680000011550,1179999905388359,0.0427625,-0.0042625,0.0125124995
1680000011553,1179999907890205,0.0408375,-0.0061875,0.01155
1680000011555,1179999910392282,0.0418,-0.0103124995,0.01155
1680000011558,1179999912894129,0.044825,-0.0072875,0.013475
1680000011560,1179999915396282,0.044825,-0.0061875,0.0094875
1680000011563,1179999917898140,0.0427625,-0.0061875,0.01155
1680000011566,1179999920400063,0.0418,-0.0061875,0.0105875
1680000011569,1179999922902140,0.0427625,-0.00825,0.0094875
1680000011571,1179999925404063,0.0408375,-0.0122375,0.0075625
1680000011574,1179999927905952,0.0418,-0.00825,0.0075625
1680000011576,1179999930408106,0.0418,-0.0072875,0.0064625
1680000011578,1179999932909952,0.0418,-0.0072875,0.0064625
1680000011580,1179999935412029,0.0408375,-0.00825,0.0055
1680000011583,1179999937913952,0.0408375,-0.0072875,0.0055
1680000011586,1179999940415826,0.0418,-0.0042625,0.0075625
1680000011588,1179999942917903,0.0408375,-0.005225,0.0045375
1680000011590,1179999945419826,0.0418,-0.0072875,0.0045375
1680000011593,1179999947921980,0.0418,-0.0042625,0.003575
1680000011595,1179999950423864,0.0427625,-0.0061875,0.003575
1680000011597,1179999952925941,0.0457875,-0.0061875,-4.125E-4
1680000011600,1179999955427787,0.0427625,-0.0033,-4.125E-4
1680000011603,1179999957929710,0.0438625,-2.75E-4,0.002475
1680000011609,1179999960431773,0.044825,-0.0022,5.5E-4
1680000011616,1179999962933619,0.0427625,-0.0012375,0.0015125
1680000011616,1179999965435773,0.0418,0.0017875,-4.125E-4
1680000011616,1179999967937696,0.038775,0.00275,-4.125E-4
1680000011616,1179999970439773,0.039875,0.005775,-4.125E-4
1680000011617,1179999972941691,0.0408375,0.0077,5.5E-4
1680000011620,1179999975443537,0.039875,0.0088,-4.125E-4
1680000011623,1179999977945614,0.0418,0.010725,-0.0015125
1680000011626,1179999980447768,0.039875,0.0127875,-0.0015125
1680000011628,1179999982949585,0.039875,0.010725,-0.0015125
1680000011630,1179999985451508,0.039875,0.0127875,-0.0034375
1680000011632,1179999987953585,0.0408375,0.0177375,-0.002475
1680000011636,1179999990455431,0.0418,0.0116875,-0.0015125
1680000011637,1179999992957355,0.0427625,0.0116875,-0.002475
1680000011640,1179999995459431,0.0438625,0.0116875,-0.0015125
1680000011645,1179999997961355,0.0418,0.014712499,-0.0015125
1680000011647,1180000000463431,0.0427625,0.0116875,-0.002475
1680000011651,1180000002965370,0.0427625,0.0077,5.5E-4
1680000011653,1180000005467216,0.0418,0.010725,-0.0015125
1680000011653,1180000007969293,0.0457875,0.0077,-0.0015125
1680000011656,1180000010471216,0.0418,0.0088,-4.125E-4
1680000011658,1180000012973293,0.0408375,0.0077,0.0015125
1680000011660,1180000015475201,0.038775,0.0077,5.5E-4
1680000011664,1180000017977278,0.039875,0.0048125,-4.125E-4
1680000011667,1180000020479201,0.038775,0.005775,0.0015125
1680000011669,1180000022981047,0.039875,0.0088,0.0015125
1680000011672,1180000025483129,0.039875,0.0077,5.5E-4
1680000011675,1180000027984975,0.038775,0.0037125,-0.0015125
1680000011677,1180000030487206,0.036849998,0.0037125,-4.125E-4
1680000011682,1180000032989052,0.038775,0.0048125,0.0015125
1680000011683,1180000035491129,0.036849998,0.0017875,-4.125E-4
1680000011687,1180000037992051,0.0358875,-0.0022,5.5E-4
1680000011687,1180000040492976,0.0328625,-0.0022,-4.125E-4
1680000011688,1180000042996975,0.0358875,-0.0012375,5.5E-4
1680000011690,1180000045498898,0.0317625,-2.75E-4,0.0015125
1680000011694,1180000048000966,0.0308,-0.0033,-0.0015125
1680000011696,1180000050502889,0.0308,-0.0042625,-0.0015125
1680000011697,1180000053004966,0.028875,-0.0042625,-0.002475
1680000011700,1180000055506812,0.027775,-0.0022,-0.0015125
1680000011704,1180000058008739,0.027775,-0.0012375,-0.0055
1680000011707,1180000060510816,0.0268125,-2.75E-4,-0.0064625
1680000011708,1180000063012739,0.02585,-2.75E-4,-0.0055
1680000011710,1180000065514816,0.02585,-2.75E-4,-0.0034375
1680000011714,1180000068016731,0.0237875,-0.0022,-0.0064625
1680000011716,1180000070518578,0.0268125,-2.75E-4,-0.008525
1680000011721,1180000073020654,0.027775,-0.0033,-0.0034375
1680000011722,1180000075522578,0.0237875,-0.0061875,-0.0055
1680000011725,1180000078024620,0.0248875,-0.0033,-0.007425
1680000011726,1180000080526544,0.022824999,-0.0033,-0.0055
1680000011728,1180000083028620,0.0248875,-0.0042625,-0.007425
1680000011730,1180000085530467,0.0248875,-0.005225,-0.0064625
1680000011734,1180000088032390,0.022824999,-0.0012375,-0.0055
1680000011737,1180000090534456,0.0218625,-0.0012375,-0.008525
1680000011737,1180000093036609,0.0207625,-0.005225,-0.007425
1680000011740,1180000095538456,0.022824999,-0.0042625,-0.0045375
1680000011744,1180000098040379,0.0198,-0.005225,-0.007425
1680000011747,1180000100542432,0.0158125,-0.0042625,-0.0064625
1680000011749,1180000103044278,0.0188375,-0.0042625,-0.007425
1680000011750,1180000105546201,0.0218625,-0.0033,-0.0055
1680000011754,1180000108048355,0.016775,-0.005225,-0.0055
1680000011757,1180000110550196,0.01485,-0.0033,-0.0055
1680000011759,1180000113052273,0.0138875,-0.0022,-0.0055
1680000011761,1180000115554196,0.0138875,-0.0033,-0.0055
1680000011765,1180000118056042,0.0108624995,-2.75E-4,-0.0034375
1680000011767,1180000120558119,0.0097624995,0.0037125,-0.0055
1680000011768,1180000123060254,0.0097624995,0.00275,-0.0045375
1680000011770,1180000125562100,0.006875,-0.0012375,-0.0055
1680000011774,1180000128064023,0.00385,0.0017875,-0.0055
1680000011776,1180000130566100,0.0048125,-2.75E-4,-0.0055
1680000011777,1180000133067946,0.005775,-0.0033,-0.0034375
1680000011780,1180000135569874,0.006875,-0.0012375,-0.002475
1680000011787,1180000138071951,-0.0012375,-0.0012375,-0.0034375
1680000011789,1180000140573874,-0.0031625,-2.75E-4,-0.0034375
1680000011791,1180000143075980,-0.005225,6.875E-4,-0.0034375
1680000011792,1180000145577903,-0.0081124995,-0.0042625,-0.002475
1680000011795,1180000148079980,-0.0061875,-0.005225,-0.0015125
1680000011798,1180000150581826,-0.00715,-0.0042625,-0.0015125
1680000011799,1180000153083749,-0.0061875,-0.005225,-0.0034375
1680000011800,1180000155585840,-0.0061875,-0.0061875,-0.0064625
1680000011804,1180000158087994,-0.0092124995,-0.0072875,-0.0034375
1680000011806,1180000160589840,-0.0111375,-0.0072875,-0.008525
1680000011809,1180000163091764,-0.0111375,-0.0092124995,-0.0094875
1680000011811,1180000165593854,-0.0111375,-0.0143,-0.007425
1680000011813,1180000168095701,-0.0111375,-0.0132,-0.0114124995
1680000011817,1180000170597624,-0.016224999,-0.016224999,-0.0114124995
1680000011818,1180000173099778,-0.016224999,-0.0182875,-0.0125124995
1680000011820,1180000175601624,-0.015125,-0.015262499,-0.0144375
1680000011825,1180000178103672,-0.016224999,-0.0182875,-0.0155375
1680000011827,1180000180605518,-0.01815,-0.0143,-0.0144375
1680000011828,1180000183107441,-0.01815,-0.0171875,-0.0165
1680000011832,1180000185609518,-0.0202125,-0.01925,-0.0174625
1680000011834,1180000188111456,-0.021175,-0.016224999,-0.0204875
1680000011837,1180000190613533,-0.0221375,-0.0171875,-0.0165
1680000011839,1180000193115456,-0.021175,-0.015262499,-0.0144375
1680000011840,1180000195617533,-0.026124999,-0.0171875,-0.0165
1680000011846,1180000198119432,-0.0242,-0.0182875,-0.0155375
1680000011848,1180000200621278,-0.0251625,-0.0143,-0.02145
1680000011849,1180000203123355,-0.0281875,-0.015262499,-0.0204875
1680000011851,1180000205625278,-0.0301125,-0.0182875,-0.0174625
1680000011856,1180000208127340,-0.0301125,-0.0182875,-0.0174625
1680000011857,1180000210629263,-0.0301125,-0.0242,-0.0174625
1680000011859,1180000213131109,-0.032175,-0.0213125,-0.0165
1680000011861,1180000215633186,-0.0361625,-0.0253,-0.0155375
1680000011868,1180000218135090,-0.0391875,-0.027224999,-0.0155375
1680000011870,1180000220637167,-0.0391875,-0.0312125,-0.01045
1680000011872,1180000223139090,-0.038225,-0.0372625,-0.01045
1680000011875,1180000225640129,-0.038225,-0.0363,-0.0155375
1680000011875,1180000228141168,-0.04015,-0.0372625,-0.0114124995
1680000011877,1180000230644941,-0.043175,-0.0363,-0.01045
1680000011878,1180000233147018,-0.043175,-0.038225,-0.0094875
1680000011881,1180000235648941,-0.0452375,-0.0482625,-0.0114124995
1680000011887,1180000238150788,-0.0462,-0.0501875,-0.0114124995
1680000011889,1180000240652941,-0.0501875,-0.0543125,-0.01045
1680000011890,1180000243155018,-0.0521125,-0.0543125,-0.0094875
1680000011892,1180000245656865,-0.0532125,-0.0583,-0.0094875
1680000011894,1180000248158788,-0.054175,-0.0572,-0.0114124995
1680000011896,1180000250660865,-0.0551375,-0.060225,-0.008525
1680000011901,1180000253162773,-0.0551375,-0.0653125,-0.0144375
1680000011901,1180000255664850,-0.0572,-0.0682,-0.0125124995
1680000011905,1180000258166696,-0.059125,-0.0682,-0.0114124995
1680000011909,1180000260668635,-0.0581625,-0.0672375,-0.0144375
1680000011912,1180000263170712,-0.059125,-0.077275,-0.0165
1680000011913,1180000265672635,-0.0581625,-0.0782375,-0.0144375
1680000011915,1180000268174712,-0.0581625,-0.077275,-0.02145
1680000011916,1180000270676635,-0.060225,-0.0763125,-0.019524999
1680000011920,1180000273178481,-0.0611875,-0.0782375,-0.02145
1680000011922,1180000275680539,-0.065175,-0.077275,-0.02145
1680000011925,1180000278182462,-0.0631125,-0.0763125,-0.0235125
1680000011927,1180000280684539,-0.065175,-0.0732875,-0.0265375
1680000011928,1180000283186693,-0.0672375,-0.071225,-0.0254375
1680000011931,1180000285688543,-0.0682,-0.071225,-0.0284625
1680000011937,1180000288190466,-0.0741125,-0.069299996,-0.0334125
1680000011939,1180000290692543,-0.071225,-0.0672375,-0.0364375
1680000011940,1180000293194389,-0.071225,-0.0672375,-0.0364375
1680000011941,1180000295696317,-0.07315,-0.0672375,-0.040425
1680000011949,1180000298198394,-0.0721875,-0.066275,-0.0444125
1680000011950,1180000300699354,-0.0752125,-0.066275,-0.0444125
1680000011951,1180000303200317,-0.0752125,-0.0653125,-0.0444125
1680000011955,1180000305704317,-0.0771375,-0.066275,-0.0424875
1680000011957,1180000308206178,-0.0792,-0.0653125,-0.0474375
1680000011958,1180000310708255,-0.0831875,-0.0682,-0.052525
1680000011960,1180000313210178,-0.0792,-0.0642125,-0.052525
1680000011961,1180000315712025,-0.0881375,-0.0642125,-0.0504625
1680000011964,1180000318214182,-0.087175,-0.06325,-0.0495
1680000011967,1180000320716259,-0.089237496,-0.0622875,-0.0474375
1680000011968,1180000323218182,-0.0941875,-0.0672375,-0.0485375
1680000011970,1180000325720029,-0.098175,-0.066275,-0.0495
1680000011975,1180000328221885,-0.1021625,-0.066275,-0.0474375
1680000011976,1180000330724039,-0.1051875,-0.066275,-0.051425
1680000011979,1180000333226116,-0.1101375,-0.0653125,-0.0534875
1680000011982,1180000335728039,-0.1122,-0.0672375,-0.052525
1680000011987,1180000338230106,-0.11715,-0.0672375,-0.0534875
1680000011988,1180000340732029,-0.1241625,-0.0653125,-0.054449998
1680000011990,1180000343233875,-0.12815,-0.0702625,-0.054449998
1680000011991,1180000345735952,-0.1351625,-0.069299996,-0.057475
1680000011996,1180000348237798,-0.13915,-0.0682,-0.0584375
1680000011998,1180000350739996,-0.1412125,-0.0732875,-0.0595375
1680000012000,1180000353241919,-0.1452,-0.071225,-0.0614625
1680000012003,1180000355743765,-0.153175,-0.0732875,-0.062425
1680000012005,1180000358245842,-0.15619999,-0.069299996,-0.0614625
1680000012006,1180000360747769,-0.158125,-0.07425,-0.0605
1680000012009,1180000363249615,-0.1632125,-0.07425,-0.0595375
1680000012013,1180000365751769,-0.1651375,-0.0763125,-0.0614625
1680000012016,1180000368253846,-0.169125,-0.07425,-0.062425
1680000012018,1180000370755793,-0.17613749,-0.077275,-0.0614625
1680000012020,1180000373257639,-0.1791625,-0.0782375,-0.062425
1680000012022,1180000375759716,-0.181225,-0.0752125,-0.0614625
1680000012025,1180000378261562,-0.186175,-0.077275,-0.0605
1680000012027,1180000380763524,-0.191125,-0.0803,-0.0614625
1680000012028,1180000383265678,-0.19415,-0.0782375,-0.062425
1680000012030,1180000385767755,-0.1962125,-0.07425,-0.0644875
1680000012037,1180000388269678,-0.203225,-0.0752125,-0.062425
1680000012039,1180000390771524,-0.208175,-0.0752125,-0.06545
1680000012041,1180000393273620,-0.2151875,-0.071225,-0.0675125
1680000012043,1180000395775466,-0.2222,-0.0702625,-0.0694375
1680000012045,1180000398277390,-0.2292125,-0.0732875,-0.0694375
1680000012046,1180000400779543,-0.2332,-0.071225,-0.0705375
1680000012048,1180000403281390,-0.2391125,-0.069299996,-0.0705375
1680000012050,1180000405783466,-0.24419999,-0.0682,-0.0694375
1680000012054,1180000408285390,-0.2501125,-0.0732875,-0.073425
1680000012058,1180000410787466,-0.258225,-0.0752125,-0.074525
1680000012060,1180000413289390,-0.26221249,-0.0732875,-0.074525
1680000012061,1180000415791466,-0.2671625,-0.071225,-0.07645
1680000012066,1180000418293313,-0.2701875,-0.0732875,-0.07645
1680000012068,1180000420795236,-0.2762375,-0.0782375,-0.0785125
1680000012071,1180000423297360,-0.28215,-0.077275,-0.0774125
1680000012073,1180000425799206,-0.2891625,-0.0763125,-0.0815375
1680000012076,1180000428301360,-0.2971375,-0.0763125,-0.082499996
1680000012077,1180000430803283,-0.3031875,-0.0782375,-0.085525
1680000012079,1180000433305129,-0.3102,-0.0782375,-0.0834625
1680000012081,1180000435807201,-0.3172125,-0.077275,-0.085525
1680000012085,1180000438309124,-0.323125,-0.0803,-0.08745
1680000012086,1180000440811201,-0.3282125,-0.0842875,-0.0884125
1680000012088,1180000443313124,-0.334125,-0.08525,-0.090475
1680000012091,1180000445815201,-0.33715,-0.091299996,-0.0925375
1680000012098,1180000448317143,-0.3381125,-0.0922625,-0.090475
1680000012099,1180000450819220,-0.3411375,-0.09625,-0.0895125
1680000012100,1180000453321066,-0.3521375,-0.09625,-0.0944625
1680000012101,1180000455822989,-0.357225,-0.0983125,-0.0974875
1680000012105,1180000458324826,-0.3601125,-0.0983125,-0.0974875
1680000012106,1180000460826980,-0.3642375,-0.0972125,-0.0974875
1680000012109,1180000463329057,-0.368225,-0.0941875,-0.0994125
1680000012110,1180000465830903,-0.37015,-0.1093125,-0.0994125
1680000012115,1180000468332816,-0.373175,-0.1203125,-0.1005125
1680000012116,1180000470834893,-0.3771625,-0.1062875,-0.1035375
1680000012118,1180000473336739,-0.3801875,-0.0902,-0.104499996
1680000012120,1180000475838893,-0.3872,-0.0941875,-0.102437496
1680000012124,1180000478340787,-0.39214998,-0.0983125,-0.101475
1680000012125,1180000480842864,-0.39214998,-0.0983125,-0.1035375
1680000012128,1180000483344710,-0.39421248,-0.09625,-0.104499996
1680000012132,1180000485846634,-0.4021875,-0.09625,-0.106425
1680000012135,1180000488348696,-0.40713748,-0.0983125,-0.106425
1680000012137,1180000490850543,-0.411125,-0.0972125,-0.1084875
1680000012138,1180000493352696,-0.4162125,-0.0972125,-0.112475
1680000012140,1180000495854620,-0.417175,-0.093225,-0.1145375
1680000012145,1180000498356686,-0.42515,-0.0941875,-0.1164625
1680000012147,1180000500858533,-0.4321625,-0.0922625,-0.1145375
1680000012148,1180000503360456,-0.4351875,-0.0922625,-0.117425
1680000012150,1180000505862533,-0.4422,-0.0842875,-0.1194875
1680000012154,1180000508364379,-0.4431625,-0.0792,-0.1214125
1680000012156,1180000510866538,-0.450175,-0.0763125,-0.123475
1680000012158,1180000513368461,-0.456225,-0.0732875,-0.1225125
1680000012161,1180000515870307,-0.4571875,-0.069299996,-0.124437496
1680000012164,1180000518372384,-0.4651625,-0.0622875,-0.123475
1680000012166,1180000520874211,-0.4701125,-0.0562375,-0.1274625
1680000012174,1180000523376134,-0.4681875,-0.0512875,-0.128425
1680000012175,1180000525878288,-0.46915,-0.0482625,-0.1304875
1680000012177,1180000528380365,-0.472175,-0.0462,-0.1324125
1680000012178,1180000530882211,-0.477125,-0.049225,-0.1335125
1680000012179,1180000533384134,-0.478225,-0.044275,-0.1324125
1680000012181,1180000535886211,-0.48014998,-0.0433125,-0.1324125
1680000012185,1180000538388057,-0.48221248,-0.0433125,-0.134475
1680000012187,1180000540889980,-0.4841375,-0.0402875,-0.134475
1680000012188,1180000543392129,-0.4852375,-0.038225,-0.1335125
1680000012192,1180000545894206,-0.4862,-0.0372625,-0.134475
1680000012194,1180000548396052,-0.489225,-0.0342375,-0.13653749
1680000012196,1180000550897975,-0.49115,-0.0402875,-0.13653749
1680000012199,1180000553400029,-0.489225,-0.038225,-0.1375
1680000012201,1180000555901875,-0.49115,-0.0323125,-0.13653749
1680000012204,1180000558403798,-0.4901875,-0.033275,-0.1384625
1680000012208,1180000560905952,-0.49115,-0.0342375,-0.140525
1680000012209,1180000563407812,-0.49115,-0.0342375,-0.145475
1680000012211,1180000565909889,-0.49115,-0.027224999,-0.145475
1680000012214,1180000568411736,-0.4921125,-0.0262625,-0.145475
1680000012216,1180000570913889,-0.49115,-0.0232375,-0.150425
1680000012220,1180000573415736,-0.4901875,-0.01925,-0.1555125
1680000012221,1180000575917654,-0.4962375,-0.015262499,-0.1555125
1680000012226,1180000578419731,-0.4962375,-0.0143,-0.1555125
1680000012227,1180000580921654,-0.49115,-0.0092124995,-0.15853749
1680000012228,1180000583423500,-0.4901875,-0.0103124995,-0.1595
1680000012232,1180000585925640,-0.4921125,-0.0092124995,-0.1604625
1680000012244,1180000588427717,-0.4932125,-0.0061875,-0.1654125
1680000012244,1180000590929563,-0.4921125,-0.005225,-0.161425
1680000012244,1180000593431486,-0.4921125,-0.0022,-0.1665125
1680000012244,1180000595933534,-0.494175,6.875E-4,-0.1665125
1680000012245,1180000598435380,-0.4981625,0.0037125,-0.1684375
1680000012247,1180000600937303,-0.4972,0.0077,-0.1684375
1680000012249,1180000603439457,-0.4962375,0.0127875,-0.1714625
1680000012251,1180000605941312,-0.4981625,0.015675,-0.1714625
1680000012254,1180000608443389,-0.4981625,0.0177375,-0.1705
1680000012256,1180000610945312,-0.4992625,0.0187,-0.1714625
1680000012258,1180000613447389,-0.4992625,0.0287375,-0.172425
1680000012261,1180000615949235,-0.4932125,0.032725,-0.1695375
1680000012265,1180000618451158,-0.4932125,0.0367125,-0.1684375
1680000012267,1180000620953312,-0.4962375,0.0407,-0.1684375
1680000012270,1180000623455158,-0.494175,0.0457875,-0.1695375
1680000012272,1180000625957235,-0.4932125,0.048675,-0.167475
1680000012275,1180000628459144,-0.4972,0.0537625,-0.1705
1680000012276,1180000630960990,-0.4962375,0.0556875,-0.173525
1680000012278,1180000633463067,-0.4932125,0.0587125,-0.17545
1680000012282,1180000635964913,-0.4972,0.0638,-0.17545
1680000012285,1180000638467062,-0.4962375,0.0627,-0.1775125
1680000012287,1180000640968985,-0.4981625,0.0697125,-0.183425
1680000012289,1180000643471062,-0.4972,0.0697125,-0.1854875
1680000012291,1180000645972908,-0.4981625,0.071775,-0.189475
1680000012294,1180000648474832,-0.4992625,0.076725,-0.1915375
1680000012297,1180000650976890,-0.4981625,0.076725,-0.1915375
1680000012298,1180000653478736,-0.4972,0.0787875,-0.1925
1680000012301,1180000655980890,-0.4972,0.081675,-0.1934625
1680000012305,1180000658482813,-0.4962375,0.082775,-0.1995125
1680000012307,1180000660984899,-0.494175,0.09075,-0.20253749
1680000012308,1180000663486745,-0.49225,0.0968,-0.2035
1680000012310,1180000665988668,-0.49115,0.0947375,-0.206525
1680000012314,1180000668490745,-0.489225,0.095699996,-0.206525
1680000012316,1180000670992591,-0.49115,0.1007875,-0.206525
1680000012321,1180000673494731,-0.49225,0.1027125,-0.2105125
1680000012322,1180000675996577,-0.49115,0.1057375,-0.2154625
1680000012325,1180000678498500,-0.49225,0.1167375,-0.217525
1680000012328,1180000681011731,-0.4932125,0.12375,-0.21945
1680000012329,1180000683502423,-0.4962375,0.1287,-0.21945
1680000012331,1180000686004346,-0.500225,0.1326875,-0.2234375
1680000012334,1180000688506423,-0.50325,0.136675,-0.2314125
1680000012337,1180000691008577,-0.505175,0.1436875,-0.2365
1680000012338,1180000693510423,-0.5072375,0.14575,-0.2365
1680000012341,1180000696012346,-0.51315,0.153725,-0.238425
1680000012345,1180000698514423,-0.51713747,0.1577125,-0.239525
1680000012347,1180000701016269,-0.5182375,0.1617,-0.2424125
1680000012348,1180000703518192,-0.5182375,0.164725,-0.24653749
1680000012351,1180000706020346,-0.522225,0.1656875,-0.2475
1680000012355,1180000708522427,-0.5262125,0.1667875,-0.25245
1680000012358,1180000711024273,-0.5302,0.17173749,-0.2534125
1680000012359,1180000713526196,-0.533225,0.17379999,-0.25547498
1680000012361,1180000716028264,-0.53625,0.1747625,-0.25753748
1680000012366,1180000718530110,-0.5421625,0.17875,-0.260425
1680000012367,1180000721032034,-0.544225,0.180675,-0.2644125
1680000012368,1180000723534187,-0.54725,0.1837,-0.2655125
1680000012371,1180000726036058,-0.5522,0.186725,-0.266475
1680000012374,1180000728538134,-0.5561875,0.186725,-0.2704625
1680000012378,1180000731040058,-0.55825,0.18975,-0.2765125
1680000012380,1180000733541904,-0.56815,0.19373749,-0.27445
1680000012381,1180000736044058,-0.56815,0.1958,-0.27445
1680000012385,1180000738545899,-0.56815,0.1958,-0.2805
1680000012387,1180000741047976,-0.5702125,0.1967625,-0.2805
1680000012389,1180000743549899,-0.571175,0.1958,-0.2844875
1680000012393,1180000746051745,-0.5732375,0.1986875,-0.28545
1680000012395,1180000748553827,-0.5732375,0.1986875,-0.288475
1680000012397,1180000751055750,-0.5721375,0.1967625,-0.2924625
1680000012399,1180000753557904,-0.57722497,0.197725,-0.29645
1680000012401,1180000756059750,-0.57722497,0.1967625,-0.2985125
1680000012405,1180000758561846,-0.58025,0.1967625,-0.3025
1680000012406,1180000761063769,-0.5812125,0.197725,-0.305525
1680000012408,1180000763565615,-0.5842375,0.1986875,-0.3064875
1680000012411,1180000766067692,-0.59015,0.1967625,-0.310475
1680000012414,1180000768569880,-0.5922125,0.192775,-0.310475
1680000012416,1180000771071803,-0.5922125,0.1907125,-0.3144625
1680000012418,1180000773573649,-0.59125,0.19373749,-0.3194125
1680000012421,1180000776075726,-0.599225,0.19373749,-0.3194125
1680000012426,1180000778577654,-0.605275,0.1876875,-0.3194125
1680000012427,1180000781079500,-0.6032125,0.186725,-0.321475
1680000012429,1180000783581577,-0.605275,0.1958,-0.3235375
1680000012432,1180000786083500,-0.6081625,0.192775,-0.326425
1680000012435,1180000788585572,-0.61215,0.1887875,-0.3254625
1680000012437,1180000791087495,-0.61215,0.1947,-0.3254625
1680000012438,1180000793589341,-0.6142125,0.1958,-0.3235375
1680000012440,1180000796091418,-0.6142125,0.1967625,-0.321475
1680000012444,1180000798593341,-0.6161375,0.197725,-0.321475
1680000012446,1180000801095432,-0.6161375,0.203775,-0.321475
1680000012448,1180000803597355,-0.6182,0.21175,-0.3224375
1680000012451,1180000806099432,-0.6172375,0.21367499,-0.3235375
1680000012454,1180000808601279,-0.6142125,0.2206875,-0.3224375
1680000012456,1180000811103207,-0.6142125,0.2267375,-0.321475
1680000012459,1180000813605284,-0.6172375,0.230725,-0.321475
1680000012463,1180000816107207,-0.6191625,0.2316875,-0.3224375
1680000012464,1180000818609284,-0.6191625,0.23375,-0.3235375
1680000012467,1180000821111226,-0.6182,0.2327875,-0.3205125
1680000012470,1180000823613303,-0.6202625,0.23375,-0.3194125
1680000012473,1180000826115149,-0.621225,0.236775,-0.3205125
1680000012476,1180000828616111,-0.621225,0.2347125,-0.3194125
1680000012477,1180000831117072,-0.6202625,0.23773749,-0.321475
1680000012478,1180000833621063,-0.6202625,0.23773749,-0.3174875
1680000012481,1180000836122909,-0.6191625,0.2426875,-0.3174875
1680000012484,1180000838625063,-0.6221875,0.2426875,-0.316525
1680000012487,1180000841126909,-0.6221875,0.2407625,-0.315425
1680000012488,1180000843628990,-0.62425,0.2437875,-0.3144625
1680000012491,1180000846130913,-0.62315,0.2398,-0.315425
1680000012495,1180000848632990,-0.6221875,0.23773749,-0.3144625
1680000012496,1180000851134836,-0.62315,0.23773749,-0.3135
1680000012498,1180000853636759,-0.6221875,0.23375,-0.310475
1680000012501,1180000856138846,-0.6202625,0.230725,-0.3084125
1680000012505,1180000858641000,-0.6182,0.2267375,-0.305525
1680000012508,1180000861142846,-0.6172375,0.2267375,-0.305525
1680000012510,1180000863644774,-0.615175,0.2237125,-0.305525
1680000012512,1180000866146851,-0.610225,0.21779999,-0.3004375
1680000012514,1180000868648697,-0.604175,0.2167,-0.2985125
1680000012516,1180000871150620,-0.6001875,0.21573749,-0.29645
1680000012519,1180000873652774,-0.5962,0.21573749,-0.2915
1680000012521,1180000876154591,-0.5891875,0.2127125,-0.2894375
1680000012524,1180000878656668,-0.5812125,0.21175,-0.288475
1680000012526,1180000881158591,-0.5751625,0.21367499,-0.282425
1680000012528,1180000883660438,-0.5702125,0.2167,-0.2814625
1680000012531,1180000886162530,-0.5632,0.21367499,-0.277475
1680000012534,1180000888664453,-0.55825,0.2096875,-0.2754125
1680000012536,1180000891166530,-0.5522,0.2047375,-0.2765125
1680000012538,1180000893668453,-0.5522,0.20075,-0.2754125
1680000012541,1180000896170520,-0.54614997,0.197725,-0.272525
1680000012546,1180000898672366,-0.5391375,0.1958,-0.2695
1680000012548,1180000903674520,-0.53625,0.18975,-0.2704625
1680000012550,1180000903819750,-0.5302,0.1848,-0.2695
1680000012552,1180000906178274,-0.5182375,0.1848,-0.2655125
1680000012554,1180000908680120,-0.51425,0.1857625,-0.2655125
1680000012556,1180000911182197,-0.5082,0.181775,-0.2644125
1680000012558,1180000913684120,-0.50325,0.1797125,-0.260425
1680000012562,1180000916186270,-0.4972,0.1797125,-0.25753748
1680000012564,1180000918688116,-0.4932125,0.181775,-0.2564375
1680000012567,1180000921190193,-0.4882625,0.1837,-0.2534125
1680000012571,1180000923692116,-0.48125,0.1797125,-0.25245
1680000012573,1180000926193957,-0.48014998,0.1766875,-0.250525
1680000012575,1180000928696034,-0.478225,0.180675,-0.24653749
1680000012577,1180000931197957,-0.4761625,0.1766875,-0.24145
1680000012578,1180000933700034,-0.472175,0.1747625,-0.238425
1680000012582,1180000936201957,-0.467225,0.169675,-0.2365
1680000012588,1180000938704000,-0.4662625,0.1637625,-0.2314125
1680000012589,1180000941205923,-0.45925,0.1637625,-0.227425
1680000012592,1180000943707769,-0.4571875,0.15675,-0.227425
1680000012593,1180000946209846,-0.4541625,0.1527625,-0.22453749
1680000012595,1180000948711744,-0.44715,0.1546875,-0.2204125
1680000012596,1180000951213821,-0.4422,0.1527625,-0.2145
1680000012598,1180000953715744,-0.439175,0.1507,-0.206525
1680000012601,1180000956217591,-0.434225,0.1518,-0.206525
1680000012604,1180000958719672,-0.4312,0.1507,-0.205425
1680000012606,1180000961221596,-0.4222625,0.1518,-0.1995125
1680000012608,1180000963723672,-0.4181375,0.1518,-0.194425
1680000012611,1180000966225596,-0.4131875,0.1546875,-0.1915375
1680000012614,1180000968727672,-0.4052125,0.1546875,-0.184525
1680000012616,1180000971229610,-0.4002625,0.1557875,-0.1824625
1680000012620,1180000973731687,-0.3911875,0.14973749,-0.17847499
1680000012622,1180000976233533,-0.384175,0.1527625,-0.1705
1680000012625,1180000978735471,-0.3801875,0.1577125,-0.167475
1680000012627,1180000981237317,-0.37125,0.153725,-0.161425
1680000012629,1180000983739471,-0.362175,0.1518,-0.156475
1680000012631,1180000986241548,-0.362175,0.147675,-0.151525
1680000012634,1180000988743471,-0.3562625,0.148775,-0.145475
1680000012637,1180000991245543,-0.34814999,0.1417625,-0.14245
1680000012639,1180000993747389,-0.3441625,0.1357125,-0.139425
1680000012641,1180000996249312,-0.340175,0.137775,-0.1375
1680000012646,1180000998751158,-0.3361875,0.1357125,-0.1324125
1680000012649,1180001001253326,-0.32615,0.1357125,-0.1265
1680000012649,1180001003755403,-0.3232625,0.1326875,-0.1265
1680000012651,1180001006257249,-0.31515,0.13475,-0.123475
1680000012654,1180001008759172,-0.3111625,0.12979999,-0.117425
1680000012658,1180001011261013,-0.3092375,0.1307625,-0.10945
1680000012660,1180001013763090,-0.302225,0.13475,-0.104499996
1680000012662,1180001016265244,-0.29425,0.1307625,-0.0994125
1680000012665,1180001018767167,-0.291225,0.1287,-0.095425
1680000012667,1180001021269244,-0.2882,0.126775,-0.0935
1680000012669,1180001023771085,-0.28215,0.1216875,-0.091437496
1680000012672,1180001026273008,-0.27719998,0.117699996,-0.0895125
1680000012675,1180001028774854,-0.2762375,0.1117875,-0.085525
1680000012676,1180001031276931,-0.274175,0.1067,-0.0834625
1680000012678,1180001033779076,-0.274175,0.10175,-0.0815375
1680000012681,1180001036280999,-0.274175,0.1027125,-0.0815375
1680000012684,1180001038782846,-0.269225,0.0968,-0.074525
1680000012686,1180001041284922,-0.2662,0.0947375,-0.073425
1680000012689,1180001043786865,-0.2641375,0.09075,-0.0705375
1680000012691,1180001046288711,-0.2591875,0.0886875,-0.0664125
1680000012696,1180001048790865,-0.2552,0.0837375,-0.06545
1680000012698,1180001051292711,-0.2512125,0.0837375,-0.0595375
1680000012700,1180001053794778,-0.25025,0.0776875,-0.0554125
1680000012701,1180001056296701,-0.2432375,0.0748,-0.052525
1680000012705,1180001058798778,-0.23925,0.073699996,-0.0504625
1680000012709,1180001061300701,-0.23815,0.073699996,-0.0474375
1680000012712,1180001063802778,-0.2352625,0.0727375,-0.040425
1680000012714,1180001066304605,-0.2332,0.0748,-0.0364375
1680000012716,1180001068806528,-0.2332,0.076725,-0.032449998
1680000012718,1180001071308605,-0.225225,0.0727375,-0.0254375
1680000012721,1180001073810528,-0.22013749,0.0697125,-0.0204875
1680000012722,1180001076312591,-0.21615,0.06875,-0.018424999
1680000012725,1180001078814514,-0.2151875,0.070675,-0.0114124995
1680000012727,1180001081316360,-0.2121625,0.0727375,-0.008525
1680000012729,1180001083818514,-0.2102375,0.06875,-0.0045375
1680000012733,1180001086320364,-0.2102375,0.0666875,-0.002475
1680000012737,1180001088822441,-0.20625,0.0638,-4.125E-4
1680000012738,1180001091324364,-0.2022625,0.0627,5.5E-4
1680000012740,1180001093826441,-0.2022625,0.0627,5.5E-4
1680000012741,1180001096328364,-0.1931875,0.0617375,0.002475
1680000012745,1180001098830225,-0.1931875,0.0567875,0.0055
1680000012747,1180001101332302,-0.192225,0.0567875,0.0045375
1680000012749,1180001103834225,-0.186175,0.054725,0.0055
1680000012751,1180001106336071,-0.1871375,0.0537625,0.0064625
1680000012754,1180001108838172,-0.1871375,0.0528,0.0064625
1680000012757,1180001111340326,-0.1852125,0.0488125,0.0045375
1680000012759,1180001113842172,-0.1791625,0.0517,0.0055
1680000012761,1180001116344095,-0.1772375,0.0517,0.008525
1680000012764,1180001118846187,-0.17613749,0.0488125,0.0064625
1680000012767,1180001121348110,-0.175175,0.0477125,0.0075625
1680000012771,1180001123849957,-0.1711875,0.0488125,0.0064625
1680000012774,1180001126352110,-0.1662375,0.0457875,0.008525
1680000012777,1180001128853952,-0.1601875,0.0517,0.0094875
1680000012779,1180001131356106,-0.159225,0.0528,0.01155
1680000012780,1180001133857952,-0.15619999,0.0528,0.0125124995
1680000012782,1180001136360029,-0.153175,0.0617375,0.0155375
1680000012785,1180001138861866,-0.1522125,0.0627,0.0155375
1680000012786,1180001141363789,-0.15015,0.0627,0.014575
1680000012788,1180001143865943,-0.148225,0.065725,0.013475
1680000012791,1180001146367789,-0.1461625,0.0666875,0.013475
1680000012794,1180001148869866,-0.1452,0.06875,0.0155375
1680000012796,1180001151371793,-0.1431375,0.071775,0.0174625
1680000012798,1180001153873639,-0.1431375,0.073699996,0.0155375
1680000012801,1180001156375716,-0.1431375,0.076725,0.02255
1680000012804,1180001158877639,-0.1431375,0.0776875,0.019524999
1680000012807,1180001161379726,-0.142175,0.0837375,0.0204875
1680000012809,1180001163881649,-0.1412125,0.0858,0.019524999
1680000012811,1180001166383726,-0.137225,0.087725,0.0174625
1680000012814,1180001168885649,-0.1381875,0.0897875,0.019524999
1680000012816,1180001171387495,-0.1351625,0.0886875,0.019524999
1680000012819,1180001173889538,-0.1351625,0.095699996,0.02255
1680000012821,1180001176391692,-0.1351625,0.0968,0.0235125
1680000012825,1180001178893538,-0.1342,0.098725,0.02255
1680000012827,1180001181395461,-0.1302125,0.095699996,0.024475
1680000012828,1180001183897558,-0.12815,0.0968,0.024475
1680000012831,1180001186399404,-0.1271875,0.0996875,0.0235125
1680000012834,1180001188901327,-0.1271875,0.0968,0.025575
1680000012837,1180001191403404,-0.125125,0.0977625,0.0295625
1680000012839,1180001193905307,-0.1232,0.10175,0.030524999
1680000012841,1180001196407384,-0.1232,0.0996875,0.0314875
1680000012845,1180001198909307,-0.125125,0.0947375,0.0325875
1680000012848,1180001201411154,-0.125125,0.093775,0.0375375
1680000012849,1180001203913231,-0.1232,0.0947375,0.036575
1680000012851,1180001206415154,-0.1241625,0.093775,0.0394625
1680000012854,1180001208917231,-0.1271875,0.0917125,0.041525
1680000012860,1180001211419154,-0.125125,0.0858,0.036575
1680000012867,1180001213921231,-0.125125,0.082775,0.0394625
1680000012867,1180001216423140,-0.125125,0.0818125,0.0394625
1680000012868,1180001218924986,-0.1241625,0.07975,0.0394625
1680000012868,1180001221427063,-0.125125,0.0748,0.0385
1680000012869,1180001223928986,-0.125125,0.0776875,0.0385
1680000012871,1180001226431063,-0.12815,0.073699996,0.0385
1680000012875,1180001228932909,-0.126225,0.0666875,0.036575
1680000012876,1180001231434832,-0.125125,0.0627,0.0375375
1680000012879,1180001233936909,-0.1271875,0.0617375,0.0394625
1680000012883,1180001236438865,-0.126225,0.05775,0.036575
1680000012885,1180001238940942,-0.122237496,0.054725,0.0385
1680000012887,1180001241442865,-0.1181125,0.0517,0.03355
1680000012888,1180001243944942,-0.1192125,0.0537625,0.0345125
1680000012892,1180001246446788,-0.11715,0.0528,0.0345125
1680000012895,1180001248948745,-0.11715,0.0537625,0.0345125
1680000012896,1180001251450822,-0.1161875,0.0507375,0.036575
1680000012899,1180001253952745,-0.111237496,0.04675,0.036575
1680000012901,1180001256454822,-0.109175,0.0407,0.0375375
1680000012905,1180001258956673,-0.103125,0.0407,0.0394625
1680000012907,1180001261458596,-0.100237496,0.0446875,0.0375375
1680000012909,1180001263960673,-0.0991375,0.04675,0.0394625
1680000012911,1180001266462519,-0.0991375,0.043725,0.0375375
1680000012914,1180001268964443,-0.098175,0.0446875,0.0375375
1680000012916,1180001271466601,-0.098175,0.043725,0.036575
1680000012921,1180001273968678,-0.0941875,0.0418,0.0345125
1680000012922,1180001276470524,-0.0941875,0.0477125,0.030524999
1680000012925,1180001278972448,-0.0961125,0.04675,0.0295625
1680000012926,1180001281474284,-0.093225,0.0477125,0.024475
1680000012928,1180001283976438,-0.09515,0.0477125,0.019524999
1680000012931,1180001286478284,-0.0961125,0.049775,0.0215875
1680000012934,1180001288980438,-0.0941875,0.0507375,0.019524999
1680000012936,1180001291482514,-0.09515,0.0477125,0.0155375
1680000012939,1180001293984350,-0.0941875,0.04675,0.0155375
1680000012941,1180001296486273,-0.093225,0.0537625,0.01155
1680000012945,1180001298988119,-0.0941875,0.0507375,0.0125124995
1680000012947,1180001301490216,-0.0941875,0.0418,0.0125124995
1680000012949,1180001303992139,-0.089237496,0.0407,0.014575
1680000012951,1180001306494216,-0.0902,0.0418,0.0155375
1680000012955,1180001308996139,-0.0902,0.0457875,0.0125124995
1680000012957,1180001311498192,-0.089237496,0.0488125,0.01155
1680000012960,1180001314000038,-0.0862125,0.0507375,0.013475
1680000012961,1180001316501961,-0.0862125,0.04675,0.01155
1680000012967,1180001319004038,-0.08415,0.0457875,0.0125124995
1680000012967,1180001321505961,-0.0801625,0.0457875,0.0105875
1680000012970,1180001324008014,-0.0782375,0.0446875,0.0075625
1680000012971,1180001326509937,-0.076175,0.0446875,0.01155
1680000012974,1180001329012014,-0.0801625,0.0446875,0.01155
1680000012976,1180001331513860,-0.0771375,0.0418,0.0105875
1680000012979,1180001334015792,-0.0801625,0.0407,0.0105875
1680000012981,1180001336517869,-0.0782375,0.04675,0.0125124995
1680000012985,1180001339019792,-0.0771375,0.0457875,0.014575
1680000012987,1180001341521869,-0.076175,0.0367125,0.013475
1680000012989,1180001344023821,-0.076175,0.0378125,0.0155375
1680000012991,1180001346525667,-0.0752125,0.0367125,0.0204875
1680000012998,1180001349027744,-0.07315,0.0367125,0.0174625
1680000012998,1180001351529591,-0.071225,0.032725,0.014575
1680000013000,1180001354031504,-0.0691625,0.0287375,0.014575
1680000013001,1180001356533657,-0.070125,0.027775,0.0215875
1680000013005,1180001359035734,-0.071225,0.0257125,0.0215875
1680000013007,1180001361537658,-0.0682,0.0237875,0.019524999
1680000013011,1180001364039471,-0.0672375,0.0158125,0.0165
1680000013011,1180001366541548,-0.0611875,0.0158125,0.014575
1680000013015,1180001369043394,-0.0631125,0.0158125,0.014575
1680000013017,1180001371545317,-0.065175,0.0158125,0.0125124995
1680000013019,1180001374047471,-0.0661375,0.014712499,0.0075625
1680000013021,1180001376549557,-0.0661375,0.0127875,0.0075625
1680000013025,1180001379051403,-0.0682,0.01375,0.0055
1680000013027,1180001381553326,-0.060225,0.014712499,0.003575
1680000013029,1180001384055403,-0.0661375,0.0187,5.5E-4
1680000013033,1180001386557273,-0.0672375,0.0207625,-0.002475
1680000013037,1180001389059427,-0.0631125,0.0177375,-0.007425
1680000013038,1180001391561273,-0.0661375,0.0198,-0.0125124995
1680000013039,1180001394063196,-0.0672375,0.016775,-0.0174625
1680000013043,1180001396565273,-0.065175,0.0207625,-0.018424999
1680000013045,1180001399067119,-0.0661375,0.0226875,-0.02145
1680000013046,1180001401569273,-0.065175,0.02475,-0.024475
1680000013049,1180001404071119,-0.06215,0.02475,-0.029424999
1680000013051,1180001406573042,-0.0631125,0.027775,-0.029424999
1680000013054,1180001409075105,-0.0682,0.0317625,-0.035475
1680000013057,1180001411577028,-0.0661375,0.03575,-0.0334125
1680000013059,1180001414078874,-0.0682,0.038775,-0.0314875
1680000013061,1180001416580951,-0.0672375,0.0446875,-0.032449998
1680000013065,1180001419083091,-0.0672375,0.04675,-0.0345125
1680000013067,1180001421585014,-0.071225,0.0507375,-0.0334125
1680000013073,1180001424086860,-0.0682,0.0517,-0.032449998
1680000013074,1180001426588941,-0.0721875,0.0537625,-0.032449998
1680000013076,1180001429090864,-0.070125,0.0528,-0.032449998
1680000013078,1180001431592711,-0.070125,0.0537625,-0.029424999
1680000013080,1180001434094788,-0.0691625,0.0528,-0.0345125
1680000013082,1180001436596941,-0.070125,0.049775,-0.029424999
1680000013085,1180001439098759,-0.0691625,0.0537625,-0.029424999
1680000013086,1180001441600682,-0.0672375,0.0517,-0.032449998
1680000013089,1180001444102528,-0.0672375,0.0507375,-0.0284625
1680000013091,1180001446604605,-0.065175,0.0556875,-0.029424999
1680000013094,1180001449106548,-0.0581625,0.0567875,-0.0265375
1680000013096,1180001451608394,-0.060225,0.0587125,-0.0265375
1680000013099,1180001454110548,-0.0572,0.0627,-0.0254375
1680000013101,1180001456612625,-0.0551375,0.0617375,-0.0254375
1680000013105,1180001459114538,-0.0551375,0.0556875,-0.0265375
1680000013108,1180001461616615,-0.0572,0.054725,-0.0334125
1680000013110,1180001464118461,-0.0562375,0.054725,-0.0345125
1680000013112,1180001466620384,-0.054175,0.049775,-0.0375375
1680000013115,1180001469122461,-0.0521125,0.049775,-0.0385
1680000013117,1180001471624384,-0.05115,0.0446875,-0.0364375
1680000013121,1180001474126461,-0.054175,0.0457875,-0.040425
1680000013122,1180001476628307,-0.0551375,0.0418,-0.0424875
1680000013124,1180001479130230,-0.0532125,0.0418,-0.041525
1680000013126,1180001481632345,-0.0551375,0.043725,-0.043449998
1680000013129,1180001484134191,-0.05115,0.0397375,-0.0485375
1680000013131,1180001486636114,-0.049225,0.0397375,-0.0534875
1680000013134,1180001489138268,-0.0501875,0.0418,-0.051425
1680000013136,1180001491640114,-0.049225,0.038775,-0.0504625
1680000013139,1180001494142201,-0.0501875,0.0378125,-0.0504625
1680000013142,1180001496644124,-0.0532125,0.0317625,-0.0565125
1680000013147,1180001499146182,-0.0462,0.0317625,-0.0595375
1680000013148,1180001501648028,-0.0462,0.0317625,-0.0595375
1680000013150,1180001504149952,-0.049225,0.027775,-0.0584375
1680000013152,1180001506652105,-0.0452375,0.0257125,-0.0614625
1680000013155,1180001509154182,-0.043175,0.032725,-0.0605
1680000013157,1180001511656008,-0.0462,0.0317625,-0.0584375
1680000013159,1180001514157932,-0.0441375,0.0297,-0.0584375
1680000013162,1180001516659778,-0.0391875,0.027775,-0.057475
1680000013164,1180001519161855,-0.0391875,0.0297,-0.0584375
1680000013167,1180001521663783,-0.037125,0.0297,-0.0614625
1680000013170,1180001524165860,-0.0361625,0.0336875,-0.0614625
1680000013172,1180001526667783,-0.0352,0.03575,-0.062425
1680000013175,1180001529169629,-0.037125,0.0367125,-0.0675125
1680000013177,1180001531671759,-0.037125,0.03575,-0.0675125
1680000013179,1180001534173682,-0.0352,0.0378125,-0.068475
1680000013183,1180001536675759,-0.0361625,0.0397375,-0.0724625
1680000013187,1180001539177672,-0.037125,0.043725,-0.0754875
1680000013188,1180001541679749,-0.038225,0.0457875,-0.0774125
1680000013190,1180001544181672,-0.038225,0.0446875,-0.07645
1680000013191,1180001546683749,-0.038225,0.0418,-0.0804375
1680000013195,1180001549185595,-0.0352,0.043725,-0.0834625
1680000013197,1180001551687518,-0.038225,0.0517,-0.0834625
1680000013199,1180001554189576,-0.04015,0.0477125,-0.0834625
1680000013202,1180001556691499,-0.04015,0.0446875,-0.084425
1680000013206,1180001559193345,-0.0391875,0.0457875,-0.084425
1680000013207,1180001561695422,-0.0411125,0.0418,-0.085525
1680000013209,1180001564197359,-0.0422125,0.0418,-0.085525
1680000013211,1180001566699513,-0.0422125,0.0407,-0.0864875
1680000013215,1180001569201359,-0.0411125,0.038775,-0.0864875
1680000013216,1180001571703436,-0.0422125,0.038775,-0.0834625
1680000013221,1180001574205345,-0.0411125,0.0367125,-0.082499996
1680000013224,1180001576707191,-0.0391875,0.0308,-0.082499996
1680000013227,1180001579209268,-0.038225,0.0287375,-0.0834625
1680000013229,1180001581711115,-0.037125,0.0257125,-0.0815375
1680000013231,1180001584213268,-0.0361625,0.0257125,-0.07645
1680000013233,1180001586715201,-0.0361625,0.02475,-0.0815375
1680000013235,1180001589217047,-0.0352,0.0198,-0.0804375
1680000013237,1180001591719124,-0.0342375,0.021724999,-0.07645
1680000013239,1180001594221047,-0.02915,0.0308,-0.0785125
1680000013242,1180001596722865,-0.0301125,0.032725,-0.0774125
1680000013245,1180001599225019,-0.0331375,0.0297,-0.074525
1680000013247,1180001601727096,-0.03025,0.0336875,-0.0754875
1680000013249,1180001604229019,-0.0262625,0.032725,-0.0724625
1680000013252,1180001606730860,-0.0262625,0.0347875,-0.0724625
1680000013255,1180001609232937,-0.027224999,0.03575,-0.0705375
1680000013258,1180001611734860,-0.027224999,0.0367125,-0.0694375
1680000013260,1180001614236706,-0.0262625,0.0367125,-0.0724625
1680000013263,1180001616738860,-0.02915,0.0336875,-0.0705375
1680000013265,1180001619240903,-0.032175,0.0317625,-0.068475
1680000013268,1180001621742749,-0.027224999,0.0287375,-0.068475
1680000013272,1180001624244672,-0.0262625,0.0297,-0.0705375
1680000013273,1180001626746508,-0.0262625,0.02475,-0.0705375
1680000013275,1180001629248585,-0.0262625,0.0257125,-0.0724625
1680000013277,1180001631750508,-0.0262625,0.02475,-0.074525
1680000013279,1180001634252585,-0.0262625,0.027775,-0.074525
1680000013282,1180001636754508,-0.0251625,0.021724999,-0.074525
1680000013285,1180001639256566,-0.0251625,0.0198,-0.0754875
1680000013288,1180001641758489,-0.0281875,0.0207625,-0.07645
1680000013289,1180001644260335,-0.0232375,0.0226875,-0.0785125
1680000013292,1180001646762412,-0.01925,0.0226875,-0.0785125
1680000013296,1180001649264561,-0.0202125,0.021724999,-0.0754875
1680000013298,1180001651766407,-0.0171875,0.0207625,-0.0774125
1680000013300,1180001654268330,-0.0132,0.0207625,-0.07645
1680000013302,1180001656770407,-0.014162499,0.021724999,-0.074525
1680000013305,1180001659272254,-0.0092124995,0.0198,-0.073425
1680000013307,1180001661774177,-0.0092124995,0.021724999,-0.073425
1680000013309,1180001664276254,-0.00825,0.0207625,-0.0715
1680000013312,1180001666778177,-0.0042625,0.0198,-0.0715
1680000013315,1180001669280254,-0.0012375,0.0226875,-0.0694375
1680000013317,1180001671782187,-0.0031625,0.0226875,-0.0694375
1680000013321,1180001674284033,-0.0031625,0.021724999,-0.0715
1680000013324,1180001676786110,-1.375E-4,0.021724999,-0.0675125
1680000013326,1180001679288033,0.00275,0.0257125,-0.0675125
1680000013328,1180001681790105,0.0017875,0.0336875,-0.0664125
1680000013329,1180001684292028,-1.375E-4,0.0317625,-0.0644875
1680000013333,1180001686794105,-0.0012375,0.0308,-0.0644875
1680000013337,1180001689295951,0.00385,0.027775,-0.062425
1680000013339,1180001691798086,0.00385,0.0308,-0.0614625
1680000013341,1180001694299932,0.00385,0.0317625,-0.054449998
1680000013342,1180001696801855,0.0067375,0.027775,-0.0554125
1680000013345,1180001699304009,0.00385,0.027775,-0.054449998
1680000013347,1180001701805855,0.005775,0.0257125,-0.0534875
1680000013349,1180001704307946,0.0048125,0.0226875,-0.0485375
1680000013351,1180001706809792,0.00385,0.0207625,-0.0495
1680000013355,1180001709311715,0.00385,0.0198,-0.0485375
1680000013356,1180001711813561,0.005775,0.015675,-0.0424875
1680000013359,1180001714315696,0.005775,0.015675,-0.043449998
1680000013362,1180001716817773,0.0017875,0.014712499,-0.041525
1680000013365,1180001719319619,0.00385,0.0127875,-0.0394625
1680000013367,1180001721821542,0.00275,0.0077,-0.0375375
1680000013371,1180001724323614,0.00275,0.004675,-0.041525
1680000013374,1180001726825537,0.005775,0.0077,-0.0385
1680000013377,1180001729327614,0.0078375,0.004675,-0.0364375
1680000013378,1180001731829537,0.0067375,0.0017875,-0.0345125
1680000013380,1180001734331614,0.005775,6.875E-4,-0.0385
1680000013382,1180001736833441,0.011825,0.0017875,-0.035475
1680000013385,1180001739335365,0.0127875,0.00275,-0.0345125
1680000013387,1180001741837441,0.0088,0.005775,-0.0345125
1680000013389,1180001744339365,0.0097624995,0.00275,-0.032449998
1680000013391,1180001746841452,0.0127875,0.0017875,-0.029424999
1680000013394,1180001749343375,0.011825,0.0017875,-0.0284625
1680000013397,1180001751845221,0.005775,0.004675,-0.0275
1680000013399,1180001754347298,0.0097624995,0.0067375,-0.0254375
1680000013402,1180001756849144,0.0088,0.00275,-0.0204875
1680000013404,1180001759351298,0.005775,0.00275,-0.0224125
1680000013408,1180001761853221,0.005775,0.0037125,-0.0204875
1680000013410,1180001764355067,0.0078375,0.0037125,-0.0174625
1680000013412,1180001766857163,0.0078375,0.00275,-0.019524999
1680000013415,1180001769359086,0.0088,0.0037125,-0.0174625
1680000013417,1180001771861163,0.0088,0.0017875,-0.0125124995
1680000013420,1180001774363009,0.0108624995,0.00275,-0.0144375
1680000013422,1180001776865168,0.0127875,6.875E-4,-0.0125124995
