system_ts_ms, sensor_ts_ns, gyrX, gyrY, gyrZ
1680008971604,1188959957318275,0.0616,0.093637496,-0.0490875
1680008971608,1188959959820429,0.06655,0.0996875,-0.0510125
1680008971608,1188959962322583,0.06765,0.103675,-0.0510125
1680008971630,1188959964824737,0.06765,0.109725,-0.0510125
1680008971630,1188959967326891,0.0606375,0.1106875,-0.0441375
1680008971630,1188959969828968,0.056649998,0.1057375,-0.039049998
1680008971631,1188959972331199,0.0526625,0.1027125,-0.0350625
1680008971631,1188959974833343,0.0485375,0.10175,-0.0320375
1680008971631,1188959977335497,0.042625,0.098725,-0.0320375
1680008971632,1188959979837574,0.036575,0.086625,-0.026124999
1680008971632,1188959982339728,0.0306625,0.0807125,-0.026124999
1680008971632,1188959984841973,0.0246125,0.06875,-0.0221375
1680008971632,1188959987344127,0.0176,0.054725,-0.0191125
1680008971637,1188959989846281,0.01155,0.0477125,-0.0191125
1680008971637,1188959992348434,0.0105875,0.0386375,-0.0160875
1680008971641,1188959994850622,0.0105875,0.031625,-0.015125
1680008971644,1188959997352699,0.009625,0.02475,-0.013062499
1680008971647,1188959999854853,0.0075625,0.020624999,-0.01705
1680008971647,1188960002357007,0.009625,0.015675,-0.015125
1680008971650,1188960004859238,0.014575,0.0116875,-0.009075
1680008971653,1188960007361387,0.01155,0.0116875,-0.0121
1680008971659,1188960009863540,0.01155,0.009625,-0.0121
1680008971659,1188960012365694,0.01155,0.0056375,-0.009075
1680008971659,1188960014867848,0.009625,0.00275,-0.0070125
1680008971662,1188960017369896,0.009625,0.00275,-0.00605
1680008971665,1188960019872127,0.0086624995,6.875E-4,-0.00605
1680008971667,1188960022374281,0.0056375,-0.001375,-0.0020625
1680008971670,1188960024876434,0.0026125,-0.001375,-1.375E-4
1680008971675,1188960027378574,-4.125E-4,-0.0053625,9.625E-4
1680008971675,1188960029880728,-0.0044,-0.001375,0.0028875
1680008971679,1188960032382882,-0.00935,-0.0033,0.0028875
1680008971680,1188960034884959,-0.00935,-0.0053625,0.00495
1680008971682,1188960037387184,-0.01045,-0.006325,0.0039875
1680008971685,1188960039889338,-0.0144375,-0.00825,0.006875
1680008971687,1188960042391491,-0.0174625,-0.0103124995,0.006875
1680008971693,1188960044893645,-0.018424999,-0.0053625,0.007975
1680008971693,1188960047395799,-0.0163625,-0.0053625,0.007975
1680008971695,1188960049897953,-0.0114124995,-0.0103124995,0.0099
1680008971697,1188960052400338,-0.0144375,-0.0103124995,0.007975
1680008971699,1188960054902261,-0.012375,-0.006325,0.00495
1680008971703,1188960057404415,-0.01045,-0.0103124995,0.001925
1680008971706,1188960059906545,-0.0083875,-0.011275,0.0039875
1680008971710,1188960062408699,-0.0083875,-0.0133375,0.001925
1680008971711,1188960064910853,-0.0064625,-0.0143,-0.004125
1680008971712,1188960067413238,-0.0053625,-0.00935,9.625E-4
1680008971717,1188960069915363,-0.002475,-0.0053625,-0.003025
1680008971718,1188960072417516,-4.125E-4,-0.0103124995,-0.003025
1680008971720,1188960074919440,-0.001375,-0.0083875,-0.0011
1680008971726,1188960077421593,-0.001375,-0.0083875,-0.0050875
1680008971727,1188960079923718,5.5E-4,-0.00935,-0.0070125
1680008971727,1188960082425872,0.0015125,-0.0083875,-0.004125
1680008971730,1188960084928257,0.0056375,-0.0072875,-0.0070125
1680008971732,1188960087430411,0.003575,-0.0072875,-0.0100375
1680008971735,1188960089932573,0.0045375,-0.0072875,-0.0121
1680008971737,1188960092434496,0.0056375,-0.0033,-0.0111375
1680008971743,1188960094936650,0.0066,0.0026125,-0.0121
1680008971743,1188960097438804,0.0075625,0.0037125,-0.01705
1680008971745,1188960099941175,0.0075625,0.004675,-0.015125
1680008971747,1188960102443329,0.0075625,0.0067375,-0.0160875
1680008971750,1188960104945483,0.009625,0.009625,-0.01705
1680008971755,1188960107447622,0.01155,0.0116875,-0.0180125
1680008971760,1188960109949776,0.0155375,0.009625,-0.020075
1680008971760,1188960112451699,0.01155,0.0177375,-0.0180125
1680008971761,1188960114953853,0.0125124995,0.0196625,-0.0191125
1680008971762,1188960117456238,0.019524999,0.0196625,-0.0191125
1680008971765,1188960119958377,0.0176,0.02365,-0.0191125
1680008971767,1188960122460530,0.020624999,0.0287375,-0.0191125
1680008971770,1188960124962684,0.019524999,0.032725,-0.020075
1680008971776,1188960127464838,0.020624999,0.0297,-0.0210375
1680008971777,1188960129966992,0.020624999,0.0276375,-0.0191125
1680008971777,1188960132469151,0.019524999,0.0297,-0.0210375
1680008971781,1188960134971305,0.020624999,0.0287375,-0.0191125
1680008971782,1188960137473459,0.0215875,0.0306625,-0.0191125
1680008971785,1188960139975612,0.0185625,0.0306625,-0.0191125
1680008971787,1188960142477843,0.0185625,0.0306625,-0.0180125
1680008971791,1188960144979920,0.0166375,0.0246125,-0.020075
1680008971794,1188960147482074,0.0155375,0.021724999,-0.0191125
1680008971795,1188960149984209,0.0125124995,0.02365,-0.0180125
1680008971798,1188960152486363,0.0105875,0.020624999,-0.01705
1680008971800,1188960154988517,0.01155,0.0187,-0.015125
1680008971802,1188960157490670,0.01155,0.0177375,-0.0111375
1680008971810,1188960159992901,0.0125124995,0.0177375,-0.0121
1680008971811,1188960162495045,0.009625,0.0187,-0.0111375
1680008971812,1188960164997122,0.0105875,0.0196625,-0.0081124995
1680008971813,1188960167499276,0.009625,0.013612499,-0.0050875
1680008971815,1188960170001430,0.008525,0.015675,-0.0070125
1680008971817,1188960172503589,0.0075625,0.0166375,-0.0111375
1680008971820,1188960175005819,0.008525,0.014712499,-0.0111375
1680008971824,1188960177507973,0.0075625,0.013612499,-0.009075
1680008971825,1188960180010127,0.008525,0.0177375,-0.0070125
1680008971829,1188960182512290,0.0075625,0.0116875,-0.0050875
1680008971832,1188960185014367,0.0066,0.0116875,-0.0050875
1680008971834,1188960187516521,0.0045375,0.010725,-0.0070125
1680008971836,1188960190018751,0.0026125,0.0116875,-0.0070125
1680008971842,1188960192520905,0.0045375,0.01265,-0.0050875
1680008971842,1188960195023059,0.003575,0.0077,-0.004125
1680008971843,1188960197525213,0.0026125,0.00165,-0.0050875
1680008971845,1188960200027367,0.0015125,0.00165,-0.00605
1680008971847,1188960202529444,5.5E-4,0.00165,-0.0050875
1680008971851,1188960205031583,0.003575,6.875E-4,-0.004125
1680008971854,1188960207533813,0.003575,0.00165,-0.003025
1680008971859,1188960210035967,0.0056375,0.004675,-0.0011
1680008971861,1188960212538121,0.008525,0.0056375,-0.004125
1680008971861,1188960215040275,0.003575,0.0056375,-0.00605
1680008971862,1188960217542419,0.003575,0.009625,-0.0070125
1680008971867,1188960220044573,0.003575,0.0056375,-0.003025
1680008971869,1188960222546726,0.003575,0.0026125,-0.004125
1680008971871,1188960225048880,0.0045375,0.00165,-0.004125
1680008971875,1188960227551044,0.0026125,0.0056375,-0.004125
1680008971876,1188960230053198,0.0015125,0.0026125,-0.003025
1680008971877,1188960232555352,0.003575,0.0026125,-0.0050875
1680008971880,1188960235057506,0.003575,0.0026125,-0.0050875
1680008971882,1188960237559660,0.0015125,6.875E-4,-0.0070125
1680008971886,1188960240062058,0.003575,-0.0023375,-0.009075
1680008971887,1188960242563981,0.0026125,0.0026125,-0.0070125
1680008971892,1188960245066135,0.0026125,0.0026125,-0.00605
1680008971893,1188960247568289,5.5E-4,6.875E-4,-0.0081124995
1680008971895,1188960250070448,-4.125E-4,-0.001375,-0.0100375
1680008971898,1188960252572602,-4.125E-4,-2.75E-4,-0.0070125
1680008971900,1188960255074756,5.5E-4,-0.0023375,-0.0070125
1680008971903,1188960257576909,-4.125E-4,-0.001375,-0.0081124995
1680008971908,1188960260079044,-0.001375,-0.0023375,-0.00605
1680008971908,1188960262581198,0.0015125,-0.0042625,-0.0070125
1680008971910,1188960265083352,-4.125E-4,-0.0042625,-0.0050875
1680008971912,1188960267585506,-0.001375,-0.0033,-0.0070125
1680008971915,1188960270087890,-4.125E-4,-0.0053625,-0.0050875
1680008971917,1188960272590058,-4.125E-4,-0.0053625,-0.00605
1680008971920,1188960275092212,-0.001375,-0.0023375,-0.003025
1680008971926,1188960277594366,-0.002475,-2.75E-4,-0.003025
1680008971927,1188960280096285,-0.002475,-2.75E-4,-0.00605
1680008971929,1188960282598439,-0.002475,-2.75E-4,-0.004125
1680008971931,1188960285100593,-0.0044,0.0026125,-0.0050875
1680008971932,1188960287602977,-0.007425,6.875E-4,-0.0050875
1680008971935,1188960290105131,-0.0053625,-2.75E-4,-0.004125
1680008971938,1188960292607294,-0.0053625,-0.001375,-0.004125
1680008971943,1188960295109448,-0.007425,0.004675,-0.00605
1680008971945,1188960297611371,-0.0053625,0.0026125,-0.0050875
1680008971946,1188960300113520,-0.002475,0.0037125,-0.0070125
1680008971948,1188960302615905,-0.001375,0.0067375,-0.004125
1680008971950,1188960305118058,-0.001375,0.009625,-0.00605
1680008971952,1188960307620212,0.0015125,0.0116875,-0.00605
1680008971959,1188960310122366,5.5E-4,0.0077,-0.0050875
1680008971960,1188960312624284,-4.125E-4,0.009625,-0.0070125
1680008971961,1188960315126669,-0.001375,0.01265,-0.00605
1680008971962,1188960317628592,-0.0053625,0.010725,-0.0070125
1680008971965,1188960320130976,-0.001375,0.010725,-0.004125
1680008971967,1188960322633150,-0.0053625,0.009625,-0.004125
1680008971971,1188960325135304,-0.0053625,0.0116875,-0.004125
1680008971973,1188960327637227,-0.007425,0.0077,-0.004125
1680008971975,1188960330139381,-0.0083875,0.004675,-1.375E-4
1680008971979,1188960332641520,-0.0083875,0.004675,-1.375E-4
1680008971981,1188960335143905,-0.0083875,0.004675,-0.0020625
1680008971984,1188960337646058,-0.0083875,6.875E-4,9.625E-4
1680008971986,1188960340148212,-0.01045,0.00165,0.001925
1680008971987,1188960342650366,-0.0114124995,0.00165,0.001925
1680008971990,1188960345152506,-0.0083875,6.875E-4,0.00495
1680008971992,1188960347654429,-0.007425,-0.001375,0.00495
1680008971995,1188960350156583,-0.0064625,-0.0053625,0.0039875
1680008971998,1188960352658968,-0.0064625,-0.0033,0.00495
1680008972000,1188960355161121,-0.0053625,-2.75E-4,0.006875
1680008972002,1188960357663275,-0.0044,-0.0023375,0.0059125
1680008972006,1188960360165429,-0.0053625,-0.0042625,0.006875
1680008972008,1188960362667583,-0.0064625,6.875E-4,0.0059125
1680008972011,1188960365169520,-0.0064625,0.00165,0.0089375
1680008972013,1188960367671905,-0.007425,6.875E-4,0.007975
1680008972017,1188960370174059,-0.007425,-2.75E-4,0.006875
1680008972019,1188960372676212,-0.0053625,0.0026125,0.007975
1680008972021,1188960375178366,-0.001375,6.875E-4,0.007975
1680008972023,1188960377680520,-0.007425,-2.75E-4,0.0108624995
1680008972026,1188960380182674,-0.007425,0.0026125,0.0108624995
1680008972028,1188960382684905,-0.0064625,0.0056375,0.0099
1680008972030,1188960385186982,-0.0083875,0.0037125,0.0108624995
1680008972032,1188960387689164,-0.0094875,0.00165,0.0138875
1680008972035,1188960390191318,-0.007425,6.875E-4,0.012925
1680008972038,1188960392693472,-0.0094875,-2.75E-4,0.0138875
1680008972040,1188960395195626,-0.01045,-0.0033,0.01595
1680008972042,1188960397697780,-0.0083875,-2.75E-4,0.0138875
1680008972045,1188960400200011,-0.007425,-0.0023375,0.0119624995
1680008972048,1188960402702165,-0.0083875,-0.0033,0.01595
1680008972051,1188960405204241,-0.007425,0.00165,0.0199375
1680008972055,1188960407706385,-0.007425,0.00165,0.01595
1680008972057,1188960410208616,-0.007425,0.0026125,0.01595
1680008972058,1188960412710693,-0.0053625,6.875E-4,0.018975
1680008972060,1188960415212847,-0.0053625,-2.75E-4,0.023924999
1680008972064,1188960417714996,-0.0083875,6.875E-4,0.0229625
1680008972066,1188960420217150,-0.0094875,0.00165,0.023924999
1680008972067,1188960422719303,-0.0094875,-2.75E-4,0.0218625
1680008972070,1188960425221534,-0.01045,0.0037125,0.0218625
1680008972075,1188960427723708,-0.0064625,0.0077,0.0209
1680008972076,1188960430225862,-0.007425,0.010725,0.0218625
1680008972078,1188960432727939,-0.0083875,0.0077,0.0199375
1680008972081,1188960435230093,-0.0064625,0.014712499,0.018975
1680008972084,1188960437732247,-0.001375,0.0187,0.018975
1680008972085,1188960440234400,-0.001375,0.020624999,0.018975
1680008972087,1188960442736631,-0.001375,0.020624999,0.0169125
1680008972092,1188960445238785,-0.002475,0.021724999,0.0209
1680008972095,1188960447740939,5.5E-4,0.020624999,0.018975
1680008972098,1188960450243102,5.5E-4,0.026675,0.0149875
1680008972099,1188960452745179,-0.001375,0.0276375,0.01595
1680008972101,1188960455247333,-0.001375,0.0226875,0.0169125
1680008972103,1188960457749563,0.0015125,0.021724999,0.0138875
1680008972105,1188960460251717,0.0015125,0.026675,0.0149875
1680008972108,1188960462753866,-0.002475,0.0297,0.0169125
1680008972110,1188960465256020,-0.0044,0.0246125,0.0149875
1680008972114,1188960467758174,-0.0053625,0.0187,0.01595
1680008972115,1188960470260251,-0.002475,0.0166375,0.0149875
1680008972118,1188960472762419,-0.0044,0.0177375,0.0108624995
1680008972120,1188960475264650,-0.0044,0.0177375,0.012925
1680008972124,1188960477766804,-0.002475,0.013612499,0.0119624995
1680008972126,1188960480268958,-0.0053625,0.0166375,0.0138875
1680008972131,1188960482771117,-0.001375,0.013612499,0.01595
1680008972132,1188960485273271,-0.0083875,0.0077,0.0099
1680008972134,1188960487775425,-0.007425,0.004675,0.0108624995
1680008972137,1188960490277578,-0.007425,0.0037125,0.007975
1680008972139,1188960492779732,-0.0083875,0.0067375,0.006875
1680008972140,1188960495281876,-0.0044,0.0056375,0.0089375
1680008972143,1188960497784030,-0.0053625,0.00165,0.006875
1680008972148,1188960500286184,-0.007425,0.0026125,0.006875
1680008972149,1188960502788338,-0.0064625,0.00165,0.00495
1680008972150,1188960505290736,-0.0053625,-0.0023375,0.0028875
1680008972156,1188960507792890,-0.0053625,6.875E-4,0.0039875
1680008972157,1188960510294813,-0.0053625,6.875E-4,0.001925
1680008972157,1188960512796967,-0.0044,0.00165,9.625E-4
1680008972161,1188960515299102,-0.0053625,0.004675,0.001925
1680008972167,1188960517801256,-0.0053625,0.004675,0.001925
1680008972168,1188960520303410,-0.0044,-0.0023375,0.0028875
1680008972170,1188960522805794,-0.0053625,-2.75E-4,0.0039875
1680008972172,1188960525307914,-0.007425,6.875E-4,0.0039875
1680008972174,1188960527809837,-0.01045,-2.75E-4,0.00495
1680008972176,1188960530311991,-0.0094875,-2.75E-4,0.007975
1680008972178,1188960532814145,-0.0094875,0.00165,0.0059125
1680008972181,1188960535316299,-0.0144375,-2.75E-4,0.006875
1680008972185,1188960537818683,-0.0174625,-0.0042625,0.006875
1680008972186,1188960540320837,-0.013475,-0.0072875,0.007975
1680008972188,1188960542822991,-0.013475,-0.0023375,0.007975
1680008972190,1188960545325145,-0.0144375,-0.001375,0.007975
1680008972194,1188960547827068,-0.012375,-0.0033,0.0089375
1680008972196,1188960550329227,-0.0144375,-0.0042625,0.0099
1680008972198,1188960552831381,-0.0154,-0.0072875,0.0108624995
1680008972201,1188960555333765,-0.0174625,-0.006325,0.0108624995
1680008972206,1188960557835914,-0.0174625,-0.006325,0.0108624995
1680008972207,1188960560338068,-0.0154,-0.006325,0.0108624995
1680008972209,1188960562840222,-0.0174625,-0.006325,0.0119624995
1680008972212,1188960565342376,-0.012375,-0.0033,0.0119624995
1680008972215,1188960567844299,-0.0114124995,-0.0042625,0.0108624995
1680008972216,1188960570346683,-0.01045,-0.0023375,0.0099
1680008972218,1188960572848837,-0.0083875,0.00165,0.0138875
1680008972221,1188960575350991,-0.007425,0.0026125,0.0138875
1680008972224,1188960577853145,-0.0044,0.0056375,0.0099
1680008972228,1188960580355299,0.0015125,0.009625,0.0089375
1680008972237,1188960582857213,-4.125E-4,0.01265,0.0099
1680008972237,1188960585359598,0.0015125,0.0166375,0.006875
1680008972237,1188960587861751,-4.125E-4,0.015675,0.001925
1680008972237,1188960590363905,5.5E-4,0.014712499,0.0059125
1680008972239,1188960592866063,5.5E-4,0.0166375,0.0059125
1680008972242,1188960595367986,-4.125E-4,0.013612499,0.0028875
1680008972244,1188960597870371,-0.0044,0.013612499,0.0028875
1680008972246,1188960600372294,-0.001375,0.0166375,9.625E-4
1680008972248,1188960602874664,-0.0083875,0.013612499,-1.375E-4
1680008972251,1188960605376818,-0.0064625,0.0077,0.001925
1680008972254,1188960607878972,5.5E-4,0.0116875,0.00495
1680008972255,1188960610381126,-0.001375,0.0116875,-1.375E-4
1680008972258,1188960612883290,-0.0044,0.009625,9.625E-4
1680008972260,1188960615385213,0.0015125,0.0077,0.001925
1680008972266,1188960617887598,0.003575,0.0056375,9.625E-4
1680008972267,1188960620389751,-0.0044,0.0056375,9.625E-4
1680008972268,1188960622891904,-4.125E-4,0.0056375,-0.0020625
1680008972271,1188960625394058,0.0015125,0.004675,-0.0011
1680008972274,1188960627896212,5.5E-4,0.004675,-0.0020625
1680008972280,1188960630398328,5.5E-4,0.0067375,-0.00605
1680008972280,1188960632900251,0.0015125,0.0056375,-0.0070125
1680008972282,1188960635402636,0.0045375,0.0026125,-0.0070125
1680008972284,1188960637904789,0.0015125,6.875E-4,-0.00605
1680008972286,1188960640406943,0.0015125,0.0026125,-0.0081124995
1680008972288,1188960642909097,-4.125E-4,-2.75E-4,-0.00605
1680008972291,1188960645411242,-0.001375,-0.001375,-0.0070125
1680008972294,1188960647913396,-0.001375,-2.75E-4,-0.00605
1680008972297,1188960650415627,-0.002475,-0.0033,-0.0070125
1680008972298,1188960652917704,-0.0064625,-2.75E-4,-0.0050875
1680008972301,1188960655419857,-0.007425,0.00165,-0.0070125
1680008972304,1188960657922007,-0.0064625,-0.001375,-0.0081124995
1680008972306,1188960660424161,-0.0053625,-0.0023375,-0.00605
1680008972308,1188960662926315,-0.0044,-0.0023375,-0.0050875
1680008972310,1188960665428546,-0.0044,-0.0023375,-0.004125
1680008972317,1188960667930680,-0.001375,-0.006325,-0.0050875
1680008972318,1188960670432833,-0.0044,-0.0083875,-0.0070125
1680008972320,1188960672934910,-0.007425,-0.0072875,-0.003025
1680008972321,1188960675437064,-0.0083875,-0.0072875,-0.0020625
1680008972324,1188960677939281,-0.007425,-0.011275,-0.003025
1680008972326,1188960680441435,-0.0053625,-0.0143,-0.003025
1680008972329,1188960682943589,-0.0053625,-0.011275,-0.0050875
1680008972332,1188960685445666,-0.007425,-0.0143,-0.004125
1680008972335,1188960687947852,-0.0083875,-0.015262499,-0.0020625
1680008972336,1188960690450006,-0.012375,-0.017324999,-0.0011
1680008972338,1188960692952237,-0.012375,-0.0163625,-0.0050875
1680008972341,1188960695454391,-0.0144375,-0.02035,-0.0020625
1680008972345,1188960697956545,-0.0144375,-0.022275,-1.375E-4
1680008972346,1188960700458747,-0.013475,-0.02035,-0.0011
1680008972348,1188960702960900,-0.0144375,-0.0193875,-0.003025
1680008972351,1188960705462977,-0.012375,-0.0182875,-0.0020625
1680008972357,1188960707965156,-0.0144375,-0.017324999,-0.003025
1680008972358,1188960710467310,-0.012375,-0.015262499,-0.004125
1680008972359,1188960712969464,-0.0154,-0.0143,-0.0050875
1680008972361,1188960715471618,-0.012375,-0.0103124995,-0.003025
1680008972366,1188960717973772,-0.0083875,-0.00935,-0.0020625
1680008972367,1188960720475919,-0.0083875,-0.0053625,-0.004125
1680008972368,1188960722978073,-0.0083875,-0.0053625,-0.003025
1680008972372,1188960725480227,-0.0064625,-0.0072875,-0.00605
1680008972374,1188960727982381,-0.0044,-0.0072875,-0.0050875
1680008972376,1188960730484535,-0.001375,-0.0083875,-0.0070125
1680008972378,1188960732986689,-0.002475,-0.006325,-0.0070125
1680008972382,1188960735488843,-0.007425,-0.0053625,-0.003025
1680008972384,1188960737990996,-0.0053625,-0.0023375,-0.0020625
1680008972385,1188960740493381,-0.0044,-0.0033,9.625E-4
1680008972388,1188960742995290,-0.0064625,-0.0053625,0.0028875
1680008972392,1188960745497444,-0.0053625,-0.006325,0.0028875
1680008972395,1188960747999598,-0.002475,-0.006325,0.0028875
1680008972397,1188960750501771,0.0015125,-0.0033,0.0039875
1680008972399,1188960753003925,0.0026125,6.875E-4,0.0039875
1680008972400,1188960755506078,-4.125E-4,-0.0033,0.0039875
1680008972404,1188960758008463,0.0026125,-0.001375,0.0059125
1680008972408,1188960760510631,0.008525,6.875E-4,0.0059125
1680008972408,1188960763012554,0.009625,-0.0023375,0.006875
1680008972412,1188960765514708,0.0066,0.0026125,0.0059125
1680008972415,1188960768016862,0.0105875,0.0037125,9.625E-4
1680008972416,1188960770519015,0.014575,0.0037125,9.625E-4
1680008972418,1188960773021410,0.014575,0.0037125,-1.375E-4
1680008972421,1188960775523564,0.01155,-2.75E-4,9.625E-4
1680008972424,1188960778025718,0.0125124995,-0.0023375,9.625E-4
1680008972426,1188960780527872,0.014575,-0.001375,-0.0020625
1680008972432,1188960783029737,0.009625,-0.0042625,-0.004125
1680008972433,1188960785531891,0.009625,-0.00935,-0.003025
1680008972435,1188960788034275,0.0105875,-0.011275,-0.00605
1680008972437,1188960790536429,0.008525,-0.011275,-0.00605
1680008972439,1188960793038583,0.0105875,-0.011275,-0.00605
1680008972440,1188960795540737,0.014575,-0.0103124995,-0.0070125
1680008972444,1188960798042896,0.0125124995,-0.0053625,-0.0050875
1680008972447,1188960800544819,0.0155375,-0.0053625,-0.003025
1680008972448,1188960803046973,0.014575,-0.0033,-0.004125
1680008972451,1188960805549357,0.019524999,6.875E-4,-0.0020625
1680008972454,1188960808051544,0.019524999,-0.001375,-0.0050875
1680008972455,1188960810553698,0.019524999,-0.0023375,-0.0100375
1680008972457,1188960813055621,0.019524999,0.00165,-0.0100375
1680008972460,1188960815557775,0.0215875,0.004675,-0.0081124995
1680008972465,1188960818059920,0.019524999,0.0026125,-0.004125
1680008972467,1188960820562304,0.019524999,0.0026125,-0.0050875
1680008972469,1188960823064458,0.0215875,0.004675,-0.0081124995
1680008972471,1188960825566612,0.02255,0.004675,-0.0070125
1680008972474,1188960828068751,0.0215875,0.004675,-0.0081124995
1680008972475,1188960830570905,0.020624999,0.0037125,-0.0081124995
1680008972481,1188960833073059,0.0176,0.0077,-0.009075
1680008972482,1188960835575212,0.0155375,0.0037125,-0.0070125
1680008972484,1188960838077376,0.014575,0.004675,-0.00605
1680008972486,1188960840579530,0.0155375,0.004675,-0.0050875
1680008972488,1188960843081684,0.0105875,-2.75E-4,-0.00605
1680008972490,1188960845583838,0.0075625,-0.0023375,-0.0081124995
1680008972494,1188960848085761,0.009625,-0.0053625,-0.0100375
1680008972496,1188960850587934,0.0075625,-0.0033,-0.0081124995
1680008972499,1188960853090318,0.0066,-0.0023375,-0.0111375
1680008972501,1188960855592472,0.009625,-2.75E-4,-0.0160875
1680008972507,1188960858094626,0.0155375,6.875E-4,-0.013062499
1680008972507,1188960860596780,0.0166375,0.0037125,-0.015125
1680008972509,1188960863098934,0.0166375,0.010725,-0.01705
1680008972511,1188960865601088,0.0185625,0.01265,-0.020075
1680008972516,1188960868103011,0.019524999,0.010725,-0.0191125
1680008972517,1188960870605385,0.020624999,0.010725,-0.0210375
1680008972518,1188960873107539,0.0215875,0.0077,-0.020075
1680008972521,1188960875609693,0.019524999,0.010725,-0.0221375
1680008972524,1188960878111847,0.0185625,0.01265,-0.0231
1680008972526,1188960880614054,0.019524999,0.0067375,-0.025024999
1680008972529,1188960883116208,0.0185625,-0.001375,-0.025024999
1680008972531,1188960885618438,0.014575,-0.0023375,-0.0210375
1680008972534,1188960888120515,0.0125124995,-0.0033,-0.0210375
1680008972536,1188960890622669,0.0125124995,-0.0042625,-0.0191125
1680008972538,1188960893124848,0.01155,-0.0042625,-0.020075
1680008972542,1188960895627002,0.01155,-0.0033,-0.0180125
1680008972545,1188960898129156,0.0125124995,-0.0053625,-0.0180125
1680008972548,1188960900631367,0.0105875,-0.006325,-0.015125
1680008972549,1188960903133521,0.014575,-0.0053625,-0.0160875
1680008972550,1188960905635598,0.0125124995,-0.0042625,-0.015125
1680008972554,1188960908137752,0.009625,-0.0033,-0.0100375
1680008972556,1188960910639906,0.0125124995,-2.75E-4,-0.013062499
1680008972558,1188960913142069,0.0176,0.0026125,-0.0160875
1680008972561,1188960915644223,0.0155375,0.0026125,-0.0160875
1680008972565,1188960918146453,0.0166375,0.00165,-0.0160875
1680008972566,1188960920648607,0.0155375,0.00165,-0.01705
1680008972569,1188960923150761,0.0125124995,0.0056375,-0.0191125
1680008972571,1188960925652838,0.0125124995,0.0056375,-0.0180125
1680008972574,1188960928154992,0.01155,-0.0023375,-0.015125
1680008972576,1188960930657146,0.01155,-0.0033,-0.0160875
1680008972580,1188960933159373,0.0125124995,-0.0023375,-0.0180125
1680008972581,1188960935661526,0.01155,-0.0023375,-0.0180125
1680008972585,1188960938163680,0.009625,-2.75E-4,-0.01705
1680008972586,1188960940665834,0.01155,-0.0042625,-0.01705
1680008972588,1188960943167988,0.009625,-0.0033,-0.01705
1680008972591,1188960945670142,0.008525,-0.0023375,-0.0180125
1680008972594,1188960948172296,0.014575,-0.0053625,-0.015125
1680008972595,1188960950674450,0.0075625,-0.006325,-0.0160875
1680008972598,1188960953176526,0.0075625,-0.001375,-0.013062499
1680008972601,1188960955678718,0.009625,-0.001375,-0.0160875
1680008972604,1188960958180872,0.0105875,-0.0072875,-0.01705
1680008972606,1188960960683103,0.008525,-0.0023375,-0.0160875
1680008972609,1188960963185257,0.009625,0.00165,-0.0180125
1680008972611,1188960965687411,0.0105875,-0.001375,-0.020075
1680008972614,1188960968189559,0.009625,-0.0053625,-0.0191125
1680008972618,1188960970691713,0.0066,-0.001375,-0.020075
1680008972619,1188960973193790,0.0075625,-0.0023375,-0.0191125
1680008972621,1188960975696036,0.0056375,-0.0072875,-0.0191125
1680008972624,1188960978198190,0.0045375,-0.0033,-0.020075
1680008972626,1188960980700344,0.0056375,-0.001375,-0.0191125
1680008972628,1188960983202498,0.0056375,-0.0033,-0.0121
1680008972631,1188960985704651,0.003575,-0.0042625,-0.0121
1680008972634,1188960988206814,0.003575,-0.001375,-0.013062499
1680008972636,1188960990708968,0.0056375,-0.0023375,-0.0111375
1680008972638,1188960993211122,0.0026125,-0.0023375,-0.0111375
1680008972641,1188960995713276,-4.125E-4,-0.0053625,-0.0111375
1680008972644,1188960998215449,-0.001375,-0.0072875,-0.0100375
1680008972646,1188961000717603,-0.002475,-0.00935,-0.0081124995
1680008972649,1188961003219756,-0.001375,-0.0053625,-0.0070125
1680008972651,1188961005721910,5.5E-4,-0.0053625,-0.00605
1680008972655,1188961008224300,0.0045375,-0.0023375,-0.009075
1680008972657,1188961010726454,0.01155,0.0056375,-0.0070125
1680008972659,1188961013228377,0.009625,0.0077,-0.0070125
1680008972661,1188961015730531,0.0105875,0.01265,-0.0050875
1680008972664,1188961018232680,0.009625,0.0187,-0.0070125
1680008972665,1188961020734833,0.01155,0.0226875,-0.0121
1680008972668,1188961023236987,0.0185625,0.0287375,-0.0100375
1680008972672,1188961025739141,0.0235125,0.032725,-0.015125
1680008972675,1188961028241295,0.0246125,0.0397375,-0.015125
1680008972676,1188961030743449,0.0235125,0.042625,-0.0160875
1680008972678,1188961033245603,0.02255,0.045649998,-0.020075
1680008972681,1188961035747757,0.0265375,0.048675,-0.0240625
1680008972684,1188961038249910,0.0215875,0.0477125,-0.026124999
1680008972686,1188961040752276,0.019524999,0.043725,-0.02805
1680008972688,1188961043254430,0.0166375,0.0386375,-0.026124999
1680008972694,1188961045756353,0.014575,0.037675,-0.0231
1680008972695,1188961048258507,0.0105875,0.0386375,-0.020075
1680008972698,1188961050760671,0.0075625,0.034649998,-0.0191125
1680008972699,1188961053262824,0.0075625,0.032725,-0.0180125
1680008972701,1188961055765209,0.003575,0.0306625,-0.015125
1680008972704,1188961058267363,5.5E-4,0.021724999,-0.0111375
1680008972707,1188961060769286,-4.125E-4,0.020624999,-0.0100375
1680008972708,1188961063271430,5.5E-4,0.0166375,-0.00605
1680008972710,1188961065773584,5.5E-4,0.0166375,-0.003025
1680008972714,1188961068275738,-0.002475,0.0116875,-0.004125
1680008972715,1188961070777891,-0.0044,0.0067375,-0.0011
1680008972718,1188961073280295,-0.0053625,0.0077,-0.0011
1680008972720,1188961075782449,-0.0053625,0.0067375,-1.375E-4
1680008972724,1188961078284372,-0.0064625,0.004675,0.001925
1680008972726,1188961080786526,-0.0044,0.0037125,0.001925
1680008972732,1188961083288666,-0.001375,0.0037125,0.001925
1680008972733,1188961085790820,-4.125E-4,0.004675,0.0028875
1680008972735,1188961088293204,5.5E-4,0.0037125,-1.375E-4
1680008972737,1188961090795358,-4.125E-4,0.0056375,-1.375E-4
1680008972739,1188961093297512,-0.0044,0.0067375,9.625E-4
1680008972741,1188961095799661,-0.0053625,0.0056375,0.0028875
1680008972744,1188961098301584,-0.002475,0.0037125,0.001925
1680008972747,1188961100803738,-0.001375,0.004675,9.625E-4
1680008972748,1188961103306122,-4.125E-4,0.0067375,-1.375E-4
1680008972751,1188961105808262,-0.0053625,0.0056375,0.001925
1680008972754,1188961108310416,-0.007425,0.0056375,-1.375E-4
1680008972756,1188961110812570,-0.0044,0.00165,-0.0020625
1680008972757,1188961113314724,-0.0053625,6.875E-4,-0.0011
1680008972761,1188961115816647,-0.0044,0.00165,-1.375E-4
1680008972764,1188961118318801,-0.002475,0.0026125,-1.375E-4
1680008972767,1188961120821185,-0.0044,-2.75E-4,-0.0050875
1680008972770,1188961123323339,-0.0044,0.00165,-0.0020625
1680008972771,1188961125825502,-0.001375,-2.75E-4,-0.0020625
1680008972774,1188961128327656,-0.0044,6.875E-4,-0.0050875
1680008972776,1188961130829810,-0.001375,0.0037125,-0.0050875
1680008972778,1188961133331964,5.5E-4,-2.75E-4,-0.00605
1680008972781,1188961135834117,-0.0044,-2.75E-4,-0.0070125
1680008972784,1188961138336286,-0.0053625,-0.001375,-0.00605
1680008972786,1188961140838440,-4.125E-4,-0.0033,-0.0050875
1680008972788,1188961143340594,-4.125E-4,6.875E-4,-0.009075
1680008972790,1188961145842748,-0.0053625,-0.001375,-0.00605
1680008972794,1188961148344868,-0.0044,-0.0033,-0.0050875
1680008972796,1188961150847021,-0.0044,-0.001375,-0.0070125
1680008972798,1188961153349252,-0.002475,-0.0023375,-0.0050875
1680008972800,1188961155851329,-0.0064625,-0.0023375,-0.0070125
1680008972806,1188961158353464,-0.007425,-2.75E-4,-0.00605
1680008972808,1188961160855618,-0.0053625,-2.75E-4,-0.00605
1680008972810,1188961163357772,-0.0053625,-0.0033,-0.0050875
1680008972812,1188961165859926,-0.0044,-2.75E-4,-0.0050875
1680008972815,1188961168362156,-0.0053625,-0.001375,-0.0070125
1680008972817,1188961170864290,-0.002475,6.875E-4,-0.009075
1680008972819,1188961173366367,-0.0044,6.875E-4,-0.0070125
1680008972821,1188961175868521,-0.007425,-0.0023375,-0.003025
1680008972825,1188961178370675,-0.007425,-0.0033,-0.004125
1680008972827,1188961180872829,-0.0053625,-0.001375,-0.0050875
1680008972829,1188961183374998,-0.007425,-0.0023375,-0.00605
1680008972831,1188961185877228,-0.0094875,-0.0023375,-0.0050875
1680008972834,1188961188379382,-0.0083875,-0.0072875,-0.0050875
1680008972836,1188961190881536,-0.0083875,-0.006325,-0.004125
1680008972839,1188961193383627,-0.007425,-0.001375,-0.003025
1680008972843,1188961195885781,-0.0064625,-0.0033,-0.004125
1680008972845,1188961198387935,-0.0114124995,-0.0083875,-0.0020625
1680008972847,1188961200890165,-0.0094875,-0.00935,-0.004125
1680008972849,1188961203392281,-0.0064625,-0.0072875,-1.375E-4
1680008972852,1188961205894435,-0.013475,-0.0083875,9.625E-4
1680008972858,1188961208396589,-0.0114124995,-0.0072875,-1.375E-4
1680008972858,1188961210898743,-0.0064625,-0.0072875,-0.0011
1680008972859,1188961213400897,-0.0083875,-0.0053625,-1.375E-4
1680008972861,1188961215903055,-0.007425,-0.006325,-1.375E-4
1680008972864,1188961218405131,-0.007425,-0.0042625,9.625E-4
1680008972866,1188961220907362,-0.0064625,-0.0023375,0.001925
1680008972868,1188961223409516,-0.0053625,-0.0023375,0.001925
1680008972871,1188961225911656,-0.0053625,-2.75E-4,-1.375E-4
1680008972874,1188961228413810,-0.0053625,6.875E-4,9.625E-4
1680008972875,1188961230915964,-0.0064625,0.00165,0.001925
1680008972880,1188961233418118,-0.0064625,0.0026125,0.001925
1680008972881,1188961235920236,-0.0094875,0.0037125,9.625E-4
1680008972885,1188961238422390,-0.007425,0.0067375,0.001925
1680008972886,1188961240924544,-0.007425,0.0067375,0.001925
1680008972889,1188961243426929,-0.0094875,0.0037125,0.001925
1680008972891,1188961245928852,-0.01045,0.0067375,9.625E-4
1680008972894,1188961248430992,-0.01045,0.0026125,0.0028875
1680008972896,1188961250933145,-0.01045,0.0026125,-1.375E-4
1680008972898,1188961253435299,-0.0094875,0.004675,0.001925
1680008972901,1188961255937376,-0.0144375,0.0026125,0.00495
1680008972904,1188961258439626,-0.0174625,-0.0023375,0.001925
1680008972906,1188961260941780,-0.0144375,-0.001375,0.001925
1680008972908,1188961263443934,-0.0154,-0.0042625,0.0039875
1680008972911,1188961265946088,-0.0163625,-0.0053625,0.0028875
1680008972917,1188961268448236,-0.013475,-0.0042625,0.001925
1680008972918,1188961270950390,-0.012375,6.875E-4,-1.375E-4
1680008972920,1188961273452467,-0.0114124995,-2.75E-4,-0.0020625
1680008972922,1188961275954698,-0.01045,0.0067375,-0.0020625
1680008972925,1188961278456876,-0.012375,0.010725,-0.0011
1680008972927,1188961280959030,-0.0053625,0.014712499,-0.003025
1680008972930,1188961283461184,-0.0083875,0.0177375,-0.0050875
1680008972933,1188961285963337,-0.01045,0.020624999,-0.0050875
1680008972935,1188961288465472,-0.007425,0.021724999,-0.00605
1680008972936,1188961290967857,-0.0044,0.0177375,-0.0081124995
1680008972939,1188961293469780,-0.0083875,0.0177375,-0.0070125
1680008972941,1188961295971934,-0.007425,0.0196625,-0.0081124995
1680008972944,1188961298474088,-0.0064625,0.021724999,-0.0081124995
1680008972947,1188961300976227,-0.0094875,0.0187,-0.0070125
1680008972948,1188961303478380,-0.0094875,0.0177375,-0.00605
1680008972951,1188961305980765,-0.0083875,0.014712499,-0.00605
1680008972957,1188961308482895,-0.0064625,0.01265,-0.004125
1680008972958,1188961310985049,-0.007425,0.0116875,-0.0050875
1680008972959,1188961313486972,-0.0064625,0.010725,-0.0081124995
1680008972961,1188961315989126,-0.0064625,0.01265,-0.00605
1680008972965,1188961318491279,-0.0064625,0.009625,-0.0050875
1680008972966,1188961320993443,-0.007425,0.010725,-0.0081124995
1680008972969,1188961323495828,-0.012375,0.0056375,-0.0081124995
1680008972971,1188961325997982,-0.0094875,0.0056375,-0.0050875
1680008972975,1188961328500136,-0.012375,6.875E-4,-0.0050875
1680008972976,1188961331002290,-0.0114124995,-0.0042625,-0.0081124995
1680008972979,1188961333504213,-0.0083875,-0.0023375,-0.0070125
1680008972981,1188961336006366,-0.0094875,-0.0023375,-0.0050875
1680008972984,1188961338508751,-0.0083875,6.875E-4,-0.0081124995
1680008972986,1188961341010905,-0.01045,6.875E-4,-0.0081124995
1680008972988,1188961343513088,-0.0053625,-0.0033,-0.00605
1680008972992,1188961346015242,-0.0053625,6.875E-4,-0.0070125
1680008972999,1188961348517395,-0.0053625,6.875E-4,-0.0081124995
1680008973000,1188961351019299,-0.0053625,-2.75E-4,-0.0070125
1680008973000,1188961353521452,-0.0044,6.875E-4,-0.0081124995
1680008973001,1188961356023837,-0.0044,0.00165,-0.0100375
1680008973004,1188961358525991,-0.002475,-2.75E-4,-0.0070125
1680008973006,1188961361028145,-0.0053625,-2.75E-4,-0.0081124995
1680008973009,1188961363530261,-0.0044,-0.0023375,-0.00605
1680008973016,1188961366032414,-0.0064625,0.00165,-0.0081124995
1680008973016,1188961368534568,-0.0053625,6.875E-4,-0.0070125
1680008973017,1188961371036722,-0.0064625,-2.75E-4,-0.00605
1680008973018,1188961373538876,-0.007425,-2.75E-4,-0.004125
1680008973021,1188961376041049,-0.0064625,6.875E-4,-0.003025
1680008973025,1188961378543203,-0.0083875,-0.001375,-0.003025
1680008973027,1188961381045357,-0.0114124995,-2.75E-4,-0.0011
1680008973033,1188961383547520,-0.0114124995,6.875E-4,9.625E-4
1680008973034,1188961386049674,-0.01045,0.0037125,-0.0011
1680008973036,1188961391051828,-0.0094875,0.0037125,-0.0011
1680008973038,1188961391177674,-0.0083875,0.004675,0.001925
1680008973040,1188961393556136,-0.0064625,0.0056375,0.0028875
1680008973044,1188961396058266,-0.0053625,0.0077,9.625E-4
1680008973046,1188961398560420,-0.002475,0.0077,0.0028875
1680008973047,1188961401062343,-4.125E-4,0.010725,0.001925
1680008973050,1188961403564804,-0.002475,0.010725,0.0028875
1680008973052,1188961406066958,-0.002475,0.014712499,9.625E-4
1680008973055,1188961408569084,-0.0044,0.0187,-1.375E-4
1680008973056,1188961411071238,-0.0044,0.01265,-0.0020625
1680008973058,1188961413573392,-0.0053625,0.013612499,-0.0011
1680008973061,1188961416075545,-0.002475,0.0166375,-0.0011
1680008973064,1188961418577776,0.0026125,0.020624999,-0.0070125
1680008973067,1188961421079930,-0.002475,0.0196625,-0.0081124995
1680008973069,1188961423582084,-0.001375,0.0166375,-0.00605
1680008973071,1188961426084238,-0.001375,0.0196625,-0.009075
1680008973076,1188961428586276,-0.0064625,0.0196625,-0.0100375
1680008973077,1188961431088430,-0.0044,0.0187,-0.0070125
1680008973079,1188961433590583,-0.002475,0.015675,-0.0070125
1680008973081,1188961436092737,0.003575,0.0177375,-0.0081124995
1680008973084,1188961438594891,5.5E-4,0.013612499,-0.0121
1680008973086,1188961441097055,-4.125E-4,0.01265,-0.013062499
1680008973089,1188961443599209,5.5E-4,0.013612499,-0.013062499
1680008973091,1188961446101363,-0.002475,0.010725,-0.015125
1680008973094,1188961448603517,5.5E-4,0.0077,-0.0121
1680008973096,1188961451105747,0.0015125,0.0026125,-0.015125
1680008973099,1188961453607891,5.5E-4,0.004675,-0.015125
1680008973101,1188961456110045,0.0026125,0.0056375,-0.015125
1680008973105,1188961458612122,0.0026125,0.0026125,-0.013062499
1680008973108,1188961461114271,-4.125E-4,0.0026125,-0.015125
1680008973109,1188961463616425,-4.125E-4,0.0026125,-0.015125
1680008973111,1188961466118579,5.5E-4,6.875E-4,-0.0121
1680008973115,1188961468620809,-4.125E-4,-0.0023375,-0.013062499
1680008973116,1188961471122963,-0.001375,-0.0023375,-0.013062499
1680008973119,1188961473625117,0.0015125,-0.0042625,-0.0100375
1680008973122,1188961476127194,5.5E-4,-0.0083875,-0.0100375
1680008973124,1188961478629348,-4.125E-4,-0.0072875,-0.009075
1680008973126,1188961481131579,-0.001375,-0.0053625,-0.0081124995
1680008973130,1188961483633732,-0.002475,-0.0053625,-0.009075
1680008973131,1188961486135809,-0.001375,-0.0042625,-0.0050875
1680008973135,1188961488637963,-4.125E-4,-0.001375,-0.00605
1680008973136,1188961491140117,0.0015125,-0.001375,-0.0070125
1680008973138,1188961493642348,0.0015125,-0.0033,-0.0050875
1680008973142,1188961496144507,-0.001375,-0.0023375,-0.0050875
1680008973145,1188961498646661,-0.0044,-2.75E-4,-0.004125
1680008973149,1188961501148814,-0.002475,-0.001375,-0.003025
1680008973150,1188961503650891,-0.0053625,-0.0042625,-0.0011
1680008973151,1188961506153045,-0.0044,-0.0053625,-1.375E-4
1680008973154,1188961508655218,-0.0053625,-0.001375,-1.375E-4
1680008973156,1188961511157449,-0.0053625,6.875E-4,0.001925
1680008973158,1188961513659603,-0.0053625,-0.0023375,0.001925
1680008973160,1188961516161756,-0.002475,-0.0023375,0.001925
1680008973164,1188961518663910,-4.125E-4,0.0026125,0.0028875
1680008973166,1188961521166064,-0.002475,6.875E-4,0.0028875
1680008973169,1188961523668141,-0.002475,0.0037125,9.625E-4
1680008973171,1188961526170372,-0.001375,0.0056375,9.625E-4
1680008973174,1188961528672541,-0.002475,0.004675,9.625E-4
1680008973176,1188961531174695,-0.001375,0.010725,-0.0011
1680008973181,1188961533676848,5.5E-4,0.0116875,-0.0011
1680008973182,1188961536179002,5.5E-4,0.0077,-0.0011
1680008973185,1188961538681175,-4.125E-4,0.0056375,-0.003025
1680008973187,1188961541183560,0.0015125,0.010725,-0.004125
1680008973188,1188961543685483,0.0056375,0.010725,-0.0050875
1680008973191,1188961546187637,0.0045375,0.010725,-0.0050875
1680008973194,1188961548689805,0.0015125,0.009625,-0.004125
1680008973196,1188961551191958,-0.001375,0.0116875,-0.00605
1680008973198,1188961553694112,5.5E-4,0.013612499,-0.0070125
1680008973201,1188961556196266,-4.125E-4,0.01265,-0.0050875
1680008973204,1188961558698651,5.5E-4,0.014712499,-0.0050875
1680008973206,1188961561200574,0.003575,0.0116875,-0.0050875
1680008973209,1188961563702728,0.0015125,0.0056375,-0.004125
1680008973212,1188961566204882,0.003575,0.009625,-0.0011
1680008973215,1188961568707069,0.0066,0.01265,-0.0011
1680008973218,1188961571209223,0.003575,0.01375,-0.004125
1680008973220,1188961573711608,0.003575,0.0116875,-0.003025
1680008973221,1188961576213762,0.003575,0.01375,-0.003025
1680008973225,1188961578715897,0.0026125,0.014712499,-0.0011
1680008973227,1188961581217820,0.003575,0.009625,0.001925
1680008973228,1188961583719973,0.00165,0.010725,0.0059125
1680008973232,1188961586222127,5.5E-4,0.0067375,0.00495
1680008973235,1188961588724281,5.5E-4,0.004675,0.0028875
1680008973237,1188961591226695,-0.001375,0.0077,0.007975
1680008973239,1188961593728849,0.003575,0.009625,0.007975
1680008973241,1188961596230772,0.0045375,0.0037125,0.0059125
1680008973244,1188961598733156,0.0026125,0.009625,0.0099
1680008973246,1188961601235106,0.0045375,0.01375,0.007975
1680008973249,1188961603737260,0.0045375,0.0116875,0.0099
1680008973252,1188961606239645,0.0026125,0.0116875,0.0099
1680008973256,1188961608741762,0.0056375,0.015675,0.0059125
1680008973258,1188961611243685,0.0066,0.010725,0.007975
1680008973259,1188961613746069,5.5E-4,0.0077,0.0099
1680008973261,1188961616248223,0.0026125,0.009625,0.0108624995
1680008973265,1188961618750146,5.5E-4,0.0116875,0.0108624995
1680008973266,1188961621252536,-4.125E-4,0.0077,0.0119624995
1680008973269,1188961623754690,0.00165,0.0077,0.0089375
1680008973271,1188961626256844,0.0026125,0.004675,0.0108624995
1680008973275,1188961628758767,5.5E-4,0.00275,0.0089375
1680008973276,1188961631261151,-4.125E-4,0.0067375,0.0099
1680008973279,1188961633763075,5.5E-4,0.0056375,0.0119624995
1680008973282,1188961636265228,-0.001375,0.004675,0.0089375
1680008973284,1188961638767613,-4.125E-4,0.00275,0.0119624995
1680008973286,1188961641269767,-0.001375,0.0037125,0.0138875
1680008973290,1188961643771921,-4.125E-4,0.00165,0.0119624995
1680008973293,1188961646274075,-4.125E-4,0.00275,0.0099
1680008973296,1188961648775998,-0.0023375,6.875E-4,0.0099
1680008973298,1188961651278170,-0.001375,0.0037125,0.0108624995
1680008973299,1188961653780554,5.5E-4,0.004675,0.007975
1680008973302,1188961656282708,-4.125E-4,0.00275,0.0089375
1680008973305,1188961658784862,-4.125E-4,6.875E-4,0.0089375
1680008973307,1188961661287016,-0.0044,0.004675,0.007975
1680008973309,1188961663789170,-4.125E-4,0.0067375,0.0099
1680008973313,1188961666291093,-0.001375,0.0067375,0.0108624995
1680008973315,1188961668793246,-0.001375,0.010725,0.0089375
1680008973317,1188961671295631,5.5E-4,0.010725,0.0089375
1680008973319,1188961673797790,0.0026125,0.010725,0.0099
1680008973321,1188961676299944,5.5E-4,0.0116875,0.0099
1680008973325,1188961678802098,-0.001375,0.01265,0.0108624995
1680008973331,1188961681304219,-0.001375,0.0056375,0.0099
1680008973332,1188961683806372,-0.001375,0.010725,0.0099
1680008973335,1188961686308526,-0.0053625,0.010725,0.012925
1680008973337,1188961688809602,-0.001375,0.010725,0.0119624995
1680008973337,1188961691310681,-0.001375,0.0077,0.0119624995
1680008973339,1188961693814988,-0.001375,0.01265,0.0119624995
1680008973341,1188961696317147,-0.0023375,0.01265,0.0119624995
1680008973346,1188961698819300,-0.0023375,0.014712499,0.0119624995
1680008973347,1188961701321454,-0.001375,0.0116875,0.012925
1680008973349,1188961703823685,-4.125E-4,0.009625,0.0099
1680008973351,1188961706325757,0.00165,0.009625,0.00495
1680008973355,1188961708827911,5.5E-4,0.0067375,0.0089375
1680008973357,1188961711330065,-0.0023375,0.0116875,0.0099
1680008973360,1188961713832219,0.00165,0.01375,0.006875
1680008973362,1188961716334386,-4.125E-4,0.010725,0.007975
1680008973365,1188961718836617,-0.001375,0.004675,0.0108624995
1680008973368,1188961721338771,-0.0044,0.0077,0.0119624995
1680008973370,1188961723840848,-4.125E-4,0.01375,0.0099
1680008973372,1188961726342992,0.0026125,0.0077,0.0089375
1680008973375,1188961728845146,5.5E-4,0.0077,0.0119624995
1680008973377,1188961731347300,-4.125E-4,0.0037125,0.012925
1680008973379,1188961733849530,-0.0023375,0.0077,0.012925
1680008973381,1188961736351684,-0.001375,0.0056375,0.0149875
1680008973384,1188961738853848,-0.0044,0.00275,0.0138875
1680008973386,1188961741356002,-0.001375,0.0037125,0.012925
1680008973389,1188961743858079,-0.0023375,0.00275,0.0149875
1680008973393,1188961746360203,-0.0044,6.875E-4,0.0149875
1680008973395,1188961748862357,-0.001375,0.004675,0.0169125
1680008973397,1188961751364587,-4.125E-4,0.004675,0.018975
1680008973399,1188961753866741,-0.0023375,0.0037125,0.0169125
1680008973402,1188961756368895,-4.125E-4,0.00275,0.0199375
1680008973407,1188961758870938,-4.125E-4,0.00275,0.0209
1680008973408,1188961761373169,-0.0023375,0.00165,0.0169125
1680008973411,1188961763875323,-0.001375,-2.75E-4,0.018975
1680008973413,1188961766377399,-0.001375,-0.001375,0.0199375
1680008973415,1188961768879606,-0.0023375,-2.75E-4,0.0209
1680008973418,1188961771381760,-0.0044,6.875E-4,0.023924999
1680008973419,1188961773883914,-0.001375,0.00275,0.023924999
1680008973421,1188961776386068,-0.0044,-2.75E-4,0.0209
1680008973425,1188961778888270,-0.0044,-0.001375,0.0199375
1680008973428,1188961781390424,-0.0064625,0.004675,0.0209
1680008973431,1188961783892577,-0.0044,0.0067375,0.0199375
1680008973432,1188961786394731,-0.001375,0.0116875,0.0169125
1680008973435,1188961788896794,-0.0044,0.0067375,0.0218625
1680008973437,1188961791398948,-0.0023375,0.004675,0.018975
1680008973439,1188961793901410,-0.0044,0.0067375,0.018975
1680008973443,1188961796403333,-0.0023375,0.0077,0.0199375
1680008973446,1188961798905505,-0.001375,0.0067375,0.018975
1680008973448,1188961801407659,-0.0044,0.0077,0.0169125
1680008973451,1188961803909813,-0.0023375,0.009625,0.01595
1680008973452,1188961806411890,-0.0023375,0.0077,0.0169125
1680008973455,1188961808914121,-0.0044,0.0077,0.0169125
1680008973457,1188961811416265,-0.001375,0.009625,0.0169125
1680008973459,1188961813918419,-0.001375,0.0077,0.0169125
1680008973461,1188961816420572,-0.001375,0.0067375,0.01595
1680008973465,1188961818922726,0.0026125,0.009625,0.0169125
1680008973466,1188961821424880,0.0045375,0.0067375,0.018975
1680008973469,1188961823926943,-0.001375,0.0067375,0.01595
1680008973474,1188961826429174,-4.125E-4,0.0116875,0.0149875
1680008973475,1188961828931328,0.0026125,0.010725,0.0169125
1680008973477,1188961831433482,0.00165,0.0067375,0.0149875
1680008973483,1188961833935640,-4.125E-4,0.0077,0.01595
1680008973483,1188961836437794,5.5E-4,0.009625,0.0149875
1680008973486,1188961838939948,0.00165,0.009625,0.01595
1680008973487,1188961841442309,5.5E-4,0.00275,0.0199375
1680008973489,1188961843944232,-0.001375,0.00275,0.0218625
1680008973491,1188961846446386,-0.0023375,0.0037125,0.0169125
1680008973494,1188961848948540,-0.0053625,0.00275,0.0149875
1680008973497,1188961851450693,-0.001375,0.0067375,0.018975
1680008973499,1188961853952871,-4.125E-4,0.010725,0.0149875
1680008973501,1188961856455256,-0.001375,0.0056375,0.01595
1680008973504,1188961858957410,-0.0044,0.009625,0.0169125
1680008973506,1188961861459564,-0.001375,0.010725,0.0199375
1680008973509,1188961863961496,-0.0044,0.0067375,0.0209
1680008973511,1188961866463649,-0.0044,0.009625,0.0169125
1680008973514,1188961868965803,5.5E-4,0.01265,0.01595
1680008973518,1188961871467957,-0.0023375,0.0116875,0.018975
1680008973521,1188961873970342,-0.0023375,0.010725,0.018975
1680008973524,1188961876472496,-0.0023375,0.010725,0.018975
1680008973526,1188961878974650,-4.125E-4,0.0077,0.018975
1680008973528,1188961881476573,-4.125E-4,0.010725,0.0169125
1680008973532,1188961883978697,-0.0053625,0.01375,0.0169125
1680008973534,1188961886480851,-0.0023375,0.0067375,0.018975
1680008973537,1188961888982043,-0.0023375,0.0067375,0.0199375
1680008973537,1188961891483236,-0.0044,0.009625,0.018975
1680008973539,1188961893987544,-0.0044,0.0067375,0.0149875
1680008973541,1188961896489721,-0.0044,0.004675,0.0149875
1680008973544,1188961898991875,-0.0064625,0.0037125,0.0149875
1680008973546,1188961901493798,-0.0083875,0.0037125,0.01595
1680008973549,1188961903995952,-0.0064625,-2.75E-4,0.012925
1680008973551,1188961906498313,-0.0053625,-0.006325,0.01595
1680008973556,1188961909000467,-0.007425,-0.00825,0.0138875
1680008973558,1188961911502621,-0.007425,-0.0053625,0.0149875
1680008973559,1188961914004774,-0.007425,-0.006325,0.0138875
1680008973561,1188961916506953,-0.007425,-0.0072875,0.0119624995
1680008973564,1188961919009107,-0.007425,-0.00825,0.0169125
1680008973566,1188961921511261,-0.0064625,-0.0053625,0.0108624995
1680008973570,1188961924013415,-0.007425,-0.00935,0.012925
1680008973571,1188961926515568,-0.007425,-0.011275,0.01595
1680008973575,1188961929017722,-0.0064625,-0.006325,0.0169125
1680008973576,1188961931519875,-0.0053625,-0.0023375,0.0169125
1680008973579,1188961934022029,-0.007425,-0.0042625,0.01595
1680008973581,1188961936524212,-0.0023375,-0.0023375,0.0138875
1680008973585,1188961939026366,-0.0083875,0.00165,0.012925
1680008973586,1188961941528520,-0.0064625,-2.75E-4,0.0138875
1680008973589,1188961944030674,-0.0053625,0.00165,0.0169125
1680008973593,1188961946532809,-0.0064625,0.00165,0.01595
1680008973596,1188961949034962,-0.007425,-0.0023375,0.0149875
1680008973598,1188961951536885,-0.007425,-0.0023375,0.0169125
1680008973599,1188961954039347,-0.0044,6.875E-4,0.01595
1680008973601,1188961956541424,-0.0053625,0.0037125,0.018975
1680008973605,1188961959043578,-0.0023375,0.0037125,0.018975
1680008973606,1188961961545732,-0.001375,0.0037125,0.01595
1680008973610,1188961964047885,-0.007425,0.0056375,0.0169125
1680008973612,1188961966550039,-0.0064625,0.00275,0.01595
1680008973615,1188961969052174,-0.0023375,0.0037125,0.018975
1680008973617,1188961971554328,-0.001375,0.00275,0.018975
1680008973620,1188961974056482,-0.001375,0.004675,0.018975
1680008973621,1188961976558636,-0.0023375,0.004675,0.018975
1680008973625,1188961979060781,-0.0044,0.00165,0.0199375
1680008973627,1188961981562934,-0.0064625,0.004675,0.0209
1680008973631,1188961984065088,-0.0064625,0.0037125,0.0218625
1680008973633,1188961986567242,-0.0044,0.0077,0.018975
1680008973636,1188961989069405,-0.0023375,0.0077,0.01595
1680008973640,1188961991571559,-0.0023375,0.0056375,0.0209
1680008973642,1188961994073713,-0.0053625,0.0037125,0.0218625
1680008973642,1188961996575867,-0.0044,0.009625,0.0199375
1680008973645,1188961999078020,-0.0053625,0.010725,0.0199375
1680008973646,1188962001580247,-0.0044,0.01265,0.0209
1680008973650,1188962004082401,-0.0023375,0.0166375,0.0209
1680008973651,1188962006584478,-0.0044,0.01375,0.018975
1680008973654,1188962009086632,-0.0023375,0.0116875,0.018975
1680008973657,1188962011588814,-0.001375,0.015675,0.0199375
1680008973659,1188962014090968,-0.0023375,0.01375,0.0199375
1680008973662,1188962016593121,-0.0053625,0.01375,0.01595
1680008973665,1188962019095275,-0.0023375,0.010725,0.01595
1680008973668,1188962021597410,-4.125E-4,0.014712499,0.01595
1680008973670,1188962024099564,-4.125E-4,0.0116875,0.01595
1680008973672,1188962026601718,0.0026125,0.0067375,0.012925
1680008973677,1188962029103949,0.0026125,0.0116875,0.012925
1680008973678,1188962031606102,-4.125E-4,0.009625,0.0119624995
1680008973679,1188962034108232,0.00165,0.0067375,0.0119624995
1680008973682,1188962036610309,0.0026125,0.0056375,0.012925
1680008973684,1188962039112463,0.00165,0.0077,0.0149875
1680008973687,1188962041614617,5.5E-4,0.0037125,0.012925
1680008973690,1188962044116858,0.00165,0.0037125,0.012925
1680008973692,1188962046619012,0.0026125,0.0056375,0.01595
1680008973695,1188962049121165,5.5E-4,0.0056375,0.0169125
1680008973697,1188962051623319,5.5E-4,0.0037125,0.0199375
1680008973699,1188962054125396,5.5E-4,0.0077,0.0199375
1680008973704,1188962056627536,0.00165,0.0056375,0.018975
1680008973707,1188962059129767,5.5E-4,0.00275,0.0199375
1680008973708,1188962061631921,0.00165,0.00165,0.0229625
1680008973710,1188962064134074,0.00165,0.0037125,0.0218625
1680008973712,1188962066636228,5.5E-4,0.0077,0.0218625
1680008973715,1188962069138382,-0.001375,0.0067375,0.0199375
1680008973717,1188962071640536,0.003575,0.0067375,0.0218625
1680008973719,1188962074142613,0.0045375,0.0067375,0.0209
1680008973724,1188962076644844,5.5E-4,0.009625,0.0209
1680008973726,1188962079147007,0.00165,0.0116875,0.0209
1680008973727,1188962081649160,0.0026125,0.01265,0.0169125
1680008973733,1188962084151314,0.003575,0.01375,0.018975
1680008973734,1188962086653468,0.0066,0.015675,0.01595
1680008973736,1188962089155597,0.0086624995,0.014712499,0.01595
1680008973737,1188962091657982,0.0075625,0.0177375,0.0169125
1680008973739,1188962094159905,0.003575,0.014712499,0.0138875
1680008973744,1188962096662059,0.003575,0.014712499,0.012925
1680008973746,1188962099164236,0.0045375,0.0166375,0.0138875
1680008973748,1188962101666313,0.0056375,0.014712499,0.012925
1680008973750,1188962104168544,0.0045375,0.015675,0.012925
1680008973752,1188962106670621,0.0075625,0.0177375,0.012925
1680008973754,1188962109172852,0.0056375,0.014712499,0.012925
1680008973757,1188962111675021,0.0026125,0.0166375,0.0149875
1680008973760,1188962114177175,0.0026125,0.014712499,0.0138875
1680008973762,1188962116679328,0.0045375,0.01265,0.0169125
1680008973766,1188962119181482,0.0066,0.01375,0.01595
1680008973767,1188962121683559,0.0075625,0.01375,0.01595
1680008973770,1188962124185790,0.0056375,0.01265,0.0209
1680008973772,1188962126687944,0.0045375,0.014712499,0.0229625
1680008973774,1188962129190098,0.0026125,0.009625,0.0229625
1680008973777,1188962131692265,0.0026125,0.004675,0.0209
1680008973781,1188962134194419,0.0026125,0.0067375,0.023924999
1680008973783,1188962136696573,0.0026125,0.0056375,0.0229625
1680008973786,1188962139198958,0.00165,0.004675,0.0229625
1680008973787,1188962141700862,0.003575,0.004675,0.023924999
1680008973789,1188962144203016,0.0056375,0.0037125,0.023924999
1680008973792,1188962146705170,0.0056375,0.0077,0.023924999
1680008973795,1188962149207323,0.0056375,0.010725,0.0259875
1680008973798,1188962151709477,0.003575,0.01265,0.023924999
1680008973799,1188962154211679,0.0045375,0.0116875,0.0229625
1680008973804,1188962156714064,0.0026125,0.0116875,0.0229625
1680008973806,1188962159215987,0.00165,0.01375,0.0218625
1680008973807,1188962161718141,0.0045375,0.01375,0.0209
1680008973814,1188962164220266,0.0045375,0.014712499,0.0209
1680008973815,1188962166722419,-0.0023375,0.014712499,0.0218625
1680008973817,1188962169224573,-0.001375,0.015675,0.0199375
1680008973818,1188962171726958,-0.001375,0.014712499,0.0209
1680008973820,1188962174229112,-0.0053625,0.0177375,0.0169125
1680008973822,1188962176731256,-0.0023375,0.0187,0.0199375
1680008973825,1188962179233179,-0.001375,0.020624999,0.0199375
1680008973828,1188962181735333,-0.0023375,0.0187,0.0229625
1680008973832,1188962184237462,-0.0023375,0.020624999,0.023924999
1680008973834,1188962186739616,-0.0023375,0.0226875,0.0229625
1680008973835,1188962189242001,-0.0044,0.020624999,0.0218625
1680008973838,1188962191744155,-0.001375,0.020624999,0.023924999
1680008973840,1188962194246309,-0.0023375,0.021724999,0.0248875
1680008973841,1188962196748232,-0.0053625,0.02365,0.0248875
1680008973844,1188962199250391,-0.0023375,0.02475,0.02695
1680008973849,1188962201752544,-0.0064625,0.02365,0.02695
1680008973851,1188962204254929,-0.0023375,0.021724999,0.02695
1680008973853,1188962206757083,-4.125E-4,0.0287375,0.0259875
1680008973858,1188962209259251,0.00165,0.026675,0.0259875
1680008973859,1188962211761405,0.00165,0.02475,0.02695
1680008973861,1188962214263558,0.003575,0.02475,0.0248875
1680008973863,1188962216765481,0.00165,0.02365,0.023924999
1680008973865,1188962219267626,0.0026125,0.0226875,0.029975
1680008973867,1188962221770011,5.5E-4,0.0196625,0.02695
1680008973869,1188962224272165,5.5E-4,0.0177375,0.028875
1680008973872,1188962226774319,-0.0044,0.0177375,0.0259875
1680008973875,1188962229276473,0.0026125,0.0116875,0.0259875
1680008973877,1188962231778645,0.003575,0.0077,0.02695
1680008973880,1188962234280799,0.003575,0.0077,0.028875
1680008973882,1188962236782953,0.0045375,0.0037125,0.028875
1680008973885,1188962239285107,0.0026125,6.875E-4,0.0279125
1680008973887,1188962241787237,0.003575,0.0037125,0.0319
1680008973890,1188962244289391,0.003575,-0.001375,0.0319
1680008973893,1188962246791544,0.0045375,6.875E-4,0.0319
1680008973896,1188962249293468,0.0066,-2.75E-4,0.0309375
1680008973898,1188962251795919,0.003575,-0.0053625,0.0319
1680008973900,1188962254297996,0.003575,-0.001375,0.0328625
1680008973902,1188962256800150,0.003575,-2.75E-4,0.0369875
1680008973904,1188962259302304,0.0026125,-0.0033,0.0369875
1680008973906,1188962261804458,0.0026125,-0.001375,0.0369875
1680008973909,1188962264306411,-0.001375,-0.0033,0.040975
1680008973912,1188962266808565,-0.0044,-0.0023375,0.0419375
1680008973915,1188962269310949,-0.0083875,-0.0033,0.0419375
1680008973917,1188962271813103,-0.0083875,-0.0053625,0.040975
1680008973919,1188962274315262,-0.0083875,-0.00825,0.0438625
1680008973921,1188962276817416,-0.0133375,-0.0072875,0.0449625
1680008973924,1188962279319570,-0.0133375,-0.006325,0.045925
1680008973927,1188962281821723,-0.0163625,-0.0042625,0.04895
1680008973932,1188962284323876,-0.0154,-0.006325,0.0438625
1680008973934,1188962286826030,-0.0144375,-0.0023375,0.0438625
1680008973936,1188962289328184,-0.0163625,-0.0033,0.045925
1680008973938,1188962291830338,-0.0174625,-0.0033,0.0438625
1680008973940,1188962294332569,-0.018424999,-0.001375,0.0438625
1680008973941,1188962296834727,-0.018424999,-2.75E-4,0.0449625
1680008973945,1188962299336804,-0.0193875,6.875E-4,0.0429
1680008973947,1188962301838958,-0.018424999,0.00165,0.0429
1680008973950,1188962304341112,-0.02035,0.00165,0.0438625
1680008973952,1188962306843261,-0.0163625,0.004675,0.0419375
1680008973956,1188962309345415,-0.0163625,0.0056375,0.0429
1680008973958,1188962311847646,-0.0163625,0.004675,0.03795
1680008973962,1188962314349799,-0.0133375,0.0037125,0.039875
1680008973965,1188962316851920,-0.0144375,0.004675,0.03795
1680008973967,1188962319354074,-0.0114124995,0.009625,0.039875
1680008973968,1188962321856228,-0.0114124995,0.009625,0.039875
1680008973971,1188962324358382,-0.00935,0.010725,0.03795
1680008973973,1188962326860594,-0.012375,0.010725,0.0369875
1680008973975,1188962329362748,-0.01045,0.01375,0.0339625
1680008973977,1188962331864901,-0.0083875,0.014712499,0.0328625
1680008973979,1188962334367055,-0.007425,0.01265,0.0319
1680008973982,1188962336869132,-0.00935,0.014712499,0.0309375
1680008973985,1188962339371314,-0.0083875,0.0177375,0.028875
1680008973987,1188962341873468,-0.007425,0.014712499,0.028875
1680008973989,1188962344375699,-0.007425,0.0177375,0.0319
1680008973992,1188962346877852,-0.007425,0.0196625,0.0259875
1680008973996,1188962349380020,-0.0064625,0.0166375,0.0248875
1680008973998,1188962351882174,-0.0083875,0.014712499,0.0259875
1680008973999,1188962354384328,-0.00935,0.01375,0.02695
1680008974002,1188962356886405,-0.0083875,0.014712499,0.02695
1680008974006,1188962359388636,-0.00935,0.01375,0.023924999
1680008974008,1188962361890790,-0.0064625,0.010725,0.0229625
1680008974010,1188962364392943,-0.0053625,0.010725,0.0248875
1680008974012,1188962366895097,-0.01045,0.0067375,0.0248875
1680008974015,1188962369397174,-0.0064625,0.0067375,0.023924999
1680008974017,1188962371899419,-0.0083875,0.009625,0.02695
1680008974019,1188962374401573,-0.0083875,0.0067375,0.0248875
1680008974023,1188962376903727,-0.00935,0.0077,0.0248875
1680008974025,1188962379405881,-0.007425,0.009625,0.0259875
1680008974029,1188962381908034,-0.007425,0.004675,0.0248875
1680008974031,1188962384410111,-0.0044,0.0056375,0.0248875
1680008974032,1188962386912265,-0.0044,0.0077,0.023924999
1680008974035,1188962389414419,-0.0023375,0.0037125,0.02695
1680008974037,1188962391916881,-0.0023375,0.004675,0.029975
1680008974039,1188962394418823,-0.0044,0.0067375,0.0248875
1680008974043,1188962396920977,0.00165,0.004675,0.0199375
1680008974048,1188962399423130,-0.001375,0.00275,0.0218625
1680008974049,1188962401925284,-0.0023375,0.00275,0.0248875
1680008974051,1188962404427366,-0.001375,0.00165,0.0218625
1680008974052,1188962406929597,-0.007425,-0.001375,0.0229625
1680008974055,1188962409431751,-0.0083875,-0.0023375,0.0218625
1680008974057,1188962411933905,-0.0053625,-0.0053625,0.0199375
1680008974059,1188962414436058,-0.0083875,-0.0033,0.0218625
1680008974063,1188962416938241,-0.01045,-0.0042625,0.023924999
1680008974065,1188962419440395,-0.012375,-0.0042625,0.0229625
1680008974067,1188962421942472,-0.012375,-0.0072875,0.0229625
1680008974069,1188962424444703,-0.0133375,-0.0103124995,0.0229625
1680008974074,1188962426946881,-0.0144375,-0.0103124995,0.023924999
1680008974075,1188962429449035,-0.0144375,-0.0072875,0.023924999
1680008974077,1188962431951188,-0.01045,-0.011275,0.0218625
1680008974082,1188962434453362,-0.0133375,-0.0143,0.0229625
1680008974083,1188962436955516,-0.0144375,-0.0143,0.0218625
1680008974085,1188962439457901,-0.0144375,-0.012375,0.0248875
1680008974087,1188962441959824,-0.012375,-0.0143,0.0209
1680008974092,1188962444461978,-0.0114124995,-0.011275,0.0209
1680008974093,1188962446964123,-0.007425,-0.0103124995,0.0209
1680008974095,1188962449466276,-0.00935,-0.00935,0.0229625
1680008974097,1188962451968430,-0.01045,-0.0053625,0.0199375
1680008974100,1188962454470815,-0.0083875,-0.0023375,0.0169125
1680008974103,1188962456972969,-0.0083875,0.00275,0.0169125
1680008974108,1188962459475118,-0.0083875,0.0037125,0.0199375
1680008974108,1188962461977041,-0.007425,6.875E-4,0.01595
1680008974110,1188962464479195,-0.0083875,0.00275,0.01595
1680008974112,1188962466981348,-0.007425,0.004675,0.0209
1680008974115,1188962469483507,-0.0083875,0.0037125,0.018975
1680008974118,1188962471985892,-0.007425,0.0056375,0.0199375
1680008974120,1188962474488046,-0.0053625,0.0077,0.0209
1680008974122,1188962476990200,-0.0023375,0.010725,0.0199375
1680008974125,1188962479492137,-0.0053625,0.010725,0.018975
1680008974127,1188962481994290,-0.0044,0.015675,0.0218625
1680008974131,1188962484496444,-0.001375,0.0116875,0.0209
1680008974132,1188962486998829,-4.125E-4,0.01265,0.0199375
1680008974135,1188962489500983,-4.125E-4,0.0177375,0.018975
1680008974137,1188962492003137,0.003575,0.0196625,0.0169125
1680008974139,1188962494505291,-4.125E-4,0.0177375,0.018975
1680008974143,1188962497007444,-0.0023375,0.0166375,0.0169125
1680008974145,1188962499509367,-0.001375,0.0196625,0.0209
1680008974148,1188962502011521,-4.125E-4,0.014712499,0.012925
1680008974150,1188962504513906,-0.0023375,0.0177375,0.0119624995
1680008974152,1188962507016060,0.0026125,0.020624999,0.0169125
1680008974157,1188962509518219,0.003575,0.0226875,0.0149875
1680008974159,1188962512020372,5.5E-4,0.0187,0.0138875
1680008974160,1188962514522526,0.00165,0.0226875,0.0108624995
1680008974162,1188962517024449,0.00165,0.021724999,0.012925
1680008974165,1188962519526834,0.003575,0.0276375,0.0119624995
1680008974167,1188962522028988,0.003575,0.021724999,0.007975
1680008974172,1188962524531113,0.0066,0.02365,0.006875
1680008974173,1188962527033267,0.0066,0.02475,0.0059125
1680008974177,1188962529535190,0.0056375,0.02365,0.006875
1680008974178,1188962532037344,0.0066,0.02365,0.0039875
1680008974182,1188962534539728,0.0066,0.0226875,0.0059125
1680008974182,1188962537041891,0.0045375,0.02365,0.00495
1680008974185,1188962539544045,0.0026125,0.020624999,0.001925
1680008974187,1188962542046199,0.00165,0.0196625,0.0059125
1680008974189,1188962544548353,0.00165,0.0196625,0.0059125
1680008974195,1188962547050238,-0.001375,0.0177375,0.0059125
1680008974198,1188962549552391,-0.001375,0.01375,0.0059125
1680008974198,1188962552054776,-0.001375,0.01265,0.00495
1680008974200,1188962554556930,-0.0064625,0.009625,0.007975
1680008974202,1188962557058853,-0.0053625,0.0077,0.0099
1680008974205,1188962559561002,-0.001375,0.004675,0.007975
1680008974207,1188962562063387,-4.125E-4,0.0077,0.007975
1680008974210,1188962564565540,-0.0064625,0.0056375,0.007975
1680008974212,1188962567067694,-0.007425,0.00275,0.007975
1680008974215,1188962569569829,-0.0064625,-0.001375,0.0089375
1680008974217,1188962572071983,-0.0064625,0.00165,0.006875
1680008974222,1188962574574137,-0.007425,-2.75E-4,0.006875
1680008974223,1188962577076291,-0.0064625,-0.0033,0.007975
1680008974228,1188962579578415,-0.0064625,-0.0042625,0.0059125
1680008974229,1188962582080569,-0.002475,-2.75E-4,0.0059125
1680008974232,1188962584582723,-0.0053625,-0.0023375,-1.375E-4
1680008974236,1188962587083799,-0.0053625,-0.0023375,9.625E-4
1680008974236,1188962589584878,-0.001375,-0.0033,9.625E-4
1680008974238,1188962592089166,-4.125E-4,-2.75E-4,-0.0020625
1680008974240,1188962594591320,-0.001375,0.00165,-0.0020625
1680008974242,1188962597093473,-0.002475,-0.001375,-0.0020625
1680008974245,1188962599595627,-0.002475,-0.0033,-0.004125
1680008974247,1188962602097781,-0.002475,0.00165,-0.004125
1680008974250,1188962604599901,-0.001375,0.00275,-0.0050875
1680008974252,1188962607102055,-0.0053625,0.00275,-0.0050875
1680008974255,1188962609604286,-0.0053625,0.004675,-0.00605
1680008974257,1188962612106439,-0.0044,0.0056375,-0.00605
1680008974260,1188962614608516,-0.001375,0.004675,-0.004125
1680008974262,1188962617110656,-0.001375,0.0067375,-0.00605
1680008974264,1188962619612810,-0.001375,0.010725,-0.00605
1680008974269,1188962622114964,-4.125E-4,0.009625,-0.00605
1680008974270,1188962624617118,0.00165,0.0056375,-0.004125
1680008974272,1188962627119334,0.00165,6.875E-4,-0.00605
1680008974275,1188962629621487,0.0026125,0.004675,-0.0081124995
1680008974277,1188962632123641,0.0026125,0.0077,-0.0081124995
1680008974279,1188962634625718,0.003575,0.004675,-0.0081124995
1680008974282,1188962637127872,0.00165,0.00275,-0.0100375
1680008974285,1188962639630016,0.0026125,0.00275,-0.0111375
1680008974287,1188962642132247,0.00165,0.00275,-0.0111375
1680008974290,1188962644634401,5.5E-4,0.0037125,-0.0121
1680008974292,1188962647136554,5.5E-4,6.875E-4,-0.013062499
1680008974295,1188962649638713,-0.001375,-0.006325,-0.0160875
1680008974296,1188962652140790,5.5E-4,-0.006325,-0.0180125
1680008974301,1188962654642944,0.00165,-0.006325,-0.0180125
1680008974302,1188962657145098,0.0045375,-0.006325,-0.0180125
1680008974306,1188962659647320,0.0056375,-0.0023375,-0.0210375
1680008974308,1188962662149474,0.0056375,-0.0033,-0.020075
1680008974310,1188962664651627,0.0075625,-0.0042625,-0.0191125
1680008974312,1188962667153704,0.003575,-2.75E-4,-0.0191125
1680008974314,1188962669655814,0.0045375,-0.0033,-0.0191125
1680008974317,1188962672157968,0.0045375,-0.0053625,-0.0221375
1680008974319,1188962674660199,0.0045375,-0.0042625,-0.0210375
1680008974322,1188962677162353,0.0045375,-0.0053625,-0.0191125
1680008974327,1188962679664511,-0.001375,-0.001375,-0.0221375
1680008974329,1188962682166665,-4.125E-4,-0.0023375,-0.026124999
1680008974332,1188962684668742,-4.125E-4,6.875E-4,-0.020075
1680008974333,1188962687170896,-0.002475,-0.0033,-0.0191125
1680008974336,1188962689673113,-0.0053625,-0.0033,-0.020075
1680008974338,1188962692175267,-0.001375,-0.0053625,-0.0231
1680008974340,1188962694677421,-0.001375,-0.0072875,-0.0231
1680008974343,1188962697179574,-0.002475,-0.0072875,-0.020075
1680008974345,1188962699681670,-0.002475,-0.0103124995,-0.0191125
1680008974347,1188962702183824,-0.001375,-0.0072875,-0.01705
1680008974349,1188962704685978,-4.125E-4,-0.0072875,-0.015125
1680008974352,1188962707188209,-0.001375,-0.0103124995,-0.0191125
1680008974355,1188962709690377,-0.001375,-0.00935,-0.020075
1680008974357,1188962712192531,-4.125E-4,-0.0053625,-0.0210375
1680008974359,1188962714694684,0.00165,-0.001375,-0.0180125
1680008974362,1188962717196838,0.0026125,-0.0042625,-0.0191125
1680008974365,1188962719698944,0.0026125,-0.006325,-0.020075
1680008974367,1188962722201175,-0.001375,-0.0023375,-0.020075
1680008974370,1188962724703329,-0.002475,-2.75E-4,-0.0221375
1680008974373,1188962727205483,0.003575,-0.001375,-0.020075
1680008974375,1188962729707637,0.00165,0.00165,-0.0210375
1680008974377,1188962732209790,-0.0064625,0.004675,-0.0221375
1680008974381,1188962734711944,-0.0044,0.0037125,-0.0210375
1680008974383,1188962737214098,5.5E-4,6.875E-4,-0.0221375
1680008974385,1188962739716257,-0.001375,0.004675,-0.0231
1680008974387,1188962742218411,-0.001375,0.0056375,-0.0240625
1680008974389,1188962744720565,-4.125E-4,0.0077,-0.026124999
1680008974392,1188962747222719,-4.125E-4,0.0077,-0.0221375
1680008974395,1188962749724872,5.5E-4,0.0116875,-0.0231
1680008974397,1188962752227079,0.00165,0.0116875,-0.0240625
1680008974399,1188962754729464,0.00165,0.009625,-0.0240625
1680008974402,1188962757231387,0.0026125,0.0037125,-0.0240625
1680008974405,1188962759733541,5.5E-4,0.004675,-0.025024999
1680008974407,1188962762235699,-0.002475,0.004675,-0.0240625
1680008974410,1188962764737852,-0.0044,0.00165,-0.025024999
1680008974412,1188962767240006,-0.002475,-0.0023375,-0.0270875
1680008974416,1188962769742391,-0.001375,-0.0023375,-0.0270875
1680008974419,1188962772244531,-0.002475,-0.00825,-0.025024999
1680008974421,1188962774746685,-4.125E-4,-0.0042625,-0.025024999
1680008974423,1188962777248608,-0.002475,-0.0072875,-0.026124999
1680008974425,1188962779750762,-0.0053625,-0.0072875,-0.026124999
1680008974428,1188962782252915,-0.002475,-0.0042625,-0.026124999
1680008974430,1188962784755083,-0.001375,-0.0103124995,-0.025024999
1680008974432,1188962787257468,-0.001375,-0.012375,-0.0240625
1680008974435,1188962789759622,-0.0044,-0.012375,-0.025024999
1680008974437,1188962792261776,-0.007425,-0.011275,-0.025024999
1680008974440,1188962794763714,-0.0064625,-0.0103124995,-0.0240625
1680008974442,1188962797265868,-0.007425,-0.011275,-0.0221375
1680008974445,1188962799768021,-0.0083875,-0.0103124995,-0.0210375
1680008974448,1188962802270406,-0.00935,-0.00935,-0.0191125
1680008974450,1188962804772348,-0.0083875,-0.012375,-0.0180125
1680008974452,1188962807274502,-0.0083875,-0.00935,-0.01705
1680008974456,1188962809776656,-0.00935,-0.006325,-0.0191125
1680008974459,1188962812278810,-0.013475,-0.006325,-0.0160875
1680008974460,1188962814780964,-0.00935,-0.006325,-0.015125
1680008974462,1188962817283093,-0.01045,-0.0033,-0.0160875
1680008974465,1188962819785478,-0.01045,6.875E-4,-0.015125
1680008974467,1188962822287401,-0.012375,0.00275,-0.015125
1680008974470,1188962824789555,-0.00935,6.875E-4,-0.013062499
1680008974472,1188962827291709,-0.01045,0.00165,-0.013062499
1680008974475,1188962829794088,-0.012375,0.0037125,-0.013062499
1680008974477,1188962832296242,-0.01045,0.004675,-0.013062499
1680008974481,1188962834798396,-0.007425,0.009625,-0.0121
1680008974482,1188962837300550,-0.01045,0.0067375,-0.013062499
1680008974485,1188962839802507,-0.00935,0.010725,-0.0111375
1680008974487,1188962842304661,-0.0083875,0.0177375,-0.0121
1680008974490,1188962844807046,-0.0083875,0.014712499,-0.0121
1680008974494,1188962847309194,-0.0083875,0.01375,-0.009075
1680008974496,1188962849811348,-0.0083875,0.009625,-0.009075
1680008974498,1188962852313502,-0.007425,0.01265,-0.009075
1680008974500,1188962854815656,-0.01045,0.0116875,-0.0100375
1680008974502,1188962857317579,-0.0083875,0.0067375,-0.009075
1680008974505,1188962859819709,-0.01045,0.004675,-0.009075
1680008974507,1188962862322093,-0.01045,0.0077,-0.009075
1680008974510,1188962864824247,-0.012375,0.009625,-0.0081124995
1680008974512,1188962867326401,-0.0083875,0.0077,-0.009075
1680008974515,1188962869828565,-0.0114124995,0.0037125,-0.009075
1680008974517,1188962872330719,-0.013475,0.0077,-0.009075
1680008974521,1188962874832873,-0.01045,0.0077,-0.009075
1680008974523,1188962877335027,-0.0144375,0.0116875,-0.0070125
1680008974525,1188962879837170,-0.013475,0.010725,-0.0100375
1680008974527,1188962882339324,-0.0114124995,0.01265,-0.0100375
1680008974532,1188962884841478,-0.01045,0.014712499,-0.0100375
1680008974535,1188962887343632,-0.0114124995,0.01265,-0.0081124995
1680008974537,1188962889845800,-0.01045,0.014712499,-0.0081124995
1680008974538,1188962892348031,-0.00935,0.015675,-0.009075
1680008974540,1188962894850184,-0.01045,0.0187,-0.009075
1680008974542,1188962897352261,-0.00935,0.0187,-0.00605
1680008974545,1188962899854415,-0.0114124995,0.0196625,-0.003025
1680008974548,1188962902356574,-0.013475,0.0166375,-0.0050875
1680008974550,1188962904858728,-0.0144375,0.0166375,-0.00605
1680008974552,1188962907360882,-0.013475,0.0166375,-0.00605
1680008974555,1188962909863113,-0.013475,0.0187,-0.004125
1680008974557,1188962912365271,-0.012375,0.0196625,-0.0020625
1680008974560,1188962914867348,-0.007425,0.015675,-0.003025
1680008974562,1188962917369502,-0.01045,0.020624999,-0.0020625
1680008974565,1188962919871656,-0.0064625,0.0226875,-0.0020625
1680008974568,1188962922373762,-0.0064625,0.0226875,-0.0011
1680008974571,1188962924875993,-0.0044,0.0226875,-0.0020625
1680008974574,1188962927378147,-0.001375,0.02365,-1.375E-4
1680008974577,1188962929880223,-0.0044,0.0276375,-0.0020625
1680008974578,1188962932382454,-0.002475,0.02475,-0.0011
1680008974581,1188962934884521,-0.001375,0.0276375,0.001925
1680008974582,1188962937386675,-0.002475,0.026675,-0.0011
1680008974585,1188962939888829,-0.001375,0.026675,9.625E-4
1680008974587,1188962942391060,-0.0044,0.0226875,-1.375E-4
1680008974590,1188962944893234,-0.0053625,0.0177375,9.625E-4
1680008974592,1188962947395310,-0.0064625,0.0177375,9.625E-4
1680008974595,1188962949897464,-0.007425,0.0166375,-0.0011
1680008974598,1188962952399618,-0.00935,0.01265,-0.0020625
1680008974599,1188962954901752,-0.0083875,0.01265,-1.375E-4
1680008974602,1188962957403983,-0.00935,0.0077,0.0028875
1680008974606,1188962959906137,-0.012375,0.0056375,9.625E-4
1680008974608,1188962962408214,-0.012375,0.00275,-0.0011
1680008974611,1188962964910343,-0.0083875,-0.0023375,-1.375E-4
1680008974614,1188962967412497,-0.012375,-0.0033,9.625E-4
1680008974616,1188962969914651,-0.0154,-0.0053625,-1.375E-4
1680008974618,1188962972416882,-0.0144375,-0.0053625,-0.0020625
1680008974620,1188962974919036,-0.0154,-0.006325,-0.0011
1680008974622,1188962977421185,-0.018424999,-0.00935,-0.004125
1680008974626,1188962979923338,-0.018424999,-0.011275,-0.003025
1680008974628,1188962982425415,-0.018424999,-0.012375,-0.0011
1680008974631,1188962984927569,-0.0193875,-0.0103124995,-0.004125
1680008974632,1188962987429738,-0.018424999,-0.0133375,-0.003025
1680008974635,1188962989931969,-0.0193875,-0.0143,-0.004125
1680008974637,1188962992434123,-0.02145,-0.0133375,-0.004125
1680008974639,1188962994936277,-0.023375,-0.015262499,-0.003025
1680008974643,1188962997438434,-0.0254375,-0.0163625,-0.004125
1680008974646,1188962999940588,-0.023375,-0.015262499,-0.004125
1680008974648,1188963002442665,-0.0264,-0.015262499,-0.0011
1680008974650,1188963004944896,-0.0273625,-0.015262499,-0.0020625
1680008974653,1188963007447050,-0.0264,-0.0133375,-0.0050875
1680008974655,1188963009949200,-0.0264,-0.012375,-0.00605
1680008974657,1188963012451354,-0.0273625,-0.012375,-0.0050875
1680008974659,1188963014953507,-0.0284625,-0.011275,-0.0050875
1680008974662,1188963017455661,-0.0254375,-0.012375,-0.003025
1680008974664,1188963019957733,-0.0303875,-0.0072875,-0.003025
1680008974667,1188963022459964,-0.0273625,-0.0042625,-0.004125
1680008974669,1188963024962118,-0.0264,-0.00825,-0.0081124995
1680008974672,1188963027464272,-0.0254375,-0.0072875,-0.0100375
1680008974674,1188963029966425,-0.024475,-0.006325,-0.0081124995
1680008974677,1188963032468617,-0.0224125,-0.0072875,-0.009075
1680008974681,1188963034970771,-0.0254375,-0.006325,-0.0111375
1680008974683,1188963037473156,-0.024475,-0.00825,-0.0100375
1680008974686,1188963039975079,-0.024475,-0.00935,-0.0070125
1680008974687,1188963042477233,-0.0224125,-0.00825,-0.0081124995
1680008974690,1188963044979387,-0.02035,-0.0053625,-0.0111375
1680008974692,1188963047481540,-0.023375,-0.00935,-0.0121
1680008974695,1188963049983694,-0.02035,-0.0042625,-0.009075
1680008974698,1188963052485834,-0.0193875,-2.75E-4,-0.013062499
1680008974700,1188963054988219,-0.018424999,0.00165,-0.009075
1680008974702,1188963057490373,-0.0174625,0.00165,-0.0081124995
1680008974705,1188963059992296,-0.0163625,-0.0023375,-0.0070125
1680008974708,1188963062494459,-0.0163625,6.875E-4,-0.004125
1680008974710,1188963064996612,-0.0163625,0.0116875,-0.0081124995
1680008974712,1188963067498766,-0.0133375,0.010725,-0.0070125
1680008974715,1188963070001151,-0.0144375,0.0116875,-0.0070125
1680008974719,1188963072503300,-0.012375,0.015675,-0.0020625
1680008974721,1188963075005454,-0.00935,0.015675,-0.0011
1680008974724,1188963077507377,-0.01045,0.014712499,-0.0050875
1680008974726,1188963080009531,-0.01045,0.0166375,-0.0070125
1680008974729,1188963082511684,-0.0053625,0.0177375,-0.0020625
1680008974733,1188963085014060,-0.007425,0.015675,-0.0020625
1680008974733,1188963087515983,-0.0083875,0.014712499,-0.004125
1680008974735,1188963090018137,-0.00935,0.0166375,-0.0011
1680008974737,1188963092520291,-0.0083875,0.014712499,9.625E-4
1680008974739,1188963095022675,-0.00935,0.01375,-0.004125
1680008974742,1188963097524631,-0.01045,0.014712499,-0.0020625
1680008974745,1188963100026785,-0.0083875,0.01375,-0.0011
1680008974747,1188963102528939,-0.00935,0.01375,9.625E-4
1680008974750,1188963105031093,-0.01045,0.01375,0.001925
1680008974752,1188963107533247,-0.00935,0.0056375,9.625E-4
1680008974756,1188963110035410,-0.0114124995,0.0056375,-1.375E-4
1680008974758,1188963112537794,-0.01045,0.0077,-0.0020625
1680008974760,1188963115039948,-0.01045,0.0067375,-1.375E-4
1680008974762,1188963117541885,-0.0083875,0.0077,9.625E-4
1680008974765,1188963120044039,-0.0064625,0.009625,-0.0011
1680008974767,1188963122546193,-0.0114124995,0.009625,-1.375E-4
1680008974771,1188963125048347,-0.0114124995,0.0077,-0.003025
1680008974772,1188963127550731,-0.00935,0.0067375,-0.004125
1680008974775,1188963130052880,-0.007425,0.0056375,-0.003025
1680008974777,1188963132555034,-0.01045,0.0067375,-0.004125
1680008974780,1188963135056957,-0.0114124995,0.0037125,-0.003025
1680008974782,1188963137559111,-0.0114124995,6.875E-4,-0.0050875
1680008974785,1188963140061285,-0.0114124995,0.00275,-0.0081124995
1680008974787,1188963142563439,-0.012375,0.0037125,-0.00605
1680008974790,1188963145065823,-0.0154,-2.75E-4,-0.0050875
1680008974794,1188963147567977,-0.0174625,-0.0023375,-0.0050875
1680008974796,1188963150070131,-0.0154,-0.001375,-0.003025
1680008974798,1188963152572285,-0.0144375,0.00165,-0.003025
1680008974800,1188963155074208,-0.0163625,0.00165,-0.004125
1680008974802,1188963157576362,-0.018424999,-0.001375,-0.0070125
1680008974805,1188963160078732,-0.018424999,-0.001375,-0.009075
1680008974807,1188963162580885,-0.018424999,6.875E-4,-0.0050875
1680008974810,1188963165083039,-0.0154,0.0037125,-0.0050875
1680008974812,1188963167585193,-0.0154,0.004675,-0.0070125
1680008974815,1188963170087357,-0.0154,6.875E-4,-0.0081124995
1680008974817,1188963172589511,-0.0133375,0.00275,-0.00605
1680008974819,1188963175091434,-0.0114124995,0.00165,-0.00605
1680008974822,1188963177593819,-0.0114124995,0.009625,-0.0070125
1680008974825,1188963180095977,-0.012375,0.0067375,-0.0070125
1680008974827,1188963182598131,-0.0114124995,0.0037125,-0.00605
1680008974833,1188963185100285,-0.01045,0.0067375,-0.009075
1680008974835,1188963187602439,-0.00935,0.0056375,-0.0100375
1680008974837,1188963190104597,-0.01045,0.0056375,-0.00605
1680008974841,1188963192606751,-0.01045,0.0077,-0.00605
1680008974842,1188963195108904,-0.012375,0.0077,-0.0050875
1680008974843,1188963197611058,-0.00935,0.004675,-0.00605
1680008974845,1188963200113212,-0.007425,0.009625,-0.0050875
1680008974848,1188963202615366,-0.007425,0.009625,-0.004125
1680008974851,1188963205117289,-0.01045,0.0077,-0.0050875
1680008974854,1188963207619674,-0.01045,0.010725,-0.0050875
1680008974855,1188963210121828,-0.0064625,0.0067375,-0.0020625
1680008974858,1188963212623981,-0.00935,0.0067375,-0.0020625
1680008974860,1188963215126136,-0.0083875,0.0077,-0.004125
1680008974862,1188963217628290,-0.00935,0.0077,-0.003025
1680008974866,1188963220130444,-0.01045,0.0116875,-0.0050875
1680008974869,1188963222632598,-0.007425,0.0067375,-0.004125
1680008974871,1188963225134756,-0.0064625,0.0077,-0.0050875
1680008974874,1188963227636910,-0.0083875,0.009625,-0.0070125
1680008974876,1188963230139063,-0.01045,0.0077,-0.0081124995
1680008974877,1188963232641217,-0.0083875,0.0056375,-0.009075
1680008974879,1188963235143371,-0.0083875,0.004675,-0.0081124995
1680008974882,1188963237645492,-0.01045,0.0037125,-0.0081124995
1680008974885,1188963240147646,-0.01045,6.875E-4,-0.0100375
1680008974887,1188963242649800,-0.0133375,-0.0023375,-0.009075
1680008974891,1188963245151954,-0.0133375,-0.0053625,-0.009075
1680008974893,1188963247654107,-0.012375,-0.0053625,-0.0081124995
1680008974895,1188963250156261,-0.0083875,-0.0053625,-0.009075
1680008974897,1188963252658415,-0.0114124995,-0.0042625,-0.0121
1680008974900,1188963255160569,-0.012375,-0.0072875,-0.0081124995
1680008974903,1188963257662800,-0.01045,-0.011275,-0.0100375
1680008974907,1188963260164877,-0.01045,-0.00825,-0.0100375
1680008974908,1188963262667031,-0.0083875,-0.0072875,-0.0070125
1680008974910,1188963265169184,-0.0083875,-0.0033,-0.0070125
1680008974912,1188963267671338,-0.00935,-0.0033,-0.0070125
1680008974915,1188963270173492,-0.00935,-0.0053625,-0.00605
1680008974918,1188963272675723,-0.0114124995,-0.0042625,-0.004125
1680008974920,1188963275177877,-0.00935,-2.75E-4,-0.0050875
1680008974922,1188963277680031,-0.0053625,-0.001375,-0.0011
1680008974926,1188963280182107,-0.007425,-0.001375,-1.375E-4
1680008974927,1188963282684261,-0.0044,-2.75E-4,9.625E-4
1680008974931,1188963285186415,-0.0044,-2.75E-4,0.001925
1680008974934,1188963287688655,-0.001375,6.875E-4,0.001925
1680008974936,1188963290190809,0.00165,-0.0023375,0.001925
1680008974938,1188963292692963,-0.001375,0.0037125,0.001925
1680008974940,1188963295195117,-0.0023375,0.0067375,0.0028875
1680008974944,1188963297697184,-0.001375,0.004675,0.0039875
1680008974948,1188963300199338,-0.0044,6.875E-4,0.0039875
1680008974950,1188963302701492,-4.125E-4,-0.0023375,0.0028875
1680008974951,1188963305203723,-0.001375,0.00165,0.0039875
1680008974953,1188963307705877,-0.0053625,0.00275,0.0028875
1680008974955,1188963310208050,-0.0023375,0.00275,0.0028875
1680008974957,1188963312710203,-0.0053625,0.0037125,0.00495
1680008974960,1188963315212357,-0.0044,-2.75E-4,0.0028875
1680008974963,1188963317714434,-0.001375,0.00165,0.0028875
1680008974965,1188963320216641,-0.0023375,6.875E-4,0.0039875
1680008974968,1188963322718795,-0.001375,-2.75E-4,0.0028875
1680008974971,1188963325220949,-0.0044,0.00165,-1.375E-4
1680008974973,1188963327723103,-4.125E-4,0.00275,-1.375E-4
1680008974976,1188963330225265,-0.0023375,0.00165,-1.375E-4
1680008974978,1188963332727419,-0.0064625,6.875E-4,-1.375E-4
1680008974982,1188963335229573,-0.0023375,0.004675,9.625E-4
1680008974984,1188963337731698,-0.0064625,0.0056375,9.625E-4
1680008974986,1188963340233852,-0.0083875,0.004675,-1.375E-4
1680008974988,1188963342736006,-0.007425,6.875E-4,9.625E-4
1680008974989,1188963345238083,-0.01045,0.00165,0.001925
1680008974993,1188963347740236,-0.0114124995,-0.0023375,0.001925
1680008974995,1188963350242477,-0.00935,-0.001375,-1.375E-4
1680008974997,1188963352744631,-0.01045,-0.001375,0.001925
1680008975000,1188963355246785,-0.01045,-0.0033,0.0028875
1680008975003,1188963357748939,-0.0114124995,-0.0033,0.00495
1680008975006,1188963360251035,-0.012375,-0.0033,0.0039875
1680008975008,1188963362753266,-0.0144375,-0.006325,0.0039875
1680008975011,1188963365255650,-0.012375,-0.0072875,0.00495
1680008975015,1188963367757804,-0.0133375,-0.0023375,0.0039875
1680008975016,1188963370259727,-0.01045,-0.001375,0.006875
1680008975019,1188963372761881,-0.0083875,-0.001375,0.0099
1680008975020,1188963375264035,-0.0083875,-2.75E-4,0.0119624995
1680008975023,1188963377766189,-0.0083875,0.00275,0.0108624995
1680008975026,1188963380268347,-0.0064625,0.0037125,0.0089375
1680008975028,1188963382770501,-0.0064625,-2.75E-4,0.0119624995
1680008975031,1188963385272655,-0.0044,0.00165,0.0149875
1680008975034,1188963387774809,-0.0023375,0.00165,0.0138875
1680008975036,1188963390276953,-4.125E-4,6.875E-4,0.0119624995
1680008975038,1188963392779107,-4.125E-4,-2.75E-4,0.0108624995
1680008975040,1188963395281491,-0.0044,-0.001375,0.012925
1680008975044,1188963397783414,-0.0044,-0.001375,0.0169125
1680008975045,1188963400285568,-0.0023375,-2.75E-4,0.0149875
1680008975048,1188963402787737,-0.001375,-2.75E-4,0.0138875
1680008975051,1188963405289891,-0.0044,-0.0033,0.0138875
1680008975053,1188963407792045,-0.0064625,-0.00825,0.0138875
1680008975057,1188963410294429,-0.0044,-0.00935,0.01595
1680008975059,1188963412796563,-0.0064625,-0.00825,0.0149875
1680008975061,1188963415298717,-0.0083875,-0.0103124995,0.0149875
1680008975064,1188963417800640,-0.0064625,-0.0143,0.0138875
1680008975066,1188963420302794,-0.0064625,-0.015262499,0.0138875
1680008975068,1188963422804948,-0.0064625,-0.011275,0.012925
1680008975070,1188963425307117,-0.0023375,-0.00825,0.0099
1680008975074,1188963427809501,-0.0023375,-0.011275,0.0099
1680008975075,1188963430311655,5.5E-4,-0.012375,0.0089375
1680008975078,1188963432813809,-0.001375,-0.0103124995,0.0089375
1680008975080,1188963435315948,-4.125E-4,-0.00935,0.007975
1680008975085,1188963437817871,5.5E-4,-0.011275,0.0059125
1680008975086,1188963440320025,0.00165,-0.006325,0.00495
1680008975087,1188963442822410,-4.125E-4,-0.00825,0.001925
1680008975090,1188963445324544,-0.0023375,-0.006325,0.001925
1680008975094,1188963447826698,5.5E-4,-0.00935,0.001925
1680008975097,1188963450328852,-4.125E-4,-0.00825,0.001925
1680008975099,1188963452831006,-4.125E-4,-0.00825,0.0028875
1680008975100,1188963455332929,-0.0053625,-0.012375,9.625E-4
1680008975104,1188963457835083,-0.0023375,-0.0143,9.625E-4
1680008975106,1188963460337468,-0.0044,-0.0163625,9.625E-4
1680008975107,1188963462839621,-0.0064625,-0.0182875,0.001925
1680008975110,1188963465341775,-0.0053625,-0.01925,-1.375E-4
1680008975114,1188963467843929,-0.007425,-0.017324999,9.625E-4
1680008975115,1188963470346083,-0.0083875,-0.0182875,0.0028875
1680008975118,1188963472848237,-0.0083875,-0.0243375,-1.375E-4
1680008975120,1188963475350391,-0.0064625,-0.02035,9.625E-4
1680008975123,1188963477852520,-0.0053625,-0.02035,0.0028875
1680008975126,1188963480354674,-0.0023375,-0.022275,0.001925
1680008975128,1188963482856828,-4.125E-4,-0.022275,0.0028875
1680008975132,1188963485358751,-0.0053625,-0.02035,0.0028875
1680008975135,1188963487861150,-0.0044,-0.0182875,0.0028875
1680008975136,1188963490500919,-0.001375,-0.0163625,9.625E-4
1680008975138,1188963492865458,-0.0023375,-0.0163625,0.00495
1680008975140,1188963495367611,-0.0023375,-0.0133375,0.0039875
1680008975143,1188963497869765,-0.0064625,-0.017324999,0.0039875
1680008975146,1188963500371938,-0.0053625,-0.0163625,0.0028875
1680008975147,1188963502874092,-0.0053625,-0.015262499,0.0039875
1680008975150,1188963505376015,-0.0053625,-0.0143,0.006875
1680008975153,1188963507878400,-0.0044,-0.017324999,0.00495
1680008975155,1188963510380574,-0.0044,-0.0163625,0.006875
1680008975157,1188963512882727,-0.0023375,-0.0163625,0.006875
1680008975159,1188963515384881,-0.0044,-0.0163625,0.006875
1680008975163,1188963517887035,-0.0053625,-0.017324999,0.0028875
1680008975166,1188963520389179,-0.0044,-0.0163625,0.0039875
1680008975169,1188963522891333,-0.0044,-0.0163625,0.00495
1680008975172,1188963525393487,-0.0064625,-0.01925,0.0059125
1680008975174,1188963527895641,-0.0044,-0.017324999,0.006875
1680008975176,1188963530397780,-0.0053625,-0.0143,0.0039875
1680008975178,1188963532899934,-0.0083875,-0.0163625,0.0039875
1680008975181,1188963535402088,-0.007425,-0.0163625,0.0028875
1680008975184,1188963537904242,-0.0083875,-0.0163625,0.00495
1680008975185,1188963540406473,-0.0064625,-0.0143,0.006875
1680008975188,1188963542908554,-0.0083875,-0.0143,0.0039875
1680008975191,1188963545410707,-0.00935,-0.0143,0.0028875
1680008975194,1188963547912861,-0.00935,-0.0143,0.006875
1680008975196,1188963550415015,-0.00935,-0.015262499,0.00495
1680008975198,1188963552917165,-0.007425,-0.0182875,0.0039875
1680008975200,1188963555419396,-0.0064625,-0.02035,0.00495
1680008975204,1188963557921550,-0.00935,-0.0213125,0.0039875
1680008975207,1188963560423627,-0.00935,-0.02035,0.006875
1680008975209,1188963562925784,-0.007425,-0.0213125,0.0039875
1680008975212,1188963565427938,-0.007425,-0.0262625,0.00495
1680008975215,1188963567930092,-0.007425,-0.0273625,0.001925
1680008975216,1188963570432246,-0.01045,-0.0262625,0.001925
1680008975218,1188963572934477,-0.0083875,-0.0292875,0.0039875
1680008975220,1188963575436622,-0.0094875,-0.0292875,0.00495
1680008975224,1188963577938775,-0.0083875,-0.03135,0.0039875
1680008975226,1188963580440852,-0.013475,-0.034375,0.0028875
1680008975228,1188963582943006,-0.013475,-0.0323125,-1.375E-4
1680008975231,1188963585445164,-0.01045,-0.0303875,0.0028875
1680008975234,1188963587947395,-0.01045,-0.0323125,0.0059125
1680008975236,1188963590449549,-0.0114124995,-0.0323125,0.0059125
1680008975239,1188963592951703,-0.0083875,-0.034375,0.0039875
1680008975241,1188963595453852,-0.0064625,-0.034375,0.0028875
1680008975247,1188963597956006,-0.0094875,-0.033275,0.0028875
1680008975249,1188963600458083,-0.0083875,-0.0323125,0.0028875
1680008975250,1188963602960314,-0.0055,-0.0303875,0.001925
1680008975252,1188963605462482,-0.0094875,-0.028324999,0.0039875
1680008975254,1188963607964559,-0.0083875,-0.0273625,0.00495
1680008975256,1188963610466713,-0.002475,-0.0303875,0.00495
1680008975258,1188963612968943,-0.0064625,-0.028324999,0.0028875
1680008975260,1188963615471020,-0.0064625,-0.0273625,0.0028875
1680008975265,1188963617973193,-4.125E-4,-0.028324999,0.0059125
1680008975266,1188963620475424,-0.0044,-0.0262625,0.0059125
1680008975268,1188963622977578,-0.001375,-0.0262625,0.0059125
1680008975270,1188963625479655,-4.125E-4,-0.0243375,0.0059125
1680008975274,1188963627981809,0.0026125,-0.017324999,0.0119624995
1680008975275,1188963630484030,0.008525,-0.0103124995,0.0089375
1680008975278,1188963632986184,0.0105875,-0.0083875,0.007975
1680008975282,1188963635488338,0.0125124995,-0.0033,0.0099
1680008975285,1188963637990415,0.014575,6.875E-4,0.0089375
1680008975287,1188963640492569,0.0176,0.0056375,0.007975
1680008975288,1188963642994723,0.020624999,0.010725,0.0089375
1680008975291,1188963645496953,0.02255,0.0116875,0.0089375
1680008975294,1188963647999107,0.02255,0.014712499,0.0099
1680008975295,1188963650501241,0.0246125,0.021724999,0.0099
1680008975298,1188963653003395,0.0246125,0.0187,0.0099
1680008975301,1188963655505549,0.0246125,0.0187,0.006875
1680008975304,1188963658007626,0.0235125,0.0187,0.0059125
1680008975306,1188963660509780,0.02255,0.0187,0.0089375
1680008975308,1188963663012010,0.0215875,0.021724999,0.0119624995
1680008975310,1188963665514164,0.02255,0.0226875,0.0108624995
1680008975316,1188963668016290,0.020624999,0.0196625,0.0099
1680008975317,1188963670518444,0.0176,0.0196625,0.012925
1680008975320,1188963673020598,0.019524999,0.0187,0.0099
1680008975322,1188963675522675,0.0176,0.014712499,0.007975
1680008975325,1188963678024906,0.014575,0.01265,0.007975
1680008975326,1188963680527059,0.0125124995,0.0077,0.0099
1680008975329,1188963683029213,0.014575,0.01265,0.0089375
1680008975331,1188963685531367,0.014575,0.0116875,0.0099
1680008975334,1188963688033521,0.0105875,0.009625,0.0089375
1680008975336,1188963690535675,0.0075625,0.0077,0.0089375
1680008975338,1188963693037833,0.009625,0.0056375,0.0099
1680008975340,1188963695539987,0.009625,0.00165,0.0099
1680008975344,1188963698042140,0.0075625,0.0026125,0.007975
1680008975346,1188963700544294,0.0055,0.0037125,0.007975
1680008975348,1188963703046448,0.0066,0.0037125,0.00495
1680008975351,1188963705548617,0.0066,0.004675,0.00495
1680008975355,1188963708050771,0.0055,0.004675,0.0039875
1680008975360,1188963710553155,0.0015125,0.00165,-1.375E-4
1680008975360,1188963713055285,0.0045375,0.0037125,-0.0011
1680008975361,1188963715557208,0.003575,0.0026125,-0.004125
1680008975365,1188963718059362,0.003575,0.0026125,-0.00605
1680008975366,1188963720561516,0.0026125,0.004675,-0.00605
1680008975368,1188963723063670,0.0015125,0.0026125,-0.00605
1680008975370,1188963725566069,0.0026125,6.875E-4,-0.0081124995
1680008975374,1188963728068222,0.0045375,6.875E-4,-0.0070125
1680008975375,1188963730570145,0.0026125,0.0026125,-0.0100375
1680008975378,1188963733072299,0.0045375,-0.001375,-0.0111375
1680008975382,1188963735574482,0.0066,-0.0023375,-0.009075
1680008975384,1188963738076636,0.0066,-2.75E-4,-0.0100375
1680008975385,1188963740578790,0.0066,-0.0053625,-0.0100375
1680008975388,1188963743080944,0.0055,-0.006325,-0.0111375
1680008975391,1188963745583098,0.0055,-0.0072875,-0.013062499
1680008975395,1188963748085246,0.0045375,-0.0053625,-0.0121
1680008975397,1188963750587400,0.003575,-0.0103124995,-0.0111375
1680008975399,1188963753089554,0.0026125,-0.0133375,-0.013062499
1680008975401,1188963755591708,5.5E-4,-0.011275,-0.0111375
1680008975404,1188963758094103,-4.125E-4,-0.015262499,-0.0070125
1680008975405,1188963760596256,5.5E-4,-0.0163625,-0.0070125
1680008975408,1188963763098180,-4.125E-4,-0.0193875,-0.0100375
1680008975410,1188963765600333,-0.0044,-0.022275,-0.009075
1680008975414,1188963768102492,-0.0044,-0.0243375,-0.009075
1680008975415,1188963770604646,-0.001375,-0.0253,-0.0121
1680008975418,1188963773106800,5.5E-4,-0.0182875,-0.009075
1680008975421,1188963775609185,-4.125E-4,-0.0193875,-0.0050875
1680008975424,1188963778111323,-4.125E-4,-0.017324999,-0.00605
1680008975427,1188963780613247,-0.002475,-0.0193875,-0.00605
1680008975429,1188963783115400,-4.125E-4,-0.017324999,-0.004125
1680008975433,1188963785617554,0.0015125,-0.0163625,-0.0050875
1680008975436,1188963788119679,5.5E-4,-0.0143,-0.009075
1680008975437,1188963790742064,-0.001375,-0.015262499,-0.0081124995
1680008975439,1188963793124218,-0.002475,-0.0143,-0.0070125
1680008975440,1188963795626371,-0.001375,-0.011275,-0.0070125
1680008975445,1188963798128525,-0.0064625,-0.00935,-0.0070125
1680008975446,1188963800630448,-0.001375,-0.0103124995,-0.0081124995
1680008975448,1188963803132602,-0.0044,-0.0072875,-0.0070125
1680008975450,1188963805634987,-0.0064625,-0.0083875,-0.0081124995
1680008975454,1188963808137157,-0.0083875,-0.0042625,-0.0081124995
1680008975455,1188963810639311,-0.0083875,-0.0103124995,-0.0111375
1680008975458,1188963813141464,-0.0094875,-0.0053625,-0.009075
1680008975460,1188963815643618,-0.01045,-0.0072875,-0.0050875
1680008975465,1188963818145790,-0.0094875,-0.0033,-0.0070125
1680008975466,1188963820647713,-0.013475,-0.0042625,-0.0050875
1680008975469,1188963823150098,-0.013475,-0.0042625,-0.00605
1680008975471,1188963825652252,-0.0114124995,-0.0053625,-0.004125
1680008975474,1188963828154396,-0.012375,-0.0033,-0.003025
1680008975476,1188963830656550,-0.0094875,-2.75E-4,-0.00605
1680008975480,1188963833158704,-0.013475,-0.001375,-0.00605
1680008975482,1188963835660858,-0.012375,0.0026125,-0.0020625
1680008975484,1188963838163012,-0.007425,0.004675,-0.0011
1680008975486,1188963840665166,-0.0055,0.0067375,-0.0020625
1680008975488,1188963843167320,-0.001375,0.014712499,-0.003025
1680008975490,1188963845669473,-0.0064625,0.0177375,-0.004125
1680008975494,1188963848171627,-0.001375,0.0196625,9.625E-4
1680008975496,1188963850673790,0.003575,0.0226875,9.625E-4
1680008975498,1188963853175944,0.0026125,0.0246125,-0.0020625
1680008975500,1188963855678175,0.0026125,0.0246125,-0.0020625
1680008975504,1188963858180252,0.003575,0.02365,-0.003025
1680008975507,1188963860682410,-0.002475,0.020624999,-1.375E-4
1680008975509,1188963863184563,-0.0044,0.0177375,0.001925
1680008975511,1188963865686717,-0.002475,0.0177375,-1.375E-4
1680008975514,1188963868188640,-0.0064625,0.0077,-0.003025
1680008975516,1188963870690997,-0.007425,0.004675,9.625E-4
1680008975518,1188963873193151,-0.0064625,0.0077,0.0039875
1680008975521,1188963875695305,-0.0055,0.0037125,0.001925
1680008975524,1188963878197478,-0.007425,0.0026125,9.625E-4
1680008975526,1188963880699631,-0.007425,6.875E-4,-0.0020625
1680008975529,1188963883201785,-0.0083875,-0.0042625,-0.003025
1680008975531,1188963885703939,-0.0114124995,-0.0033,-0.0011
1680008975534,1188963888206070,-0.007425,-0.0033,-0.0050875
1680008975536,1188963890708224,-0.0094875,-0.0053625,-0.00605
1680008975538,1188963893210378,-0.01045,-0.0083875,-0.004125
1680008975540,1188963895712531,-0.0114124995,-0.0053625,-0.003025
1680008975546,1188963898214733,-0.0083875,-0.0072875,-0.0020625
1680008975548,1188963900716810,-0.007425,-0.0083875,-0.003025
1680008975550,1188963903218964,-0.01045,-0.0053625,-0.0020625
1680008975551,1188963905721118,-0.0094875,-0.0033,-0.0011
1680008975554,1188963908223272,-0.01045,-0.0072875,-0.0011
1680008975556,1188963910725455,-0.007425,-0.006325,-1.375E-4
1680008975559,1188963913227685,-0.007425,-0.006325,-0.0011
1680008975561,1188963915729839,-0.0064625,-0.0042625,-1.375E-4
1680008975564,1188963918231993,-0.0044,-0.0023375,-1.375E-4
1680008975566,1188963920734060,-0.002475,-0.0033,-1.375E-4
1680008975568,1188963923236214,5.5E-4,-0.001375,-1.375E-4
1680008975570,1188963925738368,0.0015125,-2.75E-4,-1.375E-4
1680008975574,1188963928240598,0.0045375,6.875E-4,9.625E-4
1680008975576,1188963930742752,0.0026125,0.0026125,0.001925
1680008975581,1188963933244896,0.003575,0.0037125,9.625E-4
1680008975582,1188963935747050,5.5E-4,0.00165,-1.375E-4
1680008975585,1188963938249127,0.0015125,0.004675,9.625E-4
1680008975587,1188963940751291,0.0015125,0.0067375,0.0028875
1680008975588,1188963943253445,-4.125E-4,0.004675,-1.375E-4
1680008975590,1188963945755675,-0.002475,0.010725,0.001925
1680008975594,1188963948257829,-4.125E-4,0.0077,0.001925
1680008975596,1188963950759983,-0.001375,0.0067375,9.625E-4
1680008975598,1188963953262151,-0.0064625,0.0067375,9.625E-4
1680008975601,1188963955764305,-0.0083875,0.0067375,-0.0011
1680008975604,1188963958266382,-0.0064625,0.004675,-1.375E-4
1680008975606,1188963960768613,-0.007425,0.009625,9.625E-4
1680008975609,1188963963270752,-0.0064625,0.010725,-1.375E-4
1680008975611,1188963965772906,-0.002475,0.004675,-0.0020625
1680008975615,1188963968274983,-0.001375,0.0067375,-0.004125
1680008975616,1188963970777214,0.0015125,0.0067375,-0.0070125
1680008975620,1188963973279285,-0.001375,0.0067375,-0.0070125
1680008975622,1188963975781439,-0.0044,0.0056375,-0.0121
1680008975625,1188963978283670,-0.002475,0.0026125,-0.01705
1680008975627,1188963980785823,-0.001375,-0.0023375,-0.015125
1680008975628,1188963983287977,-0.0044,-0.0053625,-0.0180125
1680008975631,1188963985790059,-4.125E-4,-0.0083875,-0.020075
1680008975634,1188963988292213,-0.0055,-0.0083875,-0.020075
1680008975636,1188963990794367,-0.0094875,-0.00935,-0.0221375
1680008975638,1188963993296598,-0.012375,-0.0163625,-0.0240625
1680008975641,1188963995798751,-0.012375,-0.0182875,-0.0231
1680008975644,1188963998300914,-0.0154,-0.015262499,-0.01705
1680008975646,1188964000803068,-0.0154,-0.017324999,-0.0100375
1680008975649,1188964003305222,-0.0154,-0.017324999,-0.0050875
1680008975651,1188964005807299,-0.012375,-0.0143,-0.003025
1680008975655,1188964008309453,-0.0114124995,-0.015262499,9.625E-4
1680008975658,1188964010811684,-0.0114124995,-0.017324999,9.625E-4
1680008975659,1188964013313837,-0.0114124995,-0.02035,0.001925
1680008975662,1188964015815991,-0.01045,-0.017324999,9.625E-4
1680008975665,1188964018318145,-0.0083875,-0.0182875,0.0039875
1680008975667,1188964020820275,-0.012375,-0.017324999,0.00495
1680008975669,1188964023322429,-0.0083875,-0.0213125,9.625E-4
1680008975671,1188964025824583,-0.007425,-0.0243375,-1.375E-4
1680008975674,1188964028326737,-0.0094875,-0.0193875,0.0028875
1680008975676,1188964030828866,-0.0094875,-0.0182875,0.001925
1680008975678,1188964033331020,-0.0064625,-0.0163625,-1.375E-4
1680008975680,1188964035833174,-0.01045,-0.0182875,9.625E-4
1680008975686,1188964038335328,-0.0114124995,-0.015262499,-0.0011
1680008975689,1188964040837718,-0.01045,-0.011275,-1.375E-4
1680008975691,1188964043339871,-0.0083875,-0.011275,-0.0011
1680008975691,1188964045841795,-0.0064625,-0.0103124995,-0.004125
1680008975695,1188964048343948,-0.0064625,-0.011275,-0.0011
1680008975697,1188964050846093,-0.0094875,-0.006325,-0.0020625
1680008975699,1188964053348247,-0.01045,-0.011275,-0.003025
1680008975701,1188964055850401,-0.0094875,-0.011275,-0.004125
1680008975704,1188964058352786,-0.01045,-0.0163625,-0.0050875
1680008975706,1188964060854939,-0.0154,-0.02035,-0.003025
1680008975709,1188964063356871,-0.0154,-0.022275,-0.004125
1680008975711,1188964065859025,-0.018424999,-0.0253,-0.00605
1680008975716,1188964068361179,-0.02035,-0.0323125,-0.004125
1680008975717,1188964070863333,-0.02035,-0.0353375,-0.0050875
1680008975719,1188964073365713,-0.02035,-0.0353375,-0.0070125
1680008975721,1188964075867867,-0.0193875,-0.0353375,-0.0050875
1680008975725,1188964078370020,-0.0174625,-0.0383625,-0.0020625
1680008975727,1188964080872174,-0.02035,-0.044275,-1.375E-4
1680008975731,1188964083374088,-0.018424999,-0.04235,0.00495
1680008975733,1188964085876242,-0.0174625,-0.04235,0.0099
1680008975736,1188964088378396,-0.0133375,-0.045375,0.0119624995
1680008975737,1188964091108781,-0.012375,-0.045375,0.0199375
1680008975739,1188964093382953,-0.01045,-0.0473,0.023924999
1680008975741,1188964095885107,-0.01045,-0.0473,0.023924999
1680008975744,1188964098387030,-0.007425,-0.050325,0.02695
1680008975746,1188964100889184,-0.0083875,-0.050325,0.029975
1680008975748,1188964103391338,-0.01045,-0.0463375,0.0319
1680008975751,1188964105893727,-0.012375,-0.044275,0.0339625
1680008975756,1188964108395881,-0.0133375,-0.0493625,0.0358875
1680008975757,1188964110897804,-0.0174625,-0.0463375,0.0389125
1680008975759,1188964113399958,-0.018424999,-0.0493625,0.0369875
1680008975762,1188964115902111,-0.023375,-0.0463375,0.0339625
1680008975764,1188964118404265,-0.0264,-0.045375,0.03795
1680008975766,1188964120906650,-0.0284625,-0.04235,0.0389125
1680008975770,1188964123408804,-0.029424999,-0.04235,0.0389125
1680008975772,1188964125910958,-0.0264,-0.0372625,0.039875
1680008975775,1188964128413111,-0.0264,-0.03025,0.0389125
1680008975776,1188964130915034,-0.029424999,-0.0213125,0.040975
1680008975781,1188964133417188,-0.029424999,-0.0182875,0.040975
1680008975785,1188964135919342,-0.0254375,-0.011275,0.040975
1680008975787,1188964138421727,-0.029424999,0.00165,0.0438625
1680008975789,1188964140923881,-0.029424999,0.0077,0.0499125
1680008975790,1188964143426035,-0.029424999,0.0177375,0.0539
1680008975792,1188964145928179,-0.0264,0.021724999,0.0559625
1680008975794,1188964148430102,-0.0273625,0.032725,0.0559625
1680008975797,1188964150932256,-0.0284625,0.0407,0.0578875
1680008975798,1188964153434641,-0.0254375,0.0446875,0.062975
1680008975801,1188964155936795,-0.029424999,0.053625,0.0669625
1680008975804,1188964158438939,-0.029424999,0.0617375,0.0669625
1680008975807,1188964160940862,-0.0264,0.064625,0.0688875
1680008975810,1188964163443246,-0.0264,0.064625,0.0719125
1680008975812,1188964165945395,-0.023375,0.0666875,0.0759
1680008975815,1188964168447549,-0.0254375,0.0697125,0.0749375
1680008975816,1188964170949703,-0.0254375,0.0727375,0.0779625
1680008975818,1188964173451857,-0.0243375,0.0666875,0.0798875
1680008975821,1188964175954011,-0.0243375,0.0666875,0.078925
1680008975825,1188964178455953,-0.02145,0.070675,0.0878625
1680008975826,1188964180958337,-0.018424999,0.06875,0.0908875
1680008975829,1188964183460491,-0.02145,0.0666875,0.095975
1680008975831,1188964185962645,-0.023375,0.070675,0.0999625
1680008975834,1188964188464809,-0.02035,0.065725,0.10395
1680008975836,1188964190966963,-0.0193875,0.0666875,0.105875
1680008975838,1188964193469117,-0.023375,0.0666875,0.108899996
1680008975841,1188964195971347,-0.023375,0.065725,0.1098625
1680008975849,1188964198473405,-0.02035,0.0666875,0.1128875
1680008975851,1188964200975559,-0.0243375,0.0666875,0.1159125
1680008975852,1188964203477713,-0.0264,0.0716375,0.1199
1680008975853,1188964205979867,-0.0254375,0.07865,0.122925
1680008975855,1188964208481790,-0.0264,0.075625,0.1249875
1680008975856,1188964210983944,-0.0273625,0.073699996,0.1269125
1680008975858,1188964213486323,-0.0264,0.0807125,0.12595
1680008975861,1188964215988477,-0.03135,0.0807125,0.127875
1680008975865,1188964218490631,-0.0374,0.0776875,0.1299375
1680008975866,1188964220992785,-0.0364375,0.07865,0.128975
1680008975869,1188964223494939,-0.034375,0.076725,0.1348875
1680008975871,1188964225996862,-0.0374,0.07975,0.1348875
1680008975874,1188964228499246,-0.0334125,0.0776875,0.1379125
1680008975876,1188964231001400,-0.03135,0.0807125,0.1419
1680008975878,1188964233503549,-0.0303875,0.086625,0.144925
1680008975883,1188964236005703,-0.0264,0.0886875,0.1469875
1680008975885,1188964238507857,-0.0284625,0.08965,0.149875
1680008975887,1188964241010011,-0.0224125,0.093637496,0.1519375
1680008975889,1188964243512276,-0.018424999,0.097625,0.1549625
1680008975891,1188964246014352,-0.0154,0.0996875,0.1599125
1680008975894,1188964248516506,-0.0144375,0.10065,0.1599125
1680008975896,1188964251018660,-0.0154,0.10065,0.1639
1680008975898,1188964253520814,-0.012375,0.0966625,0.1659625
1680008975901,1188964256022963,-0.0114124995,0.0947375,0.1659625
1680008975904,1188964258525117,-0.012375,0.0966625,0.172975
1680008975906,1188964261027347,-0.01045,0.095699996,0.1739375
1680008975908,1188964263529501,-0.01045,0.0996875,0.171875
1680008975911,1188964266031587,-0.0144375,0.098725,0.1709125
1680008975914,1188964268533741,-0.0144375,0.0966625,0.171875
1680008975916,1188964271035895,-0.0144375,0.10065,0.16995
1680008975920,1188964273538049,-0.0163625,0.1027125,0.171875
1680008975922,1188964276040280,-0.0154,0.104637496,0.172975
1680008975925,1188964278542433,-0.0174625,0.109725,0.1749
1680008975927,1188964281044587,-0.02145,0.11275,0.172975
1680008975930,1188964283546664,-0.018424999,0.1186625,0.1739375
1680008975932,1188964286048818,-0.0144375,0.125675,0.16995
1680008975935,1188964288550977,-0.0133375,0.12375,0.1709125
1680008975936,1188964291053131,-0.00935,0.1266375,0.172975
1680008975938,1188964293555362,-0.0064625,0.131725,0.1739375
1680008975941,1188964296057515,-0.0053625,0.1357125,0.171875
1680008975946,1188964298559684,-0.001375,0.1397,0.16995
1680008975948,1188964301061838,0.0026125,0.1486375,0.1709125
1680008975949,1188964303563915,0.0056375,0.152625,0.172975
1680008975952,1188964306066069,0.01155,0.1596375,0.172975
1680008975955,1188964308568319,0.0155375,0.164725,0.1758625
1680008975957,1188964311070473,0.0166375,0.1706375,0.1788875
1680008975959,1188964313572626,0.020624999,0.175725,0.1799875
1680008975961,1188964316074780,0.0265375,0.17875,0.1859
1680008975965,1188964318576954,0.0306625,0.1846625,0.1859
1680008975966,1188964321079031,0.034649998,0.19167499,0.1879625
1680008975969,1188964323581185,0.036575,0.197725,0.1898875
1680008975971,1188964326083416,0.0396,0.202675,0.1969
1680008975974,1188964328585594,0.0386375,0.2036375,0.1969
1680008975976,1188964331087670,0.0416625,0.202675,0.1989625
1680008975979,1188964333589824,0.047575,0.202675,0.20295
1680008975984,1188964336091978,0.0496375,0.208725,0.20487499
1680008975984,1188964338594132,0.0506,0.21367499,0.2099625
1680008975986,1188964341096363,0.053625,0.2176625,0.2149125
1680008975989,1188964343598517,0.0515625,0.2176625,0.2149125
1680008975991,1188964346100670,0.0545875,0.21367499,0.2129875
1680008975996,1188964348602800,0.053625,0.208725,0.215875
1680008975998,1188964351104877,0.045649998,0.2057,0.2189
1680008975999,1188964353607031,0.0485375,0.2017125,0.2198625
1680008976001,1188964356109262,0.0515625,0.1947,0.2149125
1680008976005,1188964358611416,0.0506,0.186725,0.2129875
1680008976006,1188964361113570,0.053625,0.185625,0.2129875
1680008976009,1188964363615723,0.0616,0.1926375,0.2088625
1680008976011,1188964366117877,0.06655,0.186725,0.20693749
1680008976016,1188964368619954,0.0705375,0.186725,0.2079
1680008976017,1188964371122127,0.0746625,0.1846625,0.20693749
1680008976019,1188964373624358,0.0735625,0.1846625,0.20693749
1680008976021,1188964376126512,0.0765875,0.1727,0.2088625
1680008976025,1188964378628666,0.0746625,0.16665,0.2088625
1680008976026,1188964381130833,0.0735625,0.164725,0.2039125
1680008976029,1188964383632987,0.0746625,0.16775,0.20295
1680008976032,1188964386135141,0.0716375,0.1687125,0.20295
1680008976036,1188964388637295,0.0686125,0.169675,0.2019875
1680008976038,1188964391139440,0.06655,0.1727,0.20487499
1680008976039,1188964393641594,0.0636625,0.1687125,0.205975
1680008976041,1188964396143748,0.058575,0.16665,0.2088625
1680008976044,1188964398645901,0.05555,0.169675,0.2118875
1680008976048,1188964401148055,0.0496375,0.1607375,0.215875
1680008976050,1188964403650194,0.0435875,0.153725,0.2209625
1680008976051,1188964406152579,0.0416625,0.14973749,0.22687499
1680008976054,1188964408654502,0.0396,0.1467125,0.22687499
1680008976056,1188964411156656,0.0386375,0.158675,0.2299
1680008976059,1188964413658809,0.0416625,0.164725,0.2349875
1680008976061,1188964416160934,0.0435875,0.1766875,0.2369125
1680008976066,1188964418663088,0.0396,0.186725,0.2409
1680008976066,1188964421165473,0.0405625,0.1926375,0.2479125
1680008976070,1188964423667627,0.045649998,0.2066625,0.2528625
1680008976072,1188964426169728,0.0485375,0.2206875,0.259875
1680008976075,1188964428671651,0.0545875,0.2387,0.26895
1680008976076,1188964431174035,0.056649998,0.25465,0.2748625
1680008976079,1188964433676189,0.058575,0.2717,0.27995
1680008976082,1188964436178334,0.064625,0.2827,0.2849
1680008976084,1188964438680257,0.0636625,0.28875,0.2869625
1680008976086,1188964441182411,0.0606375,0.3026375,0.2869625
1680008976089,1188964443684565,0.056649998,0.3117125,0.2899875
1680008976094,1188964446186925,0.0526625,0.317625,0.29095
1680008976096,1188964448689079,0.045649998,0.33165,0.2949375
1680008976098,1188964451191002,0.0386375,0.34375,0.2959
1680008976099,1188964453693156,0.0306625,0.3557125,0.292875
1680008976101,1188964456195310,0.02255,0.3606625,0.2899875
1680008976104,1188964458697464,0.0105875,0.3597,0.29095
1680008976107,1188964461199618,5.5E-4,0.3597,0.2919125
1680008976110,1188964463702002,-0.0114124995,0.3587375,0.2949375
1680008976112,1188964466204156,-0.0273625,0.350625,0.293975
1680008976115,1188964468706324,-0.0394625,0.3466375,0.2959
1680008976117,1188964471208247,-0.0504625,0.345675,0.292875
1680008976119,1188964473710401,-0.0603625,0.3447125,0.2919125
1680008976121,1188964476212555,-0.0713625,0.345675,0.2959
1680008976124,1188964478714915,-0.07645,0.339625,0.2968625
1680008976127,1188964481217069,-0.0823625,0.3356375,0.303875
1680008976129,1188964483719223,-0.091437496,0.32175,0.303875
1680008976132,1188964486221377,-0.0963875,0.3166625,0.3069
1680008976134,1188964488723265,-0.09735,0.3086875,0.3089625
1680008976136,1188964491225419,-0.106425,0.3056625,0.3139125
1680008976138,1188964493727573,-0.10835,0.2937,0.3218875
1680008976141,1188964496229957,-0.10945,0.284625,0.3249125
1680008976146,1188964498732087,-0.1123375,0.284625,0.32395
1680008976148,1188964501234241,-0.1153625,0.2866875,0.3289
1680008976149,1188964503736395,-0.1164625,0.27775,0.3289
1680008976151,1188964506238549,-0.1153625,0.268675,0.3289
1680008976154,1188964508740472,-0.1153625,0.263725,0.3249125
1680008976156,1188964511242852,-0.11935,0.2646875,0.32587498
1680008976159,1188964513745006,-0.1214125,0.2597375,0.32587498
1680008976161,1188964516247160,-0.12045,0.262625,0.3188625
1680008976165,1188964518749314,-0.122375,0.262625,0.314875
1680008976166,1188964521251463,-0.1254,0.25575,0.31295
1680008976169,1188964523753617,-0.1254,0.2567125,0.3108875
1680008976171,1188964526255771,-0.1293875,0.2586375,0.3119875
1680008976175,1188964528757924,-0.128425,0.25465,0.3078625
1680008976176,1188964531260078,-0.128425,0.252725,0.303875
1680008976179,1188964533762227,-0.1293875,0.24475,0.303875
1680008976182,1188964536264381,-0.1324125,0.2426875,0.303875
1680008976185,1188964538766535,-0.133375,0.2457125,0.303875
1680008976187,1188964541268713,-0.133375,0.24475,0.304975
1680008976189,1188964543770867,-0.1403875,0.2426875,0.3059375
1680008976191,1188964546273020,-0.1384625,0.2396625,0.3059375
1680008976195,1188964548775174,-0.14135,0.23567499,0.3069
1680008976197,1188964551277328,-0.144375,0.2256375,0.3069
1680008976199,1188964553779472,-0.14533749,0.2237125,0.3089625
1680008976201,1188964556281395,-0.1494625,0.229625,0.3089625
1680008976204,1188964558783780,-0.1544125,0.23567499,0.3108875
1680008976206,1188964561285934,-0.1563375,0.23567499,0.3108875
1680008976209,1188964563788087,-0.1584,0.23567499,0.3119875
1680008976211,1188964566290241,-0.1604625,0.23773749,0.31295
1680008976214,1188964568792395,-0.16445,0.23773749,0.3139125
1680008976216,1188964571294549,-0.1703625,0.23773749,0.3139125
1680008976220,1188964573796703,-0.17435,0.23375,0.3139125
1680008976222,1188964576298857,-0.1794375,0.23375,0.3119875
1680008976225,1188964578801010,-0.1824625,0.2347125,0.3108875
1680008976228,1188964581303164,-0.188375,0.2277,0.309925
1680008976231,1188964583805314,-0.1923625,0.22165,0.3059375
1680008976235,1188964586307468,-0.19635,0.2176625,0.304975
1680008976236,1188964588809622,-0.20047499,0.21065,0.30195
1680008976237,1188964591311853,-0.199375,0.2146375,0.298925
1680008976239,1188964593813930,-0.199375,0.219725,0.2959
1680008976241,1188964596316150,-0.1984125,0.218625,0.293975
1680008976244,1188964598818304,-0.20047499,0.218625,0.292875
1680008976246,1188964601320458,-0.199375,0.22275,0.2888875
1680008976249,1188964603822612,-0.19635,0.2256375,0.2849
1680008976251,1188964606324751,-0.1934625,0.2286625,0.28393748
1680008976254,1188964608826982,-0.1904375,0.2286625,0.28393748
1680008976258,1188964611329135,-0.194425,0.2286625,0.27995
1680008976259,1188964613831212,-0.1904375,0.2256375,0.2789875
1680008976261,1188964616333376,-0.1824625,0.2237125,0.276925
1680008976264,1188964618835530,-0.1813625,0.2237125,0.2759625
1680008976267,1188964621337684,-0.1813625,0.2237125,0.270875
1680008976268,1188964623839915,-0.1733875,0.22275,0.265925
1680008976271,1188964626342069,-0.1694,0.219725,0.265925
1680008976274,1188964628844217,-0.16445,0.21367499,0.2649625
1680008976276,1188964631346371,-0.1574375,0.208725,0.260975
1680008976278,1188964633848448,-0.155375,0.2066625,0.2569875
1680008976281,1188964636350588,-0.15345,0.20075,0.254925
1680008976284,1188964638852819,-0.1544125,0.19167499,0.24695
1680008976286,1188964641354973,-0.1494625,0.186725,0.243925
1680008976290,1188964643857127,-0.150425,0.17875,0.2418625
1680008976291,1188964646359280,-0.150425,0.17173749,0.23595
1680008976296,1188964648861448,-0.1494625,0.16665,0.2308625
1680008976298,1188964651363525,-0.1494625,0.163625,0.22893749
1680008976299,1188964653865679,-0.1494625,0.1607375,0.2239875
1680008976301,1188964656367910,-0.150425,0.1617,0.2228875
1680008976304,1188964658870089,-0.1494625,0.1687125,0.2228875
1680008976306,1188964661372243,-0.1483625,0.1706375,0.2198625
1680008976309,1188964663874319,-0.1434125,0.1727,0.215875
1680008976311,1188964666376550,-0.139425,0.17765,0.2118875
1680008976314,1188964668878627,-0.1384625,0.1736625,0.2088625
1680008976316,1188964671380858,-0.1373625,0.1706375,0.2088625
1680008976319,1188964673883012,-0.1324125,0.169675,0.2019875
1680008976321,1188964676385166,-0.13145,0.16665,0.193875
1680008976326,1188964678887337,-0.128425,0.169675,0.1929125
1680008976327,1188964681389414,-0.123475,0.1687125,0.1909875
1680008976331,1188964683891568,-0.1263625,0.163625,0.188925
1680008976333,1188964686393722,-0.122375,0.1617,0.18493749
1680008976336,1188964688895982,-0.122375,0.158675,0.1799875
1680008976337,1188964691398136,-0.1214125,0.152625,0.1819125
1680008976339,1188964693900290,-0.117425,0.147675,0.177925
1680008976341,1188964696402367,-0.1164625,0.142725,0.1758625
1680008976344,1188964698904602,-0.1153625,0.1387375,0.1769625
1680008976346,1188964701406756,-0.10945,0.13475,0.177925
1680008976349,1188964703908910,-0.10835,0.1287,0.1769625
1680008976353,1188964706411064,-0.106425,0.12375,0.172975
1680008976356,1188964708913122,-0.1034,0.1216875,0.1739375
1680008976357,1188964711415276,-0.0944625,0.119625,0.1769625
1680008976359,1188964713917506,-0.0933625,0.1287,0.1769625
1680008976362,1188964716419660,-0.089375,0.12773749,0.172975
1680008976366,1188964718921818,-0.08635,0.130625,0.1689875
1680008976367,1188964721423972,-0.084425,0.13475,0.1678875
1680008976373,1188964723926126,-0.0823625,0.13475,0.1709125
1680008976375,1188964726428280,-0.0814,0.136675,0.1709125
1680008976378,1188964728930377,-0.0823625,0.142725,0.1678875
1680008976379,1188964731432607,-0.0814,0.1486375,0.1659625
1680008976382,1188964733934761,-0.0804375,0.152625,0.1689875
1680008976383,1188964736436915,-0.079475,0.1546875,0.1678875
1680008976385,1188964738939069,-0.079475,0.1626625,0.1648625
1680008976387,1188964741441237,-0.07645,0.16775,0.1648625
1680008976389,1188964743943391,-0.07535,0.1706375,0.1648625
1680008976393,1188964746445545,-0.0724625,0.1727,0.1648625
1680008976396,1188964748947698,-0.0694375,0.169675,0.1659625
1680008976397,1188964751449852,-0.0704,0.1687125,0.1678875
1680008976399,1188964753952020,-0.062425,0.1727,0.1689875
1680008976402,1188964756454174,-0.0603625,0.1687125,0.16995
1680008976405,1188964758956328,-0.0554125,0.1736625,0.1689875
1680008976409,1188964761458703,-0.051425,0.175725,0.1659625
1680008976411,1188964763960626,-0.046475,0.1727,0.1648625
1680008976412,1188964766462780,-0.0413875,0.1766875,0.1648625
1680008976416,1188964768964934,-0.040425,0.1727,0.1659625
1680008976417,1188964771467088,-0.0394625,0.16775,0.1639
1680008976419,1188964773969242,-0.040425,0.1617,0.1599125
1680008976421,1188964776471319,-0.0364375,0.1546875,0.155925
1680008976427,1188964778973550,-0.0374,0.1507,0.1538625
1680008976430,1188964781475703,-0.0374,0.1397,0.1519375
1680008976432,1188964783977852,-0.034375,0.136675,0.1419
1680008976434,1188964786480006,-0.0364375,0.1326875,0.1379125
1680008976436,1188964788982160,-0.0383625,0.120725,0.1318625
1680008976437,1188964791484314,-0.0394625,0.11275,0.127875
1680008976439,1188964793986703,-0.0413875,0.1067,0.1238875
1680008976442,1188964796488627,-0.0474375,0.0947375,0.116875
1680008976447,1188964798990780,-0.0484,0.086625,0.1098625
1680008976450,1188964801492934,-0.05335,0.0776875,0.108899996
1680008976451,1188964803995088,-0.0594,0.0666875,0.108899996
1680008976453,1188964806497242,-0.06435,0.0606375,0.105875
1680008976455,1188964808999396,-0.0724625,0.0526625,0.1049125
1680008976457,1188964811501780,-0.07645,0.037675,0.1049125
1680008976459,1188964814003704,-0.0823625,0.032725,0.1029875
1680008976464,1188964816505857,-0.091437496,0.02365,0.0979
1680008976466,1188964819008011,-0.0994125,0.0177375,0.095975
1680008976468,1188964821510165,-0.102437496,0.01265,0.0999625
1680008976470,1188964824012319,-0.1073875,0.01265,0.10395
1680008976471,1188964826514704,-0.10945,0.010725,0.1018875
1680008976474,1188964829016877,-0.1144,0.009625,0.1029875
1680008976476,1188964831519031,-0.11935,0.0077,0.108899996
1680008976480,1188964834020954,-0.11935,0.0067375,0.1109625
1680008976483,1188964836523122,-0.123475,0.009625,0.116875
1680008976486,1188964839025276,-0.123475,0.009625,0.1219625
1680008976487,1188964841527430,-0.1263625,0.014712499,0.1249875
1680008976490,1188964844029584,-0.1263625,0.0116875,0.1299375
1680008976492,1188964846531968,-0.124437496,0.0177375,0.1379125
1680008976495,1188964849034113,-0.1254,0.02365,0.1419
1680008976497,1188964851536267,-0.1214125,0.037675,0.144925
1680008976499,1188964854038190,-0.12045,0.048675,0.1489125
1680008976501,1188964856540344,-0.1144,0.0477125,0.1568875
1680008976504,1188964859042724,-0.111375,0.0507375,0.160875
1680008976506,1188964861544877,-0.1073875,0.053625,0.1648625
1680008976509,1188964864046801,-0.106425,0.059675,0.1659625
1680008976512,1188964866548954,-0.1043625,0.0617375,0.16995
1680008976514,1188964869051108,-0.102437496,0.0627,0.16995
1680008976517,1188964871553252,-0.0963875,0.0666875,0.1689875
1680008976522,1188964874055637,-0.095425,0.0666875,0.1659625
1680008976524,1188964876557791,-0.095425,0.070675,0.161975
1680008976526,1188964879059939,-0.0924,0.075625,0.1599125
1680008976528,1188964881561863,-0.090475,0.0716375,0.1579875
1680008976531,1188964884064016,-0.0884125,0.07865,0.1549625
1680008976533,1188964886566170,-0.08745,0.0716375,0.1489125
1680008976536,1188964889068324,-0.084425,0.076725,0.1458875
1680008976537,1188964891570690,-0.0804375,0.076725,0.1458875
1680008976539,1188964894072844,-0.0804375,0.0716375,0.1439625
1680008976541,1188964896574997,-0.078375,0.0716375,0.138875
1680008976544,1188964899077151,-0.07645,0.0697125,0.13695
1680008976547,1188964901579074,-0.07645,0.0716375,0.1348875
1680008976549,1188964904081209,-0.0713625,0.0697125,0.1318625
1680008976551,1188964906583594,-0.0664125,0.0727375,0.1309
1680008976554,1188964909085748,-0.067375,0.07975,0.1269125
1680008976557,1188964911587907,-0.06545,0.0826375,0.12595
1680008976560,1188964914090060,-0.0664125,0.07975,0.12595
1680008976562,1188964916592214,-0.0664125,0.0807125,0.1208625
1680008976564,1188964919094137,-0.0664125,0.0847,0.1159125
