system_ts_ms, sensor_ts_ns, accX, accY, accZ
1680016759244,1196747594938241,-0.76995003,8.332951,4.77495
1680016759245,1196747597440472,-0.81795,8.368951,4.6800003
1680016759247,1196747599942933,-0.92100006,8.367001,4.7179503
1680016759260,1196747602445087,-0.83505005,8.44305,4.5
1680016759260,1196747604947472,-0.85605,8.533951,4.63905
1680016759261,1196747607449703,-0.78195006,8.39505,4.545
1680016759261,1196747609952087,-0.89505005,8.58705,4.4929504
1680016759261,1196747612454241,-0.83895004,8.596951,4.4209504
1680016759261,1196747614956703,-0.91905004,8.601001,4.3969502
1680016759272,1196747617458928,-0.92805004,8.58195,4.4620504
1680016759272,1196747619961313,-0.88305,8.632951,4.3830004
1680016759272,1196747622463467,-0.84900004,8.56995,4.5
1680016759272,1196747624965698,-0.85605,8.53905,4.5090003
1680016759273,1196747627468068,-0.91905004,8.467051,4.5480003
1680016759276,1196747629970299,-0.79605,8.54895,4.6200004
1680016759279,1196747632472684,-0.84195006,8.647051,4.58895
1680016759280,1196747634974914,-0.86595005,8.57295,4.53105
1680016759283,1196747637477053,-0.79905003,8.54205,4.6270504
1680016759287,1196747639979438,-0.76995003,8.55795,4.47795
1680016759289,1196747642481669,-0.77205,8.508,4.62405
1680016759291,1196747644984053,-0.86295,8.580001,4.6579504
1680016759297,1196747647486284,-0.79605,8.54205,4.6080003
1680016759298,1196747649988679,-0.813,8.53005,4.6650004
1680016759298,1196747652490909,-0.78705,8.52,4.67205
1680016759299,1196747654993063,-0.81105006,8.5990505,4.66995
1680016759302,1196747657495448,-0.78900003,8.53905,4.5930004
1680016759305,1196747659997597,-0.86595005,8.628,4.7590504
1680016759307,1196747662500058,-0.84900004,8.635051,4.6600504
1680016759314,1196747665002289,-0.85605,8.58495,4.73505
1680016759315,1196747667504674,-0.76005006,8.635051,4.7320504
1680016759315,1196747670006799,-0.88005006,8.653951,4.87095
1680016759318,1196747672509029,-0.86295,8.625,4.701
1680016759323,1196747675011414,-0.777,8.70405,4.8570004
1680016759331,1196747677512625,-0.84195006,8.641951,4.7200503
1680016759331,1196747680013858,-0.83205,8.58495,4.8690004
1680016759332,1196747682518241,-0.79395,8.61795,4.7800503
1680016759333,1196747685020626,-0.85395,8.637,4.6800003
1680016759333,1196747687522780,-0.75600004,8.568001,4.7629504
1680016759334,1196747690025010,-0.73395,8.532001,4.76805
1680016759337,1196747692527462,-0.79605,8.57295,4.7850003
1680016759339,1196747695029616,-0.82005006,8.620951,4.806
1680016759343,1196747697532000,-0.84705,8.61795,4.78695
1680016759345,1196747700034231,-0.82500005,8.68305,4.7920504
1680016759355,1196747702536616,-0.73605,8.52,4.8970504
1680016759356,1196747705038838,-0.69795,8.652,4.77495
1680016759356,1196747707541222,-0.77505004,8.53905,4.7590504
1680016759356,1196747710043453,-0.70995003,8.56995,4.7299504
1680016759365,1196747712545607,-0.68595004,8.620951,4.7250004
1680016759366,1196747715047991,-0.66,8.709001,4.7299504
1680016759366,1196747717601838,-0.61905,8.608951,4.6990504
1680016759367,1196747720052607,-0.67695004,8.47395,4.8040504
1680016759368,1196747722554838,-0.72495,8.56305,4.69605
1680016759370,1196747725057188,-0.657,8.565001,4.668
1680016759372,1196747727559342,-0.67905,8.56305,4.7389503
1680016759374,1196747730061573,-0.72,8.577001,4.79895
1680016759381,1196747732563958,-0.66705,8.589001,4.7059503
1680016759381,1196747735066188,-0.66495,8.52,4.6990504
1680016759382,1196747737568563,-0.70305,8.568001,4.6410003
1680016759384,1196747740070794,-0.78195006,8.568001,4.656
1680016759388,1196747742573178,-0.73605,8.476951,4.63395
1680016759390,1196747745075332,-0.76005006,8.476951,4.6000504
1680016759392,1196747747577563,-0.75105006,8.50605,4.6200004
1680016759397,1196747750080043,-0.75600004,8.53905,4.497
1680016759400,1196747752581119,-0.67905,8.484,4.66305
1680016759400,1196747755082198,-0.753,8.596951,4.63905
1680016759402,1196747757586813,-0.67395,8.53005,4.5690002
1680016759405,1196747760089001,-0.66495,8.51295,4.557
1680016759407,1196747762591385,-0.68595004,8.472,4.6150503
1680016759414,1196747765093847,-0.73905003,8.46,4.59105
1680016759415,1196747767596078,-0.65295005,8.424001,4.5810003
1680016759415,1196747770098245,-0.777,8.41695,4.57905
1680016759419,1196747772600630,-0.64305,8.458051,4.6320004
1680016759420,1196747775102861,-0.77205,8.55795,4.6480503
1680016759422,1196747777605245,-0.75105006,8.51805,4.53795
1680016759425,1196747780107462,-0.69105005,8.500951,4.56495
1680016759430,1196747782609847,-0.79200006,8.467051,4.56705
1680016759431,1196747785112078,-0.78000003,8.43105,4.5360003
1680016759434,1196747787614448,-0.78705,8.436001,4.6150503
1680016759437,1196747790116602,-0.78195006,8.41905,4.6410003
1680016759439,1196747792618833,-0.78405005,8.44095,4.668
1680016759441,1196747795121294,-0.90195006,8.448,4.6270504
1680016759446,1196747797623448,-0.87495005,8.3880005,4.77495
1680016759446,1196747800125823,-0.79200006,8.38305,4.6320004
1680016759447,1196747802628054,-0.80595005,8.400001,4.62405
1680016759450,1196747805130207,-0.80595005,8.415,4.72305
1680016759452,1196747807632592,-0.873,8.497951,4.5810003
1680016759454,1196747810134823,-0.897,8.41695,4.689
1680016759457,1196747812637231,-0.80805004,8.42205,4.58895
1680016759463,1196747815139462,-0.82005006,8.451,4.5859504
1680016759464,1196747817641616,-0.76500005,8.496,4.4809504
1680016759465,1196747820144001,-0.94995004,8.43105,4.5019503
1680016759467,1196747822646236,-0.89505005,8.496,4.392
1680016759471,1196747825148621,-0.957,8.43105,4.57695
1680016759473,1196747827650852,-0.90195006,8.46195,4.50705
1680016759479,1196747830153237,-0.88695,8.54895,4.56495
1680016759480,1196747832655467,-0.837,8.601001,4.4040003
1680016759480,1196747835157852,-0.89205,8.533951,4.51695
1680016759482,1196747837660006,-0.76500005,8.54205,4.63395
1680016759485,1196747840162237,-0.777,8.51505,4.5409503
1680016759488,1196747842664693,-0.73905003,8.55795,4.5430503
1680016759490,1196747845166847,-0.84405005,8.4529505,4.5600004
1680016759492,1196747847669232,-0.768,8.500951,4.51695
1680016759498,1196747850171462,-0.76305,8.509951,4.512
1680016759499,1196747852673847,-0.669,8.56095,4.4809504
1680016759500,1196747855176020,-0.72,8.49405,4.5550504
1680016759502,1196747857678481,-0.67200005,8.589001,4.48605
1680016759505,1196747860180712,-0.768,8.56995,4.48605
1680016759509,1196747862683102,-0.64095,8.5990505,4.3710003
1680016759514,1196747865185256,-0.64305,8.509951,4.3900504
1680016759515,1196747867687486,-0.57795,8.596951,4.40205
1680016759516,1196747870189871,-0.56205004,8.56995,4.4110503
1680016759520,1196747872692097,-0.63795,8.509951,4.40595
1680016759522,1196747877694481,-0.61695004,8.532001,4.3510504
1680016759524,1196747877854174,-0.61005,8.58195,4.4110503
1680016759529,1196747880198866,-0.633,8.60595,4.44495
1680016759530,1196747882701251,-0.60705,8.568001,4.5690002
1680016759531,1196747885203495,-0.64305,8.58195,4.3560004
1680016759532,1196747887705649,-0.58095,8.54205,4.53795
1680016759534,1196747890208111,-0.55905,8.491051,4.57695
1680016759537,1196747892710495,-0.60705,8.424001,4.60995
1680016759540,1196747895212649,-0.483,8.44095,4.572
1680016759542,1196747897714890,-0.46800002,8.476951,4.62405
1680016759548,1196747900217275,-0.48000002,8.509951,4.644
1680016759549,1196747902719505,-0.43500003,8.625,4.7629504
1680016759551,1196747905221890,-0.42000002,8.59395,4.72695
1680016759553,1196747907724121,-0.23595001,8.71605,4.8520503
1680016759555,1196747910226505,-0.26205,8.69205,4.7299504
1680016759558,1196747912728659,-0.27705002,8.85795,4.7200503
1680016759564,1196747915230890,-0.22200002,8.74695,4.6909504
1680016759565,1196747917733275,-0.252,8.644951,4.3830004
1680016759565,1196747920235736,-0.31500003,8.712001,4.2649503
1680016759567,1196747922737890,-0.423,8.74005,4.071
1680016759570,1196747925240121,-0.36495003,8.72595,4.09005
1680016759572,1196747927742506,-0.52095,8.79105,4.1290503
1680016759575,1196747930244736,-0.58605003,8.956051,4.10505
1680016759581,1196747932746890,-0.74595004,8.950951,4.18095
1680016759582,1196747935249352,-0.717,8.97,4.3110003
1680016759584,1196747937751726,-0.813,8.92695,4.27005
1680016759587,1196747940253957,-0.88005006,8.88405,4.2720003
1680016759589,1196747942756111,-0.85905004,8.877001,4.4160004
1680016759591,1196747945258496,-0.84705,8.889001,4.3110003
1680016759593,1196747947760649,-0.88695,8.83605,4.45905
1680016759595,1196747950262900,-0.97605,8.67105,4.41405
1680016759598,1196747952765362,-1.00695,8.74005,4.3510504
1680016759600,1196747955267516,-0.86100006,8.71905,4.4160004
1680016759602,1196747957769900,-0.88305,8.70405,4.40205
1680016759605,1196747960272131,-0.89895004,8.653951,4.34205
1680016759607,1196747962774304,-0.95205003,8.656051,4.39905
1680016759610,1196747965276688,-0.89205,8.577001,4.4040003
1680016759612,1196747967779150,-0.86805004,8.644951,4.464
1680016759615,1196747970281304,-0.98595005,8.611051,4.296
1680016759617,1196747972783544,-0.94500005,8.56305,4.32705
1680016759621,1196747975285928,-0.92805004,8.56995,4.392
1680016759623,1196747977788159,-0.86805004,8.5990505,4.38705
1680016759626,1196747980290299,-0.96195006,8.644951,4.44705
1680016759628,1196747982792760,-0.80805004,8.71605,4.3390503
1680016759630,1196747985295145,-0.84705,8.61795,4.28895
1680016759632,1196747987797376,-0.79905003,8.680051,4.3390503
1680016759637,1196747990299535,-0.79200006,8.61795,4.46595
1680016759638,1196747992801919,-0.813,8.647051,4.4040003
1680016759640,1196747995304150,-0.78195006,8.55795,4.22205
1680016759642,1196747997806612,-0.86100006,8.611051,4.3320003
1680016759646,1196748000308765,-0.59295005,8.628,4.24095
1680016759648,1196748002811164,-0.72900003,8.611051,4.32705
1680016759650,1196748005313395,-0.708,8.653951,4.2510004
1680016759652,1196748007815549,-0.72900003,8.676001,4.287
1680016759656,1196748010317933,-0.72900003,8.70705,4.3440003
1680016759660,1196748012820429,-0.75600004,8.6970005,4.224
1680016759661,1196748015322583,-0.66705,8.64,4.25295
1680016759663,1196748017824813,-0.76995003,8.70405,4.18095
1680016759665,1196748020327198,-0.67200005,8.649,4.25805
1680016759668,1196748022829352,-0.61200005,8.6640005,4.2169504
1680016759670,1196748025331578,-0.69795,8.74995,4.1860504
1680016759673,1196748027833962,-0.62895006,8.700001,4.25805
1680016759676,1196748030336193,-0.69105005,8.68995,4.3369503
1680016759678,1196748032838578,-0.66,8.72595,4.248
1680016759680,1196748035340809,-0.61695004,8.743051,4.2390003
1680016759682,1196748037843193,-0.66,8.755051,4.1530504
1680016759688,1196748040345347,-0.67695004,8.75205,4.2169504
1680016759690,1196748042847578,-0.62595004,8.72595,4.18905
1680016759691,1196748045350044,-0.66195005,8.75895,4.296
1680016759692,1196748047852198,-0.59505004,8.71605,4.143
1680016759698,1196748050354583,-0.68595004,8.70405,4.248
1680016759699,1196748052856814,-0.61005,8.712001,4.31505
1680016759701,1196748055359183,-0.59805006,8.84595,4.25805
1680016759703,1196748057861337,-0.62895006,8.74695,4.2010503
1680016759706,1196748060363799,-0.66,8.71395,4.21995
1680016759708,1196748062866029,-0.62895006,8.77095,4.26795
1680016759710,1196748065368414,-0.52305,8.805,4.32705
1680016759712,1196748067870573,-0.669,8.78295,4.26
1680016759718,1196748070372804,-0.59505004,8.74995,4.26
1680016759719,1196748072875188,-0.55200005,8.785951,4.2390003
1680016759721,1196748075377419,-0.55395,8.724,4.1670003
1680016759724,1196748077879799,-0.57795,8.70195,4.3060503
1680016759726,1196748080382029,-0.54195005,8.673,4.19805
1680016759728,1196748082884414,-0.56895,8.709001,4.2990003
1680016759730,1196748085386568,-0.47805002,8.793,4.30095
1680016759735,1196748087888775,-0.54495,8.74005,4.3440003
1680016759736,1196748090391236,-0.54195005,8.74695,4.2510004
1680016759738,1196748092893390,-0.56595004,8.74995,4.21995
1680016759740,1196748095395775,-0.53505003,8.755051,4.3660502
1680016759742,1196748097897929,-0.61395,8.743051,4.32705
1680016759746,1196748100400159,-0.51000005,8.72595,4.3560004
1680016759748,1196748102902544,-0.61695004,8.652,4.4040003
1680016759751,1196748105404775,-0.60195005,8.745001,4.31505
1680016759753,1196748107907159,-0.51000005,8.652,4.3110003
1680016759757,1196748110409379,-0.49905002,8.61795,4.3489504
1680016759759,1196748112911764,-0.53505003,8.69505,4.464
1680016759760,1196748115413918,-0.58605003,8.68305,4.29195
1680016759762,1196748117916148,-0.51600003,8.635051,4.25295
1680016759766,1196748120418533,-0.58605003,8.649,4.335
1680016759768,1196748122920764,-0.54495,8.644951,4.32495
1680016759771,1196748125423148,-0.59505004,8.589001,4.30095
1680016759773,1196748127925379,-0.58995,8.632951,4.33005
1680016759776,1196748130427764,-0.59805006,8.632951,4.22895
1680016759778,1196748132929909,-0.57105005,8.721001,4.44
1680016759780,1196748135432139,-0.59505004,8.641951,4.28205
1680016759785,1196748137934601,-0.54195005,8.68305,4.32495
1680016759786,1196748140436986,-0.56895,8.61795,4.37505
1680016759788,1196748142939139,-0.6,8.616,4.2769504
1680016759790,1196748145441370,-0.56205004,8.69205,4.32705
1680016759792,1196748147943755,-0.52095,8.5990505,4.3560004
1680016759796,1196748150445986,-0.58605003,8.785951,4.131
1680016759799,1196748152948370,-0.51405,8.653951,4.22205
1680016759800,1196748155450601,-0.55695003,8.7949505,4.191
1680016759803,1196748157952986,-0.51900005,8.721001,4.22895
1680016759806,1196748160455139,-0.51900005,8.688001,4.215
1680016759809,1196748162957332,-0.55695003,8.74995,4.25595
1680016759811,1196748165459717,-0.52305,8.75895,4.22895
1680016759813,1196748167961871,-0.54,8.75895,4.2649503
1680016759816,1196748170464332,-0.53805,8.733001,4.236
1680016759818,1196748172966563,-0.53805,8.67105,4.19805
1680016759820,1196748175468703,-0.55005,8.812051,4.236
1680016759823,1196748177971087,-0.55695003,8.809951,4.17705
1680016759826,1196748180473318,-0.51900005,8.7640505,4.17705
1680016759828,1196748182975472,-0.53505003,8.72595,4.227
1680016759830,1196748185477934,-0.56205004,8.769,4.2120004
1680016759832,1196748187980308,-0.54,8.788051,4.21995
1680016759837,1196748190482462,-0.59295005,8.818951,4.203
1680016759839,1196748192984693,-0.55695003,8.78295,4.2390003
1680016759840,1196748195487159,-0.48000002,8.773951,4.227
1680016759843,1196748197989313,-0.60495,8.75895,4.3060503
1680016759848,1196748200491698,-0.60705,8.830951,4.155
1680016759849,1196748202993929,-0.6,8.797951,4.1929502
1680016759852,1196748205496073,-0.48705003,8.812051,4.2460504
1680016759853,1196748207998457,-0.51000005,8.767051,4.25595
1680016759855,1196748210500919,-0.59295005,8.805,4.2510004
1680016759857,1196748213003150,-0.59505004,8.745001,4.2840004
1680016759859,1196748215505303,-0.58605003,8.71395,4.1929502
1680016759862,1196748218007703,-0.57405,8.785951,4.2319503
1680016759873,1196748220509857,-0.51000005,8.71605,4.10505
1680016759873,1196748223012088,-0.54705,8.745001,4.0279503
1680016759873,1196748225514549,-0.56595004,8.757,4.0279503
1680016759874,1196748228016703,-0.50100005,8.806951,4.17705
1680016759876,1196748230519097,-0.51000005,8.809951,4.011
1680016759878,1196748233021327,-0.432,8.7949505,4.09005
1680016759880,1196748235523712,-0.51900005,8.773951,3.9870002
1680016759885,1196748238025861,-0.47805002,8.81505,4.0009503
1680016759887,1196748240528322,-0.47805002,8.82195,3.8839502
1680016759889,1196748243030553,-0.43995002,8.85495,3.9160502
1680016759891,1196748245532938,-0.42795002,8.805,3.86805
1680016759893,1196748248035092,-0.46605003,8.80305,3.93195
1680016759896,1196748250537337,-0.504,8.842951,3.8200502
1680016759898,1196748253039722,-0.44400004,8.86005,3.7690501
1680016759900,1196748255541953,-0.47505003,8.842951,3.7890003
1680016759902,1196748258044337,-0.51600003,8.776051,3.9709501
1680016759906,1196748260546586,-0.588,8.86005,3.85995
1680016759908,1196748263048971,-0.41595003,8.7619505,3.8800502
1680016759910,1196748265551125,-0.40395,8.769,3.93195
1680016759913,1196748268053355,-0.52305,8.769,3.8770502
1680016759916,1196748270555731,-0.49905002,8.74695,3.9160502
1680016759919,1196748273058193,-0.411,8.809951,3.9160502
1680016759922,1196748275560346,-0.46800002,8.7949505,3.8460002
1680016759924,1196748278062577,-0.372,8.89095,3.8410501
1680016759926,1196748280564952,-0.43995002,8.74005,3.8749502
1680016759928,1196748283067106,-0.38205,8.755051,3.9490502
1680016759930,1196748285569337,-0.43995002,8.75205,3.83205
1680016759932,1196748288071721,-0.46800002,8.769,3.9109502
1680016759936,1196748290573952,-0.44400004,8.80305,3.9390001
1680016759938,1196748293076351,-0.44700003,8.767051,3.9630003
1680016759940,1196748295578504,-0.37005,8.724,3.9900002
1680016759943,1196748298080735,-0.47295,8.785951,3.89595
1680016759946,1196748300583120,-0.40800002,8.79105,3.9780002
1680016759948,1196748303085600,-0.37695003,8.806951,3.90105
1680016759950,1196748305587754,-0.42795002,8.86005,3.9079502
1680016759954,1196748308089985,-0.45405003,8.88405,3.8479502
1680016759956,1196748310592370,-0.34095,8.910001,3.96795
1680016759959,1196748313094586,-0.36795002,8.946,3.96795
1680016759961,1196748315596740,-0.34095,8.925,3.9130502
1680016759963,1196748318099202,-0.36,8.944051,3.9780002
1680016759966,1196748320601586,-0.31305,8.937,3.9900002
1680016759968,1196748323103817,-0.33705002,8.961,3.9420002
1680016759970,1196748325605976,-0.31500003,8.901,3.90105
1680016759973,1196748328108361,-0.29805002,8.87895,3.999
1680016759976,1196748330610591,-0.27705002,8.910001,4.038
1680016759978,1196748333112745,-0.31500003,8.961,4.0069504
1680016759980,1196748335615226,-0.26505002,9.03495,4.12095
1680016759983,1196748338117610,-0.30105,9.064051,4.1620502
1680016759987,1196748340619764,-0.21000001,9.00405,4.21005
1680016759988,1196748343121995,-0.252,8.98005,4.143
1680016759990,1196748345624370,-0.24105,8.934,4.098
1680016759993,1196748348126600,-0.17805001,8.85495,4.224
1680016759998,1196748350628985,-0.27705002,8.97,4.1290503
1680016759999,1196748353131216,-0.25695002,8.89095,4.0399504
1680016760002,1196748355633576,-0.252,8.961,4.098
1680016760003,1196748358135730,-0.109050006,8.908051,4.0150504
1680016760006,1196748360637961,-0.30105,8.958,4.05
1680016760008,1196748363140346,-0.18105,8.842951,4.08705
1680016760010,1196748365642576,-0.23400001,8.853001,4.155
1680016760012,1196748368144961,-0.252,8.877001,4.02105
1680016760016,1196748370647192,-0.33900002,8.785951,3.9900002
1680016760018,1196748373149346,-0.24105,8.84805,4.059
1680016760020,1196748375651730,-0.27705002,8.83395,3.9469502
1680016760023,1196748378153956,-0.25995,8.86995,3.8700001
1680016760026,1196748380656418,-0.13095,8.889001,3.9420002
1680016760028,1196748383158572,-0.28395,8.865001,4.011
1680016760030,1196748385660956,-0.28095,8.886001,3.9829502
1680016760035,1196748388163187,-0.25995,8.88195,3.8410501
1680016760037,1196748390665341,-0.27705002,8.913,3.89895
1680016760039,1196748393291187,-0.26505002,8.956051,3.90405
1680016760041,1196748395669956,-0.22605,8.938951,3.93195
1680016760043,1196748398172418,-0.29805002,8.953051,3.9469502
1680016760045,1196748400674577,-0.31500003,8.989051,3.9469502
1680016760047,1196748403176961,-0.31695002,8.898001,3.9829502
1680016760050,1196748405679192,-0.16905001,8.961,3.9160502
1680016760052,1196748408181346,-0.27705002,9.03195,3.9900002
1680016760056,1196748410683740,-0.31305,9.009001,4.12395
1680016760058,1196748413186202,-0.279,9.06105,4.0399504
1680016760060,1196748415688356,-0.18795002,9.030001,4.02105
1680016760062,1196748418190587,-0.26700002,8.986951,4.0399504
1680016760066,1196748420692971,-0.30495003,8.961,4.0279503
1680016760070,1196748423195125,-0.26505002,9.05895,4.07805
1680016760071,1196748425697356,-0.25695002,9.02505,4.0219502
1680016760074,1196748428199817,-0.28605002,9.094951,4.119
1680016760077,1196748430702197,-0.28905,8.97,4.00395
1680016760079,1196748433204351,-0.252,9.01305,3.8869503
1680016760081,1196748435706582,-0.231,9.04905,4.038
1680016760083,1196748438208966,-0.23400001,9.106951,3.9949503
1680016760086,1196748440711120,-0.31500003,9.0730505,3.9490502
1680016760088,1196748443213587,-0.279,9.06795,4.011
1680016760090,1196748445715817,-0.27195,9.03195,3.9900002
1680016760093,1196748448218202,-0.22605,9.174001,4.02105
1680016760096,1196748450720356,-0.29595003,8.98005,3.9870002
1680016760098,1196748453222587,-0.29295,9.1710005,4.038
1680016760100,1196748455724986,-0.27705002,9.02505,4.0069504
1680016760103,1196748458227217,-0.18300001,9.11205,4.02105
1680016760106,1196748460729602,-0.22605,9.06105,3.8940003
1680016760109,1196748463231822,-0.23805001,9.021001,4.0080004
1680016760111,1196748465734207,-0.291,9.147,3.9250503
1680016760114,1196748468236361,-0.22905001,9.04695,3.8820002
1680016760116,1196748470738592,-0.246,9.042001,3.9130502
1680016760119,1196748473240976,-0.21000001,9.05595,3.8389502
1680016760121,1196748475743188,-0.11400001,9.052051,3.7840502
1680016760123,1196748478245573,-0.21000001,8.956051,3.62595
1680016760126,1196748480747804,-0.13800001,9.2029505,3.7860003
1680016760128,1196748483250188,-0.13995,9.05895,3.798
1680016760130,1196748485752352,-0.11595,9.076051,3.82905
1680016760133,1196748488254583,-0.20205002,9.030001,3.7480502
1680016760136,1196748490757044,-0.231,9.094951,3.7669501
1680016760138,1196748493259198,-0.10395,8.965051,3.70005
1680016760140,1196748495761583,-0.135,9.0730505,3.8029501
1680016760143,1196748498263737,-0.23595001,9.066,3.7789502
1680016760148,1196748500765967,-0.24300002,8.961,3.7740002
1680016760149,1196748503268352,-0.126,9.03705,3.8050501
1680016760151,1196748505770583,-0.066,8.98005,3.8200502
1680016760154,1196748508272967,-0.109050006,9.09195,3.7570503
1680016760156,1196748510775198,-0.15405001,8.934,3.8580003
1680016760158,1196748513277583,-0.21405001,9.01605,3.8560503
1680016760160,1196748515779737,-0.102000006,9.066,3.801
1680016760163,1196748518281976,-0.17805001,9.04395,3.7690501
1680016760166,1196748520784438,-0.079950005,9.076051,3.8200502
1680016760168,1196748523286823,-0.15195,9.04905,3.7240503
1680016760171,1196748525788976,-0.17805001,8.950951,3.7720501
1680016760173,1196748528291222,-0.05595,8.950951,3.7240503
1680016760176,1196748530793607,-0.102000006,8.974951,3.6829503
1680016760178,1196748533295838,-0.04695,8.908051,3.6019502
1680016760180,1196748535798222,-0.05595,8.937,3.5800502
1680016760184,1196748538300433,-0.075,8.929951,3.6979501
1680016760187,1196748540802818,-0.11595,8.908051,3.66405
1680016760189,1196748543305048,-0.052050002,8.910001,3.5419502
1680016760191,1196748545807202,-0.01995,8.901,3.4480503
1680016760194,1196748548309587,-0.052050002,8.938951,3.4800003
1680016760196,1196748550811751,-0.063,8.89395,3.42705
1680016760199,1196748553314212,-0.08505,8.962951,3.492
1680016760200,1196748555816443,-0.075,8.953051,3.4440002
1680016760203,1196748558318597,-0.07305,8.944051,3.4680002
1680016760206,1196748560820987,-0.087000005,8.989051,3.4480503
1680016760208,1196748563323217,-0.13800001,8.98005,3.561
1680016760210,1196748565825602,-0.135,8.98005,3.6070502
1680016760213,1196748568327833,-0.10395,9.078,3.4770002
1680016760216,1196748570830207,-0.13305001,9.009001,3.5389502
1680016760218,1196748573332438,-0.13995,9.147,3.5440502
1680016760222,1196748575834592,-0.17595,9.106951,3.5010002
1680016760224,1196748578336977,-0.058950003,9.151951,3.62805
1680016760226,1196748580839183,-0.040050004,9.102,3.5110502
1680016760228,1196748583341568,-0.016050002,9.135,3.7219503
1680016760230,1196748585843799,-0.034950003,9.082951,3.6040502
1680016760234,1196748588346183,0.016050002,9.1710005,3.62805
1680016760236,1196748590848414,0.016050002,9.16905,3.55095
1680016760238,1196748593350549,0.04695,9.20505,3.55905
1680016760240,1196748595852934,-0.025050001,9.22395,3.52005
1680016760243,1196748598355395,0.094950005,9.19995,3.6090002
1680016760246,1196748600857626,0.04695,9.222,3.525
1680016760248,1196748603359784,0.030000001,9.40095,3.5059502
1680016760251,1196748605862168,0.054,9.298051,3.4720502
1680016760253,1196748608364399,0.04695,9.17595,3.5800502
1680016760256,1196748610866553,0.049050003,9.243,3.6090002
1680016760259,1196748613368958,0.030000001,9.32505,3.6040502
1680016760261,1196748615871419,0.018000001,9.283951,3.5970001
1680016760263,1196748618373573,0.054,9.387,3.6400502
1680016760266,1196748620875804,0.075,9.4129505,3.73095
1680016760268,1196748623378188,0.040050004,9.32205,3.8080502
1680016760270,1196748625880342,0.13995,9.432,3.7570503
1680016760273,1196748628382573,0.030000001,9.37695,3.8580003
1680016760276,1196748630885035,0.054,9.37005,3.7720501
1680016760278,1196748633387189,0.171,9.43995,3.8100002
1680016760280,1196748635889573,0.075,9.394051,3.7860003
1680016760283,1196748638391804,0.11895001,9.424951,3.82695
1680016760286,1196748640893958,0.08505,9.492001,3.7500002
1680016760288,1196748643396342,0.15,9.436951,3.9439502
1680016760290,1196748645898823,0.06105,9.436951,3.8770502
1680016760292,1196748648401054,0.09195001,9.45195,3.7720501
1680016760299,1196748650903208,0.09900001,9.459001,3.89895
1680016760300,1196748653405592,0.109050006,9.49995,3.7170002
1680016760302,1196748655907813,0.09195001,9.483001,3.7840502
1680016760303,1196748658410198,0.01995,9.448951,3.8389502
1680016760306,1196748660912428,0.054,9.47295,3.82695
1680016760308,1196748663414813,0.018000001,9.4470005,3.83205
1680016760310,1196748665917044,0.11100001,9.35595,3.9199502
1680016760314,1196748668419184,0.07095,9.318001,3.82695
1680016760316,1196748670921568,0.109050006,9.46395,3.8239503
1680016760319,1196748673423799,0.04695,9.34095,3.8560503
1680016760321,1196748675926261,0.04695,9.259951,3.8820002
1680016760323,1196748678428414,0.079950005,9.28905,3.8130002
1680016760327,1196748680930799,0.09,9.279,3.7549503
1680016760329,1196748683432953,0.16395001,9.375,3.7140002
1680016760330,1196748685935414,0.09195001,9.291,3.8149502
1680016760335,1196748688437645,0.11100001,9.21,3.7140002
1680016760338,1196748690940020,0.040050004,9.16395,3.6780002
1680016760339,1196748693442174,0.078,9.27705,3.762
1680016760341,1196748695944404,0.08295,9.15495,3.7720501
1680016760343,1196748698446789,0.07095,9.22605,3.7360501
1680016760346,1196748700949025,0.040050004,9.186001,3.55605
1680016760348,1196748703451409,0.066,9.16395,3.62295
1680016760352,1196748705953640,0.07305,9.135,3.7410002
1680016760354,1196748708455794,0.11100001,9.121051,3.5320501
1680016760357,1196748710958184,0.08505,9.085051,3.7099502
1680016760359,1196748713460414,0.162,9.06795,3.6349502
1680016760361,1196748715962568,0.17805001,9.18105,3.6739502
1680016760363,1196748718465030,0.15,9.009001,3.6499503
1680016760366,1196748720967414,0.18300001,8.973001,3.5970001
1680016760369,1196748723469582,0.24300002,8.986951,3.5130002
1680016760372,1196748725971813,0.14205001,9.04695,3.45795
1680016760374,1196748728474198,0.20505,8.877001,3.4840503
1680016760377,1196748730976342,0.17400001,9.03495,3.4480503
1680016760379,1196748733478803,0.21000001,9.088051,3.4770002
1680016760381,1196748735981034,0.21405001,8.925,3.4819503
1680016760383,1196748738483419,0.31695002,8.932051,3.4360502
1680016760387,1196748740985572,0.16905001,8.925,3.4840503
1680016760389,1196748743487794,0.27705002,8.925,3.3979502
1680016760391,1196748745990179,0.29595003,9.01605,3.4440002
1680016760394,1196748748492640,0.30795002,8.901,3.492
1680016760397,1196748750994794,0.303,8.89095,3.4339502
1680016760399,1196748753497044,0.30105,8.925,3.528
1680016760401,1196748755999429,0.26205,8.920051,3.4990501
1680016760403,1196748758501659,0.23595001,8.88195,3.3670502
1680016760407,1196748761003813,0.32505003,8.962951,3.492
1680016760410,1196748763506299,0.30495003,8.946,3.4840503
1680016760412,1196748766008683,0.31695002,8.910001,3.2929502
1680016760413,1196748768510837,0.29595003,8.901,3.3120003
1680016760416,1196748771013068,0.35295,8.901,3.3120003
1680016760418,1196748773515439,0.29595003,8.89095,3.25005
1680016760420,1196748776017592,0.34605002,8.910001,3.1710002
1680016760423,1196748778519823,0.38205,8.973001,3.288
1680016760426,1196748781022285,0.291,8.974951,3.219
1680016760428,1196748783524654,0.30105,9.02295,3.2350502
1680016760430,1196748786026808,0.34095,8.937,3.1920002
1680016760434,1196748788529039,0.44700003,9.00405,3.28605
1680016760438,1196748791031193,0.38205,8.99205,3.2640002
1680016760439,1196748793533592,0.40395,8.985001,3.2040002
1680016760441,1196748796036053,0.43695003,9.02295,3.2620502
1680016760443,1196748798538207,0.37500003,9.00405,3.2760003
1680016760448,1196748801040438,0.37005,9.04395,3.2899501
1680016760450,1196748803542827,0.37500003,8.973001,3.4099503
1680016760452,1196748806045058,0.43905002,9.01095,3.2209501
1680016760453,1196748808547212,0.41295,9.01095,3.348
1680016760456,1196748811049673,0.31695002,9.05595,3.2280002
1680016760458,1196748813552058,0.40095,9.127951,3.2929502
1680016760460,1196748816054265,0.26700002,9.00405,3.3240001
1680016760463,1196748818556419,0.30105,9.03195,3.3240001
1680016760466,1196748821058803,0.28395,9.126,3.14895
1680016760468,1196748823561034,0.20700002,9.0709505,3.3000002
1680016760470,1196748826063419,0.231,9.159,3.3120003
1680016760474,1196748828565650,0.16395001,9.121051,3.3379502
1680016760476,1196748831068034,0.231,9.20505,3.3769503
1680016760478,1196748833570265,0.16395001,9.16695,3.3310502
1680016760480,1196748836072419,0.12105001,9.13305,3.38895
1680016760484,1196748838574827,0.19305001,9.13095,3.3360002
1680016760488,1196748841076981,0.078,9.14505,3.4819503
1680016760490,1196748843579443,0.11895001,9.21195,3.4129503
1680016760496,1196748846081679,0.11100001,9.229051,3.4050002
1680016760496,1196748848583832,0.07095,9.21,3.3690002
1680016760496,1196748851086217,0.01995,9.247951,3.453
1680016760498,1196748853588448,0.075,9.21195,3.4510503
1680016760501,1196748856090832,0.010950001,9.27,3.4150503
1680016760503,1196748858593077,0.018000001,9.318001,3.3690002
1680016760506,1196748861095462,0.063,9.385051,3.525
1680016760508,1196748863597693,0.01305,9.391951,3.4440002
1680016760511,1196748866099846,0.0010500001,9.432,3.38895
1680016760514,1196748868602217,0.054,9.3820505,3.453
1680016760517,1196748871104448,-0.00795,9.306001,3.3049502
1680016760520,1196748873606832,0.078,9.30795,3.32205
1680016760524,1196748876109058,0.10695001,9.42,3.28095
1680016760527,1196748878610251,0.042000003,9.385051,3.3360002
1680016760527,1196748881111444,-0.016050002,9.456,3.3979502
1680016760529,1196748883615827,0.12795001,9.4129505,3.3049502
1680016760531,1196748886118212,0.06105,9.397051,3.3019502
1680016760533,1196748888620674,0.08505,9.432,3.2740502
1680016760537,1196748891122914,0.054,9.456,3.2430003
1680016760539,1196748893625068,0.09,9.283951,3.1369503
1680016760542,1196748896127453,0.10695001,9.33705,3.1680002
1680016760543,1196748898629684,0.0010500001,9.3490505,3.1369503
1680016760546,1196748901132058,-0.01995,9.34095,3.15105
1680016760548,1196748903634289,0.09705,9.44205,3.0940502
1680016760552,1196748906136674,0.043950003,9.418051,3.1729503
1680016760555,1196748908638828,0.08295,9.394051,3.11805
1680016760557,1196748911141063,0.049050003,9.456,3.1660502
1680016760560,1196748913643448,0.11100001,9.403951,3.072
1680016760562,1196748916145602,0.043950003,9.43995,3.0559502
1680016760564,1196748918647833,0.126,9.50205,3.039
1680016760567,1196748921150308,0.07305,9.361051,3.072
1680016760569,1196748923652462,0.06105,9.36795,3.1560001
1680016760571,1196748926154847,0.11895001,9.33195,3.252
1680016760573,1196748928657077,-0.018000001,9.40905,3.051
1680016760578,1196748931159462,0.08295,9.4129505,3.0250502
1680016760579,1196748933661616,0.109050006,9.385051,3.18495
1680016760581,1196748936164077,0.06795,9.31305,3.07995
1680016760583,1196748938666308,0.034950003,9.436951,3.07995
1680016760587,1196748941168462,0.102000006,9.33705,3.015
1680016760589,1196748943670862,0.066,9.30105,3.01305
1680016760591,1196748946173092,0.13995,9.36795,3.084
1680016760594,1196748948675477,0.066,9.436951,3.0199502
1680016760598,1196748951177708,0.054,9.306001,2.9260502
1680016760600,1196748953680106,0.12795001,9.32205,3.0270002
1680016760602,1196748956182337,0.10695001,9.42,3.0250502
1680016760604,1196748958684722,0.075,9.379951,2.9569502
1680016760607,1196748961186876,0.058950003,9.397051,2.9260502
1680016760610,1196748963689106,0.16395001,9.430051,2.8980002
1680016760611,1196748966191554,0.11595,9.42,2.943
1680016760613,1196748968693708,0.09900001,9.387,2.8279502
1680016760617,1196748971196092,0.094950005,9.4129505,2.9220002
1680016760619,1196748973698323,0.075,9.32505,2.8159502
1680016760621,1196748976200708,0.13305001,9.38895,2.77095
1680016760623,1196748978702852,0.109050006,9.397051,2.74005
1680016760627,1196748981205313,0.078,9.36795,2.88105
1680016760630,1196748983707467,0.12795001,9.385051,2.8279502
1680016760631,1196748986209703,0.13095,9.274051,2.8830001
1680016760637,1196748988712088,0.11895001,9.33705,2.9959502
1680016760639,1196748991214241,0.15900001,9.3820505,2.87805
1680016760641,1196748994053703,0.17595,9.35805,2.9670002
1680016760643,1196748996235563,0.21000001,9.35805,2.97405
1680016760644,1196748998721102,0.21405001,9.36795,2.9290502
1680016760647,1196749001223486,0.20700002,9.403951,2.8900502
1680016760649,1196749003725717,0.19305001,9.379951,2.9310002
1680016760652,1196749006228102,0.20505,9.339001,2.8660502
1680016760654,1196749008730246,0.26505002,9.391951,2.8500001
1680016760657,1196749011232477,0.15900001,9.339001,2.89995
1680016760659,1196749013734939,0.21900001,9.411,2.8830001
1680016760662,1196749016237323,0.24495001,9.424951,2.8620002
1680016760663,1196749018739477,0.15900001,9.411,2.766
1680016760666,1196749021241703,0.21000001,9.385051,2.6170502
1680016760669,1196749023744088,0.186,9.430051,2.7160501
1680016760672,1196749026246318,0.22395001,9.418051,2.7540002
1680016760675,1196749028748683,0.18795002,9.411,2.7199502
1680016760678,1196749031250914,0.17805001,9.387,2.7610502
1680016760679,1196749033753298,0.24795002,9.397051,2.7900002
1680016760681,1196749036255452,0.19500001,9.4470005,2.69595
1680016760683,1196749038757683,0.17595,9.456,2.8570502
1680016760687,1196749041260083,0.17805001,9.3490505,2.838
1680016760689,1196749043762313,0.20205002,9.385051,2.8519502
1680016760691,1196749046264698,0.14205001,9.436951,2.835
1680016760693,1196749048766929,0.23595001,9.47595,2.7469501
1680016760696,1196749051269107,0.17595,9.40905,2.94105
1680016760698,1196749053771491,0.14205001,9.4129505,2.9239502
1680016760701,1196749056273722,0.17595,9.47295,3.0030003
1680016760703,1196749058775876,0.19995001,9.49005,2.979
1680016760706,1196749061278308,0.11400001,9.432,2.97195
1680016760710,1196749063780693,0.126,9.495001,3.08205
1680016760712,1196749066282847,0.11100001,9.49695,3.0990002
1680016760714,1196749068785078,0.030000001,9.459001,3.04605
1680016760718,1196749071287472,0.09900001,9.4129505,2.89995
1680016760720,1196749073789703,0.147,9.42,2.9290502
1680016760722,1196749076292088,0.018000001,9.436951,3.0199502
1680016760723,1196749078794318,0.025050001,9.436951,3.0319502
1680016760726,1196749081296703,-0.025050001,9.483001,3.0870001
1680016760728,1196749083798962,0.034950003,9.49995,3.0529501
1680016760731,1196749086301116,0.03705,9.567,3.0169501
1680016760733,1196749088803500,0.08295,9.45405,3.01305
1680016760736,1196749091305962,0.03705,9.63105,2.9650502
1680016760738,1196749093808083,0.109050006,9.516001,2.9530501
1680016760741,1196749096310314,0.01305,9.540001,2.8639503
1680016760743,1196749098812698,-0.0010500001,9.53295,2.97195
1680016760748,1196749101314852,0.01305,9.52095,2.907
1680016760750,1196749103817088,-0.11595,9.48495,2.799
1680016760752,1196749106319549,0.030000001,9.559051,2.90505
1680016760754,1196749108821703,-0.08505,9.526051,3.00495
1680016760757,1196749111324088,-0.00405,9.538051,2.946
1680016760759,1196749113826319,-0.052050002,9.531,2.9260502
1680016760761,1196749116328471,-0.042000003,9.538051,3.0340502
1680016760763,1196749118830856,-0.09195001,9.5140505,2.9890501
1680016760766,1196749121333318,-0.126,9.526051,3.04605
1680016760769,1196749123835471,-0.14295001,9.52305,2.9650502
1680016760771,1196749126337674,-0.13095,9.559051,2.9340003
1680016760774,1196749128840059,-0.09,9.574051,3.00495
1680016760776,1196749131342290,-0.20205002,9.568951,2.8980002
1680016760778,1196749133844443,-0.11895001,9.519,2.97705
1680016760781,1196749136346828,-0.18105,9.61005,2.7870002
1680016760785,1196749138849289,-0.09900001,9.591001,2.87595
1680016760788,1196749141351442,-0.19995001,9.53295,2.8590002
1680016760790,1196749143853673,-0.20505,9.552,2.775
1680016760792,1196749146356073,-0.246,9.436951,2.7559502
1680016760795,1196749148858304,-0.246,9.555,2.8230002
1680016760799,1196749151360458,-0.23595001,9.531,2.7610502
1680016760800,1196749153862919,-0.21405001,9.526051,2.8879502
1680016760802,1196749156365304,-0.26895002,9.53505,2.80395
1680016760803,1196749158867529,-0.21000001,9.571051,2.802
1680016760806,1196749161369683,-0.24300002,9.562051,2.8900502
1680016760808,1196749163872068,-0.29805002,9.567,2.87595
1680016760811,1196749166374222,-0.19500001,9.595051,3.01305
1680016760813,1196749168876688,-0.18795002,9.54705,2.9310002
1680016760816,1196749171378919,-0.126,9.574051,2.9530501
1680016760819,1196749173881073,-0.15900001,9.53505,2.84505
1680016760822,1196749176383458,-0.171,9.483001,2.811
1680016760824,1196749178885924,-0.075,9.40905,2.8549502
1680016760827,1196749181388078,-0.01995,9.504001,2.8590002
1680016760829,1196749183890309,-0.025050001,9.48795,2.7850502
1680016760831,1196749186392693,0.03705,9.391951,2.775
1680016760835,1196749188894832,0.08295,9.385051,2.766
1680016760837,1196749191397063,0.06105,9.427951,2.661
1680016760839,1196749193899525,0.09705,9.423,2.5480502
1680016760841,1196749196401678,0.17595,9.3820505,2.6460001
1680016760844,1196749198904063,0.27405003,9.42,2.5069501
1680016760847,1196749201406313,0.17805001,9.339001,2.56695
1680016760850,1196749203908467,0.279,9.363001,2.6220002
1680016760853,1196749206410851,0.29295,9.32205,2.6580002
1680016760854,1196749208913313,0.28905,9.418051,2.56005
1680016760857,1196749211415443,0.35595003,9.33195,2.67
1680016760862,1196749213917673,0.31695002,9.363001,2.5810502
1680016760862,1196749216420058,0.39195,9.34605,2.5429502
1680016760864,1196749218922212,0.33195,9.397051,2.5810502
1680016760867,1196749221424434,0.372,9.32205,2.63895
1680016760869,1196749223926818,0.43905002,9.387,2.661
1680016760871,1196749226429280,0.351,9.391951,2.6800501
1680016760875,1196749228931434,0.32895002,9.406051,2.62695
1680016760878,1196749231433664,0.42495003,9.32505,2.5120502
1680016760879,1196749233936049,0.47295,9.37695,2.5069501
1680016760881,1196749236438280,0.44400004,9.361051,2.64105
1680016760883,1196749238940434,0.45105,9.351001,2.5890002
1680016760886,1196749241442895,0.37995002,9.283951,2.4829502
1680016760889,1196749243945280,0.44895002,9.339001,2.4469502
1680016760891,1196749246447511,0.38895002,9.40905,2.57205
1680016760893,1196749248949665,0.384,9.282001,2.49495
1680016760898,1196749251452044,0.33900002,9.387,2.5459502
1680016760900,1196749253954198,0.351,9.34395,2.67705
1680016760902,1196749256456660,0.25005,9.243,2.5530002
1680016760904,1196749258958890,0.29805002,9.255,2.6440501
1680016760909,1196749261461039,0.30105,9.35595,2.63895
1680016760909,1196749263963424,0.28605002,9.279,2.62905
1680016760911,1196749266465655,0.18300001,9.35805,2.706
1680016760916,1196749268967808,0.22605,9.219001,2.7559502
1680016760919,1196749271470275,0.123,9.327001,2.7109501
1680016760921,1196749273972660,0.11100001,9.328951,2.69895
1680016760923,1196749276474813,0.04695,9.306001,2.73
1680016760924,1196749278977044,-0.00405,9.34095,2.63205
1680016760927,1196749281479429,-0.034950003,9.234,2.69595
1680016760929,1196749283981660,0.09900001,9.298051,2.73705
1680016760931,1196749286483813,0.058950003,9.403951,2.7439501
1680016760936,1196749288986275,-0.042000003,9.373051,2.69595
1680016760938,1196749291488660,-0.10695001,9.34095,2.706
1680016760940,1196749293990904,-0.06105,9.33195,2.6839502
1680016760942,1196749296493058,-0.01995,9.32205,2.7870002
1680016760943,1196749298995443,-0.066,9.423,2.802
1680016760946,1196749301497674,-0.08505,9.3490505,2.7610502
1680016760949,1196749304000135,-0.066,9.411,2.766
1680016760952,1196749306502264,-0.10395,9.379951,2.84505
1680016760954,1196749309004649,-0.102000006,9.423,2.8570502
1680016760957,1196749311506879,-0.19305001,9.403951,2.6940002
1680016760959,1196749314009033,-0.087000005,9.418051,2.6820002
1680016760961,1196749316511418,-0.11895001,9.43995,2.8260002
1680016760964,1196749319013845,-0.11595,9.483001,2.7490501
1680016760967,1196749321515999,-0.11595,9.50205,2.7850502
1680016760968,1196749324018230,-0.09900001,9.427951,2.7469501
1680016760974,1196749326520611,-0.09900001,9.4470005,2.69595
1680016760975,1196749329022765,-0.18105,9.436951,2.5480502
1680016760977,1196749331524995,-0.09195001,9.492001,2.57205
1680016760979,1196749334027380,-0.075,9.394051,2.53605
1680016760981,1196749336529611,-0.034950003,9.387,2.526
1680016760985,1196749339031990,-0.09195001,9.42,2.4810002
1680016760987,1196749341534221,-0.03705,9.468,2.5120502
1680016760989,1196749344036375,-0.11400001,9.471001,2.4880502
1680016760991,1196749346538760,-0.042000003,9.397051,2.4550502
1680016760995,1196749349041230,-0.08295,9.298051,2.49795
1680016760997,1196749351543461,-0.01305,9.36795,2.60805
1680016760999,1196749354045615,0.034950003,9.394051,2.60295
1680016761001,1196749356547999,-0.040050004,9.32505,2.5240502
1680016761004,1196749359050230,-0.018000001,9.391951,2.6749501
1680016761008,1196749361552649,-0.030000001,9.48795,2.601
1680016761012,1196749364054803,0.03705,9.373051,2.7630002
1680016761014,1196749366557264,0.066,9.4129505,2.69595
1680016761015,1196749369059495,0.07305,9.391951,2.7469501
1680016761016,1196749371561634,-0.028050002,9.411,2.6200502
1680016761019,1196749374064018,0.040050004,9.361051,2.6800501
1680016761021,1196749376566249,0.06795,9.394051,2.73195
1680016761024,1196749379068634,0.06105,9.35295,2.7180002
1680016761027,1196749381570899,0.15405001,9.4470005,2.637
1680016761029,1196749384073283,0.049050003,9.32505,2.6920502
1680016761031,1196749386575437,0.07095,9.36495,2.6170502
1680016761035,1196749389077668,0.147,9.34395,2.661
1680016761037,1196749391580042,0.109050006,9.30105,2.63895
1680016761039,1196749394082196,0.17805001,9.418051,2.5840502
1680016761041,1196749396584658,0.19305001,9.403951,2.6869502
1680016761043,1196749399086889,0.18300001,9.50895,2.6200502
1680016761048,1196749401589038,0.17805001,9.40095,2.7280502
1680016761050,1196749404091423,0.24495001,9.471001,2.70405
1680016761052,1196749406593654,0.25500003,9.5449505,2.6490002
1680016761054,1196749409096039,0.22905001,9.526051,2.6839502
1680016761056,1196749411598269,0.21405001,9.555,2.6580002
1680016761059,1196749414100658,0.13995,9.6,2.8140001
1680016761061,1196749416602889,0.17805001,9.53505,2.64105
1680016761063,1196749419105043,0.19305001,9.46605,2.742
1680016761066,1196749421607427,0.21000001,9.5119505,2.7850502
1680016761068,1196749424109658,0.19800001,9.492001,2.67195
1680016761071,1196749426612119,0.15900001,9.580951,2.7109501
1680016761074,1196749429114273,0.231,9.579,2.778
1680016761077,1196749431616658,0.20505,9.5449505,2.6890502
1680016761079,1196749434118899,0.12795001,9.516001,2.74005
1680016761081,1196749436621053,0.19500001,9.562051,2.70405
1680016761085,1196749439123437,0.11895001,9.526051,2.838
1680016761088,1196749441625668,0.147,9.49005,2.80395
1680016761090,1196749444128125,0.16605,9.52305,2.8260002
1680016761092,1196749446630278,0.04695,9.580951,2.8159502
1680016761094,1196749449132663,0.15900001,9.504001,2.835
1680016761097,1196749451634894,0.16395001,9.559051,2.6839502
1680016761099,1196749454137048,0.09,9.528001,2.84295
1680016761102,1196749456639413,0.075,9.43995,2.84505
1680016761104,1196749459141875,-0.0010500001,9.571051,2.766
1680016761107,1196749461644029,0.06105,9.5119505,2.8519502
1680016761109,1196749464146259,0.094950005,9.567,2.76795
1680016761111,1196749466648639,0.109050006,9.436951,2.66295
1680016761115,1196749469150793,0.09900001,9.492001,2.7469501
1680016761122,1196749471653024,0.075,9.468,2.6580002
1680016761122,1196749474155485,0.16395001,9.435,2.7630002
1680016761123,1196749476657664,0.051000003,9.50895,2.6460001
1680016761126,1196749479160049,0.11400001,9.385051,2.73195
1680016761128,1196749481662279,0.13995,9.3490505,2.6220002
1680016761129,1196749484164664,0.09,9.4129505,2.6170502
1680016761131,1196749486666818,0.11895001,9.397051,2.53095
1680016761134,1196749489169289,0.058950003,9.379951,2.634
1680016761136,1196749491671520,0.15405001,9.37005,2.637
1680016761138,1196749494173905,0.13995,9.3820505,2.6220002
1680016761141,1196749496676059,0.17805001,9.394051,2.6530502
1680016761143,1196749499178294,0.13095,9.315001,2.6490002
1680016761146,1196749501680679,0.15405001,9.387,2.7250502
1680016761148,1196749504182833,0.11400001,9.35595,2.7180002
1680016761151,1196749506685295,0.15,9.30795,2.799
1680016761154,1196749509187515,0.25500003,9.399,2.8230002
1680016761157,1196749511689669,0.19005,9.36795,2.8570502
1680016761161,1196749514192054,0.25695002,9.37695,2.907
1680016761162,1196749516694285,0.15900001,9.42,2.91405
1680016761165,1196749519196438,0.29595003,9.27705,2.8279502
1680016761167,1196749521698881,0.29595003,9.387,2.8549502
1680016761168,1196749524201266,0.29295,9.397051,2.74005
1680016761171,1196749526703419,0.252,9.411,2.73
1680016761174,1196749529205650,0.26505002,9.35805,2.6509502
1680016761176,1196749531708006,0.28605002,9.427951,2.53095
1680016761179,1196749534210160,0.33600003,9.46605,2.5840502
1680016761181,1196749536712621,0.40095,9.456,2.5459502
1680016761184,1196749539214852,0.31695002,9.45405,2.50005
1680016761188,1196749541717232,0.35295,9.49005,2.6490002
1680016761189,1196749544219385,0.37695003,9.5449505,2.62905
1680016761191,1196749546721616,0.33195,9.483001,2.70795
1680016761194,1196749549224001,0.34800002,9.64095,2.706
1680016761198,1196749551726467,0.291,9.595051,2.67195
1680016761200,1196749554228621,0.35295,9.492001,2.69595
1680016761202,1196749556730852,0.22605,9.61695,2.70405
1680016761204,1196749559233237,0.22200002,9.559051,2.7160501
1680016761207,1196749561735481,0.28905,9.571051,2.6800501
1680016761209,1196749564237635,0.33405003,9.47295,2.80905
1680016761211,1196749566740097,0.27195,9.660001,2.67705
1680016761213,1196749569242251,0.25695002,9.58605,2.6100001
1680016761216,1196749571744635,0.27195,9.495001,2.67
1680016761218,1196749574246900,0.231,9.50205,2.637
1680016761221,1196749576749054,0.24105,9.49695,2.6220002
1680016761223,1196749579251439,0.21195,9.46605,2.70795
1680016761226,1196749581753669,0.09,9.45195,2.6940002
1680016761228,1196749584256039,0.15405001,9.406051,2.5069501
1680016761231,1196749586758270,0.15705001,9.38895,2.5930502
1680016761236,1196749589260654,0.15405001,9.45195,2.6749501
1680016761238,1196749591762808,0.123,9.32205,2.7559502
1680016761240,1196749594377654,0.12105001,9.318001,2.6749501
1680016761242,1196749596767424,0.12105001,9.47295,2.7630002
1680016761244,1196749599269885,0.05595,9.444,2.6580002
1680016761247,1196749601772039,0.135,9.3490505,2.7280502
1680016761248,1196749604274270,0.11595,9.34095,2.73705
1680016761252,1196749606776654,0.094950005,9.298051,2.70105
1680016761254,1196749609278885,0.10395,9.36795,2.69595
1680016761256,1196749611781039,0.13305001,9.34605,2.73495
1680016761259,1196749614283501,0.022950001,9.33405,2.70105
1680016761261,1196749616785876,-0.00795,9.34605,2.70795
1680016761264,1196749619288107,0.040050004,9.318001,2.6509502
1680016761267,1196749621790261,-0.016050002,9.385051,2.766
1680016761269,1196749624292669,0.006,9.351001,2.7229502
1680016761272,1196749626794823,-0.028050002,9.22605,2.5740001
1680016761275,1196749629297285,0.01305,9.394051,2.80695
1680016761279,1196749631799516,-0.034950003,9.363001,2.8140001
1680016761280,1196749634301919,0.016050002,9.315001,2.811
1680016761282,1196749636804073,-0.010950001,9.33195,2.80905
1680016761284,1196749639306304,0.010950001,9.282001,2.73195
1680016761288,1196749641808688,-0.018000001,9.34395,2.8230002
1680016761290,1196749644310919,0.034950003,9.291,2.6220002
1680016761291,1196749646813288,-0.08505,9.40905,2.77305
1680016761294,1196749649315442,0.051000003,9.415951,2.5860002
1680016761296,1196749651817672,0.051000003,9.391951,2.6580002
1680016761299,1196749654320057,-0.01305,9.385051,2.53605
1680016761302,1196749656822288,0.040050004,9.229051,2.60295
1680016761304,1196749659324452,0.066,9.507001,2.59095
1680016761308,1196749661826913,0.07095,9.432,2.5480502
1680016761312,1196749664329312,0.018000001,9.430051,2.57205
1680016761314,1196749666831466,0.094950005,9.30105,2.5740001
1680016761315,1196749669333697,0.030000001,9.418051,2.6749501
1680016761319,1196749671836158,0.10395,9.4800005,2.6130002
1680016761321,1196749674338312,0.109050006,9.456,2.70105
1680016761323,1196749676840693,0.13995,9.50205,2.6920502
1680016761326,1196749679342923,0.13800001,9.49995,2.73705
1680016761328,1196749681845308,0.11595,9.47295,2.8230002
1680016761330,1196749684347462,0.171,9.424951,2.70105
1680016761331,1196749686849923,0.17595,9.432,2.6820002
1680016761335,1196749689352173,0.126,9.38895,2.64105
1680016761336,1196749691854327,0.30495003,9.5140505,2.6800501
1680016761339,1196749694356712,0.11895001,9.50895,2.57205
1680016761341,1196749696858942,0.12795001,9.5119505,2.4520502
1680016761343,1196749699361327,0.126,9.403951,2.4829502
1680016761348,1196749701863558,0.231,9.53295,2.5240502
1680016761350,1196749704365942,0.18105,9.52095,2.5530002
1680016761351,1196749706868173,0.20505,9.579,2.565
1680016761354,1196749709370341,0.28905,9.556951,2.4709501
1680016761357,1196749711872726,0.19995001,9.571051,2.505
1680016761359,1196749714374956,0.27705002,9.555,2.4780002
1680016761361,1196749716877341,0.25005,9.607051,2.60295
1680016761364,1196749719379572,0.19800001,9.53505,2.7469501
1680016761367,1196749721881707,0.135,9.567,2.6839502
1680016761369,1196749724384091,0.21000001,9.507001,2.598
1680016761371,1196749726886322,0.11400001,9.571051,2.6490002
1680016761374,1196749729388707,0.25005,9.571051,2.6800501
1680016761377,1196749731890927,0.054,9.456,2.601
1680016761379,1196749734393312,-0.022950001,9.516001,2.8330503
1680016761382,1196749736895543,0.07305,9.48495,2.8230002
1680016761386,1196749739397664,-0.09,9.519,2.69895
1680016761390,1196749741900048,0.016050002,9.538051,2.69595
1680016761392,1196749744402279,-0.13305001,9.4470005,2.7130501
1680016761393,1196749746904664,-0.14505,9.53505,2.8570502
1680016761395,1196749749406894,-0.11895001,9.538051,2.9170501
1680016761398,1196749751909283,0.006,9.588,2.9650502
1680016761402,1196749754411514,-0.03705,9.564,2.8210502
1680016761402,1196749756913898,-0.030000001,9.62205,2.87805
1680016761404,1196749759416052,0.016050002,9.552,2.8189502
1680016761407,1196749761918255,0.08505,9.591001,2.8930502
1680016761409,1196749764420717,0.022950001,9.519,2.6200502
1680016761411,1196749766922871,0.03705,9.5119505,2.6130002
1680016761414,1196749769425255,0.040050004,9.583051,2.5530002
1680016761416,1196749771927486,-0.006,9.49695,2.361
1680016761419,1196749774429649,0.058950003,9.591001,2.26305
1680016761423,1196749776932033,0.03705,9.562051,2.35395
1680016761425,1196749779434495,0.11100001,9.53295,2.24895
1680016761428,1196749781936639,0.19305001,9.411,2.22
1680016761430,1196749784438870,0.11100001,9.459001,2.2030501
1680016761431,1196749786941254,0.21000001,9.456,2.3730001
1680016761435,1196749789443408,0.15705001,9.45195,2.39505
1680016761438,1196749791945639,0.27705002,9.387,2.4090002
1680016761439,1196749794448081,0.17595,9.47295,2.4859502
1680016761441,1196749796950235,0.18105,9.430051,2.3830502
1680016761444,1196749799452620,0.20700002,9.385051,2.6100001
1680016761446,1196749801954851,0.16605,9.328951,2.5770001
1680016761449,1196749804457187,0.079950005,9.339001,2.7130501
1680016761451,1196749806959341,0.10695001,9.36795,2.6100001
1680016761454,1196749809461572,0.09705,9.219001,2.706
1680016761457,1196749811964033,0.043950003,9.291,2.6869502
1680016761460,1196749814466433,0.06105,9.32205,2.7250502
1680016761462,1196749816968587,0.079950005,9.298051,2.66805
1680016761464,1196749819470818,0.01995,9.34095,2.7559502
1680016761467,1196749821973202,-0.058950003,9.294001,2.73705
1680016761469,1196749824475433,-0.006,9.247951,2.742
1680016761472,1196749826977828,-0.0010500001,9.34095,2.7469501
1680016761475,1196749829480058,-0.05595,9.33405,2.63895
1680016761477,1196749831982212,-0.018000001,9.295951,2.6820002
1680016761479,1196749834484597,0.006,9.46605,2.634
1680016761482,1196749836986828,-0.11595,9.37005,2.8140001
1680016761485,1196749839488992,-0.094950005,9.459001,2.69895
1680016761487,1196749841991453,-0.05595,9.42,2.6200502
1680016761489,1196749844493838,-0.078,9.483001,2.6869502
1680016761492,1196749846996016,-0.10395,9.5140505,2.7130501
1680016761494,1196749849498246,-0.162,9.46395,2.73495
1680016761498,1196749852000631,-0.09705,9.456,2.7610502
1680016761500,1196749854502785,0.010950001,9.52095,2.6839502
1680016761502,1196749857005217,-0.022950001,9.46395,2.6820002
1680016761504,1196749859507448,-0.00795,9.492001,2.76795
1680016761507,1196749862009833,0.075,9.604951,2.7109501
1680016761509,1196749864511987,0.0010500001,9.504001,2.6460001
1680016761513,1196749867014231,0.09705,9.47295,2.67705
1680016761515,1196749869516616,0.030000001,9.46395,2.7850502
1680016761521,1196749872019078,0.030000001,9.538051,2.7109501
1680016761521,1196749874521231,0.04695,9.6,2.6869502
1680016761523,1196749877023462,0.109050006,9.46395,2.7160501
1680016761524,1196749879525838,0.054,9.49695,2.7610502
1680016761527,1196749882028069,0.079950005,9.427951,2.6869502
1680016761529,1196749884530222,0.087000005,9.552,2.56995
1680016761532,1196749887032607,0.147,9.45195,2.5189502
1680016761536,1196749889534818,0.13800001,9.423,2.502
1680016761538,1196749892037202,0.07305,9.483001,2.57205
1680016761540,1196749894539433,0.14205001,9.415951,2.53095
1680016761542,1196749897041587,0.20505,9.43995,2.5480502
1680016761544,1196749899543972,0.21195,9.42,2.5810502
1680016761547,1196749902046212,0.14505,9.33195,2.493
1680016761549,1196749904548674,0.16605,9.427951,2.5890002
1680016761552,1196749907050828,0.14205001,9.31305,2.529
1680016761555,1196749909553212,0.054,9.34605,2.56995
1680016761557,1196749912055371,0.18300001,9.40095,2.5549502
1680016761559,1196749914557602,0.171,9.22605,2.5860002
1680016761562,1196749917059987,0.15705001,9.19305,2.5480502
1680016761565,1196749919562448,0.07095,9.30105,2.562
1680016761567,1196749922064602,0.025050001,9.219001,2.5930502
1680016761569,1196749924566828,0.079950005,9.259951,2.5530002
1680016761573,1196749927069213,0.11400001,9.28905,2.53095
1680016761575,1196749929571443,0.063,9.247951,2.6130002
1680016761578,1196749932073597,0.05595,9.34395,2.6440501
1680016761580,1196749934576078,0.10695001,9.262051,2.5140002
1680016761582,1196749937078462,0.087000005,9.33705,2.6130002
1680016761584,1196749939580693,0.09195001,9.255,2.62905
1680016761588,1196749942082847,0.0010500001,9.328951,2.56005
1680016761590,1196749944585232,0.040050004,9.28905,2.62905
1680016761592,1196749947087404,0.054,9.27705,2.5480502
1680016761595,1196749949589635,-0.0010500001,9.214951,2.60295
1680016761598,1196749952092097,-0.042000003,9.274051,2.55795
1680016761600,1196749954594251,-0.15195,9.219001,2.63895
1680016761602,1196749957096645,-0.13800001,9.27705,2.661
1680016761604,1196749959598876,-0.11895001,9.28905,2.6490002
1680016761607,1196749962101261,-0.11595,9.294001,2.6749501
1680016761611,1196749964603409,-0.05595,9.36795,2.6580002
1680016761612,1196749967105871,-0.025050001,9.27705,2.6749501
1680016761615,1196749969608102,-0.049050003,9.36795,2.637
1680016761617,1196749972110256,-0.079950005,9.295951,2.62695
1680016761619,1196749974612640,-0.066,9.379951,2.7250502
1680016761622,1196749977114905,-0.043950003,9.3490505,2.63205
1680016761624,1196749979617059,-0.03195,9.45405,2.56695
1680016761627,1196749982119520,-0.042000003,9.361051,2.62695
1680016761629,1196749984621905,-0.07305,9.436951,2.5549502
1680016761632,1196749987124125,-0.030000001,9.456,2.67
1680016761636,1196749989626279,-0.079950005,9.4129505,2.5930502
1680016761638,1196749992128663,-0.022950001,9.574051,2.5500002
1680016761640,1196749994630894,-0.087000005,9.430051,2.59605
1680016761641,1196749997133356,-0.07305,9.432,2.502
1680016761644,1196749999635509,-0.04695,9.45405,2.5890002
1680016761649,1196750002137894,-0.07095,9.559051,2.6200502
1680016761651,1196750004640125,-0.075,9.459001,2.6460001
1680016761653,1196750007142270,-0.066,9.59805,2.6820002
1680016761655,1196750009644654,-0.08505,9.591001,2.6890502
1680016761657,1196750012147116,-0.04695,9.48495,2.6460001
1680016761659,1196750014649270,-0.01995,9.50205,2.6200502
1680016761662,1196750017151500,-0.14295001,9.432,2.6839502
1680016761664,1196750019653875,-0.10395,9.48495,2.66505
1680016761667,1196750022156029,-0.08505,9.588,2.62905
1680016761670,1196750024658260,-0.135,9.47295,2.4709501
1680016761672,1196750027160644,-0.14295001,9.43995,2.49495
1680016761675,1196750029662889,-0.17595,9.492001,2.4810002
1680016761678,1196750032165274,-0.087000005,9.49995,2.457
1680016761680,1196750034667505,-0.08505,9.483001,2.4810002
1680016761682,1196750037169658,-0.075,9.49995,2.4190502
1680016761686,1196750039672043,-0.11400001,9.483001,2.5140002
1680016761689,1196750042174274,-0.15705001,9.47595,2.5840502
1680016761691,1196750044676735,-0.109050006,9.456,2.5069501
1680016761693,1196750047178889,-0.15195,9.45195,2.5840502
1680016761695,1196750049681274,-0.07305,9.526051,2.5930502
1680016761697,1196750052183534,-0.10695001,9.423,2.63895
1680016761699,1196750054685687,-0.19500001,9.48795,2.56005
1680016761702,1196750057188072,-0.18300001,9.411,2.538
1680016761705,1196750059690534,-0.14295001,9.45405,2.5860002
1680016761708,1196750062192764,-0.12105001,9.4800005,2.60295
1680016761709,1196750064694923,-0.102000006,9.538051,2.56005
1680016761712,1196750067197308,-0.22605,9.507001,2.6149502
1680016761715,1196750069699539,-0.19800001,9.35595,2.6580002
1680016761718,1196750072201904,-0.10395,9.43995,2.6820002
1680016761722,1196750074704135,-0.14295001,9.423,2.6250002
1680016761725,1196750077206520,-0.07095,9.48495,2.7109501
1680016761728,1196750079707590,-0.11400001,9.47595,2.6749501
1680016761729,1196750082208669,-0.040050004,9.411,2.7439501
1680016761731,1196750084713284,-0.01305,9.460951,2.7469501
1680016761732,1196750087215438,-0.028050002,9.47295,2.778
1680016761735,1196750089717899,-0.040050004,9.528001,2.69595
1680016761737,1196750092220130,0.022950001,9.531,2.6580002
1680016761739,1196750094722308,0.07305,9.36795,2.802
1680016761745,1196750097224693,0.13305001,9.45405,2.661
1680016761745,1196750099726923,0.15705001,9.49695,2.6460001
1680016761747,1196750102229308,0.13995,9.49005,2.69595
1680016761749,1196750104731447,0.21405001,9.48795,2.6149502
1680016761752,1196750107233908,0.22395001,9.5119505,2.69595
1680016761755,1196750109736139,0.27705002,9.495001,2.6100001
1680016761758,1196750112238524,0.33405003,9.46395,2.5930502
1680016761761,1196750114740645,0.38205,9.46605,2.5740001
1680016761763,1196750117242875,0.31500003,9.495001,2.505
1680016761765,1196750119745260,0.384,9.507001,2.457
1680016761768,1196750122247491,0.40605003,9.45405,2.5740001
1680016761770,1196750124749875,0.39900002,9.5449505,2.59605
1680016761772,1196750127252096,0.41805002,9.61695,2.5810502
1680016761776,1196750129754250,0.40800002,9.50895,2.5459502
1680016761777,1196750132256635,0.411,9.567,2.6200502
1680016761779,1196750134758865,0.40395,9.580951,2.70105
1680016761782,1196750137261327,0.39900002,9.52305,2.63895
1680016761785,1196750139763514,0.41805002,9.53505,2.63205
1680016761788,1196750142265898,0.43905002,9.531,2.601
1680016761790,1196750144768129,0.39600003,9.48495,2.706
1680016761792,1196750147270283,0.35805002,9.50895,2.66505
1680016761795,1196750149772664,0.31500003,9.552,2.598
1680016761799,1196750152274894,0.34800002,9.571051,2.505
1680016761802,1196750154777279,0.36,9.444,2.637
1680016761803,1196750157279510,0.28905,9.4470005,2.562
1680016761805,1196750159781664,0.303,9.516001,2.5530002
1680016761808,1196750162284125,0.23595001,9.49005,2.5810502
1680016761809,1196750164786510,0.27405003,9.43995,2.706
1680016761812,1196750167288664,0.26700002,9.47295,2.6869502
1680016761814,1196750169790870,0.17595,9.46395,2.5530002
1680016761817,1196750172293255,0.15,9.46605,2.6220002
1680016761819,1196750174795409,0.19800001,9.52095,2.6509502
1680016761822,1196750177297870,0.17805001,9.397051,2.46405
1680016761824,1196750179800091,0.09900001,9.4470005,2.6250002
1680016761829,1196750182302245,0.10695001,9.52095,2.6460001
1680016761831,1196750184804630,0.135,9.538051,2.6890502
1680016761832,1196750187306861,0.11895001,9.556951,2.60505
1680016761840,1196750189809009,0.06105,9.456,2.5840502
1680016761841,1196750192311394,0.07305,9.4470005,2.4450002
1680016761842,1196750195026779,0.087000005,9.4129505,2.59095
1680016761843,1196750197316086,0.05595,9.49005,2.56005
1680016761848,1196750199818226,-0.030000001,9.4470005,2.67
1680016761849,1196750202320611,-0.028050002,9.47295,2.6149502
1680016761852,1196750204822842,-0.049050003,9.399,2.6490002
1680016761853,1196750207325226,-0.040050004,9.52305,2.6100001
1680016761854,1196750209827457,-0.087000005,9.36495,2.6100001
1680016761857,1196750212329842,0.006,9.483001,2.5740001
1680016761859,1196750214832081,-0.08505,9.4470005,2.6250002
1680016761862,1196750217334235,-0.15195,9.36795,2.7160501
1680016761864,1196750219836620,-0.162,9.34095,2.6820002
1680016761867,1196750222338851,-0.09705,9.361051,2.634
1680016761870,1196750224841279,-0.09705,9.306001,2.6440501
1680016761874,1196750227343433,-0.16905001,9.35805,2.60505
1680016761877,1196750229845818,-0.11895001,9.387,2.59095
1680016761879,1196750232348048,-0.123,9.363001,2.601
1680016761880,1196750234850206,-0.21405001,9.403951,2.5099502
1680016761882,1196750237352591,-0.18795002,9.282001,2.56005
1680016761885,1196750239855052,-0.126,9.36795,2.6149502
1680016761887,1196750242357206,-0.13095,9.33195,2.6200502
1680016761890,1196750244859457,-0.063,9.327001,2.637
1680016761892,1196750247361842,-0.10395,9.37005,2.6490002
1680016761896,1196750249863996,-0.07305,9.46605,2.6800501
1680016761898,1196750252366226,-0.034950003,9.385051,2.62905
1680016761899,1196750254868611,-0.123,9.35295,2.778
1680016761902,1196750257370856,-0.10395,9.391951,2.6460001
1680016761905,1196750259873240,-0.123,9.339001,2.6220002
1680016761907,1196750262375471,-0.109050006,9.4129505,2.70795
1680016761911,1196750264877837,-0.030000001,9.315001,2.73495
1680016761913,1196750267379991,-0.06105,9.35805,2.6560502
1680016761916,1196750269882221,-0.063,9.411,2.59605
1680016761919,1196750272384683,-0.028050002,9.363001,2.46705
1680016761920,1196750274886837,0.03705,9.460951,2.6460001
1680016761922,1196750277389230,0.06795,9.459001,2.5530002
1680016761924,1196750279891461,0.030000001,9.50205,2.56695
1680016761927,1196750282393846,0.09705,9.42,2.60805
1680016761930,1196750284896000,0.09,9.516001,2.5549502
1680016761932,1196750287398481,0.06105,9.47295,2.4400501
1680016761936,1196750289900712,0.06105,9.507001,2.6800501
1680016761938,1196750292402866,0.11100001,9.5449505,2.5740001
1680016761940,1196750294905250,0.15705001,9.48495,2.5840502
1680016761942,1196750297407481,0.21195,9.564,2.5500002
1680016761944,1196750299909635,0.05595,9.4470005,2.56995
1680016761949,1196750302412097,0.09900001,9.53295,2.63895
1680016761950,1196750304914481,0.094950005,9.424951,2.6200502
1680016761952,1196750307416620,0.06105,9.528001,2.62905
1680016761955,1196750309918851,0.087000005,9.552,2.6440501
1680016761958,1196750312421235,0.10395,9.552,2.661
1680016761960,1196750314923389,0.10395,9.48795,2.6560502
1680016761962,1196750317425851,0.11895001,9.471001,2.6170502
1680016761965,1196750319928072,0.11400001,9.504001,2.5860002
1680016761969,1196750322430456,0.054,9.460951,2.56995
1680016761970,1196750324932610,0.054,9.418051,2.6440501
1680016761972,1196750327434841,0.08295,9.526051,2.64105
1680016761976,1196750329937216,0.18105,9.516001,2.6580002
1680016761978,1196750332439447,0.075,9.418051,2.56695
1680016761979,1196750334941832,0.09,9.42,2.5770001
1680016761982,1196750337444063,0.11400001,9.391951,2.6130002
1680016761988,1196750339946456,0.18795002,9.5119505,2.5480502
1680016761990,1196750342448610,0.09705,9.459001,2.60805
1680016761991,1196750344950841,0.126,9.423,2.601
1680016761993,1196750347453226,0.19800001,9.47595,2.49
1680016761996,1196750349955456,0.15,9.459001,2.6220002
1680016761998,1196750352457851,0.13305001,9.448951,2.64105
1680016762000,1196750354960082,0.11595,9.424951,2.661
1680016762002,1196750357462236,0.11100001,9.483001,2.6490002
1680016762005,1196750359964620,0.17595,9.4800005,2.6100001
1680016762008,1196750362466851,0.126,9.47295,2.63895
1680016762009,1196750364969236,0.16905001,9.44205,2.67
1680016762012,1196750367471466,0.126,9.538051,2.73195
1680016762015,1196750369973851,0.18105,9.411,2.70795
1680016762018,1196750372476005,0.06105,9.418051,2.6149502
1680016762020,1196750374978236,0.054,9.47595,2.637
1680016762023,1196750377480620,0.075,9.45195,2.5459502
1680016762027,1196750379983082,0.11400001,9.4129505,2.66805
1680016762028,1196750382485212,0.109050006,9.45405,2.67195
1680016762030,1196750384987442,0.11400001,9.432,2.63895
1680016762032,1196750387489827,0.13305001,9.48495,2.66505
1680016762035,1196750389991981,0.058950003,9.48495,2.6580002
1680016762038,1196750392494212,0.087000005,9.45405,2.60805
1680016762039,1196750394996682,0.09705,9.4800005,2.5860002
1680016762041,1196750397499067,0.11595,9.394051,2.6100001
1680016762044,1196750400001221,0.066,9.40905,2.57205
1680016762047,1196750402503451,0.08505,9.456,2.60295
1680016762049,1196750405005851,0.102000006,9.45195,2.562
1680016762052,1196750407508005,0.016050002,9.403951,2.55795
1680016762054,1196750410010236,-0.01305,9.37005,2.53395
1680016762057,1196750412512697,0.051000003,9.3820505,2.4829502
1680016762061,1196750415014836,0.079950005,9.27705,2.60295
1680016762063,1196750417517221,0.09195001,9.397051,2.49795
1680016762064,1196750420019451,0.09,9.403951,2.66295
1680016762068,1196750422521605,0.00795,9.40095,2.66805
1680016762069,1196750425023990,0.0010500001,9.40095,2.60805
1680016762072,1196750427526451,0.07305,9.32505,2.60295
1680016762075,1196750430028605,0.09,9.35295,2.5930502
1680016762078,1196750432530836,0.102000006,9.315001,2.5140002
1680016762080,1196750435033221,0.06795,9.33195,2.5770001
1680016762082,1196750437535375,0.123,9.327001,2.64105
1680016762085,1196750440037605,0.09,9.394051,2.5740001
1680016762088,1196750442540067,0.11895001,9.37005,2.6130002
1680016762090,1196750445042452,0.05595,9.40095,2.5240502
1680016762092,1196750447544605,0.09,9.32205,2.5530002
1680016762096,1196750450046836,0.04695,9.34095,2.5459502
1680016762103,1196750452549221,0.171,9.318001,2.5810502
1680016762106,1196750455051452,0.11595,9.295951,2.5120502
1680016762107,1196750457553817,0.17805001,9.30795,2.526
1680016762109,1196750460056048,0.20700002,9.37695,2.52195
1680016762110,1196750462558433,0.15705001,9.315001,2.5930502
1680016762111,1196750465060586,0.11895001,9.31995,2.529
1680016762113,1196750467562817,0.19305001,9.379951,2.502
1680016762117,1196750470065212,0.24105,9.385051,2.5480502
1680016762120,1196750472567443,0.21405001,9.397051,2.5459502
1680016762122,1196750475069827,0.18300001,9.363001,2.5410001
1680016762124,1196750477572058,0.22395001,9.385051,2.6580002
1680016762126,1196750480074212,0.19005,9.385051,2.63895
1680016762128,1196750482576586,0.27405003,9.397051,2.5530002
1680016762130,1196750485078817,0.25005,9.379951,2.526
1680016762132,1196750487580971,0.24795002,9.397051,2.6170502
1680016762136,1196750490083433,0.22200002,9.459001,2.6580002
1680016762139,1196750492585817,0.26895002,9.45405,2.62695
1680016762140,1196750495088048,0.30105,9.495001,2.5500002
1680016762143,1196750497590202,0.27195,9.492001,2.49795
1680016762145,1196750500092586,0.31500003,9.507001,2.493
1680016762147,1196750502594817,0.24300002,9.519,2.5549502
1680016762149,1196750505097207,0.27705002,9.504001,2.5140002
1680016762152,1196750507599438,0.27705002,9.45405,2.6839502
1680016762156,1196750510101822,0.25005,9.519,2.66505
1680016762158,1196750512604053,0.31005,9.531,2.6530502
1680016762160,1196750515106221,0.22395001,9.53505,2.6170502
1680016762162,1196750517608606,0.279,9.591001,2.6530502
1680016762164,1196750520111067,0.22395001,9.564,2.7900002
1680016762167,1196750522613298,0.303,9.571051,2.74005
1680016762170,1196750525115452,0.22395001,9.50895,2.8210502
1680016762174,1196750527617850,0.25005,9.555,2.70105
1680016762177,1196750530120081,0.32700002,9.624001,2.74005
1680016762179,1196750532622235,0.30105,9.562051,2.84295
1680016762181,1196750535124711,0.24795002,9.54705,2.8140001
1680016762183,1196750537627096,0.28095,9.5140505,2.80395
1680016762186,1196750540129250,0.25695002,9.531,2.802
1680016762188,1196750542631481,0.31695002,9.504001,2.80395
1680016762190,1196750545133865,0.27705002,9.5119505,2.742
1680016762192,1196750547636028,0.26205,9.552,2.7160501
1680016762196,1196750550138259,0.29805002,9.49995,2.6509502
1680016762198,1196750552640721,0.34095,9.562051,2.598
1680016762200,1196750555142874,0.41295,9.552,2.706
1680016762202,1196750557645269,0.31695002,9.571051,2.67195
1680016762205,1196750560147500,0.22905001,9.550051,2.63895
1680016762208,1196750562649654,0.34095,9.579,2.7799501
1680016762212,1196750565152038,0.25695002,9.625951,2.73705
1680016762213,1196750567654505,0.28095,9.588,2.6890502
1680016762216,1196750570156736,0.26700002,9.550051,2.7229502
1680016762219,1196750572658889,0.279,9.483001,2.6869502
1680016762220,1196750575161274,0.25695002,9.48495,2.6890502
1680016762222,1196750577663505,0.14505,9.4470005,2.6200502
1680016762225,1196750580165884,0.171,9.4129505,2.5840502
1680016762227,1196750582668115,0.15195,9.387,2.66505
1680016762230,1196750585170500,0.20505,9.4129505,2.57205
1680016762232,1196750587672731,0.252,9.423,2.742
1680016762236,1196750590174879,0.22200002,9.339001,2.77305
1680016762238,1196750592677264,0.29295,9.33405,2.706
1680016762240,1196750595179495,0.33195,9.262051,2.6869502
1680016762242,1196750597681879,0.26505002,9.37005,2.6890502
1680016762245,1196750600184110,0.28605002,9.271951,2.6490002
1680016762249,1196750602686485,0.25500003,9.31005,2.6890502
1680016762252,1196750605188639,0.28095,9.282001,2.59095
1680016762253,1196750607690870,0.25695002,9.274051,2.637
1680016762255,1196750610193023,0.29595003,9.243,2.5240502
1680016762258,1196750612695428,0.31005,9.34395,2.6130002
1680016762260,1196750615197890,0.31005,9.147,2.457
1680016762262,1196750617700120,0.26205,9.222,2.5740001
1680016762265,1196750620202274,0.30105,9.174001,2.5810502
1680016762268,1196750622704649,0.34395,9.214951,2.46705
1680016762270,1196750625206880,0.31005,9.298051,2.4430501
1680016762273,1196750627709264,0.35595003,9.32505,2.6100001
1680016762276,1196750630211495,0.26205,9.32505,2.5890002
1680016762278,1196750632713904,0.43905002,9.328951,2.5459502
1680016762280,1196750635216134,0.34095,9.31005,2.526
1680016762283,1196750637718519,0.42000002,9.351001,2.60295
1680016762287,1196750640220673,0.35805002,9.3490505,2.5549502
1680016762289,1196750642722899,0.39195,9.375,2.4550502
1680016762293,1196750645225360,0.34605002,9.427951,2.60295
1680016762294,1196750647727514,0.34800002,9.427951,2.6200502
1680016762295,1196750650229899,0.39600003,9.52095,2.6560502
1680016762299,1196750652732129,0.28905,9.394051,2.529
1680016762302,1196750655234519,0.29295,9.50895,2.46705
1680016762303,1196750657736750,0.20205002,9.49995,2.5410001
1680016762305,1196750660239134,0.27405003,9.44205,2.565
1680016762307,1196750662741288,0.27195,9.552,2.5549502
1680016762312,1196750665243500,0.23595001,9.54705,2.4829502
1680016762313,1196750667745885,0.20505,9.595051,2.5189502
1680016762319,1196750670248346,0.20505,9.580951,2.50005
1680016762320,1196750672750500,0.22605,9.50205,2.5140002
1680016762321,1196750675252731,0.126,9.550051,2.55795
1680016762325,1196750677754885,0.22395001,9.49695,2.60295
1680016762328,1196750680256077,0.109050006,9.49995,2.53095
1680016762328,1196750682757270,0.079950005,9.448951,2.457
1680016762330,1196750685261885,0.051000003,9.46605,2.63895
1680016762333,1196750687764100,0.09705,9.399,2.4859502
1680016762336,1196750690266485,0.11895001,9.432,2.60295
1680016762338,1196750692768639,0.11595,9.46395,2.6170502
1680016762340,1196750695270870,0.087000005,9.306001,2.6200502
1680016762342,1196750697773254,0.05595,9.3490505,2.63205
1680016762345,1196750700275480,0.05595,9.379951,2.634
1680016762347,1196750702777865,0.042000003,9.373051,2.6220002
1680016762350,1196750705280096,0.049050003,9.318001,2.706
1680016762352,1196750707782480,0.01305,9.36795,2.5740001
1680016762356,1196750710284610,0.058950003,9.444,2.634
1680016762358,1196750712786841,0.075,9.471001,2.6200502
1680016762362,1196750715289225,0.10395,9.427951,2.5770001
1680016762364,1196750717791687,0.0010500001,9.34095,2.57205
1680016762366,1196750720293841,0.010950001,9.49005,2.64105
1680016762373,1196750722796072,0.054,9.46395,2.57205
1680016762374,1196750725298456,-0.006,9.456,2.55795
1680016762374,1196750727800610,0.04695,9.49005,2.4880502
1680016762376,1196750730302861,0.028050002,9.47595,2.6460001
1680016762378,1196750732805322,0.042000003,9.483001,2.5410001
1680016762380,1196750735307476,0.03705,9.543,2.64105
1680016762382,1196750737809861,0.028050002,9.64095,2.64105
1680016762386,1196750740312092,0.06105,9.580951,2.5890002
1680016762388,1196750742814245,0.09,9.571051,2.59605
1680016762390,1196750745316630,0.12795001,9.604951,2.6839502
1680016762392,1196750747819092,0.075,9.66705,2.5480502
1680016762398,1196750750321264,0.147,9.66495,2.56695
1680016762400,1196750752823495,0.03705,9.66495,2.5890002
1680016762403,1196750755325880,0.10695001,9.8230505,2.637
1680016762404,1196750757828034,0.12105001,9.684,2.64105
1680016762406,1196750760330269,0.11100001,9.660001,2.6130002
1680016762408,1196750762832731,0.10395,9.72,2.66295
1680016762410,1196750765335116,0.10695001,9.780001,2.601
1680016762412,1196750767837270,0.15,9.765,2.53605
1680016762416,1196750770339500,0.10395,9.732,2.5069501
1680016762418,1196750772841899,0.075,9.64605,2.5740001
1680016762421,1196750775344130,0.058950003,9.703051,2.4499502
1680016762424,1196750777846284,0.049050003,9.769951,2.5240502
1680016762425,1196750780348745,0.094950005,9.78495,2.4190502
1680016762427,1196750782851106,0.075,9.813001,2.4379501
1680016762429,1196750785353260,0.04695,9.80805,2.6200502
1680016762432,1196750787855490,0.04695,9.816001,2.3760002
1680016762438,1196750790357884,-0.00405,9.80595,2.53395
1680016762440,1196750792858960,-0.00795,9.84195,2.6170502
1680016762440,1196750795360039,0.018000001,9.7560005,2.62905
1680016762442,1196750797864730,0.051000003,9.765,2.49495
1680016762445,1196750800366884,-0.0010500001,9.861,2.60505
1680016762448,1196750802869265,-0.06105,9.769951,2.56695
1680016762450,1196750805371495,0.00795,9.77505,2.565
1680016762452,1196750807873649,0.00405,9.660001,2.5189502
1680016762456,1196750810376111,-0.066,9.736951,2.6460001
1680016762458,1196750812878495,-0.09,9.65295,2.67705
1680016762460,1196750815380735,-0.09705,9.66705,2.60295
1680016762462,1196750817882889,-0.08505,9.576,2.56995
1680016762465,1196750820385274,-0.087000005,9.543,2.6839502
1680016762467,1196750822887504,-0.08505,9.49695,2.66805
1680016762470,1196750825389889,-0.058950003,9.5449505,2.6250002
1680016762474,1196750827892120,-0.135,9.52095,2.5480502
1680016762477,1196750830394504,-0.075,9.418051,2.5170002
1680016762479,1196750832896735,-0.079950005,9.483001,2.5890002
1680016762481,1196750835398918,-0.109050006,9.418051,2.63205
1680016762482,1196750837901303,-0.109050006,9.3490505,2.5170002
1680016762486,1196750840403764,-0.126,9.33405,2.4469502
1680016762488,1196750842905918,-0.094950005,9.3490505,2.63895
1680016762490,1196750845408149,-0.102000006,9.46605,2.6440501
1680016762492,1196750847910548,-0.109050006,9.47295,2.70795
1680016762495,1196750850412702,-0.05595,9.399,2.5429502
1680016762497,1196750852914933,-0.043950003,9.361051,2.6839502
1680016762500,1196750855417318,-0.03195,9.42,2.63895
1680016762502,1196750857919548,-0.09195001,9.40095,2.6580002
1680016762506,1196750860421938,-0.049050003,9.394051,2.6250002
1680016762508,1196750862924169,-0.05595,9.387,2.6490002
1680016762511,1196750865426554,-0.14295001,9.35595,2.562
1680016762513,1196750867928688,-0.06105,9.35595,2.601
1680016762517,1196750870430919,0.11895001,9.35295,2.62905
1680016762520,1196750872933304,0.07305,9.411,2.63205
1680016762522,1196750875435535,0.0010500001,9.50895,2.66295
1680016762525,1196750877937919,0.054,9.4129505,2.5740001
1680016762527,1196750880440150,0.078,9.415951,2.6170502
1680016762529,1196750882942304,0.15,9.47595,2.6220002
1680016762530,1196750885444688,0.11895001,9.588,2.5410001
1680016762532,1196750887947150,0.18105,9.519,2.598
1680016762537,1196750890449371,0.23295002,9.526051,2.50005
1680016762538,1196750892951525,0.20505,9.403951,2.5740001
1680016762540,1196750895453909,0.24300002,9.53505,2.4469502
1680016762542,1196750897956140,0.19005,9.48495,2.5170002
1680016762548,1196750900458241,0.19305001,9.492001,2.59605
1680016762550,1196750902960702,0.26700002,9.5449505,2.49495
1680016762552,1196750905463087,0.33900002,9.53505,2.637
1680016762554,1196750907965241,0.26205,9.555,2.4190502
1680016762556,1196750910467472,0.18105,9.507001,2.5069501
1680016762558,1196750912969856,0.32505003,9.483001,2.4109502
1680016762560,1196750915472010,0.23595001,9.49695,2.42295
1680016762562,1196750917974241,0.38700002,9.516001,2.46405
1680016762566,1196750920476702,0.23595001,9.4800005,2.5500002
1680016762569,1196750922978856,0.351,9.4800005,2.5069501
1680016762570,1196750925481227,0.25695002,9.459001,2.4739501
1680016762572,1196750927983458,0.34800002,9.385051,2.42805
1680016762576,1196750930485612,0.21195,9.47295,2.4760501
1680016762578,1196750932987996,0.20700002,9.47805,2.5429502
1680016762580,1196750935490472,0.279,9.483001,2.5740001
1680016762583,1196750937992702,0.29595003,9.448951,2.502
1680016762588,1196750940494856,0.26505002,9.435,2.505
1680016762589,1196750942997241,0.19500001,9.448951,2.6490002
1680016762591,1196750945499458,0.21900001,9.4470005,2.67705
1680016762593,1196750948001842,0.22905001,9.40905,2.6509502
1680016762597,1196750950504073,0.21705002,9.588,2.73705
1680016762599,1196750953006458,0.186,9.588,2.6800501
1680016762600,1196750955508693,0.13800001,9.460951,2.62905
1680016762602,1196750958011077,0.14205001,9.46605,2.67195
1680016762606,1196750960513231,0.21195,9.459001,2.64105
1680016762608,1196750963015462,0.09705,9.47805,2.6869502
1680016762610,1196750965517846,0.13305001,9.49695,2.67195
1680016762612,1196750968020082,0.16395001,9.49005,2.67705
1680016762616,1196750970522467,0.10695001,9.5119505,2.5890002
1680016762619,1196750973024621,0.09,9.571051,2.7850502
1680016762620,1196750975526851,0.20205002,9.45195,2.73495
1680016762624,1196750978029236,0.14505,9.444,2.7109501
1680016762627,1196750980531467,0.171,9.385051,2.5810502
1680016762628,1196750983033851,0.13305001,9.459001,2.66805
1680016762630,1196750985536082,0.147,9.460951,2.7949502
1680016762635,1196750988038434,0.09705,9.40905,2.5930502
1680016762637,1196750990540588,0.13995,9.456,2.7439501
1680016762639,1196750993042818,0.11400001,9.50205,2.637
1680016762640,1196750995545203,0.09,9.4470005,2.7870002
1680016762642,1196750998047434,0.109050006,9.459001,2.7559502
1680016762646,1196751000549808,0.13995,9.49695,2.6460001
1680016762648,1196751003052039,0.09,9.40095,2.6890502
1680016762650,1196751005554424,0.094950005,9.5119505,2.74005
1680016762652,1196751008056578,0.087000005,9.4470005,2.742
1680016762656,1196751010558808,0.14505,9.47295,2.8230002
1680016762657,1196751013061289,0.13305001,9.38895,2.766
1680016762662,1196751015563674,0.11895001,9.43995,2.7799501
1680016762663,1196751018065827,0.09,9.385051,2.6820002
1680016762666,1196751020568063,0.042000003,9.5119505,2.6170502
1680016762668,1196751023070448,0.135,9.375,2.62905
1680016762670,1196751025572602,0.042000003,9.4129505,2.6800501
1680016762673,1196751028075063,0.010950001,9.361051,2.7109501
1680016762676,1196751030577294,0.054,9.526051,2.7630002
1680016762678,1196751033079458,0.04695,9.538051,2.811
1680016762680,1196751035581843,0.09,9.432,2.7850502
1680016762682,1196751038084073,-0.006,9.411,2.7280502
1680016762687,1196751040586227,0.109050006,9.45195,2.6460001
1680016762688,1196751043088684,-0.00795,9.47595,2.6490002
1680016762690,1196751045591068,0.016050002,9.45405,2.5189502
1680016762692,1196751048093222,0.075,9.49005,2.53095
1680016762696,1196751050595453,0.0010500001,9.403951,2.67
1680016762699,1196751053097847,0.03195,9.387,2.55795
1680016762702,1196751055600000,0.06795,9.385051,2.67
1680016762704,1196751058102462,0.066,9.385051,2.5429502
1680016762706,1196751060604693,0.022950001,9.34605,2.60805
1680016762708,1196751063107077,-0.01995,9.385051,2.53395
1680016762710,1196751065609246,0.00795,9.35295,2.5530002
1680016762713,1196751068111477,-0.016050002,9.35595,2.5770001
1680016762716,1196751070613862,-0.01995,9.415951,2.62905
1680016762719,1196751073116092,-0.042000003,9.399,2.63205
1680016762721,1196751075618525,-0.03705,9.291,2.4469502
1680016762723,1196751078120756,-0.006,9.30795,2.5500002
1680016762726,1196751080623140,-0.087000005,9.33405,2.5890002
1680016762728,1196751083125294,-0.05595,9.34605,2.5140002
1680016762730,1196751085627525,-0.08505,9.3490505,2.5189502
1680016762732,1196751088129929,-0.078,9.361051,2.5789502
1680016762738,1196751090632159,-0.052050002,9.31305,2.493
1680016762739,1196751093134544,-0.04695,9.379951,2.505
1680016762741,1196751095636775,-0.09195001,9.28905,2.4780002
1680016762743,1196751098138924,-0.042000003,9.255,2.45895
1680016762746,1196751100641308,-0.075,9.387,2.56695
1680016762749,1196751103143539,-0.09705,9.351001,2.53605
1680016762753,1196751105645924,-0.13095,9.271951,2.5770001
1680016762755,1196751108148140,-0.162,9.385051,2.46195
1680016762757,1196751110650525,-0.10695001,9.36795,2.46405
1680016762759,1196751113152679,-0.11400001,9.4129505,2.38995
1680016762761,1196751115654910,-0.08505,9.45405,2.4450002
1680016762763,1196751118157294,-0.094950005,9.30105,2.5410001
1680016762766,1196751120659765,-0.13995,9.283951,2.49795
1680016762769,1196751123161919,-0.20205002,9.306001,2.3830502
1680016762771,1196751125664150,-0.07095,9.36495,2.4520502
1680016762776,1196751128166506,-0.18300001,9.436951,2.4859502
1680016762778,1196751130668737,-0.24105,9.351001,2.42805
1680016762779,1196751133170891,-0.16905001,9.387,2.4760501
1680016762781,1196751135673275,-0.20505,9.34095,2.4450002
1680016762783,1196751138175737,-0.24105,9.33195,2.6440501
1680016762786,1196751140677655,-0.252,9.295951,2.5410001
1680016762789,1196751143180040,-0.22905001,9.22395,2.598
1680016762791,1196751145682270,-0.246,9.271951,2.67195
1680016762794,1196751148184732,-0.16605,9.262051,2.70405
1680016762798,1196751150686867,-0.20700002,9.259951,2.67705
1680016762800,1196751153189251,-0.23595001,9.282001,2.6460001
1680016762803,1196751155691482,-0.246,9.271951,2.74005
1680016762805,1196751158193867,-0.21900001,9.243,2.63205
1680016762806,1196751160696021,-0.24795002,9.222,2.83995
1680016762808,1196751163198520,-0.24105,9.147,2.83995
1680016762812,1196751165700751,-0.11595,9.27705,2.8230002
1680016762814,1196751168202905,-0.15,9.274051,2.8900502
1680016762816,1196751170705289,-0.18105,9.28905,2.88105
1680016762818,1196751173207544,-0.11595,9.318001,2.7799501
1680016762820,1196751175709929,-0.15195,9.31305,2.874
1680016762822,1196751178212160,-0.07095,9.37695,2.8639503
1680016762826,1196751180714544,-0.058950003,9.34095,2.9020503
1680016762828,1196751183216698,-0.05595,9.327001,2.8639503
1680016762830,1196751185718900,-0.094950005,9.33405,2.8279502
1680016762834,1196751188221285,0.01305,9.411,2.9239502
1680016762837,1196751190723438,-0.028050002,9.3490505,2.802
1680016762839,1196751193225900,0.063,9.33705,2.7540002
1680016762840,1196751195728126,0.05595,9.373051,2.73495
1680016762843,1196751198230510,0.15900001,9.385051,2.6839502
1680016762846,1196751200732664,0.19305001,9.34395,2.59095
1680016762850,1196751203234871,0.14205001,9.28905,2.5500002
1680016762851,1196751205737256,0.23595001,9.373051,2.634
1680016762853,1196751208239486,0.16395001,9.318001,2.6149502
1680016762856,1196751210741871,0.303,9.406051,2.6920502
1680016762858,1196751213244102,0.22605,9.298051,2.6580002
1680016762860,1196751215746501,0.39900002,9.298051,2.73
1680016762863,1196751218248655,0.38700002,9.271951,2.7180002
1680016762866,1196751220750886,0.40800002,9.403951,2.73
1680016762869,1196751223253271,0.43695003,9.282001,2.7439501
1680016762871,1196751225755501,0.50100005,9.32205,2.74005
1680016762874,1196751228257871,0.51600003,9.30105,2.6869502
1680016762877,1196751230760102,0.53505003,9.328951,2.6200502
1680016762878,1196751233262256,0.59805006,9.298051,2.7250502
1680016762880,1196751235764640,0.54,9.363001,2.634
1680016762883,1196751238266886,0.61695004,9.361051,2.67705
1680016762888,1196751240769271,0.62595004,9.243,2.7109501
1680016762890,1196751243271501,0.55905,9.40905,2.7870002
1680016762892,1196751245773890,0.56595004,9.298051,2.661
1680016762893,1196751248276044,0.44895002,9.48795,2.7160501
1680016762896,1196751250778275,0.54495,9.47595,2.62905
1680016762898,1196751253280659,0.54705,9.49995,2.8549502
1680016762900,1196751255782890,0.44205,9.4800005,2.6890502
1680016762903,1196751258285261,0.56595004,9.604951,2.70105
1680016762906,1196751260787491,0.52305,9.504001,2.7559502
1680016762908,1196751263289876,0.46095002,9.670051,2.80395
1680016762910,1196751265792030,0.45600003,9.607051,2.775
1680016762914,1196751268294261,0.41595003,9.59805,2.7229502
1680016762916,1196751270796722,0.40605003,9.64305,2.766
1680016762919,1196751273299107,0.31500003,9.607051,2.7160501
1680016762921,1196751275801261,0.28095,9.660001,2.8639503
1680016762924,1196751278303492,0.26700002,9.648001,2.7900002
1680016762927,1196751280805876,0.25695002,9.580951,2.7829502
1680016762929,1196751283308107,0.24300002,9.700951,2.778
1680016762931,1196751285810492,0.21705002,9.744,2.73495
1680016762933,1196751288312722,0.13305001,9.717,2.77095
1680016762936,1196751290814881,0.10695001,9.69795,2.6920502
1680016762938,1196751293317266,0.09195001,9.768001,2.80395
1680016762940,1196751295819497,0.06105,9.712951,2.7799501
1680016762943,1196751298321650,0.09900001,9.84405,2.66805
1680016762946,1196751300824073,-0.028050002,9.80595,2.66295
1680016762948,1196751303326535,-0.109050006,9.76095,2.67705
1680016762950,1196751305828765,-0.08295,9.712951,2.6920502
1680016762954,1196751308330919,-0.102000006,9.65295,2.63895
1680016762956,1196751310833323,-0.17805001,9.768001,2.69595
1680016762958,1196751313335477,-0.15405001,9.712951,2.7280502
1680016762962,1196751315837707,-0.19500001,9.670051,2.6560502
1680016762963,1196751318340169,-0.162,9.66495,2.73705
1680016762967,1196751320842569,-0.18795002,9.672001,2.67
1680016762968,1196751323344722,-0.28395,9.624001,2.802
1680016762970,1196751325846953,-0.30495003,9.5449505,2.7850502
1680016762973,1196751328349338,-0.252,9.49695,2.73495
1680016762976,1196751330851569,-0.40395,9.49995,2.7850502
1680016762978,1196751333353948,-0.40605003,9.540001,2.8210502
1680016762980,1196751335856179,-0.372,9.411,2.7630002
1680016762983,1196751338358564,-0.37995002,9.37695,2.80395
1680016762986,1196751340860794,-0.35805002,9.32505,2.7900002
1680016762988,1196751343362928,-0.411,9.31005,2.7829502
1680016762990,1196751345865313,-0.37995002,9.327001,2.706
1680016762996,1196751348367774,-0.34605002,9.214951,2.76795
1680016762996,1196751350869928,-0.30105,9.174001,2.7490501
1680016763000,1196751353372159,-0.279,9.19095,2.6170502
1680016763001,1196751355874313,-0.29805002,9.241051,2.6560502
1680016763003,1196751358376698,-0.33705002,9.214951,2.661
1680016763006,1196751360878928,-0.28905,9.19995,2.6800501
1680016763008,1196751363381082,-0.25005,9.15705,2.6580002
1680016763010,1196751365883544,-0.29295,9.217051,2.66805
1680016763012,1196751368385928,-0.291,9.11205,2.7280502
1680016763016,1196751370888082,-0.22605,9.16395,2.7970502
1680016763019,1196751373390313,-0.26505002,9.1380005,2.7520502
1680016763020,1196751375892698,-0.25500003,9.16395,2.706
1680016763023,1196751378394928,-0.20700002,9.22395,2.64105
1680016763026,1196751380897313,-0.123,9.265051,2.6890502
1680016763028,1196751383399544,-0.19305001,9.23595,2.63895
1680016763030,1196751385901933,-0.252,9.271951,2.67195
1680016763034,1196751388404164,-0.07095,9.318001,2.52195
1680016763038,1196751390906318,-0.12795001,9.282001,2.6580002
1680016763039,1196751393408722,-0.08505,9.31005,2.67195
1680016763041,1196751395911183,-0.05595,9.36795,2.59605
1680016763043,1196751398413414,-0.028050002,9.327001,2.706
1680016763046,1196751400915568,-0.08505,9.40095,2.77305
1680016763048,1196751403417952,-0.11895001,9.418051,2.7469501
1680016763050,1196751405920169,-0.052050002,9.418051,2.69895
1680016763053,1196751408422323,-0.03195,9.49005,2.7520502
1680016763056,1196751410924785,-0.028050002,9.47295,2.73195
1680016763058,1196751413427169,0.0010500001,9.448951,2.7919502
1680016763060,1196751415929308,-0.010950001,9.580951,2.9220002
1680016763063,1196751418431539,0.022950001,9.50895,2.8950002
1680016763066,1196751420933693,-0.030000001,9.516001,2.9310002
1680016763069,1196751423436077,0.066,9.46395,2.8860002
1680016763070,1196751425938535,0.054,9.53295,2.907
1680016763075,1196751428440689,0.051000003,9.571051,2.8900502
1680016763078,1196751430942919,0.066,9.588,2.8590002
1680016763079,1196751433636472,0.10395,9.61005,2.84505
1680016763081,1196751435947549,0.016050002,9.58605,2.9340003
1680016763083,1196751438449703,-0.042000003,9.543,2.907
1680016763087,1196751440952087,-0.01305,9.50205,2.8140001
1680016763089,1196751443454549,0.025050001,9.5140505,2.9620502
1680016763092,1196751445956775,-0.01305,9.52305,2.87805
1680016763093,1196751448458929,-0.040050004,9.459001,2.8620002
1680016763096,1196751450961313,0.063,9.49995,3.01305
1680016763099,1196751453463544,0.05595,9.448951,2.97195
1680016763101,1196751455965929,0.08295,9.42,2.84505
1680016763103,1196751458468145,-0.0010500001,9.406051,2.835
1680016763106,1196751460970530,-0.00405,9.43995,2.84505
1680016763108,1196751463472684,0.00795,9.411,2.799
1680016763112,1196751465974915,0.06795,9.47805,2.8620002
1680016763115,1196751468477299,0.022950001,9.394051,2.7919502
1680016763120,1196751470979453,0.13995,9.415951,2.8570502
1680016763121,1196751473481915,0.0010500001,9.46395,2.838
1680016763122,1196751475984145,0.07305,9.435,2.8950002
1680016763124,1196751478486279,0.00795,9.306001,2.838
1680016763127,1196751480988664,0.0010500001,9.291,2.8620002
1680016763128,1196751483490895,0.00405,9.339001,2.7439501
1680016763130,1196751485993048,0.016050002,9.315001,2.8590002
1680016763133,1196751488495506,0.010950001,9.295951,2.871
1680016763136,1196751490997891,-0.030000001,9.259951,2.7829502
1680016763138,1196751493500121,-0.04695,9.217051,2.73495
1680016763140,1196751496002275,0.00405,9.34395,2.7850502
1680016763143,1196751498504640,-0.102000006,9.279,2.6200502
1680016763146,1196751501006871,0.030000001,9.315001,2.7829502
1680016763150,1196751503509332,-0.05595,9.271951,2.77095
1680016763152,1196751506011486,-0.01995,9.33195,2.7870002
1680016763154,1196751508513881,0.058950003,9.30795,2.70795
1680016763157,1196751511016111,0.030000001,9.35805,2.802
1680016763159,1196751513518496,-0.040050004,9.36795,2.8159502
1680016763160,1196751516020650,0.006,9.403951,2.775
1680016763163,1196751518522881,0.040050004,9.32205,2.7829502
1680016763166,1196751521025337,-0.034950003,9.4129505,2.8210502
1680016763169,1196751523527491,-0.063,9.432,2.77095
1680016763170,1196751526029876,-0.16605,9.47595,2.8140001
1680016763173,1196751528532106,-0.054,9.45405,2.8519502
1680016763176,1196751531034260,-0.11895001,9.391951,2.77095
1680016763178,1196751533536645,-0.123,9.4470005,2.7589502
1680016763180,1196751536038876,-0.24300002,9.351001,2.76795
1680016763185,1196751538541260,-0.13995,9.271951,2.91195
1680016763188,1196751541043506,-0.135,9.373051,2.7919502
1680016763190,1196751543545660,-0.109050006,9.318001,2.91
1680016763192,1196751546048045,-0.094950005,9.33405,3.0919502
1680016763196,1196751548550275,-0.147,9.246,3.147
1680016763199,1196751551052737,-0.016050002,9.214951,3.0600002
1680016763200,1196751553554871,-0.016050002,9.219001,2.97195
1680016763202,1196751556057255,-0.078,9.279,2.97405
1680016763203,1196751558559486,-0.052050002,9.186001,2.8950002
1680016763206,1196751561061871,-0.042000003,9.19305,2.871
1680016763208,1196751563564025,-0.12795001,9.094951,2.73705
1680016763210,1196751566066496,-0.147,9.03705,2.6530502
1680016763213,1196751568568727,-0.13095,9.05595,2.7160501
1680016763216,1196751571070881,-0.063,9.076051,2.66295
1680016763219,1196751573573265,-0.052050002,9.02505,2.67705
1680016763222,1196751576075496,-0.05595,9.01305,2.5459502
1680016763225,1196751578577645,0.0010500001,9.066,2.55795
1680016763227,1196751581080030,-0.054,9.11205,2.64105
1680016763229,1196751583582491,0.03195,9.17895,2.63205
1680016763231,1196751586084626,-0.07095,9.162001,2.7160501
1680016763234,1196751588586857,-0.00405,9.1710005,2.67195
1680016763237,1196751591089241,0.040050004,9.17895,2.6530502
1680016763239,1196751593591395,-0.063,9.186001,2.7900002
1680016763240,1196751596093626,-0.010950001,9.20505,2.60295
1680016763243,1196751598596083,0.030000001,9.229051,2.6749501
1680016763246,1196751601098237,-0.006,9.32505,2.63895
1680016763248,1196751603600621,0.040050004,9.21,2.7229502
1680016763251,1196751606102852,0.016050002,9.30795,2.66805
1680016763253,1196751608605237,0.054,9.262051,2.6460001
1680016763256,1196751611107390,0.0010500001,9.246,2.637
1680016763258,1196751613609852,-0.11400001,9.286051,2.6130002
1680016763262,1196751616112093,-0.01995,9.306001,2.6490002
1680016763264,1196751618614247,-0.00795,9.31005,2.6839502
1680016763267,1196751621116631,-0.01995,9.255,2.73195
1680016763269,1196751623618862,-0.03705,9.259951,2.637
1680016763271,1196751626121247,-0.12795001,9.37005,2.7280502
1680016763276,1196751628623457,-0.079950005,9.295951,2.706
1680016763278,1196751631125842,-0.09,9.328951,2.73495
1680016763279,1196751633627996,-0.05595,9.373051,2.811
1680016763281,1196751636130227,-0.049050003,9.283951,2.87805
1680016763283,1196751638632688,-0.042000003,9.315001,2.7829502
1680016763287,1196751641135073,-0.11595,9.403951,2.7559502
1680016763288,1196751643637227,-0.147,9.391951,2.7870002
1680016763291,1196751646139457,-0.162,9.37695,2.84295
1680016763293,1196751648641842,-0.06795,9.375,2.80905
1680016763296,1196751651144093,-0.058950003,9.403951,2.7490501
1680016763300,1196751653646477,-0.079950005,9.318001,2.7850502
1680016763302,1196751656148708,-0.16395001,9.37005,2.8230002
1680016763303,1196751658650862,-0.17805001,9.3820505,2.8189502
1680016763307,1196751661153251,-0.147,9.48795,2.8900502
1680016763308,1196751663655481,-0.18105,9.351001,2.799
1680016763311,1196751666157635,-0.09705,9.411,2.8500001
1680016763314,1196751668660020,-0.14505,9.373051,2.8930502
1680016763317,1196751671162496,-0.040050004,9.351001,2.86905
1680016763320,1196751673664650,-0.11100001,9.379951,2.8230002
1680016763322,1196751676166881,-0.025050001,9.423,2.874
1680016763323,1196751678669266,0.025050001,9.36495,2.835
1680016763326,1196751681171420,-0.094950005,9.298051,2.83095
1680016763328,1196751683673640,-0.094950005,9.32205,2.6940002
1680016763331,1196751686176102,-0.11895001,9.33195,2.6170502
1680016763333,1196751688678486,-0.022950001,9.282001,2.7559502
1680016763338,1196751691180640,-0.078,9.403951,2.7199502
1680016763340,1196751693682890,-0.042000003,9.33405,2.60805
1680016763342,1196751696185275,-0.10695001,9.36795,2.60805
1680016763344,1196751698687506,-0.09195001,9.394051,2.63205
1680016763346,1196751701189890,-0.09195001,9.40905,2.59095
1680016763348,1196751703692121,-0.126,9.411,2.66295
1680016763352,1196751706194481,-0.08505,9.47295,2.69895
1680016763354,1196751708696634,-0.078,9.397051,2.5860002
1680016763357,1196751711198865,-0.13800001,9.53505,2.67195
1680016763358,1196751713701250,-0.058950003,9.468,2.69895
1680016763360,1196751716203481,-0.17400001,9.49005,2.5549502
1680016763363,1196751718705860,-0.09900001,9.4800005,2.5930502
1680016763366,1196751721208091,-0.20505,9.495001,2.6839502
1680016763369,1196751723710245,-0.21900001,9.483001,2.60505
1680016763371,1196751726212629,-0.26205,9.49995,2.63895
1680016763375,1196751728714884,-0.23400001,9.45405,2.73195
1680016763377,1196751731217269,-0.28095,9.519,2.6170502
1680016763379,1196751733719500,-0.30495003,9.423,2.63895
1680016763381,1196751736221860,-0.34605002,9.504001,2.6890502
1680016763383,1196751738724014,-0.35595003,9.43995,2.66505
1680016763387,1196751741226245,-0.35595003,9.40905,2.6580002
1680016763389,1196751743728629,-0.31995,9.361051,2.7250502
1680016763391,1196751746230860,-0.37995002,9.459001,2.6490002
1680016763394,1196751748733250,-0.372,9.363001,2.7919502
1680016763397,1196751751235481,-0.35295,9.40095,2.778
1680016763399,1196751753737865,-0.35805002,9.33705,2.7559502
1680016763400,1196751756240096,-0.36495003,9.387,2.74005
1680016763403,1196751758742279,-0.34800002,9.49695,2.74005
1680016763406,1196751761244663,-0.372,9.403951,2.7630002
1680016763408,1196751763747125,-0.39405003,9.519,2.6100001
1680016763412,1196751766249289,-0.36795002,9.418051,2.7610502
1680016763414,1196751768751520,-0.39195,9.49005,2.6100001
1680016763417,1196751771253904,-0.423,9.34095,2.7280502
1680016763419,1196751773756058,-0.423,9.47295,2.69895
1680016763421,1196751776258289,-0.45105,9.42,2.6890502
1680016763423,1196751778760726,-0.37005,9.507001,2.6820002
1680016763426,1196751781262880,-0.32700002,9.423,2.60505
1680016763428,1196751783765265,-0.45405003,9.394051,2.7610502
1680016763431,1196751786267496,-0.40800002,9.339001,2.5549502
1680016763436,1196751788769654,-0.44205,9.328951,2.6820002
1680016763437,1196751791272038,-0.411,9.298051,2.8279502
1680016763439,1196751793774500,-0.41295,9.22605,2.69895
1680016763441,1196751796276654,-0.35805002,9.262051,2.766
1680016763443,1196751798778884,-0.37695003,9.16395,2.80395
1680016763447,1196751801281308,-0.34395,9.234,2.775
1680016763451,1196751803783539,-0.37995002,9.198001,2.706
1680016763452,1196751806285693,-0.30105,9.198001,2.7949502
1680016763454,1196751808788077,-0.39405003,9.19095,2.7970502
1680016763457,1196751811290539,-0.30105,9.19305,2.8330503
1680016763459,1196751813792755,-0.27705002,9.274051,2.91405
1680016763461,1196751816294908,-0.33900002,9.291,2.88105
1680016763463,1196751818797293,-0.30795002,9.361051,2.871
1680016763466,1196751821299524,-0.27705002,9.37005,2.8549502
1680016763468,1196751823801664,-0.24300002,9.385051,2.83995
1680016763471,1196751826304125,-0.19995001,9.262051,2.93595
1680016763474,1196751828806510,-0.26895002,9.31305,2.8590002
1680016763477,1196751831308664,-0.19500001,9.387,2.84295
1680016763479,1196751833810894,-0.21195,9.295951,2.7490501
1680016763481,1196751836313279,-0.19500001,9.379951,2.73705
1680016763483,1196751838815433,-0.14505,9.45405,2.80395
1680016763488,1196751841317894,-0.12105001,9.229051,2.8230002
1680016763490,1196751843820115,-0.09900001,9.373051,2.7970502
1680016763492,1196751846322269,-0.09,9.448951,2.7970502
1680016763494,1196751848824654,-0.07305,9.456,2.6890502
1680016763497,1196751851326884,-0.078,9.49695,2.8189502
1680016763498,1196751853829057,-0.05595,9.435,2.77305
1680016763501,1196751856331519,-0.01995,9.50895,2.6250002
1680016763504,1196751858833904,-0.102000006,9.555,2.7160501
1680016763506,1196751861336134,0.00405,9.456,2.6220002
1680016763508,1196751863838288,-0.052050002,9.460951,2.55795
1680016763510,1196751866340673,-0.052050002,9.492001,2.52195
1680016763514,1196751868842904,0.018000001,9.492001,2.56005
1680016763517,1196751871345365,0.10395,9.528001,2.6800501
1680016763519,1196751873847510,0.0010500001,9.50205,2.598
1680016763521,1196751876349895,-0.034950003,9.526051,2.5810502
1680016763525,1196751878852125,0.010950001,9.50205,2.59605
1680016763527,1196751881354279,0.006,9.579,2.598
1680016763529,1196751883856664,-0.03195,9.50205,2.6560502
1680016763531,1196751886358890,-0.01305,9.44205,2.66505
1680016763533,1196751888861274,-0.10695001,9.574051,2.7250502
1680016763536,1196751891363505,-0.17400001,9.45405,2.67
1680016763539,1196751893865659,-0.126,9.49005,2.6509502
1680016763541,1196751896368014,-0.19005,9.456,2.70405
1680016763543,1196751898870245,-0.28095,9.531,2.7130501
1680016763546,1196751901372630,-0.23595001,9.50205,2.7130501
1680016763549,1196751903874861,-0.28095,9.49695,2.63205
1680016763551,1196751906377245,-0.40395,9.47595,2.73195
1680016763554,1196751908879476,-0.34095,9.47595,2.8140001
1680016763557,1196751911381630,-0.33705002,9.43995,2.7180002
1680016763559,1196751913884014,-0.432,9.531,2.8590002
1680016763563,1196751916386240,-0.41295,9.423,2.74005
1680016763564,1196751918888702,-0.31695002,9.5119505,2.7469501
1680016763567,1196751921390856,-0.32895002,9.47805,2.86905
1680016763569,1196751923893240,-0.351,9.427951,2.838
1680016763571,1196751926395471,-0.38205,9.4800005,2.89995
1680016763574,1196751928897842,-0.39195,9.538051,2.7540002
1680016763576,1196751931399996,-0.32700002,9.516001,2.6869502
1680016763579,1196751933902457,-0.423,9.519,2.799
1680016763581,1196751936404688,-0.36,9.50895,2.6839502
1680016763586,1196751938906856,-0.291,9.34095,2.6869502
1680016763588,1196751941409240,-0.27705002,9.492001,2.775
1680016763589,1196751943911471,-0.279,9.468,2.67705
1680016763591,1196751946413625,-0.15195,9.385051,2.7250502
1680016763594,1196751948916086,-0.18300001,9.444,2.7540002
1680016763597,1196751951418485,-0.18300001,9.436951,2.7280502
1680016763600,1196751953920639,-0.16605,9.456,2.7970502
1680016763602,1196751956422870,-0.15195,9.387,2.835
1680016763604,1196751958925024,-0.126,9.42,2.8500001
1680016763607,1196751961427399,-0.11595,9.3490505,2.8519502
1680016763608,1196751963929630,-0.09,9.43995,2.6820002
1680016763611,1196751966432092,-0.11400001,9.34095,2.7490501
1680016763614,1196751968934245,0.09900001,9.265051,2.7850502
1680016763616,1196751971436620,0.04695,9.295951,2.6530502
1680016763624,1196751973938851,0.0010500001,9.255,2.7180002
1680016763624,1196751976441235,0.018000001,9.28905,2.7180002
1680016763624,1196751978943389,0.09900001,9.246,2.69895
1680016763626,1196751981445866,0.10395,9.174001,2.5810502
1680016763628,1196751983948097,0.16905001,9.32205,2.5140002
1680016763631,1196751986450481,0.17805001,9.214951,2.5840502
1680016763634,1196751988952635,0.07095,9.22395,2.5170002
1680016763638,1196751991454866,0.13800001,9.250051,2.6460001
1680016763640,1196751993957250,0.075,9.18795,2.5840502
1680016763642,1196751996459481,0.12105001,9.19095,2.5740001
1680016763644,1196751998961866,0.09,9.30795,2.67
1680016763647,1196752001464020,0.11100001,9.207001,2.5170002
1680016763648,1196752003966240,0.09705,9.262051,2.5930502
1680016763652,1196752006468625,0.09900001,9.282001,2.59095
1680016763654,1196752008970779,0.15,9.283951,2.63895
1680016763656,1196752011473240,0.08505,9.35295,2.6890502
1680016763659,1196752013975471,0.03195,9.229051,2.73705
1680016763661,1196752016477639,0.126,9.394051,2.66805
1680016763663,1196752018980024,0.087000005,9.279,2.73705
1680016763667,1196752021482255,0.025050001,9.36795,2.706
1680016763671,1196752023984630,0.03705,9.306001,2.7850502
1680016763672,1196752026486784,0.0010500001,9.3820505,2.6800501
1680016763676,1196752028989246,0.04695,9.43995,2.7799501
1680016763679,1196752031491476,-0.010950001,9.37005,2.62905
1680016763680,1196752034091779,0.03195,9.430051,2.637
1680016763682,1196752036496010,-0.066,9.387,2.7949502
1680016763684,1196752038998241,-0.040050004,9.495001,2.7109501
1680016763687,1196752041500625,0.066,9.415951,2.6200502
1680016763689,1196752044003087,-0.08295,9.40095,2.6800501
1680016763691,1196752046505285,-0.010950001,9.456,2.5930502
1680016763694,1196752049007515,-0.109050006,9.528001,2.5860002
1680016763697,1196752051509669,-0.094950005,9.45405,2.66295
1680016763699,1196752054012054,-0.09705,9.48495,2.7540002
1680016763703,1196752056514261,-0.12795001,9.397051,2.7250502
1680016763705,1196752059016645,-0.13995,9.52095,2.7160501
1680016763706,1196752061518876,-0.13095,9.47295,2.6149502
1680016763710,1196752064021261,-0.19500001,9.46395,2.76795
1680016763714,1196752066523429,-0.20205002,9.588,2.661
1680016763719,1196752069025660,-0.147,9.526051,2.7919502
1680016763721,1196752071528045,-0.25005,9.483001,2.6890502
1680016763722,1196752074029275,-0.23400001,9.61695,2.6869502
1680016763722,1196752076530506,-0.23805001,9.46395,2.7610502
1680016763724,1196752079034905,-0.35595003,9.403951,2.73
1680016763727,1196752081537290,-0.27705002,9.53295,2.7799501
1680016763729,1196752084039444,-0.28905,9.580951,2.7799501
1680016763731,1196752086541674,-0.28905,9.571051,2.7919502
1680016763733,1196752089044136,-0.186,9.567,2.66805
1680016763737,1196752091546525,-0.19005,9.5140505,2.6149502
1680016763739,1196752094048679,-0.24300002,9.50205,2.661
1680016763741,1196752096550910,-0.27195,9.526051,2.6460001
1680016763743,1196752099053295,-0.19005,9.4129505,2.69595
1680016763746,1196752101555439,-0.34395,9.379951,2.565
1680016763750,1196752104057669,-0.37695003,9.399,2.6509502
1680016763752,1196752106560131,-0.32505003,9.49995,2.60295
1680016763755,1196752109062515,-0.38700002,9.423,2.66295
1680016763757,1196752111564650,-0.351,9.403951,2.7610502
1680016763759,1196752114066881,-0.44205,9.379951,2.6839502
1680016763761,1196752116569035,-0.372,9.3820505,2.77305
1680016763763,1196752119071497,-0.384,9.30105,2.76795
1680016763767,1196752121573650,-0.36,9.241051,2.7970502
1680016763769,1196752124076035,-0.31995,9.33705,2.8260002
1680016763771,1196752126578266,-0.30795002,9.27,2.811
1680016763774,1196752129080650,-0.27195,9.19305,2.871
1680016763776,1196752131582881,-0.19995001,9.253051,2.7900002
1680016763780,1196752134085275,-0.29805002,9.13305,2.87805
1680016763782,1196752136587506,-0.23400001,9.207001,2.8519502
1680016763784,1196752139089659,-0.147,9.19995,2.87595
1680016763788,1196752141592044,-0.18105,9.21,2.811
1680016763792,1196752144094246,-0.109050006,9.18795,2.811
1680016763793,1196752146596630,-0.08505,9.150001,2.8570502
1680016763795,1196752149098861,-0.06795,9.16695,2.7870002
1680016763798,1196752151601246,-0.066,9.19305,2.7520502
1680016763799,1196752154103400,0.0010500001,9.33195,2.8140001
1680016763802,1196752156605630,0.03195,9.27705,2.8660502
1680016763804,1196752159108006,0.063,9.31995,2.8159502
1680016763807,1196752161610237,0.10695001,9.387,2.8470001
1680016763809,1196752164112621,0.21900001,9.373051,2.802
1680016763811,1196752166614852,0.26505002,9.415951,2.6940002
1680016763814,1196752169117006,0.24495001,9.418051,2.7949502
1680016763816,1196752171619391,0.22395001,9.40095,2.9340003
1680016763819,1196752174121621,0.27195,9.471001,2.80905
1680016763821,1196752176624083,0.33195,9.492001,2.7540002
1680016763825,1196752179126218,0.29595003,9.526051,2.7630002
1680016763828,1196752181628603,0.34395,9.47805,2.8500001
1680016763830,1196752184130833,0.31695002,9.50205,2.87595
1680016763831,1196752186633218,0.32700002,9.5449505,2.8230002
1680016763834,1196752189135372,0.32895002,9.559051,2.6890502
1680016763837,1196752191637588,0.32700002,9.5449505,2.6869502
1680016763839,1196752194140049,0.19305001,9.49695,2.7469501
1680016763841,1196752196642203,0.171,9.595051,2.742
1680016763844,1196752199144588,0.16395001,9.588,2.63205
1680016763846,1196752201646818,0.171,9.471001,2.6490002
1680016763849,1196752204148972,-0.025050001,9.504001,2.7870002
1680016763852,1196752206651357,-0.10695001,9.538051,2.67
1680016763855,1196752209153818,-0.042000003,9.568951,2.7520502
1680016763856,1196752211655986,-0.087000005,9.61695,2.7180002
1680016763859,1196752214158217,-0.26505002,9.712951,2.775
1680016763863,1196752216660602,-0.26700002,9.64995,2.8189502
1680016763864,1196752219162755,-0.32205,9.538051,2.84505
1680016763867,1196752221664967,-0.246,9.69795,2.9479501
1680016763869,1196752224167429,-0.28395,9.66195,3.039
1680016763871,1196752226669583,-0.26895002,9.75105,2.979
1680016763874,1196752229171967,-0.26895002,9.74895,3.1660502
1680016763877,1196752231674198,-0.23400001,9.75105,3.0030003
1680016763879,1196752234176616,-0.22905001,9.777,3.13995
1680016763881,1196752236678769,-0.16605,9.715051,3.1900501
1680016763884,1196752239181231,-0.15405001,9.828,3.31695
1680016763887,1196752241683462,-0.08505,9.777,3.2329502
1680016763889,1196752244185846,-0.08295,9.83205,3.357
1680016763891,1196752246688000,-0.052050002,9.81105,3.3619502
1680016763894,1196752249190231,0.022950001,9.744,3.4510503
1680016763896,1196752251692616,0.01305,9.80595,3.5370002
1680016763900,1196752254194751,0.022950001,9.672001,3.5800502
1680016763902,1196752256697212,0.075,9.883051,3.5629501
1680016763905,1196752259199443,0.11595,9.883051,3.5010002
1680016763907,1196752261701597,0.12795001,9.813001,3.6019502
1680016763908,1196752264203981,0.15,9.873,3.7219503
1680016763911,1196752266706216,0.279,9.883051,3.8050501
1680016763915,1196752269208370,0.27705002,9.897,3.7570503
1680016763918,1196752271710831,0.25995,9.864,3.8700001
1680016763920,1196752274213216,0.31500003,9.880051,3.8200502
1680016763923,1196752276715375,0.32505003,9.92595,3.8530502
1680016763924,1196752279217606,0.34395,9.94995,3.8530502
1680016763926,1196752281719990,0.46800002,9.8880005,3.765
1680016763929,1196752284222144,0.48000002,9.897,3.86505
1680016763931,1196752286724606,0.50100005,9.97605,3.7500002
1680016763934,1196752289226828,0.48000002,9.865951,3.7789502
1680016763938,1196752291729212,0.56595004,9.861,3.7549503
1680016763940,1196752294231366,0.57405,9.871051,3.726
1680016763942,1196752296733597,0.507,9.7890005,3.9130502
1680016763944,1196752299235971,0.54,9.801001,3.762
1680016763946,1196752301738433,0.57105005,9.8560505,3.7570503
1680016763948,1196752304240587,0.6,9.79395,3.8479502
1680016763952,1196752306742818,0.51600003,9.89505,3.8080502
1680016763955,1196752309245221,0.51600003,9.883051,3.7410002
1680016763957,1196752311747375,0.507,9.769951,3.7770002
1680016763959,1196752314249606,0.48495004,9.825001,3.7170002
1680016763961,1196752316751990,0.507,9.769951,3.8359501
1680016763964,1196752319254221,0.40095,9.883051,3.8100002
1680016763967,1196752321756625,0.42705002,9.801001,3.7450502
1680016763969,1196752324258779,0.279,9.77295,3.6979501
1680016763971,1196752326761009,0.45600003,9.828,3.7429502
1680016763975,1196752329263399,0.43005002,9.777,3.7219503
1680016763978,1196752331765553,0.43905002,9.72,3.69495
1680016763980,1196752334268014,0.44205,9.7560005,3.7810502
1680016763981,1196752336770245,0.44895002,9.67905,3.7669501
1680016763984,1196752339272630,0.36795002,9.7560005,3.7069502
1680016763987,1196752341774770,0.39195,9.65295,3.7860003
1680016763989,1196752344277001,0.411,9.61695,3.7450502
1680016763991,1196752346779385,0.41295,9.5119505,3.7690501
1680016763994,1196752349281847,0.41295,9.50205,3.9160502
1680016763997,1196752351784015,0.45105,9.564,3.82695
1680016764002,1196752354286245,0.55005,9.411,3.9900002
1680016764004,1196752356788630,0.66495,9.361051,3.9160502
1680016764007,1196752359290861,0.59505004,9.397051,3.9270003
1680016764009,1196752361793025,0.57795,9.35595,3.9559503
1680016764010,1196752364295486,0.57405,9.22605,3.93495
1680016764013,1196752366797871,0.57600003,9.198001,3.93705
1680016764014,1196752369300025,0.63105005,9.291,3.9709501
1680016764017,1196752371802245,0.62100005,9.30105,3.7789502
1680016764019,1196752374304399,0.51000005,9.15495,4.01805
1680016764021,1196752376806784,0.59295005,9.279,3.9180002
1680016764023,1196752379309245,0.492,9.219001,3.9870002
1680016764026,1196752381811476,0.55200005,9.279,3.86505
1680016764028,1196752384313620,0.492,9.17895,3.7050002
1680016764031,1196752386816005,0.47805002,9.23595,3.8239503
1680016764035,1196752389318158,0.44895002,9.21195,3.79605
1680016764037,1196752391820389,0.45105,9.23595,3.9420002
1680016764039,1196752394322857,0.32505003,9.31305,3.8530502
1680016764041,1196752396825241,0.48000002,9.31305,3.8820002
1680016764043,1196752399327395,0.47805002,9.246,3.9469502
1680016764046,1196752401829626,0.40605003,9.283951,4.011
1680016764050,1196752404332011,0.43500003,9.258,4.0680003
1680016764052,1196752406834241,0.351,9.31005,4.06395
1680016764054,1196752409336395,0.40395,9.219001,4.224
1680016764057,1196752411838857,0.36,9.27705,4.2840004
1680016764058,1196752414341241,0.37995002,9.207001,4.215
1680016764061,1196752416843462,0.44205,9.22395,4.3369503
1680016764063,1196752419345616,0.51000005,9.253051,4.47795
1680016764066,1196752421848001,0.59805006,9.32505,4.4880004
1680016764069,1196752424350155,0.55200005,9.34605,4.605
1680016764071,1196752426852616,0.61395,9.234,4.56195
1680016764074,1196752429354847,0.66495,9.174001,4.596
1680016764077,1196752431857001,0.669,9.243,4.77495
1680016764079,1196752434359385,0.72195005,9.21195,4.77495
1680016764081,1196752436861616,0.79395,9.217051,4.69605
1680016764084,1196752439363751,0.72195005,9.15495,4.689
1680016764089,1196752441866213,0.82305,9.259951,4.72695
1680016764091,1196752444368597,0.837,9.31305,4.6990504
1680016764093,1196752446870746,0.873,9.183001,4.8640504
1680016764095,1196752449372977,0.906,9.16695,4.821
1680016764097,1196752451875361,0.93705004,9.127951,4.914
1680016764099,1196752454377592,0.99195004,9.21,4.8619504
1680016764101,1196752456879977,1.0180501,9.219001,4.93305
1680016764104,1196752459382203,1.0030501,9.262051,5.02005
1680016764107,1196752461884587,1.0849501,9.1710005,4.9960504
1680016764110,1196752464386818,1.07805,9.162001,5.091
1680016764111,1196752466888972,1.23405,9.16395,5.0869503
1680016764115,1196752469391376,1.2240001,9.12405,5.13
1680016764118,1196752471893607,1.2889501,9.088051,5.18505
1680016764121,1196752474396069,1.3750501,9.16395,5.2500005
1680016764123,1196752476898223,1.4610001,9.12405,5.4030004
1680016764126,1196752479400583,1.50405,9.150001,5.35995
1680016764128,1196752481902814,1.5640501,9.102,5.3760004
1680016764131,1196752484404968,1.6650001,8.98005,5.51805
1680016764132,1196752486907352,1.6890001,8.98005,5.4910502
1680016764134,1196752489409583,1.8919501,8.925,5.4870005
1680016764138,1196752491911963,1.9380001,8.788051,5.52495
1680016764140,1196752494414194,2.08605,8.757,5.56605
1680016764142,1196752496916347,2.1100502,8.71395,5.6280003
1680016764144,1196752499418732,2.046,8.70705,5.5870504
1680016764147,1196752501920963,2.163,8.635051,5.46495
1680016764149,1196752504423367,2.055,8.644951,5.6179504
1680016764153,1196752506925597,2.1720002,8.608951,5.6260505
1680016764155,1196752509427982,2.184,8.56305,5.5200005
1680016764157,1196752511930213,2.1649501,8.458051,5.6260505
1680016764159,1196752514432377,2.16,8.434051,5.43405
1680016764163,1196752516934761,2.091,8.364,5.46495
1680016764165,1196752519437223,2.1100502,8.56305,5.2969503
1680016764167,1196752521939453,1.96395,8.476951,5.4889503
1680016764169,1196752524441607,1.9380001,8.352,5.34105
1680016764172,1196752526943996,1.9450501,8.40705,5.50605
1680016764174,1196752529446227,1.9069501,8.26395,5.32905
1680016764177,1196752531948611,1.761,8.415,5.37195
1680016764179,1196752534450842,1.7149501,8.39505,5.4480004
1680016764181,1196752536953242,1.65795,8.316,5.3910003
1680016764184,1196752539455396,1.713,8.371051,5.5230002
1680016764187,1196752541957626,1.7200501,8.2900505,5.5630503
1680016764189,1196752544460011,1.6860001,8.379001,5.5939503
1680016764192,1196752546962247,1.69305,8.328,5.6899505
1680016764195,1196752549464401,1.7509501,8.38095,5.7070503
1680016764197,1196752551966862,1.76505,8.415,5.77395
1680016764202,1196752554469247,1.8540001,8.30895,5.7330003
1680016764203,1196752556971391,1.88505,8.368951,5.77395
1680016764204,1196752559473621,1.9260001,8.27595,5.7570004
1680016764207,1196752561976006,1.9900501,8.359051,5.8939505
1680016764209,1196752564478160,2.0670002,8.299951,5.8549504
1680016764212,1196752566980621,2.0670002,8.368951,5.93895
1680016764214,1196752569482836,2.14395,8.283,5.7840004
1680016764217,1196752571984990,2.1750002,8.323951,5.7960005
1680016764219,1196752574487375,2.091,8.326051,5.8669505
1680016764222,1196752576989605,2.12895,8.332951,5.83395
1680016764224,1196752579491976,2.091,8.376,5.6590505
1680016764227,1196752581994207,2.1370502,8.359051,5.7499504
1680016764229,1196752584496591,2.1409502,8.391001,5.7240005
1680016764231,1196752586998822,2.043,8.49405,5.7000003
1680016764235,1196752589501202,2.11995,8.3550005,5.75505
1680016764239,1196752592003356,2.0380502,8.371051,5.6610003
1680016764240,1196752594505586,1.88505,8.44305,5.6950502
1680016764242,1196752597008048,1.9620001,8.39505,5.7049503
1680016764252,1196752599510202,1.9020001,8.371051,5.6950502
1680016764252,1196752602012621,1.87995,8.338051,5.841
1680016764252,1196752604514851,1.8970501,8.2879505,5.7000003
1680016764253,1196752607017005,1.8919501,8.11305,5.82
1680016764254,1196752609519467,1.9549501,8.13195,5.71395
1680016764257,1196752612021846,1.88505,8.056951,5.793
1680016764259,1196752614524000,1.8709501,7.9279504,5.82
1680016764262,1196752617026231,1.8829501,7.9570503,5.88705
1680016764264,1196752619528616,1.9189501,7.8640504,5.9680505
1680016764267,1196752622030870,1.9519501,7.85895,5.9989505
1680016764269,1196752624533255,2.058,7.79895,6.0400505
1680016764271,1196752627035486,2.01405,7.6459503,6.05205
1680016764276,1196752629537654,2.1100502,7.5859504,6.15705
1680016764279,1196752632040038,2.0719502,7.49205,6.1140003
1680016764281,1196752634683731,2.09805,7.392,6.21495
1680016764286,1196752637044423,2.1010501,7.3440003,6.14295
1680016764287,1196752639546884,2.055,7.32705,6.1860003
1680016764288,1196752642049274,2.0770502,7.1980505,6.2050505
1680016764290,1196752644551428,2.0670002,7.2070503,6.3030005
1680016764292,1196752647053659,2.0670002,7.1380506,6.16695
1680016764294,1196752649556043,2.06205,6.98505,6.29895
1680016764297,1196752652058197,2.08395,7.0279503,6.339
1680016764299,1196752654560654,2.05995,7.00605,6.28695
1680016764303,1196752657062884,1.9930501,6.9660006,6.4450502
1680016764304,1196752659565269,2.0359502,6.9250503,6.33195
1680016764308,1196752662067423,2.0299501,6.9340506,6.43695
1680016764310,1196752664569683,2.08095,6.9900002,6.5070004
1680016764314,1196752667072067,2.09805,6.9270005,6.531
1680016764319,1196752669574529,2.151,7.0279503,6.5839505
1680016764321,1196752672075600,2.25405,7.0399504,6.603
1680016764321,1196752674576679,2.29905,6.9580503,6.6270003
1680016764322,1196752677081293,2.25195,7.011,6.6120005
1680016764324,1196752679583524,2.29695,7.0129504,6.5520005
1680016764327,1196752682085678,2.42205,7.0090504,6.591
1680016764329,1196752684588139,2.49105,7.0639505,6.7099504
1680016764331,1196752687090543,2.59605,7.0950003,6.6460505
1680016764334,1196752689592697,2.63205,6.98505,6.67005
1680016764337,1196752692094927,2.733,6.8359504,6.8230505
1680016764339,1196752694597312,2.8140001,6.8650503,6.7219505
1680016764341,1196752697099481,2.9149501,6.9030004,6.8179502
1680016764344,1196752699601712,3.114,6.8700004,6.77505
1680016764347,1196752702104096,3.17595,6.80805,6.9330006
1680016764353,1196752704606327,3.3360002,6.7050004,6.9690003
1680016764354,1196752707108702,3.4009502,6.67605,6.972
1680016764355,1196752709610933,3.48705,6.6109505,6.9859505
1680016764358,1196752712113086,3.59805,6.525,6.9880505
1680016764360,1196752714615471,3.68895,6.42705,7.0459504
1680016764362,1196752717117933,3.8149502,6.4870505,7.04295
1680016764364,1196752719620091,3.93495,6.33795,7.18695
1680016764367,1196752722122322,4.0410004,6.2299504,7.3429503
1680016764369,1196752724624707,4.1460004,6.1320004,7.15395
1680016764372,1196752727126938,4.314,6.05805,7.31895
1680016764374,1196752729629101,4.326,6.1369505,7.25895
1680016764377,1196752732131563,4.42395,6.0480003,7.3159504
1680016764379,1196752734633948,4.56705,5.99595,7.3740005
1680016764382,1196752737136178,4.65105,5.9929504,7.3360505
1680016764384,1196752739638346,4.6969504,5.8879504,7.2130504
1680016764389,1196752742140731,4.7470503,5.9430003,7.2180004
1680016764391,1196752744642962,4.953,5.8570504,7.2130504
1680016764393,1196752747145423,5.013,5.7970505,7.1610003
1680016764395,1196752749647601,5.1280503,5.8180504,7.1920505
1680016764398,1196752752149986,5.2519503,5.84205,7.18695
1680016764400,1196752754652216,5.2210503,5.7660003,7.0939503
1680016764402,1196752757154370,5.4150004,5.79195,7.0339503
1680016764404,1196752759656755,5.427,5.727,7.15395
1680016764407,1196752762159235,5.55705,5.76105,7.1340003
1680016764409,1196752764661389,5.6790004,5.742,7.0980005
1680016764411,1196752767163620,5.715,5.8350005,7.1680503
1680016764416,1196752769666005,5.7240005,5.802,7.05105
1680016764419,1196752772168140,5.68095,5.6989503,7.0219502
1680016764420,1196752774670370,5.78205,5.727,6.9640503
1680016764422,1196752777172755,5.76,5.814,6.972
