system_ts_ms, sensor_ts_ns, gyrX, gyrY, gyrZ
1680016759244,1196747594938241,0.06545,0.03025,0.015125
1680016759245,1196747597440472,0.0704,0.0281875,0.0171875
1680016759247,1196747599942933,0.0743875,0.027224999,0.0202125
1680016759260,1196747602445087,0.0743875,0.022275,0.0202125
1680016759260,1196747604947472,0.07645,0.01925,0.021175
1680016759261,1196747607449703,0.0785125,0.015262499,0.0251625
1680016759261,1196747609952087,0.079475,0.010175,0.026124999
1680016759261,1196747612454241,0.07645,0.00825,0.026124999
1680016759261,1196747614956703,0.0704,0.00715,0.0281875
1680016759272,1196747617458928,0.0694375,0.0042625,0.027224999
1680016759272,1196747619961313,0.0614625,0.0031625,0.02915
1680016759272,1196747622463467,0.0584375,0.00715,0.0341
1680016759272,1196747624965698,0.057475,0.0042625,0.037125
1680016759273,1196747627468068,0.0554125,0.0022,0.037125
1680016759276,1196747629970299,0.0495,0.0031625,0.0391875
1680016759279,1196747632472684,0.0495,0.0012375,0.04015
1680016759280,1196747634974914,0.046475,-0.0017875,0.0411125
1680016759284,1196747637477053,0.0474375,-0.00385,0.0411125
1680016759287,1196747639979438,0.0474375,-0.0048125,0.0441375
1680016759289,1196747642481669,0.043449998,-0.00385,0.0411125
1680016759291,1196747644984053,0.0455125,-0.0088,0.0422125
1680016759298,1196747647486284,0.0444125,-0.0088,0.04015
1680016759298,1196747649988679,0.0444125,-0.0088,0.0391875
1680016759298,1196747652490909,0.0455125,-0.0067375,0.038225
1680016759300,1196747654993063,0.0424875,-0.0048125,0.032175
1680016759302,1196747657495448,0.0374,-0.00385,0.032175
1680016759305,1196747659997597,0.0374,-0.0017875,0.032175
1680016759307,1196747662500058,0.0364375,-0.0017875,0.032175
1680016759314,1196747665002289,0.035475,0.0061875,0.032175
1680016759315,1196747667504674,0.0303875,0.0042625,0.02915
1680016759315,1196747670006799,0.0303875,0.0042625,0.0281875
1680016759318,1196747672509029,0.0314875,0.0031625,0.0301125
1680016759323,1196747675011414,0.0284625,0.0061875,0.0312125
1680016759331,1196747677512625,0.032449998,0.010175,0.02915
1680016759331,1196747680013858,0.0314875,0.00825,0.02915
1680016759332,1196747682518241,0.029424999,0.010175,0.0301125
1680016759333,1196747685020626,0.0314875,0.016224999,0.0331375
1680016759334,1196747687522780,0.0303875,0.021175,0.0331375
1680016759335,1196747690025010,0.029424999,0.0171875,0.0341
1680016759338,1196747692527462,0.035475,0.01815,0.0331375
1680016759340,1196747695029616,0.035475,0.01815,0.037125
1680016759343,1196747697532000,0.0303875,0.0232375,0.038225
1680016759345,1196747700034231,0.032449998,0.0232375,0.04015
1680016759355,1196747702536607,0.0334125,0.02915,0.0422125
1680016759356,1196747705038838,0.0314875,0.0342375,0.0471625
1680016759356,1196747707541222,0.0314875,0.033275,0.0462
1680016759356,1196747710043453,0.032449998,0.0361625,0.049225
1680016759365,1196747712545607,0.029424999,0.0391875,0.0471625
1680016759366,1196747715047991,0.0284625,0.043175,0.054175
1680016759366,1196747717601838,0.029424999,0.0462,0.0551375
1680016759367,1196747720052607,0.0314875,0.0501875,0.0551375
1680016759368,1196747722554838,0.0303875,0.0501875,0.054175
1680016759370,1196747725057188,0.0303875,0.055275,0.0551375
1680016759373,1196747727559342,0.0303875,0.054175,0.0561
1680016759374,1196747730061573,0.0303875,0.0562375,0.0581625
1680016759381,1196747732563958,0.032449998,0.0581625,0.0561
1680016759381,1196747735066188,0.029424999,0.060225,0.059125
1680016759382,1196747737568563,0.035475,0.06325,0.0631125
1680016759385,1196747740070794,0.035475,0.0642125,0.0631125
1680016759388,1196747742573178,0.035475,0.0691625,0.0642125
1680016759391,1196747745075332,0.0334125,0.0682,0.0691625
1680016759392,1196747747577582,0.032449998,0.0702625,0.0691625
1680016759398,1196747750080043,0.032449998,0.0782375,0.071225
1680016759401,1196747752581119,0.029424999,0.076175,0.07315
1680016759401,1196747755082198,0.029424999,0.0782375,0.0721875
1680016759402,1196747757586813,0.029424999,0.0801625,0.0752125
1680016759405,1196747760089001,0.0275,0.0801625,0.078099996
1680016759407,1196747762591385,0.0264,0.0812625,0.0771375
1680016759414,1196747765093847,0.0254375,0.0801625,0.078099996
1680016759415,1196747767596078,0.0204875,0.082225,0.0792
1680016759415,1196747770098245,0.0174625,0.0812625,0.078099996
1680016759419,1196747772600630,0.0154,0.0831875,0.0792
1680016759420,1196747775102861,0.0144375,0.0862125,0.081125
1680016759422,1196747777605245,0.0125124995,0.089237496,0.0792
1680016759426,1196747780107462,0.01045,0.0831875,0.078099996
1680016759431,1196747782609847,0.01045,0.08415,0.0792
1680016759431,1196747785112078,0.0055,0.08415,0.076175
1680016759435,1196747787614448,0.0055,0.08415,0.07315
1680016759437,1196747790116602,4.125E-4,0.08415,0.071225
1680016759439,1196747792618833,4.125E-4,0.0812625,0.0671
1680016759441,1196747795121294,0.0044,0.0801625,0.065175
1680016759446,1196747797623448,0.0064625,0.076175,0.0631125
1680016759446,1196747800125823,0.0114124995,0.0682,0.065175
1680016759448,1196747802628054,0.0125124995,0.0642125,0.0661375
1680016759450,1196747805130207,0.0193875,0.055275,0.0631125
1680016759452,1196747807632592,0.0204875,0.0482625,0.06215
1680016759454,1196747810134823,0.0254375,0.0471625,0.0631125
1680016759457,1196747812637231,0.0303875,0.043175,0.0631125
1680016759464,1196747815139462,0.0334125,0.0352,0.0642125
1680016759464,1196747817641616,0.035475,0.0352,0.06215
1680016759465,1196747820144001,0.035475,0.033275,0.0642125
1680016759468,1196747822646236,0.0364375,0.0352,0.0671
1680016759471,1196747825148621,0.0364375,0.033275,0.0671
1680016759473,1196747827650852,0.032449998,0.03025,0.0741125
1680016759479,1196747830153237,0.0374,0.03025,0.0771375
1680016759480,1196747832655467,0.0374,0.02915,0.0792
1680016759481,1196747835157852,0.0394625,0.0251625,0.082225
1680016759482,1196747837660006,0.0444125,0.0251625,0.0881375
1680016759485,1196747840162237,0.046475,0.03025,0.0902
1680016759488,1196747842664693,0.0495,0.0312125,0.09515
1680016759490,1196747845166847,0.057475,0.0352,0.0961125
1680016759493,1196747847669232,0.0594,0.0391875,0.100099996
1680016759498,1196747850171462,0.0614625,0.043175,0.103125
1680016759499,1196747852673847,0.0644875,0.0452375,0.1051875
1680016759500,1196747855176020,0.0724625,0.0501875,0.1082125
1680016759502,1196747857678481,0.0754875,0.06215,0.1122
1680016759505,1196747860180712,0.0804375,0.065175,0.11715
1680016759509,1196747862683102,0.0853875,0.0691625,0.1232
1680016759514,1196747865185256,0.090475,0.076175,0.12815
1680016759515,1196747867687486,0.0924,0.0812625,0.1291125
1680016759516,1196747870189871,0.090475,0.0862125,0.1331
1680016759520,1196747872692097,0.095425,0.093225,0.1381875
1680016759522,1196747877694481,0.1034,0.099275,0.1401125
1680016759524,1196747877854174,0.106425,0.104225,0.147125
1680016759529,1196747880198866,0.104499996,0.110275,0.1522125
1680016759530,1196747882701251,0.106425,0.1161875,0.158125
1680016759531,1196747885203495,0.113437496,0.1232,0.16115
1680016759532,1196747887705649,0.12045,0.1342,0.1661
1680016759535,1196747890208111,0.1214125,0.1412125,0.175175
1680016759538,1196747892710495,0.1225125,0.1472625,0.180125
1680016759540,1196747895212649,0.1225125,0.16115,0.1821875
1680016759543,1196747897714890,0.1265,0.1772375,0.1881
1680016759548,1196747900217275,0.13145,0.1882375,0.1931875
1680016759549,1196747902719505,0.1375,0.20019999,0.19813749
1680016759552,1196747905221890,0.1445125,0.21725,0.1991
1680016759553,1196747907724121,0.1513875,0.23127499,0.202125
1680016759555,1196747910226505,0.1555125,0.2462625,0.203225
1680016759558,1196747912728659,0.1654125,0.24419999,0.19813749
1680016759564,1196747915230890,0.1744875,0.25025,0.19415
1680016759565,1196747917733275,0.17847499,0.2552,0.1871375
1680016759566,1196747920235736,0.1775125,0.26221249,0.17613749
1680016759568,1196747922737890,0.1634875,0.2662,0.1711875
1680016759570,1196747925240121,0.1445125,0.275275,0.16115
1680016759572,1196747927742506,0.1225125,0.2842125,0.159225
1680016759575,1196747930244736,0.102437496,0.2872375,0.1571625
1680016759581,1196747932746890,0.0814,0.296175,0.153175
1680016759582,1196747935249352,0.0704,0.2982375,0.1491875
1680016759584,1196747937751726,0.0594,0.2982375,0.1452
1680016759587,1196747940253957,0.0504625,0.297275,0.142175
1680016759589,1196747942756111,0.0474375,0.2902625,0.1331
1680016759591,1196747945258496,0.0424875,0.2842125,0.1291125
1680016759594,1196747947760649,0.0374,0.2762375,0.1291125
1680016759595,1196747950262900,0.0385,0.269225,0.125125
1680016759598,1196747952765362,0.0394625,0.26015,0.122099996
1680016759600,1196747955267516,0.0374,0.242275,0.122099996
1680016759602,1196747957769900,0.032449998,0.230175,0.122099996
1680016759605,1196747960272131,0.035475,0.220275,0.1161875
1680016759608,1196747962774304,0.0394625,0.20515,0.1122
1680016759610,1196747965276688,0.0385,0.18727499,0.1101375
1680016759612,1196747967779150,0.035475,0.1711875,0.1101375
1680016759615,1196747970281304,0.0385,0.1601875,0.1071125
1680016759617,1196747972783544,0.040425,0.1461625,0.1021625
1680016759621,1196747975285928,0.0394625,0.12925,0.10615
1680016759624,1196747977788159,0.040425,0.1161875,0.1071125
1680016759627,1196747980290299,0.040425,0.104225,0.1071125
1680016759628,1196747982792760,0.0413875,0.0972125,0.1082125
1680016759630,1196747985295145,0.043449998,0.08415,0.10615
1680016759632,1196747987797376,0.043449998,0.0782375,0.104225
1680016759637,1196747990299535,0.0444125,0.0682,0.1051875
1680016759639,1196747992801919,0.043449998,0.0611875,0.103125
1680016759640,1196747995304150,0.046475,0.052249998,0.1021625
1680016759642,1196747997806612,0.0474375,0.0482625,0.100099996
1680016759646,1196748000308765,0.046475,0.0391875,0.103125
1680016759648,1196748002811164,0.046475,0.0312125,0.100099996
1680016759650,1196748005313395,0.0474375,0.0281875,0.09515
1680016759653,1196748007815549,0.0484,0.0232375,0.092125
1680016759657,1196748010317933,0.0504625,0.0202125,0.0961125
1680016759660,1196748012820429,0.0495,0.016224999,0.09515
1680016759662,1196748015322583,0.0455125,0.011275,0.092125
1680016759663,1196748017824813,0.0495,0.00825,0.0911625
1680016759666,1196748020327198,0.0534875,0.0012375,0.0881375
1680016759668,1196748022829352,0.0523875,-0.00275,0.0911625
1680016759670,1196748025331578,0.0534875,-0.00275,0.0911625
1680016759673,1196748027833962,0.056375,-0.0048125,0.0891
1680016759676,1196748030336193,0.0554125,-0.0078375,0.0891
1680016759679,1196748032838578,0.057475,-0.0097624995,0.087175
1680016759680,1196748035340809,0.0594,-0.01375,0.0911625
1680016759682,1196748037843193,0.062425,-0.01485,0.0891
1680016759688,1196748040345347,0.0605,-0.0188375,0.0862125
1680016759691,1196748042847578,0.0614625,-0.02475,0.0862125
1680016759691,1196748045350044,0.06545,-0.02585,0.0891
1680016759693,1196748047852198,0.0644875,-0.0287375,0.0881375
1680016759698,1196748050354583,0.0644875,-0.0317625,0.0881375
1680016759699,1196748052856814,0.0694375,-0.0317625,0.0902
1680016759702,1196748055359183,0.0644875,-0.0317625,0.0902
1680016759703,1196748057861337,0.068475,-0.03575,0.0902
1680016759707,1196748060363799,0.0743875,-0.03575,0.092125
1680016759708,1196748062866029,0.0704,-0.036849998,0.0902
1680016759710,1196748065368414,0.0724625,-0.0378125,0.087175
1680016759713,1196748067870573,0.073425,-0.0418,0.0881375
1680016759719,1196748070372804,0.073425,-0.0457875,0.087175
1680016759720,1196748072875188,0.073425,-0.043725,0.0851125
1680016759722,1196748075377419,0.0715,-0.0457875,0.087175
1680016759725,1196748077879799,0.0724625,-0.0528,0.087175
1680016759726,1196748080382029,0.0774125,-0.0537625,0.0831875
1680016759728,1196748082884414,0.07645,-0.049775,0.0801625
1680016759730,1196748085386568,0.0754875,-0.0537625,0.081125
1680016759735,1196748087888775,0.0754875,-0.054725,0.0831875
1680016759737,1196748090391236,0.07645,-0.054725,0.081125
1680016759739,1196748092893390,0.078375,-0.0567875,0.0801625
1680016759741,1196748095395775,0.0743875,-0.05775,0.0792
1680016759743,1196748097897929,0.07645,-0.05775,0.0771375
1680016759747,1196748100400159,0.0754875,-0.0598125,0.078099996
1680016759748,1196748102902544,0.078375,-0.0567875,0.0792
1680016759751,1196748105404775,0.078375,-0.0598125,0.0801625
1680016759753,1196748107907159,0.078375,-0.0628375,0.0752125
1680016759757,1196748110409379,0.079475,-0.0598125,0.0771375
1680016759759,1196748112911764,0.0804375,-0.060775,0.078099996
1680016759760,1196748115413918,0.0814,-0.0628375,0.076175
1680016759763,1196748117916148,0.082499996,-0.0647625,0.0771375
1680016759767,1196748120418533,0.0814,-0.0647625,0.0771375
1680016759768,1196748122920764,0.0853875,-0.065725,0.078099996
1680016759772,1196748125423148,0.0864875,-0.06875,0.0771375
1680016759774,1196748127925379,0.0924,-0.06875,0.078099996
1680016759776,1196748130427764,0.0924,-0.0738375,0.0792
1680016759778,1196748132929909,0.0924,-0.071775,0.0741125
1680016759780,1196748135432139,0.095425,-0.077825,0.0721875
1680016759785,1196748137934601,0.095425,-0.077825,0.0752125
1680016759787,1196748140436986,0.0974875,-0.08085,0.078099996
1680016759789,1196748142939139,0.0994125,-0.0867625,0.0792
1680016759790,1196748145441370,0.0994125,-0.0867625,0.0752125
1680016759792,1196748147943755,0.102437496,-0.0867625,0.0771375
1680016759797,1196748150445986,0.1034,-0.0897875,0.076175
1680016759799,1196748152948370,0.104499996,-0.087725,0.0752125
1680016759800,1196748155450601,0.1073875,-0.09185,0.0752125
1680016759803,1196748157952986,0.1054625,-0.0947375,0.07315
1680016759807,1196748160455139,0.1054625,-0.0947375,0.071225
1680016759810,1196748162957332,0.1054625,-0.095837496,0.071225
1680016759811,1196748165459717,0.1073875,-0.0977625,0.070125
1680016759813,1196748167961871,0.10945,-0.10175,0.071225
1680016759816,1196748170464332,0.1104125,-0.104775,0.0661375
1680016759818,1196748172966563,0.111375,-0.10175,0.0631125
1680016759820,1196748175468703,0.111375,-0.10175,0.0611875
1680016759824,1196748177971087,0.1155,-0.1038125,0.0611875
1680016759826,1196748180473318,0.113437496,-0.10285,0.06215
1680016759828,1196748182975472,0.1144,-0.1078,0.0611875
1680016759831,1196748185477924,0.1194875,-0.109725,0.059125
1680016759833,1196748187980308,0.1194875,-0.1117875,0.059125
1680016759837,1196748190482462,0.123475,-0.109725,0.0581625
1680016759839,1196748192984693,0.128425,-0.1148125,0.0572
1680016759841,1196748195487159,0.13145,-0.1188,0.0572
1680016759843,1196748197989313,0.1324125,-0.1188,0.0551375
1680016759848,1196748200491698,0.1375,-0.12375,0.0561
1680016759850,1196748202993929,0.1403875,-0.126775,0.0581625
1680016759853,1196748205496073,0.145475,-0.1337875,0.0561
1680016759854,1196748207998457,0.155375,-0.137775,0.0561
1680016759855,1196748210500919,0.1623875,-0.143825,0.0561
1680016759857,1196748213003150,0.1694,-0.148775,0.0572
1680016759860,1196748215505303,0.17545,-0.1588125,0.0581625
1680016759865,1196748218007703,0.1854875,-0.1628,0.0611875
1680016759873,1196748220509857,0.1904375,-0.170775,0.059125
1680016759873,1196748223012088,0.19745,-0.17985,0.059125
1680016759874,1196748225514549,0.2094125,-0.1918125,0.059125
1680016759874,1196748228016703,0.2124375,-0.1967625,0.0611875
1680016759877,1196748230519097,0.2204125,-0.208725,0.060225
1680016759879,1196748233021327,0.2255,-0.21573749,0.059125
1680016759880,1196748235523712,0.2283875,-0.22385,0.0611875
1680016759885,1196748238025861,0.232375,-0.2327875,0.06215
1680016759887,1196748240528322,0.23045,-0.241725,0.0611875
1680016759889,1196748243030553,0.2294875,-0.24475,0.0611875
1680016759891,1196748245532938,0.23045,-0.25575,0.060225
1680016759893,1196748248035092,0.2283875,-0.2608375,0.060225
1680016759896,1196748250537337,0.2234375,-0.263725,0.06215
1680016759898,1196748253039722,0.2204125,-0.26785,0.0611875
1680016759900,1196748255541953,0.221375,-0.275825,0.0611875
1680016759903,1196748258044337,0.2154625,-0.274725,0.060225
1680016759906,1196748260546586,0.210375,-0.27775,0.06215
1680016759908,1196748263048971,0.2074875,-0.2847625,0.06215
1680016759910,1196748265551125,0.20845,-0.28985,0.0631125
1680016759914,1196748268053355,0.210375,-0.291775,0.0642125
1680016759917,1196748270555731,0.2074875,-0.2987875,0.0631125
1680016759919,1196748273058193,0.2063875,-0.302775,0.065175
1680016759922,1196748275560346,0.2063875,-0.3097875,0.065175
1680016759924,1196748278062577,0.2074875,-0.3168,0.0642125
1680016759927,1196748280564952,0.2063875,-0.3177625,0.0661375
1680016759928,1196748283067106,0.2063875,-0.32285,0.065175
1680016759930,1196748285569337,0.2063875,-0.3278,0.0661375
1680016759933,1196748288071721,0.2074875,-0.329725,0.0671
1680016759936,1196748290573952,0.20845,-0.335775,0.0671
1680016759938,1196748293076351,0.2063875,-0.341825,0.0671
1680016759940,1196748295578504,0.2074875,-0.34485,0.0671
1680016759943,1196748298080735,0.211475,-0.3477375,0.071225
1680016759946,1196748300583120,0.2124375,-0.352825,0.0721875
1680016759948,1196748303085600,0.2124375,-0.352825,0.071225
1680016759950,1196748305587754,0.2184875,-0.3608,0.070125
1680016759955,1196748308089985,0.2145,-0.36574998,0.070125
1680016759956,1196748310592370,0.216425,-0.36574998,0.065175
1680016759959,1196748313094586,0.2154625,-0.3697375,0.0691625
1680016759961,1196748315596740,0.2184875,-0.374825,0.071225
1680016759963,1196748318099202,0.221375,-0.379775,0.0661375
1680016759966,1196748320601586,0.2184875,-0.37785,0.065175
1680016759968,1196748323103817,0.2204125,-0.38073748,0.0642125
1680016759970,1196748325605976,0.2204125,-0.38279998,0.0631125
1680016759973,1196748328108361,0.221375,-0.384725,0.0642125
1680016759976,1196748330610591,0.22247499,-0.384725,0.0642125
1680016759978,1196748333112745,0.2244,-0.38885,0.0611875
1680016759980,1196748335615226,0.2283875,-0.3917375,0.0581625
1680016759983,1196748338117610,0.232375,-0.3938,0.0551375
1680016759987,1196748340619764,0.2393875,-0.390775,0.0532125
1680016759988,1196748343121995,0.243375,-0.390775,0.0501875
1680016759990,1196748345624370,0.2514875,-0.395725,0.0462
1680016759993,1196748348126600,0.2585,-0.3947625,0.0451
1680016759998,1196748350628985,0.260425,-0.3947625,0.0451
1680016760000,1196748353131216,0.2644125,-0.39875,0.0422125
1680016760002,1196748355633576,0.2695,-0.3977875,0.037125
1680016760003,1196748358135730,0.2695,-0.3928375,0.0341
1680016760006,1196748360637961,0.2723875,-0.3928375,0.0331375
1680016760008,1196748363140346,0.2723875,-0.3917375,0.0301125
1680016760010,1196748365642576,0.27445,-0.3947625,0.0281875
1680016760013,1196748368144961,0.276375,-0.385825,0.0281875
1680016760016,1196748370647192,0.277475,-0.38279998,0.027224999
1680016760018,1196748373149346,0.27445,-0.3788125,0.026124999
1680016760020,1196748375651730,0.27445,-0.373725,0.027224999
1680016760023,1196748378153956,0.2754125,-0.36781248,0.0281875
1680016760026,1196748380656418,0.2723875,-0.3718,0.0251625
1680016760028,1196748383158572,0.2695,-0.3697375,0.026124999
1680016760031,1196748385660956,0.2695,-0.36574998,0.027224999
1680016760035,1196748388163187,0.2674375,-0.362725,0.0301125
1680016760037,1196748390665341,0.2674375,-0.357775,0.0281875
1680016760039,1196748393291187,0.2624875,-0.35585,0.0301125
1680016760041,1196748395669956,0.2564375,-0.351725,0.0312125
1680016760043,1196748398172418,0.25547498,-0.3488375,0.0281875
1680016760046,1196748400674577,0.25547498,-0.341825,0.02915
1680016760048,1196748403176961,0.2514875,-0.33673748,0.0312125
1680016760050,1196748405679192,0.2454375,-0.335775,0.02915
1680016760053,1196748408181346,0.24447499,-0.33275,0.0281875
1680016760056,1196748410683740,0.238425,-0.32381248,0.0281875
1680016760058,1196748413186202,0.2374625,-0.3158375,0.027224999
1680016760060,1196748415688356,0.2344375,-0.3158375,0.0242
1680016760063,1196748418190587,0.2344375,-0.3097875,0.0251625
1680016760066,1196748420692971,0.2294875,-0.302775,0.0221375
1680016760070,1196748423195125,0.2294875,-0.3018125,0.0221375
1680016760072,1196748425697356,0.227425,-0.2957625,0.0171875
1680016760074,1196748428199817,0.227425,-0.2908125,0.016224999
1680016760077,1196748430702197,0.23045,-0.285725,0.0132
1680016760079,1196748433204351,0.2255,-0.2847625,0.0132
1680016760081,1196748435706582,0.221375,-0.280775,0.0132
1680016760083,1196748438208966,0.221375,-0.27775,0.0132
1680016760087,1196748440711120,0.2184875,-0.2737625,0.0132
1680016760088,1196748443213587,0.2184875,-0.2737625,0.014162499
1680016760091,1196748445715817,0.2184875,-0.26675,0.010175
1680016760093,1196748448218202,0.2145,-0.2627625,0.0081124995
1680016760096,1196748450720356,0.2134,-0.263725,0.0081124995
1680016760098,1196748453222587,0.211475,-0.2608375,0.0061875
1680016760100,1196748455724986,0.2145,-0.263725,0.0081124995
1680016760103,1196748458227217,0.216425,-0.264825,0.005225
1680016760106,1196748460729602,0.2204125,-0.2627625,0.004125
1680016760109,1196748463231822,0.2184875,-0.2608375,0.0022
1680016760111,1196748465734207,0.2204125,-0.2608375,1.375E-4
1680016760115,1196748468236361,0.2204125,-0.258775,-0.0017875
1680016760117,1196748470738592,0.2184875,-0.2608375,-8.25E-4
1680016760119,1196748473240976,0.2184875,-0.2618,-0.0028875
1680016760123,1196748475743188,0.2154625,-0.2597375,-0.0048125
1680016760123,1196748478245573,0.2145,-0.2627625,-0.00385
1680016760127,1196748480747804,0.2124375,-0.25575,-0.0048125
1680016760129,1196748483250188,0.20845,-0.253825,-0.006875
1680016760131,1196748485752352,0.2063875,-0.25685,-0.006875
1680016760133,1196748488254583,0.2014375,-0.252725,-0.0088
1680016760136,1196748490757044,0.2014375,-0.2508,-0.0088
1680016760138,1196748493259198,0.1964875,-0.2468125,-0.0099
1680016760140,1196748495761583,0.1953875,-0.24475,-0.0099
1680016760143,1196748498263737,0.1904375,-0.2407625,-0.0127875
1680016760148,1196748500765967,0.189475,-0.242825,-0.0108624995
1680016760149,1196748503268352,0.1843875,-0.247775,-0.0127875
1680016760151,1196748505770583,0.1794375,-0.2468125,-0.01485
1680016760154,1196748508272967,0.17847499,-0.242825,-0.011825
1680016760157,1196748510775198,0.17545,-0.2398,-0.0158125
1680016760159,1196748513277583,0.17545,-0.2398,-0.016775
1680016760161,1196748515779737,0.177375,-0.2398,-0.016775
1680016760163,1196748518281976,0.1764125,-0.236775,-0.0209
1680016760167,1196748520784438,0.1764125,-0.2398,-0.0237875
1680016760168,1196748523286823,0.17847499,-0.2358125,-0.0237875
1680016760171,1196748525788976,0.1804,-0.23375,-0.0268125
1680016760173,1196748528291222,0.1815,-0.236775,-0.028875
1680016760176,1196748530793607,0.17847499,-0.2358125,-0.0298375
1680016760178,1196748533295838,0.1815,-0.236775,-0.0298375
1680016760181,1196748535798222,0.1874125,-0.236775,-0.028875
1680016760188,1196748538300433,0.1854875,-0.2407625,-0.0319
1680016760188,1196748540802818,0.1815,-0.2437875,-0.0319
1680016760190,1196748543305048,0.1815,-0.24585,-0.0298375
1680016760191,1196748545807202,0.1815,-0.2487375,-0.0328625
1680016760194,1196748548309587,0.1794375,-0.2517625,-0.0319
1680016760197,1196748550811751,0.1744875,-0.25685,-0.0328625
1680016760199,1196748553314212,0.1733875,-0.2578125,-0.0347875
1680016760201,1196748555816443,0.1705,-0.2618,-0.033825
1680016760203,1196748558318597,0.1654125,-0.264825,-0.033825
1680016760207,1196748560820987,0.1634875,-0.26675,-0.033825
1680016760208,1196748563323217,0.1604625,-0.26785,-0.0328625
1680016760211,1196748565825602,0.1574375,-0.26785,-0.027775
1680016760214,1196748568327833,0.1574375,-0.2728,-0.028875
1680016760216,1196748570830207,0.1584,-0.2767875,-0.0268125
1680016760218,1196748573332438,0.1555125,-0.275825,-0.0248875
1680016760222,1196748575834592,0.156475,-0.27885,-0.0237875
1680016760224,1196748578336977,0.1555125,-0.2847625,-0.022824999
1680016760227,1196748580839183,0.1574375,-0.28875,-0.0237875
1680016760228,1196748583341568,0.156475,-0.291775,-0.0237875
1680016760231,1196748585843799,0.1584,-0.2938375,-0.0237875
1680016760234,1196748588346183,0.1604625,-0.2957625,-0.0237875
1680016760236,1196748590848395,0.1634875,-0.296725,-0.0237875
1680016760238,1196748593350549,0.1654125,-0.302775,-0.0237875
1680016760240,1196748595852934,0.161425,-0.3067625,-0.0237875
1680016760243,1196748598355395,0.1595,-0.307725,-0.02585
1680016760246,1196748600857626,0.1595,-0.3097875,-0.02585
1680016760248,1196748603359784,0.1584,-0.308825,-0.022824999
1680016760251,1196748605862168,0.1544125,-0.308825,-0.022824999
1680016760253,1196748608364399,0.1544125,-0.31075,-0.027775
1680016760256,1196748610866553,0.1513875,-0.308825,-0.0248875
1680016760259,1196748613368958,0.1464375,-0.3097875,-0.02585
1680016760261,1196748615871419,0.1464375,-0.308825,-0.0268125
1680016760263,1196748618373573,0.1434125,-0.308825,-0.028875
1680016760266,1196748620875804,0.1414875,-0.302775,-0.0268125
1680016760268,1196748623378188,0.1434125,-0.2987875,-0.0248875
1680016760270,1196748625880342,0.1414875,-0.2957625,-0.028875
1680016760274,1196748628382573,0.1403875,-0.2938375,-0.027775
1680016760276,1196748630885035,0.1414875,-0.2938375,-0.02585
1680016760278,1196748633387189,0.1434125,-0.2908125,-0.0298375
1680016760280,1196748635889573,0.14245,-0.28875,-0.0319
1680016760283,1196748638391804,0.1445125,-0.286825,-0.0319
1680016760286,1196748640893958,0.14739999,-0.286825,-0.0328625
1680016760288,1196748643396342,0.1485,-0.2908125,-0.033825
1680016760290,1196748645898823,0.14739999,-0.2938375,-0.0347875
1680016760293,1196748648401054,0.1513875,-0.28985,-0.0358875
1680016760300,1196748650903208,0.156475,-0.28875,-0.0378125
1680016760301,1196748653405592,0.1555125,-0.28875,-0.0358875
1680016760302,1196748655907813,0.1595,-0.29273748,-0.0418
1680016760303,1196748658410198,0.1595,-0.29479998,-0.0429
1680016760306,1196748660912428,0.1604625,-0.296725,-0.0438625
1680016760308,1196748663414813,0.161425,-0.296725,-0.0457875
1680016760311,1196748665917044,0.16445,-0.29479998,-0.047849998
1680016760314,1196748668419184,0.1665125,-0.297825,-0.0528
1680016760317,1196748670921568,0.1684375,-0.302775,-0.0567875
1680016760319,1196748673423799,0.16445,-0.3037375,-0.0598125
1680016760321,1196748675926261,0.172425,-0.308825,-0.058849998
1680016760323,1196748678428414,0.1744875,-0.3097875,-0.0628375
1680016760328,1196748680930799,0.17545,-0.3168,-0.066825
1680016760329,1196748683432953,0.1764125,-0.32285,-0.066825
1680016760331,1196748685935414,0.17847499,-0.3257375,-0.0688875
1680016760336,1196748688437635,0.1815,-0.3257375,-0.072875
1680016760338,1196748690940020,0.1815,-0.3287625,-0.0708125
1680016760339,1196748693442174,0.1804,-0.3317875,-0.0688875
1680016760341,1196748695944404,0.1824625,-0.33275,-0.072875
1680016760343,1196748698446789,0.1815,-0.330825,-0.0768625
1680016760346,1196748700949025,0.1815,-0.33385,-0.0759
1680016760348,1196748703451409,0.1794375,-0.3268375,-0.0738375
1680016760352,1196748705953640,0.1794375,-0.32381248,-0.0748
1680016760354,1196748708455794,0.1775125,-0.319825,-0.0768625
1680016760357,1196748710958184,0.17847499,-0.32285,-0.0787875
1680016760359,1196748713460414,0.17847499,-0.3177625,-0.0787875
1680016760361,1196748715962568,0.1794375,-0.31075,-0.0748
1680016760364,1196748718465030,0.1794375,-0.31185,-0.0759
1680016760366,1196748720967414,0.1815,-0.3067625,-0.0787875
1680016760369,1196748723469582,0.1815,-0.3058,-0.0818125
1680016760373,1196748725971813,0.1804,-0.30085,-0.08085
1680016760374,1196748728474198,0.1794375,-0.29479998,-0.077825
1680016760377,1196748730976342,0.1775125,-0.29479998,-0.0787875
1680016760379,1196748733478803,0.1775125,-0.291775,-0.0768625
1680016760381,1196748735981034,0.17545,-0.2908125,-0.0748
1680016760383,1196748738483419,0.17545,-0.2838,-0.0748
1680016760387,1196748740985572,0.17545,-0.27981248,-0.072875
1680016760389,1196748743487794,0.1744875,-0.2767875,-0.071775
1680016760391,1196748745990179,0.1764125,-0.2707375,-0.0688875
1680016760394,1196748748492640,0.1764125,-0.263725,-0.064899996
1680016760397,1196748750994794,0.17847499,-0.264825,-0.064899996
1680016760399,1196748753497044,0.1854875,-0.264825,-0.066825
1680016760402,1196748755999429,0.1824625,-0.2578125,-0.064899996
1680016760403,1196748758501659,0.18645,-0.258775,-0.060775
1680016760407,1196748761003813,0.1904375,-0.253825,-0.061875
1680016760410,1196748763506299,0.19139999,-0.2498375,-0.0567875
1680016760412,1196748766008683,0.1953875,-0.2487375,-0.055825
1680016760413,1196748768510837,0.1953875,-0.2437875,-0.0548625
1680016760416,1196748771013068,0.1964875,-0.236775,-0.0528
1680016760418,1196748773515439,0.2014375,-0.2358125,-0.050875
1680016760421,1196748776017592,0.1984125,-0.2297625,-0.0457875
1680016760423,1196748778519823,0.19745,-0.2267375,-0.0488125
1680016760426,1196748781022285,0.1953875,-0.22385,-0.0429
1680016760428,1196748783524654,0.19139999,-0.220825,-0.0408375
1680016760431,1196748786026808,0.1904375,-0.2107875,-0.039875
1680016760434,1196748788529039,0.18645,-0.2068,-0.0378125
1680016760438,1196748791031193,0.1854875,-0.1997875,-0.036849998
1680016760439,1196748793533592,0.1854875,-0.192775,-0.039875
1680016760441,1196748796036053,0.1794375,-0.1848,-0.0408375
1680016760443,1196748798538207,0.1815,-0.1838375,-0.0408375
1680016760448,1196748801040438,0.1775125,-0.176825,-0.0438625
1680016760450,1196748803542827,0.17847499,-0.17379999,-0.0438625
1680016760452,1196748806045058,0.17545,-0.16775,-0.047849998
1680016760453,1196748808547212,0.1714625,-0.1637625,-0.0457875
1680016760456,1196748811049673,0.1733875,-0.1618375,-0.047849998
1680016760459,1196748813552058,0.1705,-0.14973749,-0.049775
1680016760461,1196748816054265,0.1654125,-0.1447875,-0.0518375
1680016760464,1196748818556419,0.1623875,-0.1408,-0.0539
1680016760466,1196748821058803,0.1584,-0.13585,-0.0548625
1680016760468,1196748823561034,0.1555125,-0.126775,-0.055825
1680016760471,1196748826063419,0.1524875,-0.121825,-0.0567875
1680016760474,1196748828565650,0.1513875,-0.117837496,-0.0539
1680016760477,1196748831068034,0.1485,-0.115775,-0.0578875
1680016760478,1196748833570265,0.14739999,-0.1078,-0.058849998
1680016760480,1196748836072419,0.145475,-0.106837496,-0.0567875
1680016760485,1196748838574827,0.145475,-0.1038125,-0.055825
1680016760488,1196748841076981,0.145475,-0.0968,-0.0539
1680016760491,1196748843579443,0.1434125,-0.09185,-0.0548625
1680016760496,1196748846081679,0.1434125,-0.09185,-0.0567875
1680016760496,1196748848583832,0.14245,-0.0897875,-0.0548625
1680016760496,1196748851086217,0.145475,-0.09075,-0.0539
1680016760498,1196748853588448,0.145475,-0.087725,-0.0578875
1680016760501,1196748856090832,0.14245,-0.0848375,-0.0578875
1680016760504,1196748858593077,0.14245,-0.0858,-0.0578875
1680016760506,1196748861095462,0.14739999,-0.0867625,-0.0598125
1680016760508,1196748863597693,0.1464375,-0.082775,-0.055825
1680016760511,1196748866099846,0.1494625,-0.087725,-0.0567875
1680016760514,1196748868602217,0.1524875,-0.0897875,-0.0578875
1680016760517,1196748871104448,0.15345,-0.09075,-0.055825
1680016760520,1196748873606832,0.1544125,-0.098725,-0.055825
1680016760524,1196748876109058,0.1555125,-0.10285,-0.055825
1680016760528,1196748878610251,0.1595,-0.1007875,-0.0539
1680016760528,1196748881111444,0.1623875,-0.1038125,-0.0539
1680016760529,1196748883615827,0.16445,-0.1087625,-0.055825
1680016760531,1196748886118212,0.1684375,-0.110825,-0.0567875
1680016760533,1196748888620674,0.1714625,-0.1148125,-0.055825
1680016760537,1196748891122914,0.1714625,-0.1167375,-0.055825
1680016760539,1196748893625068,0.1714625,-0.1148125,-0.0539
1680016760542,1196748896127453,0.172425,-0.1148125,-0.0518375
1680016760544,1196748898629684,0.1714625,-0.1197625,-0.0528
1680016760547,1196748901132058,0.172425,-0.1197625,-0.0548625
1680016760548,1196748903634289,0.1714625,-0.1167375,-0.047849998
1680016760552,1196748906136674,0.1705,-0.1188,-0.0488125
1680016760555,1196748908638828,0.1744875,-0.1197625,-0.050875
1680016760557,1196748911141063,0.1733875,-0.1197625,-0.0488125
1680016760560,1196748913643448,0.1694,-0.1258125,-0.047849998
1680016760562,1196748916145602,0.1714625,-0.12485,-0.044825
1680016760564,1196748918647833,0.17545,-0.1307625,-0.0457875
1680016760567,1196748921150308,0.1744875,-0.13585,-0.044825
1680016760569,1196748923652462,0.17545,-0.13585,-0.0429
1680016760571,1196748926154847,0.17847499,-0.137775,-0.0418
1680016760574,1196748928657077,0.1804,-0.142725,-0.0438625
1680016760579,1196748931159462,0.1843875,-0.148775,-0.047849998
1680016760579,1196748933661616,0.19139999,-0.154825,-0.0429
1680016760581,1196748936164077,0.1925,-0.159775,-0.039875
1680016760583,1196748938666308,0.1925,-0.159775,-0.0408375
1680016760587,1196748941168462,0.1984125,-0.1618375,-0.0457875
1680016760589,1196748943670862,0.2014375,-0.1728375,-0.044825
1680016760591,1196748946173092,0.2074875,-0.1747625,-0.0429
1680016760595,1196748948675477,0.211475,-0.17985,-0.0438625
1680016760598,1196748951177708,0.2184875,-0.19085,-0.044825
1680016760600,1196748953680106,0.2234375,-0.19373749,-0.0418
1680016760602,1196748956182337,0.2255,-0.197725,-0.044825
1680016760604,1196748958684722,0.23045,-0.20075,-0.044825
1680016760607,1196748961186876,0.2374625,-0.2068,-0.0438625
1680016760610,1196748963689106,0.2424125,-0.21175,-0.0438625
1680016760611,1196748966191554,0.2475,-0.2187625,-0.0429
1680016760613,1196748968693708,0.2514875,-0.2248125,-0.0438625
1680016760617,1196748971196092,0.2534125,-0.2267375,-0.044825
1680016760619,1196748973698323,0.2545125,-0.230725,-0.044825
1680016760621,1196748976200708,0.2574,-0.230725,-0.0429
1680016760624,1196748978702852,0.2594625,-0.231825,-0.0418
1680016760627,1196748981205313,0.260425,-0.236775,-0.0418
1680016760630,1196748983707467,0.26345,-0.23773749,-0.0378125
1680016760631,1196748986209703,0.2644125,-0.2398,-0.039875
1680016760637,1196748988712088,0.2704625,-0.24475,-0.0418
1680016760639,1196748991214241,0.271425,-0.24585,-0.0429
1680016760641,1196748994053703,0.2754125,-0.247775,-0.0438625
1680016760644,1196748996235563,0.2784375,-0.2487375,-0.0429
1680016760644,1196748998721102,0.28545,-0.2517625,-0.0438625
1680016760648,1196749001223486,0.2894375,-0.252725,-0.0438625
1680016760649,1196749003725717,0.2904,-0.2508,-0.0457875
1680016760652,1196749006228102,0.2924625,-0.2498375,-0.050875
1680016760655,1196749008730246,0.29645,-0.2498375,-0.050875
1680016760657,1196749011232477,0.2985125,-0.2498375,-0.049775
1680016760660,1196749013734939,0.29645,-0.2508,-0.0528
1680016760662,1196749016237323,0.2904,-0.247775,-0.0539
1680016760663,1196749018739472,0.288475,-0.2468125,-0.0548625
1680016760666,1196749021241703,0.2814625,-0.24475,-0.0567875
1680016760669,1196749023744088,0.2794,-0.242825,-0.0567875
1680016760672,1196749026246318,0.27445,-0.24585,-0.0567875
1680016760675,1196749028748683,0.2674375,-0.242825,-0.058849998
1680016760678,1196749031250914,0.2574,-0.23773749,-0.060775
1680016760680,1196749033753298,0.249425,-0.23375,-0.0598125
1680016760681,1196749036255452,0.243375,-0.2288,-0.0598125
1680016760684,1196749038757683,0.2365,-0.219725,-0.060775
1680016760687,1196749041260083,0.2255,-0.214775,-0.0598125
1680016760689,1196749043762313,0.21945,-0.2107875,-0.060775
1680016760691,1196749046264698,0.2134,-0.20075,-0.0628375
1680016760693,1196749048766929,0.2063875,-0.1918125,-0.061875
1680016760696,1196749051269107,0.2035,-0.1808125,-0.060775
1680016760698,1196749053771491,0.1964875,-0.17875,-0.0598125
1680016760701,1196749056273722,0.19139999,-0.1747625,-0.060775
1680016760703,1196749058775876,0.1904375,-0.16775,-0.0598125
1680016760706,1196749061278308,0.1854875,-0.15785,-0.058849998
1680016760710,1196749063780693,0.1824625,-0.1508375,-0.060775
1680016760712,1196749066282847,0.1804,-0.1408,-0.0598125
1680016760714,1196749068785078,0.1794375,-0.1337875,-0.0598125
1680016760718,1196749071287472,0.177375,-0.1307625,-0.058849998
1680016760720,1196749073789703,0.1744875,-0.126775,-0.0567875
1680016760722,1196749076292088,0.172425,-0.117837496,-0.0567875
1680016760723,1196749078794318,0.1694,-0.1117875,-0.0548625
1680016760727,1196749081296703,0.166375,-0.1078,-0.0539
1680016760728,1196749083798962,0.1623875,-0.1007875,-0.0539
1680016760731,1196749086301116,0.1574375,-0.095837496,-0.0548625
1680016760733,1196749088803500,0.156475,-0.087725,-0.0548625
1680016760736,1196749091305962,0.1524875,-0.0848375,-0.0548625
1680016760738,1196749093808083,0.144375,-0.0818125,-0.0567875
1680016760741,1196749096310314,0.14245,-0.0748,-0.0567875
1680016760743,1196749098812698,0.1384625,-0.071775,-0.055825
1680016760748,1196749101314852,0.133375,-0.0677875,-0.0578875
1680016760751,1196749103817088,0.1293875,-0.0628375,-0.0598125
1680016760752,1196749106319549,0.12045,-0.054725,-0.0578875
1680016760754,1196749108821703,0.1144,-0.054725,-0.060775
1680016760757,1196749111324088,0.1084875,-0.0528,-0.0578875
1680016760759,1196749113826319,0.1073875,-0.0507375,-0.060775
1680016760761,1196749116328471,0.1034,-0.0507375,-0.0677875
1680016760764,1196749118830856,0.0994125,-0.0518375,-0.0688875
1680016760767,1196749121333318,0.095425,-0.054725,-0.0688875
1680016760769,1196749123835471,0.0963875,-0.0567875,-0.0708125
1680016760771,1196749126337674,0.095425,-0.060775,-0.0708125
1680016760774,1196749128840059,0.0935,-0.066825,-0.0708125
1680016760777,1196749131342290,0.0935,-0.06875,-0.071775
1680016760778,1196749133844443,0.0884125,-0.0708125,-0.072875
1680016760781,1196749136346827,0.0853875,-0.06985,-0.0768625
1680016760786,1196749138849289,0.0814,-0.0738375,-0.0738375
1680016760788,1196749141351442,0.07645,-0.0748,-0.0738375
1680016760790,1196749143853673,0.0694375,-0.076725,-0.072875
1680016760792,1196749146356073,0.068475,-0.082775,-0.0738375
1680016760795,1196749148858304,0.06545,-0.09075,-0.072875
1680016760799,1196749151360458,0.0594,-0.0947375,-0.0708125
1680016760800,1196749153862919,0.0584375,-0.098725,-0.06985
1680016760802,1196749156365304,0.0504625,-0.10285,-0.0677875
1680016760804,1196749158867529,0.0484,-0.109725,-0.066825
1680016760807,1196749161369683,0.0495,-0.1167375,-0.0658625
1680016760809,1196749163872068,0.0484,-0.121825,-0.064899996
1680016760811,1196749166374222,0.0523875,-0.1307625,-0.0628375
1680016760813,1196749168876688,0.0504625,-0.1398375,-0.061875
1680016760817,1196749171378919,0.056375,-0.14575,-0.064899996
1680016760819,1196749173881073,0.0594,-0.1478125,-0.061875
1680016760823,1196749176383458,0.0594,-0.154825,-0.0578875
1680016760824,1196749178885924,0.0633875,-0.1618375,-0.055825
1680016760827,1196749181388078,0.06545,-0.165825,-0.0548625
1680016760829,1196749183890309,0.068475,-0.164725,-0.0528
1680016760831,1196749186392693,0.0694375,-0.16775,-0.047849998
1680016760835,1196749188894832,0.0664125,-0.17379999,-0.0438625
1680016760837,1196749191397063,0.0664125,-0.1728375,-0.039875
1680016760839,1196749193899525,0.0694375,-0.1698125,-0.033825
1680016760842,1196749196401678,0.06545,-0.170775,-0.0358875
1680016760844,1196749198904063,0.06545,-0.1698125,-0.0347875
1680016760847,1196749201406313,0.06545,-0.1667875,-0.027775
1680016760850,1196749203908467,0.0633875,-0.164725,-0.02585
1680016760853,1196749206410851,0.0605,-0.1588125,-0.028875
1680016760854,1196749208913313,0.0594,-0.1508375,-0.02585
1680016760857,1196749211415443,0.057475,-0.148775,-0.0209
1680016760862,1196749213917673,0.0584375,-0.14575,-0.0198
1680016760863,1196749216420058,0.056375,-0.1408,-0.017875
1680016760864,1196749218922212,0.054449998,-0.1337875,-0.016775
1680016760867,1196749221424434,0.054449998,-0.126775,-0.0127875
1680016760869,1196749223926818,0.057475,-0.1197625,-0.01485
1680016760871,1196749226429280,0.0534875,-0.1167375,-0.0158125
1680016760876,1196749228931434,0.054449998,-0.106837496,-0.0127875
1680016760878,1196749231433664,0.054449998,-0.098725,-0.011825
1680016760879,1196749233936049,0.0523875,-0.095837496,-0.0127875
1680016760881,1196749236438280,0.0484,-0.0848375,-0.011825
1680016760883,1196749238940434,0.0534875,-0.0757625,-0.01485
1680016760887,1196749241442895,0.0504625,-0.066825,-0.011825
1680016760889,1196749243945280,0.046475,-0.05775,-0.0127875
1680016760891,1196749246447511,0.0413875,-0.04675,-0.0099
1680016760893,1196749248949665,0.0394625,-0.038775,-0.011825
1680016760898,1196749251452044,0.0364375,-0.0308,-0.0099
1680016760900,1196749253954198,0.029424999,-0.0198,-0.0078375
1680016760902,1196749256456660,0.0264,-0.0078375,-0.0048125
1680016760904,1196749258958890,0.02145,-0.00385,-0.005775
1680016760909,1196749261461039,0.0204875,0.0042625,-0.005775
1680016760910,1196749263963424,0.013475,0.0061875,-0.0048125
1680016760911,1196749266465655,0.01045,0.014162499,-0.005775
1680016760917,1196749268967808,0.0094875,0.027224999,-0.0048125
1680016760919,1196749271470275,0.0083875,0.0281875,-0.0028875
1680016760921,1196749273972660,0.007425,0.02915,-0.0017875
1680016760923,1196749276474813,0.0044,0.033275,-0.0017875
1680016760924,1196749278977044,0.002475,0.04015,1.375E-4
1680016760927,1196749281479429,0.002475,0.043175,0.0011
1680016760929,1196749283981660,-5.5E-4,0.0462,0.0022
1680016760931,1196749286483813,-0.0055,0.049225,0.004125
1680016760936,1196749288986275,-0.0066,0.0501875,0.0022
1680016760938,1196749291488660,-0.0066,0.0501875,0.005225
1680016760940,1196749293990904,-0.0066,0.052249998,0.0081124995
1680016760942,1196749296493058,-0.008525,0.052249998,0.005225
1680016760944,1196749298995443,-0.0066,0.05115,0.0061875
1680016760947,1196749301497674,-0.003575,0.0462,0.005225
1680016760949,1196749304000135,-0.0026125,0.044275,0.005225
1680016760952,1196749306502264,0.002475,0.044275,0.00715
1680016760955,1196749309004649,0.0034375,0.0342375,0.005225
1680016760957,1196749311506879,0.0044,0.0281875,0.0022
1680016760959,1196749314009033,0.0044,0.0251625,0.0022
1680016760961,1196749316511384,0.007425,0.021175,0.0011
1680016760964,1196749319013845,0.007425,0.016224999,0.0022
1680016760967,1196749321515999,0.0083875,0.010175,0.004125
1680016760969,1196749324018230,0.0114124995,0.0042625,0.0011
1680016760974,1196749326520611,0.0094875,2.75E-4,0.0011
1680016760975,1196749329022765,0.01045,0.0012375,-8.25E-4
1680016760978,1196749331524995,0.012375,-0.0088,0.0022
1680016760979,1196749334027380,0.012375,-0.0207625,0.0022
1680016760981,1196749336529611,0.0114124995,-0.0268125,0.0022
1680016760985,1196749339031990,0.01045,-0.0317625,0.004125
1680016760987,1196749341534221,0.0094875,-0.033825,0.0031625
1680016760989,1196749344036375,0.007425,-0.038775,0.00715
1680016760991,1196749346538760,0.0034375,-0.0427625,0.0092124995
1680016760995,1196749349041230,0.002475,-0.04675,0.0111375
1680016760998,1196749351543461,-0.0026125,-0.049775,0.010175
1680016760999,1196749354045615,-5.5E-4,-0.0528,0.0111375
1680016761003,1196749356547999,-0.0015125,-0.0567875,0.0092124995
1680016761004,1196749359050230,-0.0015125,-0.0617375,0.0092124995
1680016761011,1196749361552649,-5.5E-4,-0.0677875,0.010175
1680016761012,1196749364054803,0.002475,-0.0757625,0.0092124995
1680016761014,1196749366557264,0.002475,-0.0787875,0.010175
1680016761015,1196749369059495,0.007425,-0.0818125,0.010175
1680016761018,1196749371561634,0.0083875,-0.087725,0.010175
1680016761019,1196749374064018,0.0114124995,-0.0928125,0.0081124995
1680016761022,1196749376566249,0.0114124995,-0.0977625,0.00715
1680016761024,1196749379068634,0.0144375,-0.099825,0.0061875
1680016761027,1196749381570899,0.0165,-0.10175,0.0092124995
1680016761029,1196749384073283,0.0144375,-0.10285,0.0081124995
1680016761031,1196749386575437,0.0154,-0.1007875,0.0081124995
1680016761035,1196749389077668,0.0193875,-0.1007875,0.00715
1680016761037,1196749391580042,0.02145,-0.1007875,0.005225
1680016761039,1196749394082196,0.0174625,-0.1038125,0.005225
1680016761041,1196749396584658,0.0165,-0.0977625,0.0081124995
1680016761044,1196749399086889,0.0193875,-0.0977625,0.0061875
1680016761049,1196749401589038,0.02145,-0.0977625,0.005225
1680016761050,1196749404091423,0.0174625,-0.095837496,0.004125
1680016761052,1196749406593654,0.0154,-0.0968,0.004125
1680016761054,1196749409096039,0.0114124995,-0.095837496,0.0031625
1680016761057,1196749411598269,0.0144375,-0.093775,0.0011
1680016761059,1196749414100658,0.01045,-0.093775,0.0011
1680016761061,1196749416602889,0.0094875,-0.0928125,0.0011
1680016761063,1196749419105043,0.0114124995,-0.087725,0.0022
1680016761067,1196749421607427,0.01045,-0.0837375,0.0022
1680016761069,1196749424109658,0.01045,-0.0818125,-8.25E-4
1680016761071,1196749426612119,0.01045,-0.077825,-0.0017875
1680016761075,1196749429114273,0.0064625,-0.071775,-0.0017875
1680016761078,1196749431616658,0.007425,-0.071775,0.0011
1680016761079,1196749434118899,0.0055,-0.071775,-8.25E-4
1680016761082,1196749436621053,0.0055,-0.0708125,-0.00385
1680016761086,1196749439123437,0.0034375,-0.0708125,-0.0048125
1680016761089,1196749441625668,0.0044,-0.0677875,-8.25E-4
1680016761091,1196749444128125,0.0034375,-0.066825,-0.00385
1680016761092,1196749446630278,0.0044,-0.066825,-0.0088
1680016761094,1196749449132663,0.0064625,-0.065725,-0.0108624995
1680016761097,1196749451634894,0.0055,-0.0638,-0.0088
1680016761099,1196749454137048,0.0055,-0.0638,-0.0108624995
1680016761102,1196749456639413,0.0064625,-0.0647625,-0.011825
1680016761104,1196749459141875,0.007425,-0.065725,-0.0108624995
1680016761107,1196749461644029,0.0083875,-0.06875,-0.011825
1680016761109,1196749464146259,0.007425,-0.06985,-0.0127875
1680016761112,1196749466648639,0.0083875,-0.0708125,-0.0127875
1680016761116,1196749469150793,0.01045,-0.0748,-0.011825
1680016761122,1196749471653024,0.01045,-0.0757625,-0.0127875
1680016761122,1196749474155485,0.012375,-0.077825,-0.0127875
1680016761123,1196749476657664,0.01045,-0.0757625,-0.011825
1680016761126,1196749479160049,0.0144375,-0.076725,-0.0099
1680016761128,1196749481662279,0.0114124995,-0.08085,-0.0108624995
1680016761130,1196749484164664,0.0144375,-0.0818125,-0.0108624995
1680016761131,1196749486666818,0.013475,-0.0787875,-0.0099
1680016761134,1196749489169289,0.0094875,-0.077825,-0.0078375
1680016761136,1196749491671520,0.0083875,-0.07975,-0.0048125
1680016761139,1196749494173905,0.0094875,-0.07975,-0.00385
1680016761141,1196749496676059,0.0083875,-0.077825,-0.00385
1680016761144,1196749499178294,0.0064625,-0.0757625,-0.0028875
1680016761146,1196749501680679,0.0044,-0.07975,-0.0017875
1680016761148,1196749504182833,0.0044,-0.07975,-0.0017875
1680016761151,1196749506685295,0.002475,-0.076725,-0.00385
1680016761154,1196749509187515,0.0055,-0.0818125,-8.25E-4
1680016761157,1196749511689669,0.01045,-0.0748,-0.0028875
1680016761161,1196749514192054,0.0165,-0.076725,-0.0048125
1680016761162,1196749516694285,0.0204875,-0.07975,-0.0048125
1680016761165,1196749519196419,0.024475,-0.08085,-0.00385
1680016761167,1196749521698881,0.0334125,-0.0787875,-0.0028875
1680016761169,1196749524201266,0.0374,-0.0818125,-0.0028875
1680016761171,1196749526703419,0.0385,-0.07975,-0.0017875
1680016761174,1196749529205650,0.0364375,-0.0738375,-8.25E-4
1680016761177,1196749531708006,0.0364375,-0.06875,0.0031625
1680016761179,1196749534210160,0.0364375,-0.065725,0.005225
1680016761181,1196749536712621,0.035475,-0.054725,0.0061875
1680016761184,1196749539214852,0.0334125,-0.049775,0.00715
1680016761188,1196749541717232,0.0284625,-0.044825,0.00715
1680016761189,1196749544219385,0.0275,-0.0418,0.0061875
1680016761191,1196749546721616,0.0264,-0.0347875,0.004125
1680016761195,1196749549224001,0.0235125,-0.0268125,0.00715
1680016761199,1196749551726467,0.0264,-0.0298375,0.005225
1680016761201,1196749554228621,0.0224125,-0.027775,0.005225
1680016761202,1196749556730852,0.0254375,-0.0188375,0.0031625
1680016761204,1196749559233237,0.0254375,-0.0177375,0.005225
1680016761207,1196749561735481,0.0235125,-0.0127875,0.005225
1680016761209,1196749564237635,0.0235125,-0.0088,0.005225
1680016761211,1196749566740097,0.024475,-0.0067375,0.004125
1680016761214,1196749569242251,0.0254375,-0.0067375,0.0061875
1680016761216,1196749571744635,0.0264,-0.00385,0.0061875
1680016761218,1196749574246900,0.0254375,0.0012375,0.005225
1680016761221,1196749576749054,0.0254375,0.0012375,0.0061875
1680016761223,1196749579251439,0.0235125,2.75E-4,0.00715
1680016761226,1196749581753669,0.0224125,0.0031625,0.00715
1680016761229,1196749584256039,0.02145,0.00715,0.00715
1680016761231,1196749586758270,0.0174625,0.00825,0.0061875
1680016761236,1196749589260654,0.0154,0.00825,0.0061875
1680016761239,1196749591762808,0.0154,0.00825,0.0081124995
1680016761240,1196749594377654,0.013475,0.00715,0.00715
1680016761242,1196749596767424,0.0125124995,0.011275,0.004125
1680016761244,1196749599269885,0.008525,0.00825,0.004125
1680016761247,1196749601772039,0.007425,0.010175,0.00715
1680016761249,1196749604274270,0.007425,0.0132,0.0061875
1680016761252,1196749606776654,0.0055,0.014162499,0.0022
1680016761254,1196749609278885,0.0064625,0.0132,1.375E-4
1680016761257,1196749611781039,0.007425,0.01815,0.0011
1680016761259,1196749614283492,0.0044,0.014162499,0.0011
1680016761261,1196749616785876,0.0044,0.00825,1.375E-4
1680016761264,1196749619288107,0.0034375,0.010175,-0.00385
1680016761267,1196749621790261,0.002475,0.011275,-0.0028875
1680016761269,1196749624292669,0.002475,0.00825,-8.25E-4
1680016761273,1196749626794823,-5.5E-4,0.0061875,-0.005775
1680016761276,1196749629297285,4.125E-4,0.005225,-0.0017875
1680016761279,1196749631799516,0.0034375,2.75E-4,-0.0048125
1680016761280,1196749634301919,0.0064625,-0.00275,-0.0048125
1680016761282,1196749636804073,0.0064625,0.0012375,-0.00385
1680016761284,1196749639306304,0.01045,-0.00275,-0.0108624995
1680016761288,1196749641808688,0.01045,-0.0067375,-0.0099
1680016761290,1196749644310919,0.0114124995,-0.011825,-0.0088
1680016761292,1196749646813288,0.01045,-0.0177375,-0.0108624995
1680016761294,1196749649315442,0.01045,-0.016775,-0.011825
1680016761297,1196749651817672,0.0114124995,-0.0177375,-0.0108624995
1680016761299,1196749654320057,0.0125124995,-0.0237875,-0.0108624995
1680016761303,1196749656822298,0.01045,-0.0287375,-0.0088
1680016761304,1196749659324452,0.0094875,-0.0287375,-0.0078375
1680016761312,1196749661826913,0.0094875,-0.0298375,-0.0078375
1680016761313,1196749664329312,0.0034375,-0.036849998,-0.006875
1680016761314,1196749666831466,4.125E-4,-0.0378125,-0.006875
1680016761316,1196749669333697,-0.0015125,-0.038775,-0.0078375
1680016761320,1196749671836158,-0.003575,-0.0378125,-0.005775
1680016761322,1196749674338312,-0.002475,-0.03575,-0.0078375
1680016761323,1196749676840693,-0.003575,-0.0378125,-0.0088
1680016761326,1196749679342923,0.002475,-0.0408375,-0.0108624995
1680016761328,1196749681845308,0.0055,-0.044825,-0.01485
1680016761330,1196749684347462,0.007425,-0.049775,-0.01485
1680016761331,1196749686849923,0.0125124995,-0.0528,-0.0158125
1680016761335,1196749689352173,0.0144375,-0.0567875,-0.0188375
1680016761337,1196749691854327,0.0174625,-0.058849998,-0.0198
1680016761339,1196749694356712,0.0154,-0.0598125,-0.0188375
1680016761341,1196749696858942,0.0165,-0.0598125,-0.0198
1680016761343,1196749699361327,0.0165,-0.0528,-0.016775
1680016761348,1196749701863558,0.0174625,-0.0507375,-0.017875
1680016761350,1196749704365942,0.0144375,-0.0488125,-0.0158125
1680016761352,1196749706868173,0.013475,-0.043725,-0.017875
1680016761355,1196749709370341,0.0064625,-0.038775,-0.017875
1680016761357,1196749711872726,0.0044,-0.036849998,-0.0188375
1680016761359,1196749714374956,-0.0015125,-0.0408375,-0.0209
1680016761362,1196749716877341,-0.003575,-0.0378125,-0.0237875
1680016761364,1196749719379572,-0.0015125,-0.0378125,-0.0237875
1680016761367,1196749721881707,-0.0066,-0.036849998,-0.0248875
1680016761369,1196749724384091,-0.0045375,-0.0347875,-0.0328625
1680016761372,1196749726886322,-0.0066,-0.03575,-0.0319
1680016761375,1196749729388707,-0.008525,-0.036849998,-0.0347875
1680016761380,1196749731890927,-0.008525,-0.03575,-0.039875
1680016761380,1196749734393312,-0.0055,-0.03575,-0.0358875
1680016761386,1196749736895543,-0.0055,-0.0347875,-0.036849998
1680016761386,1196749739397664,-0.0066,-0.038775,-0.038775
1680016761390,1196749741900048,-0.0055,-0.0418,-0.0378125
1680016761392,1196749744402279,-0.003575,-0.0488125,-0.038775
1680016761393,1196749746904664,-0.003575,-0.047849998,-0.038775
1680016761395,1196749749406894,4.125E-4,-0.0507375,-0.0438625
1680016761398,1196749751909283,0.0064625,-0.058849998,-0.0429
1680016761402,1196749754411514,0.0154,-0.0638,-0.0457875
1680016761402,1196749756913898,0.0224125,-0.0708125,-0.0438625
1680016761404,1196749759416052,0.0275,-0.08085,-0.044825
1680016761407,1196749761918255,0.0364375,-0.087725,-0.0488125
1680016761409,1196749764420717,0.043449998,-0.0977625,-0.049775
1680016761412,1196749766922871,0.052525,-0.106837496,-0.050875
1680016761414,1196749769425255,0.054449998,-0.1148125,-0.050875
1680016761417,1196749771927495,0.0554125,-0.1197625,-0.0488125
1680016761419,1196749774429649,0.054449998,-0.12375,-0.0488125
1680016761423,1196749776932033,0.0504625,-0.1288375,-0.047849998
1680016761426,1196749779434495,0.0474375,-0.12485,-0.0438625
1680016761428,1196749781936639,0.0424875,-0.12375,-0.0418
1680016761430,1196749784438870,0.0334125,-0.120725,-0.038775
1680016761432,1196749786941254,0.029424999,-0.117837496,-0.0418
1680016761435,1196749789443408,0.0254375,-0.11275,-0.0429
1680016761438,1196749791945639,0.02145,-0.110825,-0.044825
1680016761440,1196749794448081,0.0154,-0.106837496,-0.0438625
1680016761441,1196749796950235,0.013475,-0.104775,-0.0488125
1680016761444,1196749799452620,0.0125124995,-0.099825,-0.0518375
1680016761447,1196749801954851,0.01045,-0.0977625,-0.050875
1680016761449,1196749804457187,0.007425,-0.099825,-0.0528
1680016761451,1196749806959341,0.0114124995,-0.098725,-0.0539
1680016761454,1196749809461572,0.0154,-0.095837496,-0.0548625
1680016761457,1196749811964033,0.0144375,-0.095837496,-0.0548625
1680016761461,1196749814466433,0.013475,-0.09075,-0.0539
1680016761462,1196749816968587,0.0174625,-0.093775,-0.0567875
1680016761464,1196749819470818,0.02145,-0.095837496,-0.0567875
1680016761467,1196749821973202,0.02145,-0.099825,-0.0539
1680016761469,1196749824475433,0.024475,-0.0977625,-0.0528
1680016761472,1196749826977828,0.0275,-0.0968,-0.0539
1680016761475,1196749829480058,0.0264,-0.0977625,-0.0518375
1680016761477,1196749831982212,0.030524999,-0.0968,-0.0528
1680016761479,1196749834484597,0.0264,-0.095837496,-0.055825
1680016761482,1196749836986838,0.0264,-0.0968,-0.055825
1680016761485,1196749839488992,0.024475,-0.0968,-0.0539
1680016761487,1196749841991453,0.0264,-0.095837496,-0.055825
1680016761489,1196749844493838,0.02145,-0.095837496,-0.0567875
1680016761492,1196749846996016,0.0204875,-0.095837496,-0.055825
1680016761495,1196749849498246,0.0204875,-0.095837496,-0.058849998
1680016761499,1196749852000631,0.0154,-0.093775,-0.058849998
1680016761500,1196749854502785,0.0165,-0.095837496,-0.055825
1680016761502,1196749857005217,0.0144375,-0.0928125,-0.0548625
1680016761504,1196749859507448,0.0154,-0.0928125,-0.055825
1680016761507,1196749862009833,0.0174625,-0.09075,-0.0578875
1680016761509,1196749864511987,0.0154,-0.087725,-0.055825
1680016761513,1196749867014231,0.0144375,-0.09075,-0.0578875
1680016761515,1196749869516616,0.0165,-0.09185,-0.0578875
1680016761521,1196749872019078,0.0174625,-0.087725,-0.0548625
1680016761522,1196749874521231,0.0174625,-0.087725,-0.0518375
1680016761523,1196749877023462,0.0174625,-0.0867625,-0.0528
1680016761524,1196749879525838,0.0165,-0.082775,-0.050875
1680016761528,1196749882028069,0.0224125,-0.0848375,-0.0518375
1680016761529,1196749884530222,0.02145,-0.087725,-0.0518375
1680016761532,1196749887032607,0.0204875,-0.0848375,-0.0539
1680016761536,1196749889534818,0.0224125,-0.0818125,-0.049775
1680016761539,1196749892037202,0.0224125,-0.077825,-0.0488125
1680016761540,1196749894539433,0.019524999,-0.076725,-0.0488125
1680016761542,1196749897041587,0.0154,-0.0748,-0.044825
1680016761544,1196749899543972,0.0154,-0.0638,-0.0438625
1680016761547,1196749902046212,0.0114124995,-0.054725,-0.0438625
1680016761549,1196749904548674,0.007425,-0.0518375,-0.038775
1680016761553,1196749907050828,0.008525,-0.044825,-0.038775
1680016761555,1196749909553212,0.007425,-0.0347875,-0.0378125
1680016761558,1196749912055371,0.0064625,-0.033825,-0.0358875
1680016761560,1196749914557602,0.0055,-0.0287375,-0.0358875
1680016761562,1196749917059987,0.0064625,-0.021724999,-0.033825
1680016761566,1196749919562448,0.0044,-0.016775,-0.0328625
1680016761568,1196749922064602,0.007425,-0.0127875,-0.033825
1680016761570,1196749924566828,0.007425,-0.0097624995,-0.0347875
1680016761574,1196749927069213,0.0064625,-0.010725,-0.033825
1680016761576,1196749929571443,0.008525,-0.0097624995,-0.0319
1680016761578,1196749932073597,0.01045,-0.00275,-0.0328625
1680016761580,1196749934576078,0.01045,0.0012375,-0.0319
1680016761582,1196749937078462,0.008525,-0.0017875,-0.0328625
1680016761585,1196749939580693,0.0064625,2.75E-4,-0.0319
1680016761588,1196749942082847,0.007425,0.0022,-0.0328625
1680016761590,1196749944585232,0.0064625,0.0012375,-0.0319
1680016761592,1196749947087404,0.0055,0.0031625,-0.028875
1680016761595,1196749949589635,0.0044,0.0022,-0.0268125
1680016761598,1196749952092097,-0.0015125,0.0061875,-0.028875
1680016761600,1196749954594251,0.002475,0.0061875,-0.0319
1680016761602,1196749957096645,0.002475,0.00715,-0.028875
1680016761604,1196749959598876,-5.5E-4,0.0061875,-0.0319
1680016761607,1196749962101261,-0.002475,0.00715,-0.0268125
1680016761611,1196749964603409,-0.0015125,0.00715,-0.02585
1680016761613,1196749967105871,0.0034375,0.0022,-0.0248875
1680016761615,1196749969608102,4.125E-4,0.0022,-0.0248875
1680016761617,1196749972110256,0.0034375,-8.25E-4,-0.02585
1680016761619,1196749974612640,0.0055,-8.25E-4,-0.027775
1680016761622,1196749977114905,0.0034375,2.75E-4,-0.022824999
1680016761624,1196749979617059,0.0064625,-0.0048125,-0.0248875
1680016761627,1196749982119520,0.0055,-0.0067375,-0.0237875
1680016761629,1196749984621905,0.0044,-0.0088,-0.0248875
1680016761632,1196749987124125,0.002475,-0.0088,-0.022824999
1680016761636,1196749989626279,4.125E-4,-0.0097624995,-0.022824999
1680016761638,1196749992128663,0.0044,-0.01375,-0.0237875
1680016761640,1196749994630894,-5.5E-4,-0.016775,-0.0209
1680016761642,1196749997133356,-0.003575,-0.01375,-0.0209
1680016761644,1196749999635509,-0.0015125,-0.0188375,-0.0188375
1680016761649,1196750002137894,-0.003575,-0.0198,-0.0218625
1680016761652,1196750004640125,-0.003575,-0.021724999,-0.022824999
1680016761653,1196750007142270,-0.003575,-0.02585,-0.017875
1680016761655,1196750009644654,-0.0045375,-0.0298375,-0.0209
1680016761657,1196750012147116,-0.003575,-0.0317625,-0.016775
1680016761659,1196750014649270,-0.0045375,-0.0347875,-0.0158125
1680016761662,1196750017151500,-0.003575,-0.0408375,-0.0127875
1680016761664,1196750019653875,-0.0015125,-0.047849998,-0.01485
1680016761667,1196750022156029,-0.0015125,-0.0488125,-0.0099
1680016761670,1196750024658260,-5.5E-4,-0.049775,-0.005775
1680016761672,1196750027160644,-5.5E-4,-0.054725,-0.00385
1680016761676,1196750029662889,-0.0015125,-0.05775,-0.0017875
1680016761678,1196750032165274,-0.003575,-0.0567875,0.004125
1680016761680,1196750034667505,-0.003575,-0.058849998,0.0031625
1680016761682,1196750037169658,-0.0045375,-0.0567875,0.0031625
1680016761687,1196750039672043,-0.0066,-0.060775,0.0061875
1680016761689,1196750042174274,-0.013475,-0.065725,0.010175
1680016761691,1196750044676735,-0.0125124995,-0.066825,0.0132
1680016761693,1196750047178889,-0.014575,-0.066825,0.010175
1680016761695,1196750049681274,-0.019524999,-0.06875,0.014162499
1680016761697,1196750052183534,-0.0204875,-0.071775,0.0171875
1680016761700,1196750054685687,-0.0176,-0.0757625,0.0171875
1680016761702,1196750057188072,-0.0185625,-0.0787875,0.0202125
1680016761705,1196750059690534,-0.019524999,-0.0787875,0.0202125
1680016761708,1196750062192764,-0.0215875,-0.07975,0.0202125
1680016761710,1196750064694923,-0.02255,-0.082775,0.021175
1680016761712,1196750067197308,-0.0204875,-0.0837375,0.0242
1680016761715,1196750069699539,-0.0215875,-0.0848375,0.0231
1680016761720,1196750072201904,-0.02255,-0.087725,0.0231
1680016761722,1196750074704135,-0.024475,-0.0897875,0.0221375
1680016761726,1196750077206520,-0.0235125,-0.087725,0.0221375
1680016761729,1196750079707590,-0.0235125,-0.0928125,0.0202125
1680016761729,1196750082208669,-0.0235125,-0.095837496,0.021175
1680016761731,1196750084713284,-0.019524999,-0.099825,0.0202125
1680016761732,1196750087215438,-0.0155375,-0.099825,0.0171875
1680016761735,1196750089717899,-0.013475,-0.1038125,0.0132
1680016761738,1196750092220130,-0.0094875,-0.110825,0.0121
1680016761741,1196750094722308,-0.003575,-0.1117875,0.0132
1680016761745,1196750097224693,-0.003575,-0.1148125,0.0132
1680016761745,1196750099726923,-5.5E-4,-0.120725,0.010175
1680016761748,1196750102229308,0.002475,-0.1197625,0.0121
1680016761750,1196750104731447,0.007425,-0.117837496,0.0111375
1680016761752,1196750107233908,0.0125124995,-0.1258125,0.0081124995
1680016761755,1196750109736139,0.013475,-0.12375,0.010175
1680016761758,1196750112238524,0.0144375,-0.1167375,0.0111375
1680016761762,1196750114740645,0.0114124995,-0.115775,0.0111375
1680016761763,1196750117242875,0.013475,-0.117837496,0.0111375
1680016761765,1196750119745260,0.0114124995,-0.11275,0.0132
1680016761768,1196750122247491,0.0114124995,-0.1078,0.015125
1680016761770,1196750124749875,0.008525,-0.099825,0.014162499
1680016761772,1196750127252096,-5.5E-4,-0.09185,0.0111375
1680016761776,1196750129754250,4.125E-4,-0.0928125,0.0111375
1680016761777,1196750132256635,0.0034375,-0.0848375,0.0121
1680016761779,1196750134758865,-5.5E-4,-0.076725,0.0132
1680016761782,1196750137261360,-0.002475,-0.0708125,0.0111375
1680016761786,1196750139763514,-0.002475,-0.0647625,0.0111375
1680016761788,1196750142265898,-0.003575,-0.0617375,0.010175
1680016761790,1196750144768129,-0.003575,-0.0528,0.0111375
1680016761792,1196750147270283,-0.0015125,-0.044825,0.0121
1680016761795,1196750149772664,-0.002475,-0.0378125,0.0111375
1680016761799,1196750152274894,-0.0075625,-0.0347875,0.014162499
1680016761802,1196750154777279,-0.0066,-0.032725,0.014162499
1680016761804,1196750157279510,-0.0055,-0.02585,0.0132
1680016761805,1196750159781664,-0.0094875,-0.0207625,0.0121
1680016761808,1196750162284125,-0.0094875,-0.0198,0.0121
1680016761810,1196750164786510,-0.008525,-0.01375,0.015125
1680016761812,1196750167288664,-0.0055,-0.0078375,0.016224999
1680016761814,1196750169790870,-0.0066,-0.0078375,0.014162499
1680016761818,1196750172293255,-0.003575,-0.0048125,0.0171875
1680016761820,1196750174795409,-0.003575,2.75E-4,0.016224999
1680016761822,1196750177297870,-0.0075625,-8.25E-4,0.015125
1680016761824,1196750179800091,-0.003575,-8.25E-4,0.015125
1680016761829,1196750182302245,-0.0066,0.00715,0.0171875
1680016761831,1196750184804630,-0.0066,0.0122375,0.015125
1680016761832,1196750187306861,-0.0055,0.0132,0.015125
1680016761840,1196750189809009,-0.0105875,0.0132,0.0171875
1680016761841,1196750192311394,-0.01155,0.015262499,0.0191125
1680016761842,1196750195026779,-0.0125124995,0.014162499,0.0171875
1680016761844,1196750197316086,-0.0125124995,0.00715,0.0191125
1680016761848,1196750199818226,-0.0165,0.010175,0.0171875
1680016761850,1196750202320611,-0.0176,0.011275,0.0171875
1680016761852,1196750204822842,-0.0155375,0.0132,0.0191125
1680016761853,1196750207325226,-0.0155375,0.011275,0.0171875
1680016761854,1196750209827457,-0.0176,0.005225,0.0171875
1680016761857,1196750212329842,-0.0155375,0.0022,0.0191125
1680016761860,1196750214832081,-0.014575,2.75E-4,0.0202125
1680016761862,1196750217334235,-0.01155,2.75E-4,0.021175
1680016761864,1196750219836620,-0.0105875,-0.0048125,0.0221375
1680016761869,1196750222338851,-0.01155,-0.0097624995,0.0231
1680016761870,1196750224841279,-0.0105875,-0.0127875,0.0231
1680016761874,1196750227343433,-0.01155,-0.01375,0.0242
1680016761877,1196750229845818,-0.0094875,-0.0177375,0.0231
1680016761879,1196750232348048,-0.008525,-0.0188375,0.0242
1680016761881,1196750234850206,-0.008525,-0.021724999,0.0231
1680016761883,1196750237352591,-0.0066,-0.0237875,0.027224999
1680016761886,1196750239855052,-0.01155,-0.0268125,0.02915
1680016761888,1196750242357206,-0.01155,-0.033825,0.027224999
1680016761890,1196750244859457,-0.013475,-0.0347875,0.02915
1680016761892,1196750247361842,-0.0125124995,-0.038775,0.0281875
1680016761896,1196750249863996,-0.01155,-0.043725,0.0281875
1680016761898,1196750252366226,-0.008525,-0.043725,0.0281875
1680016761900,1196750254868625,-0.008525,-0.0488125,0.027224999
1680016761903,1196750257370856,-0.0045375,-0.0567875,0.0301125
1680016761905,1196750259873240,-0.0055,-0.060775,0.02915
1680016761908,1196750262375471,-0.002475,-0.0628375,0.02915
1680016761911,1196750264877837,-0.002475,-0.0647625,0.02915
1680016761913,1196750267379991,0.002475,-0.0628375,0.032175
1680016761916,1196750269882221,0.0044,-0.0708125,0.0301125
1680016761919,1196750272384683,0.0055,-0.071775,0.02915
1680016761921,1196750274886846,0.0055,-0.071775,0.032175
1680016761923,1196750277389230,0.0044,-0.076725,0.0312125
1680016761924,1196750279891461,0.002475,-0.076725,0.0312125
1680016761928,1196750282393846,0.002475,-0.0748,0.0331375
1680016761930,1196750284896000,0.002475,-0.076725,0.0341
1680016761932,1196750287398481,0.002475,-0.077825,0.0341
1680016761937,1196750289900712,-0.002475,-0.076725,0.0341
1680016761938,1196750292402866,-0.003575,-0.077825,0.0361625
1680016761940,1196750294905250,-0.0066,-0.076725,0.0341
1680016761942,1196750297407481,-0.0066,-0.0748,0.0331375
1680016761945,1196750299909635,-0.0066,-0.076725,0.0341
1680016761949,1196750302412097,-0.0066,-0.077825,0.0331375
1680016761951,1196750304914481,-0.0094875,-0.0818125,0.0301125
1680016761953,1196750307416620,-0.008525,-0.07975,0.0281875
1680016761955,1196750309918851,-0.0066,-0.0848375,0.027224999
1680016761958,1196750312421235,-0.0094875,-0.09075,0.027224999
1680016761960,1196750314923389,-0.008525,-0.0928125,0.026124999
1680016761962,1196750317425851,-0.0075625,-0.09075,0.0251625
1680016761966,1196750319928072,-0.002475,-0.0947375,0.0221375
1680016761970,1196750322430456,-0.002475,-0.0977625,0.0231
1680016761971,1196750324932610,-0.0045375,-0.1007875,0.0231
1680016761972,1196750327434841,-0.003575,-0.1038125,0.0171875
1680016761976,1196750329937216,-0.003575,-0.099825,0.0191125
1680016761978,1196750332439447,-0.0045375,-0.1038125,0.0202125
1680016761980,1196750334941832,-0.003575,-0.1007875,0.0171875
1680016761982,1196750337444063,-0.0075625,-0.0977625,0.016224999
1680016761988,1196750339946456,-0.008525,-0.1007875,0.015125
1680016761990,1196750342448610,-0.008525,-0.10175,0.0121
1680016761991,1196750344950841,-0.008525,-0.10175,0.0111375
1680016761993,1196750347453226,-0.0105875,-0.1007875,0.010175
1680016761996,1196750349955456,-0.0105875,-0.098725,0.0111375
1680016761999,1196750352457851,-0.008525,-0.098725,0.0092124995
1680016762001,1196750354960082,-0.0094875,-0.099825,0.0081124995
1680016762002,1196750357462236,-0.0094875,-0.10175,0.00715
1680016762006,1196750359964620,-0.008525,-0.1007875,0.0061875
1680016762008,1196750362466851,-0.0125124995,-0.1007875,0.0031625
1680016762010,1196750364969236,-0.008525,-0.1007875,0.0031625
1680016762012,1196750367471466,-0.0066,-0.098725,0.0022
1680016762015,1196750369973851,-0.008525,-0.099825,1.375E-4
1680016762019,1196750372476005,-0.0075625,-0.099825,0.0011
1680016762020,1196750374978236,-0.0075625,-0.098725,0.0011
1680016762024,1196750377480620,-0.008525,-0.1007875,0.0011
1680016762027,1196750379983082,-0.0075625,-0.10175,-8.25E-4
1680016762028,1196750382485212,-0.0055,-0.1007875,-0.0017875
1680016762030,1196750384987442,-0.002475,-0.0977625,-0.0028875
1680016762032,1196750387489827,-0.0015125,-0.1038125,-0.0028875
1680016762035,1196750389991981,0.002475,-0.1078,-0.00385
1680016762038,1196750392494221,0.002475,-0.104775,-0.0048125
1680016762040,1196750394996682,4.125E-4,-0.1087625,-0.0048125
1680016762042,1196750397499067,4.125E-4,-0.104775,-0.0048125
1680016762045,1196750400001221,0.0034375,-0.1078,-0.0048125
1680016762047,1196750402503451,0.0044,-0.110825,-0.0048125
1680016762050,1196750405005851,0.002475,-0.110825,-0.006875
1680016762052,1196750407508005,-5.5E-4,-0.1078,-0.006875
1680016762054,1196750410010236,4.125E-4,-0.109725,-0.0078375
1680016762057,1196750412512697,0.002475,-0.110825,-0.0088
1680016762061,1196750415014836,0.002475,-0.11275,-0.0108624995
1680016762063,1196750417517221,-5.5E-4,-0.1167375,-0.011825
1680016762065,1196750420019451,-0.002475,-0.1167375,-0.01485
1680016762068,1196750422521605,-0.0045375,-0.117837496,-0.01485
1680016762070,1196750425023990,-0.003575,-0.121825,-0.01485
1680016762072,1196750427526451,-0.0045375,-0.121825,-0.01485
1680016762076,1196750430028605,-0.002475,-0.12485,-0.0158125
1680016762079,1196750432530836,-0.003575,-0.126775,-0.0158125
1680016762080,1196750435033221,-0.0066,-0.12979999,-0.017875
1680016762082,1196750437535375,-0.002475,-0.1307625,-0.016775
1680016762085,1196750440037605,-0.003575,-0.131725,-0.0188375
1680016762089,1196750442540067,-0.0055,-0.1337875,-0.0188375
1680016762090,1196750445042452,-0.002475,-0.13585,-0.0198
1680016762092,1196750447544605,-5.5E-4,-0.132825,-0.0188375
1680016762101,1196750450046836,-0.0015125,-0.1368125,-0.0198
1680016762103,1196750452549221,-0.0015125,-0.1368125,-0.0218625
1680016762106,1196750455051452,4.125E-4,-0.132825,-0.022824999
1680016762108,1196750457553817,0.0034375,-0.13585,-0.022824999
1680016762109,1196750460056048,0.002475,-0.137775,-0.0248875
1680016762110,1196750462558433,0.002475,-0.13585,-0.0248875
1680016762112,1196750465060586,4.125E-4,-0.1368125,-0.02585
1680016762113,1196750467562817,0.0034375,-0.1398375,-0.0298375
1680016762118,1196750470065212,0.0064625,-0.14575,-0.028875
1680016762121,1196750472567443,0.0055,-0.143825,-0.027775
1680016762122,1196750475069827,0.0055,-0.1417625,-0.0298375
1680016762125,1196750477572058,0.002475,-0.1398375,-0.0298375
1680016762126,1196750480074212,0.0064625,-0.1398375,-0.0319
1680016762128,1196750482576586,0.008525,-0.143825,-0.0358875
1680016762130,1196750485078817,0.008525,-0.1408,-0.0378125
1680016762132,1196750487580971,0.01045,-0.1417625,-0.039875
1680016762137,1196750490083433,0.013475,-0.1408,-0.0378125
1680016762139,1196750492585817,0.0154,-0.137775,-0.0408375
1680016762141,1196750495088048,0.0174625,-0.137775,-0.038775
1680016762143,1196750497590202,0.013475,-0.13585,-0.039875
1680016762145,1196750500092586,0.0114124995,-0.1307625,-0.0429
1680016762148,1196750502594817,0.013475,-0.12485,-0.0378125
1680016762150,1196750505097207,0.0144375,-0.12375,-0.0429
1680016762152,1196750507599438,0.01045,-0.120725,-0.0418
1680016762156,1196750510101822,0.0114124995,-0.120725,-0.0418
1680016762159,1196750512604053,0.01045,-0.1167375,-0.044825
1680016762160,1196750515106221,0.013475,-0.1188,-0.0438625
1680016762162,1196750517608606,0.0154,-0.1188,-0.044825
1680016762165,1196750520111067,0.0154,-0.115775,-0.0457875
1680016762168,1196750522613298,0.019524999,-0.117837496,-0.0488125
1680016762170,1196750525115452,0.019524999,-0.117837496,-0.0457875
1680016762175,1196750527617850,0.02145,-0.1188,-0.047849998
1680016762178,1196750530120081,0.0264,-0.1167375,-0.0518375
1680016762179,1196750532622235,0.030524999,-0.1197625,-0.0518375
1680016762181,1196750535124711,0.032449998,-0.1188,-0.0518375
1680016762183,1196750537627096,0.035475,-0.1188,-0.0539
1680016762188,1196750540129250,0.0424875,-0.1197625,-0.055825
1680016762190,1196750542631481,0.0455125,-0.120725,-0.0567875
1680016762191,1196750545133865,0.0474375,-0.1188,-0.0578875
1680016762193,1196750547636028,0.0455125,-0.1197625,-0.0578875
1680016762196,1196750550138259,0.0455125,-0.12375,-0.060775
1680016762198,1196750552640721,0.0484,-0.120725,-0.0658625
1680016762200,1196750555142874,0.046475,-0.1188,-0.0688875
1680016762203,1196750557645269,0.046475,-0.1188,-0.0677875
1680016762205,1196750560147500,0.0484,-0.1167375,-0.06985
1680016762208,1196750562649654,0.0474375,-0.12375,-0.0708125
1680016762213,1196750565152043,0.0444125,-0.121825,-0.0738375
1680016762214,1196750567654505,0.041525,-0.1197625,-0.0759
1680016762216,1196750570156736,0.0444125,-0.1258125,-0.0748
1680016762219,1196750572658889,0.0444125,-0.1288375,-0.08085
1680016762220,1196750575161274,0.046475,-0.1247125,-0.0818125
1680016762223,1196750577663505,0.0474375,-0.131725,-0.083875
1680016762225,1196750580165884,0.0455125,-0.1307625,-0.0848375
1680016762228,1196750582668115,0.0444125,-0.1288375,-0.0858
1680016762230,1196750585170500,0.0444125,-0.1337875,-0.0897875
1680016762232,1196750587672731,0.0444125,-0.1368125,-0.088825
1680016762236,1196750590174879,0.043449998,-0.1368125,-0.09185
1680016762239,1196750592677264,0.0444125,-0.1337875,-0.09185
1680016762240,1196750595179495,0.0444125,-0.13475,-0.0928125
1680016762243,1196750597681879,0.0495,-0.1337875,-0.093775
1680016762245,1196750600184110,0.0495,-0.13475,-0.0979
1680016762249,1196750602686485,0.052525,-0.1357125,-0.0979
1680016762252,1196750605188639,0.0554125,-0.1368125,-0.095837496
1680016762253,1196750607690870,0.057475,-0.1408,-0.1007875
1680016762255,1196750610193023,0.0594,-0.1417625,-0.1018875
1680016762258,1196750612695428,0.0644875,-0.137775,-0.1007875
1680016762260,1196750615197890,0.0614625,-0.1357125,-0.099825
1680016762263,1196750617700120,0.0584375,-0.1357125,-0.10285
1680016762265,1196750620202274,0.057475,-0.132825,-0.1018875
1680016762268,1196750622704649,0.057475,-0.1307625,-0.10285
1680016762270,1196750625206880,0.0565125,-0.12773749,-0.1038125
1680016762273,1196750627709264,0.054449998,-0.126775,-0.1007875
1680016762276,1196750630211495,0.052525,-0.1247125,-0.10285
1680016762278,1196750632713904,0.0495,-0.120725,-0.104775
1680016762280,1196750635216134,0.052525,-0.117837496,-0.10285
1680016762283,1196750637718519,0.0504625,-0.1087625,-0.1018875
1680016762287,1196750640220673,0.0455125,-0.106837496,-0.104775
1680016762289,1196750642722899,0.0484,-0.104775,-0.105875
1680016762293,1196750645225360,0.0474375,-0.10175,-0.1078
1680016762294,1196750647727514,0.0495,-0.098725,-0.1078
1680016762296,1196750650229899,0.0495,-0.0928125,-0.1078
1680016762300,1196750652732134,0.0495,-0.0867625,-0.108899996
1680016762303,1196750655234519,0.0495,-0.0837375,-0.1078
1680016762303,1196750657736750,0.0484,-0.0787875,-0.105875
1680016762305,1196750660239134,0.0474375,-0.076725,-0.10285
1680016762308,1196750662741288,0.0484,-0.0697125,-0.10285
1680016762313,1196750665243500,0.0474375,-0.0638,-0.1018875
1680016762314,1196750667745885,0.0474375,-0.0598125,-0.0979
1680016762319,1196750670248346,0.0455125,-0.0587125,-0.094875
1680016762320,1196750672750500,0.040425,-0.05775,-0.093775
1680016762322,1196750675252731,0.0385,-0.0528,-0.0897875
1680016762325,1196750677754885,0.0424875,-0.0507375,-0.0897875
1680016762329,1196750680256077,0.0424875,-0.0457875,-0.0897875
1680016762329,1196750682757270,0.0385,-0.043725,-0.0848375
1680016762331,1196750685261885,0.0424875,-0.0378125,-0.083875
1680016762333,1196750687764100,0.0424875,-0.033825,-0.0787875
1680016762336,1196750690266485,0.040425,-0.033825,-0.0818125
1680016762338,1196750692768639,0.040425,-0.03575,-0.0759
1680016762340,1196750695270870,0.0385,-0.033825,-0.0708125
1680016762343,1196750697773254,0.0364375,-0.0308,-0.0708125
1680016762345,1196750700275480,0.0364375,-0.0298375,-0.0708125
1680016762348,1196750702777865,0.0385,-0.0298375,-0.0708125
1680016762350,1196750705280096,0.0394625,-0.0308,-0.0677875
1680016762352,1196750707782456,0.0394625,-0.0317625,-0.0628375
1680016762357,1196750710284610,0.0394625,-0.0308,-0.058849998
1680016762359,1196750712786841,0.041525,-0.032725,-0.058849998
1680016762362,1196750715289225,0.043449998,-0.03575,-0.0578875
1680016762364,1196750717791687,0.043449998,-0.0347875,-0.055825
1680016762368,1196750720293841,0.0455125,-0.0367125,-0.0539
1680016762373,1196750722796072,0.046475,-0.0378125,-0.0528
1680016762374,1196750725298456,0.0455125,-0.038775,-0.0518375
1680016762374,1196750727800610,0.0455125,-0.043725,-0.049775
1680016762376,1196750730302861,0.043449998,-0.044825,-0.0457875
1680016762378,1196750732805322,0.040425,-0.0418,-0.0457875
1680016762380,1196750735307476,0.0424875,-0.0477125,-0.0429
1680016762382,1196750737809861,0.0444125,-0.0488125,-0.0429
1680016762386,1196750740312092,0.0455125,-0.0488125,-0.0408375
1680016762389,1196750742814245,0.046475,-0.0507375,-0.038775
1680016762390,1196750745316630,0.0474375,-0.0537625,-0.0358875
1680016762392,1196750747819092,0.0424875,-0.05775,-0.033825
1680016762398,1196750750321264,0.043449998,-0.0567875,-0.033825
1680016762400,1196750752823495,0.046475,-0.05775,-0.033825
1680016762403,1196750755325880,0.046475,-0.0598125,-0.0298375
1680016762404,1196750757828034,0.0455125,-0.0598125,-0.027775
1680016762407,1196750760330269,0.043449998,-0.0628375,-0.0268125
1680016762408,1196750762832731,0.0455125,-0.060775,-0.02585
1680016762410,1196750765335116,0.0474375,-0.0647625,-0.0237875
1680016762413,1196750767837270,0.046475,-0.06875,-0.0218625
1680016762416,1196750770339500,0.046475,-0.0677875,-0.0198
1680016762418,1196750772841899,0.0444125,-0.06875,-0.016775
1680016762421,1196750775344130,0.0424875,-0.076725,-0.0127875
1680016762424,1196750777846284,0.0374,-0.0757625,-0.0127875
1680016762426,1196750780348745,0.035475,-0.0738375,-0.01485
1680016762427,1196750782851106,0.0364375,-0.0748,-0.0108624995
1680016762430,1196750785353260,0.0314875,-0.076725,-0.0078375
1680016762433,1196750787855490,0.0275,-0.077825,-0.0099
1680016762438,1196750790357884,0.0264,-0.0787875,-0.005775
1680016762441,1196750792858960,0.0235125,-0.07975,-0.0078375
1680016762442,1196750795360039,0.019524999,-0.0807125,-0.0078375
1680016762442,1196750797864730,0.0174625,-0.07975,-0.0108624995
1680016762446,1196750800366884,0.013475,-0.0818125,-0.0158125
1680016762448,1196750802869265,0.0125124995,-0.0867625,-0.017875
1680016762450,1196750805371495,0.008525,-0.0858,-0.016775
1680016762453,1196750807873649,0.0055,-0.087725,-0.0127875
1680016762456,1196750810376111,0.0034375,-0.087725,-0.016775
1680016762458,1196750812878495,0.002475,-0.0897875,-0.016775
1680016762460,1196750815380735,-0.002475,-0.0947375,-0.0188375
1680016762462,1196750817882889,-0.0066,-0.095837496,-0.0158125
1680016762466,1196750820385274,-0.0066,-0.099825,-0.01485
1680016762467,1196750822887504,-0.0105875,-0.1007875,-0.0158125
1680016762470,1196750825389889,-0.01155,-0.099825,-0.0108624995
1680016762474,1196750827892120,-0.014575,-0.1038125,-0.01485
1680016762478,1196750830394504,-0.0165,-0.104775,-0.011825
1680016762480,1196750832896735,-0.0165,-0.1117875,-0.011825
1680016762481,1196750835398918,-0.019524999,-0.11275,-0.0099
1680016762483,1196750837901303,-0.0215875,-0.1148125,-0.0078375
1680016762486,1196750840403764,-0.0235125,-0.1148125,-0.006875
1680016762488,1196750842905918,-0.0204875,-0.115775,-0.00385
1680016762490,1196750845408149,-0.0235125,-0.1188,-0.0017875
1680016762493,1196750847910548,-0.025575,-0.12375,-0.0048125
1680016762496,1196750850412702,-0.0286,-0.1247125,-0.0048125
1680016762498,1196750852914933,-0.0295625,-0.1288375,-8.25E-4
1680016762500,1196750855417318,-0.0314875,-0.12979999,1.375E-4
1680016762503,1196750857919553,-0.0314875,-0.131725,-8.25E-4
1680016762506,1196750860421938,-0.0345125,-0.1357125,-8.25E-4
1680016762508,1196750862924169,-0.036575,-0.1368125,-8.25E-4
1680016762512,1196750865426554,-0.0375375,-0.1337875,0.0031625
1680016762514,1196750867928688,-0.041525,-0.1337875,0.004125
1680016762517,1196750870430919,-0.0424875,-0.13475,0.00715
1680016762520,1196750872933304,-0.0435875,-0.131725,0.0092124995
1680016762522,1196750875435535,-0.0405625,-0.131725,0.0092124995
1680016762526,1196750877937919,-0.0435875,-0.12979999,0.010175
1680016762527,1196750880440150,-0.0435875,-0.1307625,0.0121
1680016762529,1196750882942304,-0.04455,-0.12979999,0.0121
1680016762531,1196750885444688,-0.04455,-0.1288375,0.010175
1680016762533,1196750887947150,-0.04455,-0.1307625,0.0121
1680016762537,1196750890449371,-0.0485375,-0.1307625,0.014162499
1680016762538,1196750892951525,-0.0455125,-0.12979999,0.0191125
1680016762540,1196750895453909,-0.0424875,-0.126775,0.014162499
1680016762543,1196750897956140,-0.0435875,-0.12773749,0.014162499
1680016762549,1196750900458241,-0.0455125,-0.126775,0.0171875
1680016762551,1196750902960702,-0.0455125,-0.120725,0.0171875
1680016762553,1196750905463087,-0.046475,-0.115775,0.021175
1680016762554,1196750907965241,-0.0495,-0.106837496,0.0221375
1680016762556,1196750910467472,-0.0485375,-0.1038125,0.021175
1680016762559,1196750912969856,-0.0495,-0.106837496,0.0231
1680016762561,1196750915472010,-0.0515625,-0.099825,0.0231
1680016762563,1196750917974241,-0.0534875,-0.0977625,0.0231
1680016762567,1196750920476702,-0.05555,-0.0947375,0.0251625
1680016762569,1196750922978856,-0.0565125,-0.0917125,0.026124999
1680016762571,1196750925481227,-0.058575,-0.0867625,0.0221375
1680016762573,1196750927983458,-0.0605,-0.0848375,0.0202125
1680016762576,1196750930485612,-0.06655,-0.0818125,0.0221375
1680016762578,1196750932987996,-0.068475,-0.0757625,0.016224999
1680016762580,1196750935490472,-0.0675125,-0.0757625,0.016224999
1680016762583,1196750937992702,-0.0726,-0.077825,0.0171875
1680016762588,1196750940494856,-0.0754875,-0.076725,0.0132
1680016762590,1196750942997241,-0.0726,-0.071775,0.0081124995
1680016762591,1196750945499458,-0.0726,-0.071775,0.0081124995
1680016762593,1196750948001842,-0.074525,-0.0647625,0.0061875
1680016762597,1196750950504073,-0.0735625,-0.066825,0.004125
1680016762599,1196750953006458,-0.0735625,-0.0677875,-8.25E-4
1680016762600,1196750955508693,-0.074525,-0.0677875,0.0011
1680016762602,1196750958011077,-0.0735625,-0.0697125,-0.0028875
1680016762607,1196750960513231,-0.074525,-0.065725,-0.0048125
1680016762608,1196750963015462,-0.0735625,-0.065725,-0.0048125
1680016762610,1196750965517846,-0.0735625,-0.0677875,-0.0048125
1680016762613,1196750968020082,-0.0726,-0.0697125,-0.0078375
1680016762616,1196750970522467,-0.0726,-0.06875,-0.0108624995
1680016762619,1196750973024621,-0.069575,-0.0708125,-0.0108624995
1680016762620,1196750975526851,-0.068475,-0.0748,-0.0127875
1680016762624,1196750978029236,-0.068475,-0.0757625,-0.0127875
1680016762627,1196750980531467,-0.0705375,-0.076725,-0.016775
1680016762629,1196750983033851,-0.0705375,-0.0757625,-0.0198
1680016762630,1196750985536082,-0.0705375,-0.076725,-0.0209
1680016762635,1196750988038434,-0.068475,-0.07975,-0.0188375
1680016762637,1196750990540588,-0.068475,-0.0787875,-0.0237875
1680016762639,1196750993042818,-0.0735625,-0.076725,-0.02585
1680016762640,1196750995545203,-0.0726,-0.076725,-0.0248875
1680016762643,1196750998047434,-0.068475,-0.077825,-0.02585
1680016762647,1196751000549808,-0.069575,-0.0787875,-0.0268125
1680016762648,1196751003052039,-0.068475,-0.07975,-0.02585
1680016762651,1196751005554424,-0.0715,-0.077825,-0.028875
1680016762653,1196751008056578,-0.0735625,-0.077825,-0.028875
1680016762656,1196751010558827,-0.06655,-0.0807125,-0.0298375
1680016762658,1196751013061289,-0.0675125,-0.0787875,-0.0328625
1680016762662,1196751015563674,-0.0655875,-0.07975,-0.033825
1680016762663,1196751018065827,-0.0616,-0.076725,-0.0378125
1680016762666,1196751020568063,-0.0655875,-0.0818125,-0.0358875
1680016762668,1196751023070448,-0.0625625,-0.0818125,-0.036849998
1680016762670,1196751025572602,-0.0616,-0.082775,-0.038775
1680016762673,1196751028075063,-0.0644875,-0.0818125,-0.038775
1680016762676,1196751030577304,-0.0625625,-0.08085,-0.039875
1680016762678,1196751033079458,-0.0625625,-0.0848375,-0.038775
1680016762680,1196751035581843,-0.0655875,-0.082775,-0.038775
1680016762683,1196751038084073,-0.0655875,-0.0787875,-0.038775
1680016762687,1196751040586222,-0.0655875,-0.0787875,-0.038775
1680016762688,1196751043088684,-0.0644875,-0.08085,-0.0418
1680016762690,1196751045591068,-0.0616,-0.077825,-0.038775
1680016762693,1196751048093222,-0.0616,-0.0818125,-0.038775
1680016762697,1196751050595453,-0.0605,-0.082775,-0.038775
1680016762700,1196751053097847,-0.0616,-0.08085,-0.038775
1680016762702,1196751055600000,-0.0644875,-0.0748,-0.036849998
1680016762704,1196751058102462,-0.0625625,-0.06985,-0.0347875
1680016762707,1196751060604693,-0.06655,-0.06985,-0.0358875
1680016762708,1196751063107077,-0.0655875,-0.0708125,-0.036849998
1680016762710,1196751065609246,-0.0644875,-0.071775,-0.033825
1680016762714,1196751068111477,-0.0655875,-0.0757625,-0.033825
1680016762717,1196751070613862,-0.0644875,-0.076725,-0.033825
1680016762720,1196751073116092,-0.0616,-0.0748,-0.0298375
1680016762722,1196751075618525,-0.0576125,-0.06985,-0.028875
1680016762723,1196751078120756,-0.0605,-0.0748,-0.027775
1680016762727,1196751080623140,-0.0595375,-0.0738375,-0.02585
1680016762728,1196751083125294,-0.058575,-0.0708125,-0.0237875
1680016762730,1196751085627525,-0.0565125,-0.0748,-0.0218625
1680016762733,1196751088129929,-0.0545875,-0.0738375,-0.0198
1680016762738,1196751090632159,-0.0576125,-0.076725,-0.0209
1680016762740,1196751093134544,-0.05555,-0.0787875,-0.022824999
1680016762742,1196751095636775,-0.05555,-0.077825,-0.0209
1680016762744,1196751098138924,-0.0534875,-0.0818125,-0.016775
1680016762747,1196751100641308,-0.05555,-0.082775,-0.0198
1680016762749,1196751103143539,-0.0545875,-0.0837375,-0.0237875
1680016762754,1196751105645924,-0.0545875,-0.087725,-0.02585
1680016762755,1196751108148140,-0.0495,-0.093775,-0.0237875
1680016762757,1196751110650525,-0.0515625,-0.0968,-0.022824999
1680016762759,1196751113152679,-0.0506,-0.099825,-0.028875
1680016762761,1196751115654910,-0.0466125,-0.104775,-0.0328625
1680016762763,1196751118157294,-0.0485375,-0.106837496,-0.0358875
1680016762766,1196751120659765,-0.0455125,-0.1117875,-0.036849998
1680016762769,1196751123161919,-0.0455125,-0.117837496,-0.038775
1680016762771,1196751125664150,-0.0506,-0.120725,-0.0418
1680016762777,1196751128166506,-0.0495,-0.1258125,-0.0429
1680016762778,1196751130668737,-0.0485375,-0.12773749,-0.047849998
1680016762779,1196751133170891,-0.0506,-0.12979999,-0.0518375
1680016762781,1196751135673275,-0.0495,-0.13475,-0.0548625
1680016762783,1196751138175737,-0.0495,-0.142725,-0.061875
1680016762788,1196751140677655,-0.0495,-0.1478125,-0.058849998
1680016762790,1196751143180040,-0.0466125,-0.1478125,-0.061875
1680016762791,1196751145682270,-0.0506,-0.1508375,-0.0658625
1680016762794,1196751148184732,-0.0455125,-0.159775,-0.0677875
1680016762799,1196751150686867,-0.0435875,-0.1698125,-0.0708125
1680016762800,1196751153189251,-0.0424875,-0.17875,-0.0708125
1680016762804,1196751155691482,-0.036575,-0.1808125,-0.0738375
1680016762805,1196751158193867,-0.0345125,-0.186725,-0.072875
1680016762807,1196751160696021,-0.03355,-0.192775,-0.0759
1680016762808,1196751163198520,-0.0295625,-0.1967625,-0.0768625
1680016762812,1196751165700751,-0.0215875,-0.2028125,-0.0787875
1680016762814,1196751168202905,-0.0215875,-0.21175,-0.0787875
1680016762816,1196751170705289,-0.0165,-0.21573749,-0.082775
1680016762819,1196751173207544,-0.01155,-0.22275,-0.0848375
1680016762820,1196751175709929,-0.0066,-0.2297625,-0.0848375
1680016762823,1196751178212160,-0.0026125,-0.23485,-0.0858
1680016762827,1196751180714544,-5.5E-4,-0.23773749,-0.086899996
1680016762828,1196751183216669,0.0055,-0.242825,-0.083875
1680016762831,1196751185718900,0.0114124995,-0.2468125,-0.083875
1680016762834,1196751188221285,0.0125124995,-0.24585,-0.083875
1680016762838,1196751190723438,0.0204875,-0.242825,-0.0818125
1680016762839,1196751193225900,0.0264,-0.24585,-0.0848375
1680016762841,1196751195728126,0.0303875,-0.247775,-0.0878625
1680016762843,1196751198230510,0.032449998,-0.2517625,-0.082775
1680016762847,1196751200732664,0.035475,-0.25575,-0.0818125
1680016762850,1196751203234871,0.035475,-0.258775,-0.083875
1680016762852,1196751205737256,0.0334125,-0.2608375,-0.0787875
1680016762854,1196751208239486,0.032449998,-0.2608375,-0.077825
1680016762856,1196751210741871,0.0314875,-0.25575,-0.0759
1680016762858,1196751213244102,0.0303875,-0.247775,-0.0748
1680016762861,1196751215746501,0.0314875,-0.24585,-0.0768625
1680016762863,1196751218248655,0.032449998,-0.2407625,-0.0787875
1680016762867,1196751220750886,0.0314875,-0.23485,-0.0768625
1680016762870,1196751223253271,0.032449998,-0.2248125,-0.0787875
1680016762871,1196751225755486,0.0334125,-0.21573749,-0.082775
1680016762876,1196751228257871,0.0374,-0.209825,-0.082775
1680016762877,1196751230760102,0.043449998,-0.197725,-0.0878625
1680016762878,1196751233262256,0.0424875,-0.1967625,-0.0908875
1680016762880,1196751235764640,0.040425,-0.1848,-0.09185
1680016762883,1196751238266886,0.0424875,-0.176825,-0.093775
1680016762888,1196751240769271,0.043449998,-0.16775,-0.0979
1680016762890,1196751243271501,0.0424875,-0.1588125,-0.1018875
1680016762892,1196751245773890,0.040425,-0.14973749,-0.105875
1680016762894,1196751248276044,0.040425,-0.143825,-0.108899996
1680016762896,1196751250778275,0.040425,-0.13585,-0.1128875
1680016762898,1196751253280659,0.040425,-0.12979999,-0.115775
1680016762900,1196751255782890,0.0385,-0.121825,-0.1227875
1680016762903,1196751258285261,0.0394625,-0.121825,-0.12485
1680016762906,1196751260787491,0.0364375,-0.1117875,-0.126775
1680016762908,1196751263289876,0.035475,-0.106837496,-0.1318625
1680016762910,1196751265792030,0.032449998,-0.098725,-0.137775
1680016762914,1196751268294261,0.0374,-0.0968,-0.1398375
1680016762917,1196751270796722,0.0314875,-0.093775,-0.1419
1680016762919,1196751273299107,0.0314875,-0.0858,-0.149875
1680016762921,1196751275801261,0.0314875,-0.0837375,-0.1538625
1680016762925,1196751278303492,0.032449998,-0.0818125,-0.154825
1680016762928,1196751280805876,0.0374,-0.076725,-0.1568875
1680016762929,1196751283308107,0.0374,-0.0738375,-0.1588125
1680016762932,1196751285810492,0.0374,-0.06875,-0.160875
1680016762933,1196751288312722,0.0364375,-0.06875,-0.1618375
1680016762936,1196751290814881,0.0413875,-0.066825,-0.1639
1680016762938,1196751293317266,0.0424875,-0.0677875,-0.1667875
1680016762941,1196751295819497,0.0394625,-0.0647625,-0.1678875
1680016762943,1196751298321650,0.0424875,-0.0567875,-0.170775
1680016762946,1196751300824073,0.0413875,-0.049775,-0.1678875
1680016762948,1196751303326535,0.040425,-0.04675,-0.16885
1680016762951,1196751305828765,0.0385,-0.0427625,-0.1678875
1680016762954,1196751308330919,0.035475,-0.0427625,-0.16885
1680016762956,1196751310833323,0.0334125,-0.047849998,-0.1678875
1680016762958,1196751313335477,0.029424999,-0.047849998,-0.1667875
1680016762962,1196751315837707,0.0275,-0.058849998,-0.171875
1680016762964,1196751318340169,0.0254375,-0.0677875,-0.1728375
1680016762967,1196751320842569,0.0235125,-0.0738375,-0.171875
1680016762969,1196751323344722,0.0264,-0.0708125,-0.1698125
1680016762971,1196751325846953,0.0235125,-0.06985,-0.1678875
1680016762973,1196751328349338,0.0224125,-0.06985,-0.16885
1680016762976,1196751330851569,0.02145,-0.071775,-0.1678875
1680016762978,1196751333353948,0.0224125,-0.077825,-0.1667875
1680016762981,1196751335856179,0.0224125,-0.082775,-0.160875
1680016762983,1196751338358564,0.024475,-0.0818125,-0.159775
1680016762987,1196751340860774,0.0264,-0.0837375,-0.1568875
1680016762988,1196751343362928,0.024475,-0.0837375,-0.1538625
1680016762991,1196751345865313,0.0254375,-0.087725,-0.1538625
1680016762996,1196751348367774,0.0254375,-0.093775,-0.1478125
1680016762997,1196751350869928,0.0264,-0.106837496,-0.1447875
1680016763000,1196751353372159,0.0264,-0.115775,-0.1447875
1680016763002,1196751355874313,0.0275,-0.12485,-0.1428625
1680016763003,1196751358376698,0.0254375,-0.132825,-0.1419
1680016763006,1196751360878928,0.0254375,-0.143825,-0.1408
1680016763008,1196751363381082,0.0224125,-0.1527625,-0.1368125
1680016763010,1196751365883544,0.0165,-0.15785,-0.1348875
1680016763013,1196751368385928,0.02145,-0.1618375,-0.1309
1680016763016,1196751370888082,0.02145,-0.1618375,-0.1238875
1680016763019,1196751373390313,0.0174625,-0.1637625,-0.12485
1680016763020,1196751375892698,0.0204875,-0.1728375,-0.12485
1680016763023,1196751378394928,0.0254375,-0.17985,-0.1227875
1680016763026,1196751380897313,0.0193875,-0.1827375,-0.1188
1680016763028,1196751383399544,0.0224125,-0.1848,-0.117837496
1680016763030,1196751385901933,0.0193875,-0.1918125,-0.1148125
1680016763034,1196751388404164,0.013475,-0.1997875,-0.110825
1680016763038,1196751390906318,0.01045,-0.2068,-0.1078
1680016763040,1196751393408722,0.0094875,-0.2068,-0.110825
1680016763042,1196751395911183,0.0064625,-0.1997875,-0.108899996
1680016763045,1196751398413414,0.0055,-0.19373749,-0.104775
1680016763047,1196751400915568,-0.0015125,-0.18975,-0.10285
1680016763048,1196751403417952,-0.0055,-0.17985,-0.1007875
1680016763051,1196751405920169,-0.0045375,-0.170775,-0.099825
1680016763053,1196751408422323,-0.0075625,-0.1698125,-0.099825
1680016763056,1196751410924785,-0.0094875,-0.16885,-0.0988625
1680016763058,1196751413427169,-0.0105875,-0.1747625,-0.095837496
1680016763060,1196751415929308,-0.0094875,-0.175725,-0.095837496
1680016763063,1196751418431539,-0.0075625,-0.175725,-0.094875
1680016763066,1196751420933693,-0.0075625,-0.17379999,-0.093775
1680016763069,1196751423436077,-0.0045375,-0.16775,-0.094875
1680016763071,1196751425938535,-0.0055,-0.164725,-0.0928125
1680016763075,1196751428440689,-0.0026125,-0.1618375,-0.094875
1680016763078,1196751430942919,-5.5E-4,-0.1527625,-0.095837496
1680016763080,1196751433636472,-0.0026125,-0.14973749,-0.094875
1680016763081,1196751435947549,-0.0026125,-0.143825,-0.0928125
1680016763083,1196751438449703,-0.0026125,-0.143825,-0.095837496
1680016763087,1196751440952087,-0.0015125,-0.1447875,-0.0928125
1680016763089,1196751443454549,-0.003575,-0.142725,-0.0928125
1680016763093,1196751445956775,-0.0055,-0.13475,-0.09185
1680016763093,1196751448458929,-0.0055,-0.1337875,-0.0897875
1680016763096,1196751450961313,-0.0045375,-0.132825,-0.088825
1680016763100,1196751453463544,-0.0066,-0.126775,-0.0878625
1680016763101,1196751455965929,-0.0055,-0.12375,-0.0878625
1680016763103,1196751458468145,-0.0045375,-0.121825,-0.088825
1680016763107,1196751460970530,-0.003575,-0.1258125,-0.0878625
1680016763108,1196751463472684,-0.003575,-0.12485,-0.082775
1680016763112,1196751465974915,-0.0026125,-0.1288375,-0.08085
1680016763115,1196751468477299,-0.003575,-0.131725,-0.082775
1680016763121,1196751470979453,-0.0026125,-0.1337875,-0.0818125
1680016763122,1196751473481915,-0.0075625,-0.12979999,-0.077825
1680016763123,1196751475984145,-0.0055,-0.126775,-0.0759
1680016763124,1196751478486279,-0.0066,-0.1288375,-0.072875
1680016763127,1196751480988664,-0.0066,-0.121825,-0.072875
1680016763128,1196751483490895,-0.0066,-0.12375,-0.0708125
1680016763130,1196751485993048,-0.0066,-0.1258125,-0.06985
1680016763133,1196751488495506,-0.01155,-0.1197625,-0.06985
1680016763136,1196751490997891,-0.01155,-0.117837496,-0.0658625
1680016763138,1196751493500121,-0.01155,-0.115775,-0.064899996
1680016763141,1196751496002275,-0.013612499,-0.109725,-0.0598125
1680016763143,1196751498504640,-0.0155375,-0.106837496,-0.0578875
1680016763147,1196751501006871,-0.014575,-0.10175,-0.0578875
1680016763150,1196751503509332,-0.0155375,-0.098725,-0.0578875
1680016763152,1196751506011486,-0.0155375,-0.093775,-0.0567875
1680016763154,1196751508513881,-0.0155375,-0.0867625,-0.0548625
1680016763157,1196751511016111,-0.0185625,-0.082775,-0.0567875
1680016763159,1196751513518496,-0.0204875,-0.076725,-0.058849998
1680016763161,1196751516020650,-0.025575,-0.0738375,-0.055825
1680016763163,1196751518522881,-0.02255,-0.071775,-0.0567875
1680016763166,1196751521025337,-0.0215875,-0.0677875,-0.061875
1680016763169,1196751523527491,-0.02255,-0.060775,-0.064899996
1680016763171,1196751526029876,-0.0246125,-0.0567875,-0.064899996
1680016763173,1196751528532106,-0.025575,-0.0528,-0.066825
1680016763176,1196751531034260,-0.0275,-0.04675,-0.06985
1680016763178,1196751533536645,-0.0265375,-0.0418,-0.06985
1680016763181,1196751536038876,-0.031625,-0.03575,-0.0688875
1680016763185,1196751538541260,-0.036575,-0.0287375,-0.072875
1680016763188,1196751541043506,-0.036575,-0.027775,-0.0759
1680016763191,1196751543545660,-0.03355,-0.0207625,-0.0768625
1680016763192,1196751546048045,-0.031625,-0.0158125,-0.0787875
1680016763197,1196751548550275,-0.0295625,-0.010725,-0.0818125
1680016763200,1196751551052737,-0.025575,-0.0067375,-0.083875
1680016763201,1196751553554871,-0.0176,-0.005775,-0.0897875
1680016763202,1196751556057255,-0.0155375,-0.0067375,-0.0908875
1680016763204,1196751558559486,-0.008525,-0.011825,-0.09185
1680016763206,1196751561061871,-0.003575,-0.01375,-0.0928125
1680016763209,1196751563564025,-0.0015125,-0.0198,-0.094875
1680016763211,1196751566066496,0.0055,-0.0298375,-0.093775
1680016763213,1196751568568727,0.0064625,-0.0308,-0.0897875
1680016763216,1196751571070881,0.0064625,-0.0308,-0.0878625
1680016763219,1196751573573265,0.0064625,-0.0298375,-0.0858
1680016763222,1196751576075491,0.0055,-0.0287375,-0.0787875
1680016763225,1196751578577645,0.0044,-0.033825,-0.08085
1680016763227,1196751581080030,0.0064625,-0.0317625,-0.0759
1680016763229,1196751583582491,0.0064625,-0.032725,-0.0748
1680016763231,1196751586084626,0.0044,-0.02585,-0.071775
1680016763236,1196751588586857,0.002475,-0.02585,-0.0677875
1680016763238,1196751591089241,0.0055,-0.0298375,-0.066825
1680016763239,1196751593591395,0.0044,-0.0287375,-0.064899996
1680016763241,1196751596093626,0.0064625,-0.0298375,-0.060775
1680016763243,1196751598596083,0.01045,-0.033825,-0.0567875
1680016763247,1196751601098237,0.0114124995,-0.0378125,-0.055825
1680016763248,1196751603600621,0.0144375,-0.038775,-0.0518375
1680016763252,1196751606102852,0.0154,-0.038775,-0.050875
1680016763253,1196751608605237,0.0165,-0.0408375,-0.049775
1680016763257,1196751611107390,0.0165,-0.044825,-0.044825
1680016763258,1196751613609852,0.0165,-0.0427625,-0.0429
1680016763263,1196751616112093,0.0165,-0.0408375,-0.0429
1680016763264,1196751618614247,0.0154,-0.04675,-0.0429
1680016763267,1196751621116631,0.0144375,-0.0488125,-0.0418
1680016763269,1196751623618862,0.0174625,-0.0427625,-0.0408375
1680016763271,1196751626121247,0.0144375,-0.0427625,-0.0408375
1680016763276,1196751628623457,0.0144375,-0.038775,-0.0418
1680016763278,1196751631125842,0.013475,-0.036849998,-0.044825
1680016763279,1196751633627996,0.013475,-0.0378125,-0.047849998
1680016763281,1196751636130227,0.0165,-0.0347875,-0.0438625
1680016763284,1196751638632688,0.0165,-0.0298375,-0.0429
1680016763287,1196751641135073,0.0144375,-0.027775,-0.044825
1680016763289,1196751643637227,0.0193875,-0.0237875,-0.0457875
1680016763291,1196751646139457,0.0224125,-0.021724999,-0.047849998
1680016763293,1196751648641842,0.0193875,-0.0207625,-0.044825
1680016763296,1196751651144093,0.0154,-0.0177375,-0.0457875
1680016763300,1196751653646477,0.0165,-0.0158125,-0.0488125
1680016763302,1196751656148708,0.0165,-0.01485,-0.044825
1680016763304,1196751658650862,0.02145,-0.0127875,-0.044825
1680016763307,1196751661153251,0.0224125,-0.01485,-0.0488125
1680016763309,1196751663655481,0.0165,-0.01375,-0.047849998
1680016763311,1196751666157635,0.02145,-0.010725,-0.044825
1680016763314,1196751668660020,0.023375,-0.0088,-0.0438625
1680016763319,1196751671162496,0.0254375,-0.0097624995,-0.0429
1680016763320,1196751673664650,0.0284625,-0.01375,-0.0418
1680016763322,1196751676166881,0.0374,-0.011825,-0.0418
1680016763324,1196751678669266,0.040425,-0.011825,-0.039875
1680016763327,1196751681171420,0.040425,-0.011825,-0.038775
1680016763329,1196751683673640,0.043449998,-0.0088,-0.036849998
1680016763331,1196751686176102,0.045375,-0.0097624995,-0.0347875
1680016763334,1196751688678486,0.0424875,-0.0097624995,-0.0298375
1680016763338,1196751691180640,0.0444125,-0.0017875,-0.02585
1680016763341,1196751693682890,0.0413875,0.00825,-0.0248875
1680016763343,1196751696185275,0.0424875,0.011275,-0.022824999
1680016763344,1196751698687506,0.0413875,0.0122375,-0.01485
1680016763347,1196751701189890,0.040425,0.0202125,-0.0108624995
1680016763348,1196751703692121,0.0385,0.0281875,-0.011825
1680016763352,1196751706194481,0.0364375,0.03025,-0.006875
1680016763354,1196751708696634,0.0374,0.0342375,1.375E-4
1680016763357,1196751711198865,0.0364375,0.0352,0.0011
1680016763359,1196751713701250,0.0374,0.0391875,0.0022
1680016763361,1196751716203476,0.035475,0.044275,0.0031625
1680016763364,1196751718705860,0.0374,0.0452375,0.0081124995
1680016763367,1196751721208091,0.0364375,0.044275,0.00715
1680016763369,1196751723710245,0.0364375,0.0471625,0.014162499
1680016763371,1196751726212653,0.035475,0.0482625,0.0202125
1680016763375,1196751728714884,0.035475,0.0462,0.0221375
1680016763378,1196751731217269,0.0374,0.0452375,0.0242
1680016763380,1196751733719500,0.035475,0.044275,0.0242
1680016763381,1196751736221860,0.0314875,0.043175,0.027224999
1680016763384,1196751738724014,0.029424999,0.0462,0.02915
1680016763388,1196751741226245,0.0303875,0.041249998,0.0312125
1680016763390,1196751743728629,0.029424999,0.043175,0.0331375
1680016763391,1196751746230860,0.0314875,0.041249998,0.0361625
1680016763395,1196751748733250,0.029424999,0.04015,0.0361625
1680016763397,1196751751235481,0.0254375,0.038225,0.04015
1680016763399,1196751753737865,0.0284625,0.0342375,0.0391875
1680016763402,1196751756240096,0.0303875,0.0342375,0.0411125
1680016763403,1196751758742279,0.0303875,0.027224999,0.04015
1680016763407,1196751761244663,0.0275,0.021175,0.0422125
1680016763408,1196751763747125,0.0275,0.016224999,0.0391875
1680016763413,1196751766249289,0.0284625,0.0202125,0.04015
1680016763415,1196751768751520,0.0264,0.015262499,0.0411125
1680016763417,1196751771253904,0.024475,0.011275,0.038225
1680016763419,1196751773756058,0.0254375,0.005225,0.037125
1680016763421,1196751776258289,0.023375,0.0031625,0.0422125
1680016763423,1196751778760726,0.0204875,0.0031625,0.0411125
1680016763427,1196751781262880,0.0193875,2.75E-4,0.0411125
1680016763429,1196751783765265,0.0174625,0.0031625,0.0422125
1680016763431,1196751786267496,0.013475,0.0012375,0.0422125
1680016763436,1196751788769654,0.0114124995,2.75E-4,0.0441375
1680016763437,1196751791272038,0.0083875,-0.0048125,0.043175
1680016763439,1196751793774500,0.0064625,-0.00385,0.0422125
1680016763441,1196751796276654,0.0064625,-0.00275,0.0422125
1680016763444,1196751798778884,0.0064625,-0.00275,0.043175
1680016763450,1196751801281308,0.0044,-0.0088,0.043175
1680016763451,1196751803783539,0.002475,-0.0097624995,0.0451
1680016763452,1196751806285693,4.125E-4,-0.011825,0.0422125
1680016763454,1196751808788077,-0.0015125,-0.0097624995,0.0422125
1680016763457,1196751811290524,-0.0015125,-0.005775,0.0422125
1680016763459,1196751813792755,-0.0026125,-0.0048125,0.04015
1680016763461,1196751816294908,-0.0026125,-0.00275,0.0422125
1680016763464,1196751818797293,-0.003575,-0.0017875,0.043175
1680016763466,1196751821299524,-0.003575,0.0012375,0.0451
1680016763469,1196751823801664,-0.003575,0.0031625,0.0411125
1680016763471,1196751826304125,-0.0055,0.0061875,0.0411125
1680016763475,1196751828806510,-0.003575,0.011275,0.0391875
1680016763477,1196751831308664,-0.0055,0.011275,0.0411125
1680016763479,1196751833810894,-0.0055,0.0132,0.043175
1680016763481,1196751836313279,-0.0075625,0.0171875,0.0411125
1680016763483,1196751838815433,-0.0125124995,0.01925,0.04015
1680016763489,1196751841317894,-0.014575,0.01815,0.0441375
1680016763491,1196751843820115,-0.013612499,0.01815,0.0451
1680016763492,1196751846322269,-0.0105875,0.022275,0.0451
1680016763494,1196751848824654,-0.008525,0.01925,0.0462
1680016763497,1196751851326884,-0.0066,0.0202125,0.0462
1680016763499,1196751853829057,-0.0026125,0.01925,0.0471625
1680016763501,1196751856331519,0.0034375,0.01925,0.0451
1680016763504,1196751858833904,-5.5E-4,0.022275,0.0451
1680016763506,1196751861336134,-0.003575,0.03025,0.0462
1680016763509,1196751863838288,-0.003575,0.0372625,0.0501875
1680016763511,1196751866340673,-0.003575,0.043175,0.0501875
1680016763514,1196751868842904,-0.0066,0.0482625,0.0532125
1680016763518,1196751871345365,-0.0105875,0.0562375,0.0561
1680016763520,1196751873847510,-0.009625,0.066275,0.0551375
1680016763522,1196751876349895,-0.01155,0.077275,0.0561
1680016763525,1196751878852125,-0.013612499,0.082225,0.0572
1680016763528,1196751881354279,-0.0176,0.0862125,0.0581625
1680016763530,1196751883856664,-0.0165,0.09625,0.0572
1680016763531,1196751886358890,-0.014575,0.100237496,0.0561
1680016763534,1196751888861274,-0.014575,0.1051875,0.0572
1680016763537,1196751891363505,-0.0176,0.1082125,0.0581625
1680016763539,1196751893865659,-0.0185625,0.1122,0.0572
1680016763541,1196751896368014,-0.0185625,0.1161875,0.0561
1680016763544,1196751898870245,-0.020624999,0.1161875,0.054175
1680016763547,1196751901372630,-0.0215875,0.11715,0.054175
1680016763549,1196751903874861,-0.0215875,0.115225,0.0501875
1680016763552,1196751906377245,-0.0215875,0.11715,0.049225
1680016763554,1196751908879476,-0.020624999,0.115225,0.0462
1680016763557,1196751911381630,-0.0185625,0.1051875,0.043175
1680016763559,1196751913884014,-0.0185625,0.1012,0.0422125
1680016763563,1196751916386240,-0.0176,0.0902,0.038225
1680016763565,1196751918888702,-0.0165,0.088275,0.0341
1680016763567,1196751921390856,-0.0155375,0.082225,0.0301125
1680016763569,1196751923893240,-0.01155,0.066275,0.0281875
1680016763571,1196751926395471,-0.013612499,0.055275,0.0251625
1680016763574,1196751928897842,-0.009625,0.0471625,0.0171875
1680016763577,1196751931399996,-0.0075625,0.038225,0.014162499
1680016763579,1196751933902457,-0.0045375,0.0232375,0.0092124995
1680016763581,1196751936404688,-0.0045375,0.014162499,0.004125
1680016763587,1196751938906856,-0.0026125,0.0022,-8.25E-4
1680016763588,1196751941409240,-5.5E-4,-0.005775,-0.00385
1680016763589,1196751943911471,-0.0045375,-0.01375,-0.0099
1680016763591,1196751946413625,-0.003575,-0.0188375,-0.011825
1680016763594,1196751948916086,-0.0075625,-0.0237875,-0.016775
1680016763597,1196751951418485,-0.008525,-0.0308,-0.0237875
1680016763600,1196751953920639,-0.01155,-0.03575,-0.027775
1680016763602,1196751956422870,-0.008525,-0.0457875,-0.0319
1680016763604,1196751958925024,-0.0055,-0.049775,-0.0358875
1680016763607,1196751961427399,-0.0105875,-0.0518375,-0.0418
1680016763609,1196751963929630,-0.008525,-0.054725,-0.0429
1680016763611,1196751966432092,-0.0075625,-0.0628375,-0.0457875
1680016763614,1196751968934245,-0.0045375,-0.066825,-0.050875
1680016763619,1196751971436620,-0.0026125,-0.06875,-0.049775
1680016763624,1196751973938851,-0.0015125,-0.071775,-0.055825
1680016763624,1196751976441235,0.0034375,-0.0738375,-0.0539
1680016763624,1196751978943389,0.0034375,-0.06985,-0.0539
1680016763626,1196751981445866,-5.5E-4,-0.06985,-0.0567875
1680016763628,1196751983948097,4.125E-4,-0.0677875,-0.0578875
1680016763631,1196751986450481,4.125E-4,-0.065725,-0.0578875
1680016763634,1196751988952635,-5.5E-4,-0.0628375,-0.0548625
1680016763638,1196751991454866,-0.0026125,-0.05775,-0.0548625
1680016763640,1196751993957250,-0.003575,-0.0507375,-0.055825
1680016763642,1196751996459481,-0.0045375,-0.044825,-0.0518375
1680016763644,1196751998961866,-0.0066,-0.0347875,-0.0528
1680016763647,1196752001464020,-0.0026125,-0.0237875,-0.0539
1680016763649,1196752003966240,-0.0045375,-0.0188375,-0.0528
1680016763652,1196752006468625,-0.0075625,-0.010725,-0.0518375
1680016763654,1196752008970779,-0.0075625,-0.0048125,-0.0528
1680016763657,1196752011473240,-0.0045375,0.0012375,-0.050875
1680016763659,1196752013975471,-0.0015125,0.00715,-0.050875
1680016763662,1196752016477639,-5.5E-4,0.010175,-0.0539
1680016763664,1196752018980024,-0.0015125,0.016224999,-0.0548625
1680016763667,1196752021482255,0.0034375,0.021175,-0.0518375
1680016763671,1196752023984630,0.0064625,0.027224999,-0.0518375
1680016763672,1196752026486784,0.0083875,0.033275,-0.050875
1680016763676,1196752028989246,0.0094875,0.0361625,-0.050875
1680016763679,1196752031491476,0.0114124995,0.0391875,-0.047849998
1680016763680,1196752034091779,0.01045,0.041249998,-0.0418
1680016763682,1196752036496010,0.012375,0.04015,-0.0438625
1680016763684,1196752038998241,0.0174625,0.0462,-0.0438625
1680016763688,1196752041500625,0.0154,0.05115,-0.0438625
1680016763689,1196752044003087,0.0193875,0.054175,-0.0438625
1680016763691,1196752046505285,0.0174625,0.0581625,-0.0429
1680016763694,1196752049007515,0.024475,0.060225,-0.044825
1680016763697,1196752051509669,0.024475,0.06325,-0.0429
1680016763699,1196752054012054,0.024475,0.066275,-0.0408375
1680016763703,1196752056514261,0.0224125,0.0682,-0.039875
1680016763705,1196752059016645,0.0275,0.0702625,-0.039875
1680016763707,1196752061518876,0.0275,0.0782375,-0.0418
1680016763710,1196752064021261,0.0264,0.0812625,-0.0408375
1680016763717,1196752066523429,0.0264,0.076175,-0.0408375
1680016763720,1196752069025660,0.0275,0.0792,-0.038775
1680016763721,1196752071528045,0.029424999,0.0792,-0.0429
1680016763722,1196752074029275,0.0275,0.0782375,-0.0438625
1680016763722,1196752076530506,0.0303875,0.0782375,-0.0438625
1680016763724,1196752079034905,0.0314875,0.0782375,-0.0418
1680016763727,1196752081537290,0.032449998,0.07425,-0.0408375
1680016763729,1196752084039444,0.029424999,0.07315,-0.0438625
1680016763731,1196752086541674,0.0303875,0.07315,-0.044825
1680016763734,1196752089044136,0.0284625,0.077275,-0.0429
1680016763737,1196752091546525,0.0264,0.0721875,-0.0429
1680016763739,1196752094048679,0.024475,0.071225,-0.0418
1680016763741,1196752096550910,0.0193875,0.07315,-0.0418
1680016763744,1196752099053295,0.013475,0.071225,-0.0418
1680016763747,1196752101555439,0.007425,0.076175,-0.0378125
1680016763750,1196752104057669,0.0064625,0.0812625,-0.036849998
1680016763752,1196752106560131,4.125E-4,0.08415,-0.033825
1680016763755,1196752109062515,-0.0055,0.088275,-0.027775
1680016763758,1196752111564650,-0.01155,0.0941875,-0.027775
1680016763759,1196752114066881,-0.0185625,0.09625,-0.02585
1680016763761,1196752116569035,-0.0246125,0.1012,-0.0198
1680016763764,1196752119071497,-0.0295625,0.1122,-0.01485
1680016763767,1196752121573650,-0.0356125,0.1142625,-0.0088
1680016763770,1196752124076035,-0.0385,0.122237496,-0.0028875
1680016763771,1196752126578266,-0.0466125,0.12925,0.0011
1680016763774,1196752129080650,-0.053625,0.1351625,0.0061875
1680016763777,1196752131582881,-0.0565125,0.148225,0.015125
1680016763781,1196752134085275,-0.0686125,0.15015,0.0171875
1680016763782,1196752136587506,-0.07755,0.15125,0.0231
1680016763784,1196752139089659,-0.0836,0.15619999,0.0312125
1680016763788,1196752141592044,-0.085525,0.159225,0.037125
1680016763792,1196752144094246,-0.0906125,0.165275,0.0422125
1680016763793,1196752146596630,-0.1005125,0.1672,0.049225
1680016763795,1196752149098861,-0.102575,0.165275,0.0581625
1680016763798,1196752151601246,-0.1056,0.1711875,0.065175
1680016763800,1196752154103400,-0.1115125,0.1821875,0.0721875
1680016763803,1196752156605621,-0.118525,0.18315,0.0801625
1680016763804,1196752159108006,-0.1236125,0.1852125,0.0851125
1680016763807,1196752161610237,-0.129525,0.20019999,0.092125
1680016763809,1196752164112621,-0.1375,0.20625,0.103125
1680016763811,1196752166614852,-0.1445125,0.2121625,0.1101375
1680016763814,1196752169117006,-0.1566125,0.2222,0.11715
1680016763817,1196752171619391,-0.1665125,0.2341625,0.1271875
1680016763819,1196752174121621,-0.1725625,0.24419999,0.137225
1680016763821,1196752176624083,-0.1786125,0.25025,0.1452
1680016763825,1196752179126218,-0.18755,0.263175,0.15619999
1680016763828,1196752181628603,-0.195525,0.27225,0.1632125
1680016763830,1196752184130833,-0.1995125,0.2842125,0.17215
1680016763832,1196752186633218,-0.207625,0.29315,0.1821875
1680016763835,1196752189135372,-0.2195875,0.30525,0.192225
1680016763837,1196752191637588,-0.2255,0.3122625,0.2011625
1680016763839,1196752194140049,-0.2365,0.318175,0.2091375
1680016763844,1196752196642203,-0.2446125,0.3232625,0.2211
1680016763845,1196752199144588,-0.2545125,0.33715,0.2321
1680016763847,1196752201646818,-0.267575,0.34814999,0.24213749
1680016763849,1196752204148972,-0.2805,0.3542,0.252175
1680016763854,1196752206651357,-0.2905375,0.36519998,0.2611125
1680016763855,1196752209153818,-0.306625,0.3752375,0.27719998
1680016763857,1196752211655986,-0.31955,0.3862375,0.290125
1680016763859,1196752214158217,-0.333575,0.39421248,0.301125
1680016763863,1196752216660602,-0.34759998,0.40425,0.313225
1680016763864,1196752219162755,-0.3575,0.412225,0.32615
1680016763867,1196752221664967,-0.37661248,0.4241875,0.3421
1680016763869,1196752224167429,-0.38953748,0.428175,0.356125
1680016763872,1196752226669583,-0.410575,0.434225,0.3751
1680016763874,1196752229171967,-0.426525,0.4431625,0.3931125
1680016763877,1196752231674231,-0.4455,0.4522375,0.4052125
1680016763879,1196752234176616,-0.4635125,0.4552625,0.423225
1680016763881,1196752236678769,-0.47753748,0.4632375,0.4431625
1680016763884,1196752239181231,-0.49555,0.46915,0.461175
1680016763887,1196752241683462,-0.5105375,0.47025,0.477125
1680016763889,1196752244185846,-0.525525,0.4712125,0.49513748
1680016763892,1196752246688000,-0.5435375,0.472175,0.5121875
1680016763894,1196752249190231,-0.5555,0.4681875,0.52415
1680016763897,1196752251692616,-0.5665,0.467225,0.5401
1680016763901,1196752254194751,-0.5795625,0.4642,0.55715
1680016763902,1196752256697212,-0.5935875,0.461175,0.571175
1680016763906,1196752259199443,-0.602525,0.462275,0.5841
1680016763908,1196752261701597,-0.6155875,0.4522375,0.5922125
1680016763909,1196752264203981,-0.6285125,0.4492125,0.604175
1680016763911,1196752266706216,-0.6406125,0.4461875,0.6161375
1680016763915,1196752269208370,-0.6535375,0.44715,0.6221875
1680016763918,1196752271710831,-0.6595875,0.45319998,0.6292
1680016763920,1196752274213216,-0.6736125,0.45925,0.6411625
1680016763923,1196752276715375,-0.6835125,0.4602125,0.6491375
1680016763924,1196752279217606,-0.690525,0.4632375,0.65615
1680016763927,1196752281719990,-0.702625,0.4651625,0.66316247
1680016763929,1196752284222144,-0.7165125,0.467225,0.6721
1680016763931,1196752286724606,-0.729575,0.4761625,0.6732
1680016763934,1196752289226828,-0.7396125,0.48427498,0.6831
1680016763938,1196752291729212,-0.7495125,0.49225,0.687225
1680016763940,1196752294231366,-0.76559997,0.4962375,0.692175
1680016763942,1196752296733597,-0.7775625,0.4972,0.69519997
1680016763944,1196752299235971,-0.7915875,0.505175,0.697125
1680016763947,1196752301738433,-0.806575,0.5102625,0.703175
1680016763949,1196752304240587,-0.8206,0.51315,0.709225
1680016763952,1196752306742818,-0.833525,0.5152125,0.7161
1680016763955,1196752309245221,-0.845625,0.517275,0.7172
1680016763957,1196752311747375,-0.856625,0.51919997,0.7211875
1680016763959,1196752314249606,-0.8655625,0.51919997,0.7282
1680016763961,1196752316751990,-0.872575,0.522225,0.7321875
1680016763964,1196752319254221,-0.88054997,0.52525,0.736175
1680016763967,1196752321756625,-0.883575,0.5262125,0.7451125
1680016763969,1196752324258779,-0.8905875,0.5262125,0.752125
1680016763972,1196752326761009,-0.8976,0.52525,0.7561125
1680016763975,1196752329263399,-0.90255,0.5311625,0.7601
1680016763978,1196752331765553,-0.91162497,0.533225,0.7671125
1680016763980,1196752334268014,-0.9196,0.5341875,0.7722
1680016763982,1196752336770245,-0.9266125,0.53515,0.7841625
1680016763984,1196752339272630,-0.93555,0.5412,0.78815
1680016763987,1196752341774770,-0.944625,0.54821247,0.7951625
1680016763989,1196752344277001,-0.9505375,0.5531625,0.802175
1680016763991,1196752346779385,-0.9596125,0.560175,0.8111125
1680016763995,1196752349281847,-0.96854997,0.5671875,0.819225
1680016763997,1196752351784015,-0.976525,0.56925,0.82115
1680016764002,1196752354286245,-0.9816125,0.5742,0.824175
1680016764004,1196752356788630,-0.982575,0.5751625,0.8281625
1680016764007,1196752359290861,-0.987525,0.5781875,0.8331125
1680016764009,1196752361793025,-0.988625,0.57915,0.83709997
1680016764010,1196752364295486,-0.9926125,0.56815,0.835175
1680016764013,1196752366797871,-0.9926125,0.5632,0.8361375
1680016764015,1196752369300025,-0.993575,0.555225,0.8361375
1680016764017,1196752371802245,-0.99756247,0.5432625,0.835175
1680016764019,1196752374304399,-0.99962497,0.528275,0.8361375
1680016764021,1196752376806784,-1.00155,0.51919997,0.83709997
1680016764023,1196752379309245,-1.0036125,0.5082,0.84122497
1680016764026,1196752381811476,-1.004575,0.483175,0.8441125
1680016764029,1196752384313620,-1.0065,0.4651625,0.8452125
1680016764031,1196752386816005,-1.010625,0.43821248,0.846175
1680016764035,1196752389318158,-1.0146124,0.4131875,0.8481
1680016764037,1196752391820389,-1.0175,0.38225,0.8481
1680016764039,1196752394322857,-1.0175,0.3562625,0.852225
1680016764041,1196752396825241,-1.021625,0.3282125,0.8551125
1680016764044,1196752399327395,-1.0296,0.302225,0.857175
1680016764047,1196752401829626,-1.0335875,0.27225,0.8602
1680016764050,1196752404332011,-1.0366125,0.242275,0.8661125
1680016764052,1196752406834241,-1.0476125,0.2121625,0.8701
1680016764054,1196752409336395,-1.0495375,0.1821875,0.8751875
1680016764057,1196752411838857,-1.05655,0.154275,0.8831625
1680016764059,1196752414341241,-1.0635625,0.131175,0.8881125
1680016764061,1196752416843462,-1.0715375,0.1051875,0.8941625
1680016764063,1196752419345616,-1.076625,0.0782375,0.901175
1680016764067,1196752421848001,-1.0795125,0.060225,0.906125
1680016764069,1196752424350155,-1.07855,0.038225,0.9152
1680016764072,1196752426852616,-1.0806125,0.0202125,0.92015
1680016764075,1196752429354847,-1.0855625,-0.0017875,0.9241375
1680016764077,1196752431857001,-1.0846,-0.027775,0.92509997
1680016764079,1196752434359385,-1.0825375,-0.0378125,0.9332125
1680016764082,1196752436861616,-1.0825375,-0.054725,0.9381625
1680016764085,1196752439363751,-1.086525,-0.076725,0.9431125
1680016764089,1196752441866213,-1.087625,-0.0968,0.945175
1680016764092,1196752444368597,-1.08955,-0.1188,0.9491625
1680016764093,1196752446870746,-1.08955,-0.13585,0.9552125
1680016764095,1196752449372977,-1.0935374,-0.154825,0.9601625
1680016764097,1196752451875361,-1.0945,-0.16885,0.9651125
1680016764099,1196752454377592,-1.1005499,-0.187825,0.972125
1680016764102,1196752456879977,-1.1066,-0.209825,0.978175
1680016764104,1196752459382203,-1.1155375,-0.2297625,0.9851875
1680016764107,1196752461884587,-1.1215875,-0.2508,0.9901375
1680016764110,1196752464386818,-1.130525,-0.2737625,0.995225
1680016764112,1196752466888972,-1.1345125,-0.291775,1.0032
1680016764115,1196752469391376,-1.1435875,-0.302775,1.0102125
1680016764118,1196752471893607,-1.1495,-0.32381248,1.0142
1680016764121,1196752474396069,-1.1565125,-0.34375,1.0212125
1680016764123,1196752476898223,-1.1595374,-0.3598375,1.033175
1680016764126,1196752479400583,-1.163525,-0.37675,1.04115
1680016764129,1196752481902814,-1.1616,-0.38885,1.0481625
1680016764131,1196752484404968,-1.164625,-0.39985,1.0561374
1680016764132,1196752486907352,-1.164625,-0.40974998,1.0591625
1680016764135,1196752489409583,-1.16655,-0.4087875,1.0641125
1680016764138,1196752491911963,-1.1686125,-0.4087875,1.0681
1680016764140,1196752494414194,-1.1675125,-0.407825,1.072225
1680016764142,1196752496916347,-1.164625,-0.4057625,1.072225
1680016764144,1196752499418732,-1.164625,-0.4008125,1.0701625
1680016764147,1196752501920963,-1.164625,-0.3947625,1.0692
1680016764149,1196752504423367,-1.1595374,-0.384725,1.0692
1680016764153,1196752506925597,-1.1545875,-0.3727625,1.0692
1680016764155,1196752509427982,-1.1565125,-0.3568125,1.0692
1680016764158,1196752511930213,-1.1495,-0.33673748,1.0641125
1680016764159,1196752514432377,-1.1455125,-0.32175,1.0582
1680016764164,1196752516934761,-1.1385,-0.3018125,1.0511875
1680016764165,1196752519437223,-1.1356125,-0.28875,1.0432125
1680016764168,1196752521939453,-1.1375375,-0.2737625,1.04115
1680016764170,1196752524441607,-1.1325876,-0.253825,1.0371625
1680016764172,1196752526943996,-1.1295625,-0.2297625,1.0351
1680016764175,1196752529446227,-1.1314875,-0.2028125,1.0341375
1680016764177,1196752531948611,-1.136575,-0.17379999,1.038125
1680016764179,1196752534450842,-1.136575,-0.14685,1.039225
1680016764182,1196752536953242,-1.1424875,-0.1167375,1.0481625
1680016764184,1196752539455396,-1.14455,-0.08085,1.0561374
1680016764187,1196752541957626,-1.147575,-0.0537625,1.0612249
1680016764189,1196752544460011,-1.1534874,-0.0287375,1.072225
1680016764192,1196752546962247,-1.1545875,0.0012375,1.083225
1680016764195,1196752549464401,-1.1534874,0.0281875,1.0921625
1680016764197,1196752551966862,-1.1534874,0.0572,1.0982125
1680016764202,1196752554469247,-1.1545875,0.08525,1.1061875
1680016764203,1196752556971391,-1.15555,0.1082125,1.1092125
1680016764205,1196752559473621,-1.15555,0.1302125,1.1141624
1680016764208,1196752561976006,-1.1565125,0.1472625,1.1132
1680016764209,1196752564478160,-1.1565125,0.164175,1.1141624
1680016764212,1196752566980621,-1.152525,0.1791625,1.1111375
