system_ts_ms, sensor_ts_ns, gyrX, gyrY, gyrZ
1679993569873,1173558226009631,-0.0026125,-0.01045,0.016224999
1679993569873,1173558228511784,-0.0066,-0.0125124995,0.0232375
1679993569876,1173558231013861,-0.014712499,-0.01045,0.0262625
1679993569878,1173558233516015,-0.015675,-0.007425,0.0292875
1679993569881,1173558236018164,-0.0176,-0.007425,0.0312125
1679993569897,1173558238520318,-0.0196625,-0.0015125,0.033275
1679993569897,1173558243522241,-0.0187,0.0045375,0.0312125
1679993569898,1173558243669933,-0.0166375,0.0066,0.03025
1679993569898,1173558246026452,-0.015675,0.0066,0.027224999
1679993569898,1173558248528683,-0.0116875,0.0105875,0.0253
1679993569898,1173558251030759,-0.009625,0.01155,0.0232375
1679993569899,1173558253532683,-0.0116875,0.014575,0.01925
1679993569904,1173558256034831,-0.0116875,0.013475,0.0171875
1679993569905,1173558258536908,-0.01265,0.0155375,0.01925
1679993569906,1173558261039062,-0.013612499,0.014575,0.015262499
1679993569908,1173558263541216,-0.015675,0.0176,0.0143
1679993569912,1173558266043370,-0.0176,0.0204875,0.0143
1679993569913,1173558268545288,-0.0166375,0.0265375,0.0122375
1679993569916,1173558271047365,-0.0187,0.0275,0.0103124995
1679993569920,1173558273549596,-0.0187,0.0325875,0.0103124995
1679993569922,1173558276051673,-0.021724999,0.0385,0.0042625
1679993569925,1173558278553813,-0.0246125,0.0396,-6.875E-4
1679993569927,1173558281055737,-0.0226875,0.036575,-0.0077
1679993569930,1173558283557890,-0.02365,0.0405625,-0.0158125
1679993569932,1173558286059967,-0.0246125,0.0435875,-0.014712499
1679993569937,1173558288562183,-0.032725,0.0545875,-0.016775
1679993569937,1173558291064260,-0.0446875,0.0675125,-0.0187
1679993569939,1173558293566414,-0.0466125,0.0765875,-0.0158125
1679993569941,1173558296068337,-0.0506,0.0845625,-0.010725
1679993569943,1173558298570414,-0.0496375,0.085525,-0.0158125
1679993569945,1173558301072568,-0.048675,0.0875875,-0.014712499
1679993569948,1173558303574799,-0.0446875,0.085525,-0.0158125
1679993569953,1173558306076875,-0.043725,0.0895125,-0.0177375
1679993569954,1173558308578799,-0.043725,0.085525,-0.0187
1679993569956,1173558311080952,-0.0386375,0.0785125,-0.0198
1679993569960,1173558313583106,-0.0297,0.0726,-0.0207625
1679993569962,1173558316085183,-0.02365,0.068475,-0.0177375
1679993569964,1173558318587106,-0.0226875,0.0625625,-0.0158125
1679993569966,1173558321089491,-0.0187,0.057475,-0.0158125
1679993569971,1173558323591645,-0.013612499,0.046475,-0.0116875
1679993569972,1173558326093568,-0.0116875,0.0385,-0.0097624995
1679993569973,1173558328595645,-0.0086624995,0.0314875,-0.0077
1679993569976,1173558331097799,-0.010725,0.024475,-0.005775
1679993569979,1173558333599943,-0.0086624995,0.0235125,-0.00275
1679993569981,1173558336102097,-0.0037125,0.014575,-6.875E-4
1679993569988,1173558338604020,-0.0077,0.0015125,2.75E-4
1679993569988,1173558341106174,-0.0066,-0.002475,0.0012375
1679993569988,1173558343608313,-0.0026125,-0.002475,0.0022
1679993569992,1173558346110390,-0.0037125,-0.007425,0.0033
1679993569993,1173558348612313,-0.00165,-0.013475,0.0061875
1679993569997,1173558351114674,-0.0026125,-0.0204875,0.0092124995
1679993569999,1173558353616828,-0.0026125,-0.0224125,0.0092124995
1679993570003,1173558356118751,2.75E-4,-0.0275,0.00825
1679993570004,1173558358620828,-6.875E-4,-0.0275,0.0103124995
1679993570006,1173558361122981,-6.875E-4,-0.0254375,0.00825
1679993570009,1173558363625149,-6.875E-4,-0.0314875,0.0092124995
1679993570012,1173558366127303,0.0023375,-0.0334125,0.0092124995
1679993570013,1173558368629226,0.0044,-0.0334125,0.00825
1679993570016,1173558371131380,0.0033,-0.030524999,0.0072875
1679993570024,1173558373633443,0.001375,-0.0275,0.0103124995
1679993570025,1173558376135597,0.001375,-0.0264,0.0122375
1679993570026,1173558378637520,0.0033,-0.0254375,0.0103124995
1679993570026,1173558381139905,0.006325,-0.02145,0.0122375
1679993570029,1173558383641828,0.0044,-0.018424999,0.0171875
1679993570032,1173558386143991,0.0053625,-0.013475,0.0103124995
1679993570038,1173558388646068,0.0033,-0.0125124995,0.0072875
1679993570038,1173558391148222,0.001375,-0.0094875,0.00825
1679993570039,1173558393650145,0.001375,-0.008525,0.0092124995
1679993570041,1173558396152299,2.75E-4,-0.0055,0.00825
1679993570044,1173558398654453,-0.0026125,-0.0044,0.0072875
1679993570046,1173558401156607,0.0023375,-4.125E-4,0.005225
1679993570048,1173558403658684,0.001375,5.5E-4,0.005225
1679993570053,1173558406160833,-6.875E-4,-4.125E-4,0.005225
1679993570053,1173558408662756,0.001375,-0.0015125,0.0033
1679993570056,1173558411164910,-0.00165,-0.0034375,0.0042625
1679993570061,1173558413667063,-0.0026125,-0.002475,0.0042625
1679993570062,1173558416169140,-0.0026125,-0.0034375,0.005225
1679993570063,1173558418671294,2.75E-4,-0.0055,0.0061875
1679993570065,1173558421173448,2.75E-4,-0.0064625,0.0103124995
1679993570071,1173558423675371,0.0023375,-0.0044,0.005225
1679993570073,1173558426177429,0.001375,-0.0094875,0.0072875
1679993570075,1173558428679660,-6.875E-4,-0.008525,0.0092124995
1679993570077,1173558431181737,2.75E-4,-0.0034375,0.0092124995
1679993570079,1173558433683891,0.001375,-0.0034375,0.0042625
1679993570081,1173558436185814,-0.0026125,-0.007425,0.0042625
1679993570086,1173558438687982,-0.0037125,-0.0064625,0.0042625
1679993570086,1173558441190059,-0.0066,-0.002475,0.0022
1679993570088,1173558443692289,-0.01265,-0.0044,0.0022
1679993570092,1173558446194366,-0.014712499,-0.0055,0.0042625
1679993570094,1173558448696549,-0.01265,-4.125E-4,0.0042625
1679993570095,1173558451198472,-0.014712499,-4.125E-4,0.0022
1679993570099,1173558453700626,-0.0116875,-0.002475,0.0012375
1679993570104,1173558456202703,-0.009625,-4.125E-4,0.0012375
1679993570105,1173558458704857,-0.0116875,-4.125E-4,0.0022
1679993570106,1173558461207006,-0.01265,-0.0034375,0.0012375
1679993570110,1173558463709160,-0.0086624995,-4.125E-4,0.0022
1679993570112,1173558466211083,-0.0077,-4.125E-4,0.0012375
1679993570114,1173558468713236,-0.0077,0.0015125,0.0012375
1679993570119,1173558471215313,-0.0026125,5.5E-4,0.0022
1679993570120,1173558473717467,-0.0037125,-0.0015125,0.0022
1679993570121,1173558476219621,-0.0056375,-0.0034375,0.0042625
1679993570124,1173558478721775,-0.0066,-0.002475,0.005225
1679993570126,1173558481223679,-0.0066,0.0015125,0.0033
1679993570129,1173558483725833,-0.0056375,-4.125E-4,0.005225
1679993570132,1173558486227910,-0.0086624995,-4.125E-4,0.0072875
1679993570138,1173558488730064,-0.009625,-0.002475,0.0061875
1679993570139,1173558491232203,-0.0056375,-0.0055,0.0061875
1679993570141,1173558493734126,-0.0056375,-0.0055,0.0033
1679993570142,1173558496236279,-0.00165,-0.0064625,0.0033
1679993570145,1173558498738433,-6.875E-4,-0.0064625,0.0033
1679993570148,1173558501240573,0.0033,-0.01045,2.75E-4
1679993570149,1173558503742650,0.001375,-0.0125124995,-0.0017875
1679993570153,1173558506244804,0.0023375,-0.0125124995,2.75E-4
1679993570154,1173558508746727,0.0023375,-0.0154,-0.0017875
1679993570156,1173558511248881,0.0033,-0.0154,-0.00275
1679993570158,1173558513750972,0.006325,-0.0174625,-0.0017875
1679993570162,1173558516253203,0.0053625,-0.0204875,-6.875E-4
1679993570164,1173558518755280,0.0053625,-0.024475,-0.0017875
1679993570166,1173558521257433,0.00935,-0.02145,-0.0017875
1679993570172,1173558523759366,0.00935,-0.0284625,-0.00275
1679993570173,1173558526261520,0.0083875,-0.0284625,-0.0037125
1679993570176,1173558528763597,0.006325,-0.024475,-0.005775
1679993570176,1173558531265828,0.006325,-0.0254375,-0.0077
1679993570180,1173558533767876,0.0042625,-0.0224125,-0.0077
1679993570182,1173558536270030,2.75E-4,-0.0264,-0.0088
1679993570186,1173558538771953,-0.00165,-0.0275,-0.010725
1679993570187,1173558541274107,-0.0026125,-0.024475,-0.0116875
1679993570189,1173558543776184,-0.0026125,-0.024475,-0.0116875
1679993570192,1173558546278346,-0.00165,-0.0224125,-0.0116875
1679993570194,1173558548780500,-6.875E-4,-0.0204875,-0.010725
1679993570196,1173558551282423,-6.875E-4,-0.019524999,-0.0116875
1679993570199,1173558553784577,2.75E-4,-0.018424999,-0.0097624995
1679993570202,1173558556286731,0.0042625,-0.0154,-0.0088
1679993570204,1173558558788808,0.0053625,-0.019524999,-0.0097624995
1679993570206,1173558561290731,0.001375,-0.0165,-0.0088
1679993570209,1173558563793116,0.0023375,-0.0165,-0.0097624995
1679993570212,1173558566295280,0.0023375,-0.013475,-0.0088
1679993570214,1173558568797203,0.0042625,-0.0165,-0.0077
1679993570216,1173558571299280,0.0042625,-0.0174625,-0.0088
1679993570220,1173558573801433,0.0023375,-0.013475,-0.0077
1679993570224,1173558576303582,2.75E-4,-0.018424999,-0.005775
1679993570226,1173558578805736,0.0033,-0.0174625,-0.005775
1679993570227,1173558581307659,0.0033,-0.02145,-0.0017875
1679993570229,1173558583809813,2.75E-4,-0.024475,-0.0037125
1679993570232,1173558586311967,0.0023375,-0.0224125,-0.0017875
1679993570237,1173558588814063,0.001375,-0.0254375,-6.875E-4
1679993570237,1173558591315986,0.0033,-0.0254375,-0.00275
1679993570238,1173558593818371,0.0033,-0.0254375,0.0012375
1679993570242,1173558596320524,0.001375,-0.029424999,2.75E-4
1679993570243,1173558598822448,0.0023375,-0.0284625,0.0012375
1679993570246,1173558601324543,0.0072875,-0.0284625,0.0012375
1679993570248,1173558603826697,0.0053625,-0.0284625,0.0033
1679993570253,1173558606328851,0.0042625,-0.032449998,0.0033
1679993570254,1173558608831005,0.0053625,-0.0314875,0.0042625
1679993570256,1173558611332938,0.0053625,-0.0314875,0.0042625
1679993570262,1173558613835092,0.0053625,-0.030524999,0.005225
1679993570263,1173558616337246,0.0042625,-0.0275,0.0072875
1679993570265,1173558618839323,0.0053625,-0.0284625,0.00825
1679993570267,1173558621341236,0.0053625,-0.030524999,0.00825
1679993570269,1173558623843390,0.0053625,-0.0275,0.0092124995
1679993570273,1173558626345774,0.006325,-0.0275,0.0092124995
1679993570274,1173558628847697,0.0033,-0.0284625,0.00825
1679993570276,1173558631349774,0.0033,-0.0224125,0.0072875
1679993570278,1173558633851914,0.0023375,-0.0224125,0.0061875
1679993570282,1173558636354068,0.0033,-0.0204875,0.005225
1679993570284,1173558638855991,2.75E-4,-0.02145,0.0042625
1679993570286,1173558641358145,2.75E-4,-0.0154,0.0033
1679993570288,1173558643860284,-0.00165,-0.0174625,0.0033
1679993570292,1173558646362361,-0.0037125,-0.0165,0.0022
1679993570293,1173558648864515,-0.0037125,-0.0154,0.0022
1679993570297,1173558651366434,-0.0056375,-0.0165,2.75E-4
1679993570300,1173558653868588,-0.0067375,-0.0174625,2.75E-4
1679993570303,1173558656370741,-0.00165,-0.0144375,0.0012375
1679993570304,1173558658872895,-0.0026125,-0.013475,0.0012375
1679993570306,1173558661374972,-0.0056375,-0.0154,-6.875E-4
1679993570309,1173558663877150,-0.0037125,-0.0165,0.0012375
1679993570312,1173558666379073,-0.0037125,-0.0154,-6.875E-4
1679993570314,1173558668881227,-0.0037125,-0.0165,-0.0017875
1679993570316,1173558671383381,-0.0037125,-0.0174625,-6.875E-4
1679993570319,1173558673885549,-0.0037125,-0.0165,-0.0017875
1679993570322,1173558676387626,-0.0037125,-0.0174625,-0.0048125
1679993570324,1173558678889779,-0.0026125,-0.0204875,-0.0037125
1679993570326,1173558681391703,-0.0026125,-0.019524999,-0.0017875
1679993570329,1173558683893861,-6.875E-4,-0.024475,-0.00275
1679993570332,1173558686395938,-6.875E-4,-0.024475,-0.005775
1679993570335,1173558688898169,2.75E-4,-0.0275,-0.00275
1679993570337,1173558691400246,0.0023375,-0.0254375,-6.875E-4
1679993570342,1173558693902159,0.0033,-0.0284625,-6.875E-4
1679993570344,1173558696404313,0.006325,-0.0275,2.75E-4
1679993570346,1173558698906467,0.0053625,-0.029424999,2.75E-4
1679993570347,1173558701408544,0.006325,-0.0284625,0.0022
1679993570349,1173558703910698,0.0083875,-0.0345125,2.75E-4
1679993570352,1173558706412875,0.0083875,-0.0364375,-0.0017875
1679993570353,1173558708915029,0.0103124995,-0.0374,2.75E-4
1679993570357,1173558711416952,0.0133375,-0.041525,-0.00275
1679993570360,1173558713919029,0.0143,-0.0455125,-0.0037125
1679993570362,1173558716421270,0.0182875,-0.0474375,-0.0037125
1679993570364,1173558718923347,0.0182875,-0.0495,-0.0037125
1679993570366,1173558721425501,0.0182875,-0.0474375,-0.00275
1679993570369,1173558723927424,0.02035,-0.052525,-0.00275
1679993570374,1173558726429563,0.017324999,-0.052525,-0.0017875
1679993570375,1173558728931717,0.017324999,-0.0554125,-0.00275
1679993570377,1173558731433870,0.0193875,-0.054449998,-0.0017875
1679993570380,1173558733935947,0.0193875,-0.054449998,-6.875E-4
1679993570383,1173558736438101,0.017324999,-0.0554125,-6.875E-4
1679993570384,1173558738940010,0.0193875,-0.0534875,-6.875E-4
1679993570386,1173558741442164,0.022275,-0.054449998,0.0012375
1679993570389,1173558743944318,0.02035,-0.0584375,-0.0017875
1679993570393,1173558746446472,0.017324999,-0.0534875,-0.00275
1679993570394,1173558748948549,0.017324999,-0.051425,-6.875E-4
1679993570396,1173558751450491,0.02035,-0.0534875,2.75E-4
1679993570399,1173558753952645,0.022275,-0.054449998,0.0022
1679993570402,1173558756454799,0.023375,-0.054449998,2.75E-4
1679993570404,1173558758956952,0.0253,-0.0605,-6.875E-4
1679993570406,1173558761458994,0.0243375,-0.0644875,-0.00275
1679993570410,1173558763961148,0.0262625,-0.068475,-0.0077
1679993570413,1173558766463302,0.0292875,-0.068475,-0.0158125
1679993570416,1173558768965225,0.0273625,-0.0724625,-0.0226875
1679993570416,1173558771467302,0.0253,-0.0814,-0.02475
1679993570419,1173558773969456,0.0262625,-0.0834625,-0.02475
1679993570422,1173558776471687,0.0273625,-0.084425,-0.0207625
1679993570424,1173558778973764,0.0303875,-0.0884125,-0.0198
1679993570426,1173558781475687,0.033275,-0.0935,-0.0158125
1679993570429,1173558783977812,0.0323125,-0.0974875,-0.0116875
1679993570432,1173558786479965,0.03135,-0.095425,-0.005775
1679993570434,1173558788982042,0.0262625,-0.096525,-0.0017875
1679993570436,1173558791484196,0.0292875,-0.09845,-0.00275
1679993570439,1173558793986326,0.0323125,-0.1005125,-0.0037125
1679993570442,1173558796488480,0.034375,-0.0994125,-0.00275
1679993570444,1173558798990403,0.0353375,-0.102437496,-0.00275
1679993570448,1173558801492480,0.034375,-0.101475,-0.0048125
1679993570449,1173558803994668,0.0353375,-0.102437496,-0.010725
1679993570452,1173558806496899,0.0363,-0.102437496,-0.0127875
1679993570454,1173558808998976,0.0363,-0.09845,-0.016775
1679993570456,1173558811500899,0.0353375,-0.0994125,-0.0187
1679993570460,1173558814003086,0.033275,-0.1005125,-0.0187
1679993570462,1173558816505240,0.0372625,-0.104499996,-0.0187
1679993570464,1173558819007317,0.0402875,-0.1034,-0.0198
1679993570466,1173558821509471,0.0433125,-0.104499996,-0.021724999
1679993570469,1173558824011625,0.044275,-0.1054625,-0.02475
1679993570473,1173558826513774,0.044275,-0.10945,-0.0287375
1679993570475,1173558829015697,0.0482625,-0.118525,-0.0297
1679993570476,1173558831517774,0.0482625,-0.1144,-0.0287375
1679993570479,1173558834019928,0.0493625,-0.112475,-0.0297
1679993570482,1173558836522148,0.0512875,-0.1194875,-0.0317625
1679993570486,1173558839024225,0.0512875,-0.12045,-0.0287375
1679993570487,1173558841526148,0.05335,-0.12045,-0.0268125
1679993570489,1173558844028302,0.05335,-0.1265,-0.0226875
1679993570494,1173558846530456,0.050325,-0.1324125,-0.0207625
1679993570497,1173558849032533,0.0543125,-0.134475,-0.0226875
1679993570501,1173558851534456,0.0543125,-0.1464375,-0.0257125
1679993570501,1173558854036841,0.0543125,-0.1555125,-0.027775
1679993570502,1173558856538995,0.056375,-0.167475,-0.0287375
1679993570504,1173558859040928,0.0592625,-0.1775125,-0.032725
1679993570506,1173558861543005,0.0583,-0.184525,-0.032725
1679993570509,1173558864045158,0.0573375,-0.195525,-0.032725
1679993570512,1173558866547082,0.0622875,-0.2035,-0.0317625
1679993570514,1173558869049485,0.0603625,-0.206525,-0.0347875
1679993570516,1173558871551408,0.0592625,-0.206525,-0.0378125
1679993570519,1173558874053562,0.055275,-0.2134,-0.0378125
1679993570523,1173558876555625,0.044275,-0.217525,-0.038775
1679993570526,1173558879057779,0.0413875,-0.2154625,-0.0367125
1679993570527,1173558881559702,0.039325,-0.2124375,-0.038775
1679993570529,1173558884062087,0.0323125,-0.2134,-0.0407
1679993570532,1173558886564010,0.0273625,-0.2074875,-0.0446875
1679993570534,1173558889066149,0.022275,-0.2035,-0.0528
1679993570536,1173558891568225,0.011275,-0.1995125,-0.060775
1679993570540,1173558894070379,0.006325,-0.194425,-0.0708125
1679993570543,1173558896572302,2.75E-4,-0.184525,-0.082775
1679993570544,1173558899074687,-0.0116875,-0.1764125,-0.09075
1679993570547,1173558901576639,-0.0257125,-0.167475,-0.1067
1679993570549,1173558904078793,-0.0356125,-0.1544125,-0.117699996
1679993570552,1173558906580870,-0.0466125,-0.151525,-0.1247125
1679993570553,1173558909083024,-0.0496375,-0.150425,-0.1337875
1679993570556,1173558911584966,-0.048675,-0.145475,-0.1397
1679993570560,1173558914087350,-0.0446875,-0.1464375,-0.1408
1679993570563,1173558916589274,-0.0397375,-0.150425,-0.137775
1679993570564,1173558919091427,-0.0287375,-0.151525,-0.1337875
1679993570566,1173558921593499,-0.0187,-0.14739999,-0.1227875
1679993570569,1173558924095653,-0.013612499,-0.1414875,-0.117699996
1679993570573,1173558926597576,-0.0026125,-0.1364,-0.1057375
1679993570576,1173558929099730,0.0023375,-0.13145,-0.0996875
1679993570577,1173558931601889,0.006325,-0.117425,-0.09075
1679993570580,1173558934103966,0.0083875,-0.1115125,-0.0807125
1679993570582,1173558936606120,0.0103124995,-0.104499996,-0.073699996
1679993570584,1173558939108274,0.011275,-0.09845,-0.065725
1679993570586,1173558941610427,0.0103124995,-0.0935,-0.065725
1679993570589,1173558944112591,0.0072875,-0.085525,-0.0647625
1679993570592,1173558946614514,0.006325,-0.0814,-0.0647625
1679993570594,1173558949116591,0.001375,-0.0785125,-0.0666875
1679993570597,1173558951618750,-0.00165,-0.07645,-0.071775
1679993570599,1173558954120904,-0.00165,-0.0754875,-0.0776875
1679993570602,1173558956623058,-0.0037125,-0.0724625,-0.0807125
1679993570604,1173558959124981,-0.0056375,-0.068475,-0.0847
1679993570606,1173558961627135,-0.009625,-0.0664125,-0.0847
1679993570609,1173558964129303,-0.01265,-0.0675125,-0.0837375
1679993570615,1173558966631380,-0.013612499,-0.06545,-0.0807125
1679993570615,1173558969133303,-0.013612499,-0.06545,-0.071775
1679993570616,1173558971635687,-0.015675,-0.0694375,-0.054725
1679993570620,1173558974137826,-0.01265,-0.0694375,-0.0378125
1679993570623,1173558976639749,-0.0077,-0.0675125,-0.02475
1679993570625,1173558979141826,-0.0037125,-0.0605,-0.0177375
1679993570627,1173558981643980,-6.875E-4,-0.057475,-0.0127875
1679993570629,1173558984146134,0.0053625,-0.051425,-0.0127875
1679993570632,1173558986648269,0.001375,-0.0455125,-0.016775
1679993570635,1173558989150192,-0.0077,-0.0455125,-0.0177375
1679993570637,1173558991652346,-0.010725,-0.0474375,-0.014712499
1679993570639,1173558994154499,-0.014712499,-0.051425,-0.014712499
1679993570643,1173558996656600,-0.016775,-0.0589875,-0.012925
1679993570644,1173558999158523,-0.016775,-0.0559625,-0.0099
1679993570646,1173559001660677,-0.01375,-0.050875,-0.006875
1679993570648,1173559004163062,-0.014712499,-0.04895,-0.0059125
1679993570652,1173559006664980,-0.0177375,-0.0449625,0.0011
1679993570654,1173559009167057,-0.0177375,-0.039875,0.004125
1679993570656,1173559011669211,-0.0196625,-0.033,0.00605
1679993570659,1173559014171365,-0.0187,-0.0229625,0.0111375
1679993570662,1173559016673284,-0.016775,-0.0209,0.0121
1679993570664,1173559019175668,-0.014712499,-0.0248875,0.0081124995
1679993570666,1173559021677591,-0.0116875,-0.017875,0.00605
1679993570669,1173559024179668,-0.0077,-0.018975,0.0031625
1679993570674,1173559026681774,-0.00165,-0.0229625,1.375E-4
1679993570675,1173559029183697,0.0023375,-0.0279125,1.375E-4
1679993570677,1173559031685851,0.005225,-0.0229625,-0.00385
1679993570679,1173559034188005,0.0042625,-0.0229625,-0.0059125
1679993570682,1173559036690159,0.0042625,-0.0209,-0.0078375
1679993570684,1173559039192317,0.0023375,-0.0209,-0.0078375
1679993570687,1173559041694394,2.75E-4,-0.0209,-0.0099
1679993570689,1173559044196317,-6.875E-4,-0.018975,-0.0089375
1679993570693,1173559046698471,-0.005775,-0.0138875,-0.0078375
1679993570694,1173559049200855,-0.010725,-0.012925,-0.00385
1679993570697,1173559051702773,-0.010725,-0.012925,-0.001925
1679993570700,1173559054204850,-0.0077,-0.0149875,1.375E-4
1679993570702,1173559056707004,-0.0067375,-0.0119624995,0.0031625
1679993570704,1173559059209158,-0.0037125,-0.0099,0.004125
1679993570707,1173559061711081,-0.0037125,-0.007975,-9.625E-4
1679993570710,1173559064213235,-0.0086624995,-0.00495,-0.0078375
1679993570713,1173559066715389,-0.0097624995,-0.007975,-0.017875
1679993570714,1173559069217543,-0.010725,-0.0089375,-0.0298375
1679993570717,1173559071719596,-0.014712499,-0.0149875,-0.039875
1679993570720,1173559074221519,-0.015675,-0.0199375,-0.0539
1679993570723,1173559076723672,-0.016775,-0.0259875,-0.056925
1679993570725,1173559079225826,-0.014712499,-0.0309375,-0.056925
1679993570727,1173559081727976,-0.01265,-0.0389125,-0.050875
1679993570729,1173559084230053,-0.0086624995,-0.0429,-0.0429
1679993570732,1173559086732207,-0.00165,-0.0419375,-0.0328625
1679993570734,1173559089234361,0.0033,-0.0369875,-0.0209
1679993570736,1173559091736284,0.006325,-0.03795,-0.0108624995
1679993570740,1173559094238365,0.0103124995,-0.0309375,1.375E-4
1679993570743,1173559096740596,0.015262499,-0.028875,0.00715
1679993570744,1173559099242749,0.017324999,-0.028875,0.0121
1679993570747,1173559101744837,0.01925,-0.02695,0.0160875
1679993570750,1173559104246991,0.01925,-0.0248875,0.01705
1679993570752,1173559106748914,0.0182875,-0.0209,0.013062499
1679993570754,1173559109251068,0.017324999,-0.018975,0.013062499
1679993570756,1173559111753222,0.017324999,-0.0209,0.0100375
1679993570759,1173559114255289,0.0182875,-0.018975,0.0081124995
1679993570762,1173559116757443,0.016224999,-0.0209,0.00605
1679993570764,1173559119259597,0.015262499,-0.0199375,0.0050875
1679993570767,1173559121761520,0.0133375,-0.018975,0.0020625
1679993570769,1173559124263689,0.0133375,-0.0119624995,-0.001925
1679993570773,1173559126765842,0.0072875,-0.0119624995,1.375E-4
1679993570774,1173559129267996,0.00825,-0.0149875,1.375E-4
1679993570776,1173559131770073,0.00825,-0.011,-0.001925
1679993570780,1173559134272227,0.00935,-0.007975,-0.00385
1679993570782,1173559136774150,0.0133375,-0.007975,-0.001925
1679993570786,1173559139276227,0.00825,-0.0099,-9.625E-4
1679993570788,1173559141778458,0.00825,-0.007975,0.0011
1679993570789,1173559144280607,0.00935,-0.0099,0.0011
1679993570793,1173559146782684,0.011275,-0.0119624995,0.0031625
1679993570794,1173559149284607,0.00825,-0.012925,0.0020625
1679993570797,1173559151786761,0.0133375,-0.01595,0.004125
1679993570800,1173559154288914,0.015262499,-0.0138875,0.0081124995
1679993570802,1173559156790996,0.00935,-0.0138875,0.00715
1679993570804,1173559159293150,0.0042625,-0.01595,0.0020625
1679993570807,1173559161795304,0.0072875,-0.018975,0.0020625
1679993570810,1173559164297458,0.005225,-0.022,0.0020625
1679993570812,1173559166799385,0.0033,-0.0248875,1.375E-4
1679993570814,1173559169301539,0.0042625,-0.0229625,1.375E-4
1679993570816,1173559171803693,0.0033,-0.0209,0.0011
1679993570820,1173559174305770,0.0042625,-0.0229625,-0.0028875
1679993570827,1173559176807928,0.0012375,-0.0259875,-0.00385
1679993570827,1173559179309852,-0.00275,-0.028875,-0.001925
1679993570828,1173559181812005,-0.00275,-0.0259875,-0.0028875
1679993570830,1173559184314159,-0.00165,-0.0199375,1.375E-4
1679993570833,1173559186816323,-6.875E-4,-0.022,-0.001925
1679993570835,1173559189318400,-0.00165,-0.0248875,0.0011
1679993570836,1173559191820554,-0.00165,-0.02695,-0.00495
1679993570839,1173559194322477,-0.00275,-0.02695,-0.00385
1679993570842,1173559196824573,-0.00275,-0.0248875,-0.0059125
1679993570844,1173559199326804,-0.00165,-0.0248875,-0.00385
1679993570847,1173559201828958,-0.00275,-0.02695,-0.0028875
1679993570849,1173559204331034,-0.0037125,-0.0259875,-0.00385
1679993570852,1173559206832953,-0.0037125,-0.0229625,-0.001925
1679993570854,1173559209335106,-0.0037125,-0.022,-0.00385
1679993570857,1173559211837260,-0.0077,-0.0248875,-0.00495
1679993570861,1173559214339414,-0.0037125,-0.022,-0.006875
1679993570863,1173559216841558,-0.00165,-0.017875,-0.0028875
1679993570865,1173559219387635,-0.0037125,-0.0199375,-0.00385
1679993570867,1173559221845789,-0.0037125,-0.01595,-0.00495
1679993570869,1173559224347943,-0.0037125,-0.0169125,-0.0108624995
1679993570872,1173559226849890,-0.0037125,-0.0169125,-0.006875
1679993570874,1173559229352044,-0.0067375,-0.0199375,-0.0059125
1679993570876,1173559231854197,-0.0037125,-0.022,-0.0099
1679993570879,1173559234356351,-0.0067375,-0.0199375,-0.006875
1679993570882,1173559236858424,-0.0077,-0.017875,-0.0059125
1679993570884,1173559239360347,-0.005775,-0.0138875,-0.0089375
1679993570886,1173559241862501,-0.00275,-0.0169125,-0.0099
1679993570889,1173559244364655,-0.0037125,-0.017875,-0.0089375
1679993570892,1173559246866809,-0.0097624995,-0.0149875,-0.0089375
1679993570894,1173559249368890,-0.0077,-0.0169125,-0.0099
1679993570898,1173559251871044,-0.0086624995,-0.017875,-0.0099
1679993570900,1173559254372967,-0.0077,-0.0138875,-0.0089375
1679993570903,1173559256875120,-0.005775,-0.01595,-0.0099
1679993570905,1173559259377211,-0.0086624995,-0.017875,-0.0099
1679993570907,1173559261879442,-0.0097624995,-0.0169125,-0.0108624995
1679993570909,1173559264381519,-0.0037125,-0.017875,-0.0108624995
1679993570912,1173559266883673,-0.0086624995,-0.0169125,-0.0089375
1679993570915,1173559269385596,-0.0077,-0.017875,-0.0108624995
1679993570917,1173559271887735,-0.0067375,-0.0199375,-0.0108624995
1679993570919,1173559274389812,-0.0067375,-0.018975,-0.0099
1679993570923,1173559276892043,-0.005775,-0.017875,-0.012925
1679993570925,1173559279394120,-0.0077,-0.017875,-0.012925
1679993570926,1173559281896273,-0.0086624995,-0.012925,-0.012925
1679993570928,1173559284398187,-0.0086624995,-0.0138875,-0.0108624995
1679993570932,1173559286900341,-0.0077,-0.0149875,-0.012925
1679993570936,1173559289402495,-0.0086624995,-0.0138875,-0.01485
1679993570937,1173559291904634,-0.0037125,-0.0149875,-0.0108624995
1679993570940,1173559294406711,-0.00275,-0.0169125,-0.0108624995
1679993570943,1173559296908865,-0.0067375,-0.0138875,-0.01485
1679993570944,1173559299411019,-0.0067375,-0.0119624995,-0.012925
1679993570946,1173559301912942,-0.005775,-0.0149875,-0.0099
1679993570949,1173559304415019,-0.0067375,-0.0089375,-0.0099
1679993570952,1173559306917173,-0.0067375,-0.0119624995,-0.0108624995
1679993570954,1173559309419403,-0.0037125,-0.012925,-0.0119624995
1679993570956,1173559311921480,-0.00165,-0.012925,-0.0108624995
1679993570959,1173559314423403,-0.00165,-0.012925,-0.0119624995
1679993570962,1173559316925557,-0.00165,-0.0099,-0.0108624995
1679993570964,1173559319427711,-0.00275,-0.0089375,-0.012925
1679993570967,1173559321929788,-0.00165,-0.0089375,-0.012925
1679993570969,1173559324432000,-0.00165,-0.0099,-0.0089375
1679993570974,1173559326934077,-0.0037125,-0.006875,-0.0099
1679993570977,1173559329436231,2.75E-4,-0.00495,-0.0108624995
1679993570978,1173559331938154,-6.875E-4,-0.0059125,-0.0059125
1679993570980,1173559334440221,-0.00165,-0.0039875,-0.0078375
1679993570983,1173559336942374,-0.00165,0.0011,-0.0119624995
1679993570985,1173559339444605,-0.00165,0.0,-0.0089375
1679993570987,1173559341946682,-0.0037125,-0.001925,-0.00495
1679993570989,1173559344448836,-0.00165,-0.001925,-0.00495
1679993570992,1173559346950740,-0.0037125,0.0020625,-0.006875
1679993570994,1173559349452894,-0.0067375,0.004125,-0.00495
1679993570997,1173559351954971,-0.0037125,0.0011,-0.006875
1679993570999,1173559354457202,-0.00275,0.0011,-0.00495
1679993571002,1173559356959259,-0.005775,0.003025,-0.006875
1679993571004,1173559359461183,-6.875E-4,0.013062499,-0.006875
1679993571007,1173559361963336,2.75E-4,0.0050875,-0.006875
1679993571011,1173559364465490,-0.00165,0.0020625,-0.006875
1679993571013,1173559366967581,-0.00165,0.0050875,-0.0089375
1679993571015,1173559369469735,0.0012375,0.0,-0.0089375
1679993571017,1173559371971889,0.0012375,0.004125,-0.00495
1679993571020,1173559374474043,0.0012375,0.004125,-0.0059125
1679993571023,1173559376975966,-6.875E-4,0.0050875,-0.0059125
1679993571025,1173559379478043,-0.00165,0.00605,-0.00495
1679993571027,1173559381980197,-0.0037125,0.004125,-0.0089375
1679993571029,1173559384482350,-0.00165,0.009075,-0.0089375
1679993571032,1173559386984504,2.75E-4,0.009075,-0.006875
1679993571034,1173559389486668,-0.00275,0.011,-0.0108624995
1679993571037,1173559391988591,-6.875E-4,0.013062499,-0.0099
1679993571040,1173559394490668,-6.875E-4,0.015125,-0.0119624995
1679993571043,1173559396992899,-0.00165,0.0160875,-0.0119624995
1679993571044,1173559399495043,-0.005775,0.015125,-0.0089375
1679993571048,1173559401997120,-6.875E-4,0.0180125,-0.0089375
1679993571050,1173559404499043,-0.00165,0.020075,-0.0099
1679993571052,1173559407001197,-0.0067375,0.0210375,-0.012925
1679993571054,1173559409503385,-0.0037125,0.0290125,-0.012925
1679993571056,1173559412005538,-0.0086624995,0.02805,-0.0099
1679993571060,1173559414507615,-0.0086624995,0.0290125,-0.0108624995
1679993571063,1173559417009769,-0.0067375,0.031075,-0.0089375
1679993571064,1173559419511937,-0.0097624995,0.0301125,-0.0089375
1679993571067,1173559422013860,-0.0097624995,0.036025,-0.0089375
1679993571069,1173559424515937,-0.010725,0.037125,-0.0078375
1679993571072,1173559427018168,-0.01375,0.036025,-0.0078375
1679993571074,1173559429520322,-0.0097624995,0.0380875,-0.0059125
1679993571077,1173559432022371,-0.0097624995,0.0341,-0.0028875
1679993571081,1173559434524524,-0.0097624995,0.0341,-0.00385
1679993571082,1173559437026448,-0.0097624995,0.037125,-0.0028875
1679993571088,1173559439528621,-0.010725,0.0341,-0.00385
1679993571089,1173559442030775,-0.010725,0.0350625,-0.0028875
1679993571090,1173559444532929,-0.010725,0.0320375,1.375E-4
1679993571093,1173559447035006,-0.010725,0.031075,-9.625E-4
1679993571095,1173559449537160,-0.010725,0.031075,0.0011
1679993571097,1173559452039092,-0.010725,0.02805,0.0031625
1679993571100,1173559454541246,-0.010725,0.02805,0.004125
1679993571103,1173559457043400,-0.0097624995,0.0290125,0.0020625
1679993571105,1173559459545477,-0.0116875,0.0240625,0.004125
1679993571107,1173559462047640,-0.0116875,0.0231,0.0050875
1679993571110,1173559464549794,-0.0116875,0.022,0.004125
1679993571113,1173559467051717,-0.010725,0.0240625,0.00605
1679993571114,1173559469553871,-0.01265,0.026124999,0.0050875
1679993571117,1173559472055948,-0.01375,0.026124999,0.0050875
1679993571120,1173559474558184,-0.0116875,0.020075,0.004125
1679993571125,1173559477060338,-0.0097624995,0.022,0.0050875
1679993571126,1173559479562415,-0.010725,0.0210375,0.00605
1679993571128,1173559482064371,-0.0097624995,0.0191125,0.0031625
1679993571129,1173559484566525,-0.0116875,0.020075,0.0031625
1679993571132,1173559487068679,-0.01265,0.0191125,0.004125
1679993571134,1173559489570832,-0.0097624995,0.01705,0.0011
1679993571136,1173559492072909,-0.0077,0.015125,-9.625E-4
1679993571140,1173559494575083,-0.010725,0.020075,-9.625E-4
1679993571143,1173559497077237,-0.010725,0.0191125,-0.0028875
1679993571145,1173559499579160,-0.0086624995,0.0160875,-9.625E-4
1679993571147,1173559502081237,-0.0097624995,0.015125,-0.00495
1679993571150,1173559504583468,-0.0086624995,0.014025,-0.00495
1679993571153,1173559507085622,-0.0097624995,0.0050875,-0.0028875
1679993571154,1173559509587699,-0.0037125,0.0100375,-0.006875
1679993571158,1173559512089622,-0.005775,0.0050875,-0.0059125
1679993571161,1173559514591775,-0.0097624995,0.009075,-0.006875
1679993571164,1173559517093851,-0.0077,0.0050875,-0.00385
1679993571165,1173559519596082,-0.0077,0.003025,-0.00495
1679993571167,1173559522098159,-0.0086624995,0.003025,-0.00495
1679993571169,1173559524600313,-0.010725,0.003025,-0.00495
1679993571172,1173559527102256,-0.0077,-0.001925,-0.0059125
1679993571174,1173559529604410,-0.0086624995,-0.0028875,-0.00385
1679993571177,1173559532106564,-0.0097624995,-0.00495,-0.001925
1679993571180,1173559534608641,-0.0037125,-0.0039875,-0.0028875
1679993571183,1173559537110790,-0.005775,-0.0039875,-0.00385
1679993571184,1173559539612943,-0.0097624995,-0.00495,-0.00385
1679993571187,1173559542115097,-0.0067375,-0.001925,-9.625E-4
1679993571189,1173559544617020,-0.00165,0.0,-0.0028875
1679993571192,1173559547119106,-6.875E-4,0.0,-0.001925
1679993571194,1173559549621260,-0.00165,0.0011,0.0011
1679993571199,1173559552123491,-0.0077,-0.001925,-9.625E-4
1679993571200,1173559554625568,-0.0067375,-0.0028875,-9.625E-4
1679993571203,1173559557127727,-0.00275,-0.0059125,1.375E-4
1679993571204,1173559559629650,-0.0067375,-0.0028875,1.375E-4
1679993571207,1173559562131804,-0.0077,0.0020625,1.375E-4
1679993571209,1173559564633881,-0.0086624995,-9.625E-4,0.0011
1679993571212,1173559567136111,-0.0086624995,-9.625E-4,1.375E-4
1679993571214,1173559569638179,-0.0037125,0.003025,0.0020625
1679993571217,1173559572140333,-0.005775,0.0070125,0.0011
1679993571219,1173559574642256,-0.0067375,0.0050875,0.0011
1679993571223,1173559577144410,-0.0086624995,0.0070125,1.375E-4
1679993571225,1173559579646453,-0.0086624995,0.0050875,0.0011
1679993571227,1173559582148684,-0.0077,0.004125,0.004125
1679993571229,1173559584650761,-0.0077,0.00605,0.004125
1679993571232,1173559587152915,-0.010725,0.0070125,0.0020625
1679993571236,1173559589654809,-0.010725,0.009075,0.004125
1679993571237,1173559592156962,-0.0097624995,0.0100375,0.0050875
1679993571239,1173559594659039,-0.0116875,0.009075,0.004125
1679993571242,1173559597161270,-0.01265,0.009075,0.0031625
1679993571244,1173559599663347,-0.015675,0.009075,0.00605
1679993571247,1173559602165510,-0.014712499,0.0070125,0.00605
1679993571249,1173559604667433,-0.015675,0.0070125,0.004125
1679993571253,1173559607169587,-0.015675,0.00605,0.004125
1679993571254,1173559609671741,-0.015675,0.0050875,0.0031625
1679993571257,1173559612173803,-0.01375,0.0050875,0.0081124995
1679993571259,1173559614675956,-0.014712499,0.0050875,0.00715
1679993571262,1173559617177880,-0.01375,0.0011,0.00715
1679993571264,1173559619680033,-0.01375,-0.001925,0.0050875
1679993571267,1173559622182187,-0.0116875,-0.001925,0.004125
1679993571269,1173559624684341,-0.014712499,-0.0028875,0.00715
1679993571273,1173559627186418,-0.015675,-0.001925,0.009075
1679993571277,1173559629688572,-0.0116875,-0.0028875,0.0081124995
1679993571277,1173559632190495,-0.0086624995,-0.006875,0.009075
1679993571279,1173559634692635,-0.0116875,-0.007975,0.009075
1679993571282,1173559637194789,-0.01375,-0.0099,0.0050875
1679993571284,1173559639696943,-0.0086624995,-0.007975,0.0031625
1679993571287,1173559642199019,-0.005775,-0.0099,0.0081124995
1679993571289,1173559644701158,-0.0086624995,-0.0119624995,0.00605
1679993571292,1173559647203312,-0.0097624995,-0.0089375,0.0050875
1679993571294,1173559649705235,-0.0097624995,-0.00495,0.0050875
1679993571297,1173559652207312,-0.0077,-0.0028875,0.00605
1679993571299,1173559654709543,-0.0086624995,-0.0028875,0.0020625
1679993571303,1173559657211678,-0.0067375,-0.0039875,0.0011
1679993571304,1173559659713755,-0.0067375,-0.0028875,0.0011
1679993571307,1173559662215678,-0.0067375,-0.00495,1.375E-4
1679993571311,1173559664717817,-0.010725,-0.001925,0.0031625
1679993571313,1173559667219971,-0.0116875,0.003025,0.0031625
1679993571315,1173559669722124,-0.0077,0.004125,1.375E-4
1679993571317,1173559672224278,-0.0086624995,0.0070125,1.375E-4
1679993571319,1173559674726355,-0.0097624995,0.013062499,0.0020625
1679993571323,1173559677228485,-0.0067375,0.015125,0.0011
1679993571325,1173559679730408,-0.0067375,0.0121,0.0020625
1679993571327,1173559682232562,-0.0097624995,0.0160875,0.0020625
1679993571330,1173559684734716,-0.010725,0.0121,0.0011
1679993571333,1173559687236875,-0.010725,0.01705,0.0011
1679993571334,1173559689738952,-0.0097624995,0.01705,0.0011
1679993571337,1173559692241105,-0.010725,0.0160875,0.0031625
1679993571339,1173559694743029,-0.010725,0.0210375,0.0031625
1679993571342,1173559697245182,-0.0077,0.0191125,0.0050875
1679993571345,1173559699747254,-0.0067375,0.0191125,0.00605
1679993571350,1173559702249485,-0.010725,0.01705,0.00605
1679993571351,1173559704751562,-0.0097624995,0.022,0.0050875
1679993571353,1173559707253712,-0.0097624995,0.0240625,0.0050875
1679993571356,1173559709755635,-0.010725,0.026124999,0.00605
1679993571359,1173559712257789,-0.0116875,0.0270875,0.00715
1679993571360,1173559714759866,-0.01265,0.0270875,0.0081124995
1679993571363,1173559717262077,-0.01265,0.02805,0.0100375
1679993571364,1173559719764153,-0.01375,0.031075,0.0121
1679993571369,1173559722266307,-0.014712499,0.0320375,0.0121
1679993571370,1173559724768461,-0.0177375,0.031075,0.0121
1679993571373,1173559727270403,-0.0196625,0.0320375,0.014162499
1679993571375,1173559729772480,-0.021724999,0.0301125,0.015125
1679993571378,1173559732274711,-0.0207625,0.0320375,0.01705
1679993571380,1173559734776865,-0.021724999,0.037125,0.0191125
1679993571383,1173559737278938,-0.02365,0.0400125,0.01705
1679993571386,1173559739780861,-0.021724999,0.0430375,0.0191125
1679993571388,1173559742283015,-0.02475,0.0380875,0.0221375
1679993571390,1173559744785169,-0.027775,0.039049998,0.0251625
1679993571393,1173559747287322,-0.027775,0.039049998,0.0231
1679993571395,1173559749789476,-0.0317625,0.037125,0.0231
1679993571397,1173559752291553,-0.032725,0.0380875,0.0231
1679993571399,1173559754793707,-0.0297,0.042075,0.026124999
1679993571402,1173559757295630,-0.032725,0.042075,0.0270875
1679993571405,1173559759797803,-0.03575,0.0380875,0.02805
1679993571407,1173559762299957,-0.038775,0.0430375,0.02915
1679993571409,1173559764802111,-0.0416625,0.0430375,0.0301125
1679993571413,1173559767304188,-0.043725,0.044,0.0320375
1679993571414,1173559769806360,-0.04675,0.0430375,0.031075
1679993571418,1173559772308283,-0.049775,0.044,0.0331375
1679993571420,1173559774810437,-0.0526625,0.042075,0.0331375
1679993571424,1173559777312514,-0.054725,0.039049998,0.0361625
1679993571426,1173559779814760,-0.056649998,0.036025,0.039049998
1679993571428,1173559782316837,-0.056649998,0.033,0.04015
1679993571430,1173559784818991,-0.056649998,0.031075,0.04015
1679993571433,1173559787320914,-0.05775,0.031075,0.04015
1679993571435,1173559789823054,-0.059675,0.026124999,0.039049998
1679993571437,1173559792325208,-0.060775,0.0270875,0.0380875
1679993571440,1173559794827361,-0.059675,0.02805,0.0430375
1679993571443,1173559797329438,-0.0587125,0.022,0.0430375
1679993571444,1173559799831592,-0.0647625,0.0231,0.0441375
1679993571447,1173559802333765,-0.0666875,0.0231,0.0441375
1679993571449,1173559804835688,-0.0666875,0.0290125,0.0441375
1679993571453,1173559807337765,-0.06875,0.0290125,0.0430375
1679993571454,1173559809839996,-0.06875,0.0301125,0.0460625
1679993571459,1173559812342165,-0.0746625,0.031075,0.0441375
1679993571461,1173559814844242,-0.073699996,0.0350625,0.0451
1679993571464,1173559817346165,-0.0757625,0.0320375,0.0441375
1679993571465,1173559819848323,-0.076725,0.036025,0.0441375
1679993571467,1173559822350476,-0.07975,0.037125,0.042075
1679993571469,1173559824852630,-0.0807125,0.0400125,0.0430375
1679993571472,1173559827354784,-0.07865,0.0451,0.0441375
1679993571475,1173559829856861,-0.07865,0.0460625,0.0451
1679993571477,1173559832359010,-0.07865,0.048125,0.0460625
1679993571480,1173559834860933,-0.07865,0.050049998,0.0471625
1679993571485,1173559837363087,-0.0776875,0.0540375,0.0471625
1679993571485,1173559839865164,-0.0757625,0.0561,0.048125
1679993571489,1173559842367318,-0.0746625,0.0561,0.048125
1679993571490,1173559844869472,-0.073699996,0.0600875,0.050049998
1679993571493,1173559847371395,-0.073699996,0.0600875,0.0490875
1679993571495,1173559849873548,-0.0746625,0.0600875,0.0490875
1679993571499,1173559852375731,-0.06765,0.0631125,0.0490875
1679993571502,1173559854877885,-0.071775,0.0680625,0.0471625
1679993571504,1173559857379962,-0.071775,0.066,0.0460625
1679993571505,1173559859882116,-0.071775,0.0650375,0.0460625
1679993571508,1173559862384270,-0.0727375,0.069025,0.042075
1679993571509,1173559864886188,-0.071775,0.0710875,0.0430375
1679993571513,1173559867388342,-0.070675,0.0730125,0.0460625
1679993571514,1173559869890496,-0.065725,0.0730125,0.0441375
1679993571517,1173559872392649,-0.0647625,0.0730125,0.0430375
1679993571520,1173559874894746,-0.0666875,0.077,0.0430375
1679993571523,1173559877396669,-0.0627,0.077,0.0411125
1679993571525,1173559879898823,-0.059675,0.0760375,0.039049998
1679993571527,1173559882401208,-0.059675,0.07205,0.039049998
1679993571530,1173559884903140,-0.056649998,0.07205,0.039049998
1679993571533,1173559887405294,-0.054725,0.0790625,0.0361625
1679993571536,1173559889907371,-0.049775,0.0760375,0.0341
1679993571538,1173559892409525,-0.0477125,0.075075,0.0341
1679993571540,1173559894911419,-0.045649998,0.075075,0.0380875
1679993571543,1173559897413803,-0.04675,0.075075,0.0380875
1679993571545,1173559899915726,-0.045649998,0.077,0.0331375
1679993571548,1173559902417880,-0.038775,0.0760375,0.0320375
1679993571550,1173559904919957,-0.037675,0.0760375,0.037125
1679993571553,1173559907422126,-0.0336875,0.0730125,0.0341
1679993571555,1173559909924049,-0.0297,0.075075,0.0331375
1679993571557,1173559912426434,-0.0287375,0.075075,0.0320375
1679993571560,1173559914928357,-0.0287375,0.0730125,0.0320375
1679993571562,1173559917430515,-0.02475,0.077,0.0331375
1679993571565,1173559919932592,-0.0226875,0.078099996,0.0320375
1679993571567,1173559922434745,-0.021724999,0.0730125,0.0301125
1679993571570,1173559924936669,-0.0196625,0.069025,0.02805
1679993571574,1173559927438803,-0.021724999,0.0710875,0.0301125
1679993571576,1173559929941188,-0.016775,0.07205,0.02915
1679993571578,1173559932443111,-0.01375,0.066,0.026124999
1679993571580,1173559934945188,-0.01375,0.066,0.0251625
1679993571583,1173559937447342,-0.010725,0.064075,0.0240625
1679993571585,1173559939949486,-0.010725,0.0600875,0.0251625
1679993571587,1173559942451409,-0.010725,0.059125,0.0231
1679993571589,1173559944953563,-0.0097624995,0.0570625,0.0210375
1679993571592,1173559947455717,-0.0097624995,0.059125,0.0231
1679993571595,1173559949957870,-0.0097624995,0.0561,0.020075
1679993571597,1173559952459947,-0.0086624995,0.0490875,0.0191125
1679993571600,1173559954961870,-0.0086624995,0.053075,0.0160875
1679993571603,1173559957464024,-0.0067375,0.053075,0.013062499
1679993571606,1173559959966409,-0.005775,0.0451,0.015125
1679993571607,1173559962468361,-0.0097624995,0.0430375,0.013062499
1679993571611,1173559964970515,-0.0067375,0.0400125,0.0121
1679993571614,1173559967472592,-0.005775,0.042075,0.013062499
1679993571615,1173559969974746,-0.005775,0.042075,0.0111375
1679993571618,1173559972476669,-0.0037125,0.0400125,0.009075
1679993571620,1173559974979053,-0.0037125,0.0350625,0.00715
1679993571623,1173559977480976,-0.00275,0.0301125,0.0081124995
1679993571625,1173559979983130,-0.005775,0.0270875,0.00715
1679993571627,1173559982485207,-0.0037125,0.0240625,0.0050875
1679993571630,1173559984987347,-0.00275,0.026124999,0.004125
1679993571632,1173559987489270,-0.005775,0.022,0.004125
1679993571635,1173559989991655,-0.00275,0.0180125,0.0050875
1679993571637,1173559992493578,-0.00275,0.014025,0.0050875
1679993571640,1173559994995717,-0.0037125,0.0160875,0.0050875
1679993571643,1173559997497794,-0.005775,0.014025,0.0031625
1679993571645,1173559999999947,-0.0037125,0.0121,1.375E-4
1679993571650,1173560002501875,-0.0037125,0.009075,0.0011
1679993571651,1173560005004029,-0.0067375,0.0070125,0.0031625
1679993571653,1173560007506414,-0.005775,0.0039875,0.0020625
1679993571655,1173560010008337,-0.00275,0.0039875,-9.625E-4
1679993571658,1173560012510414,-0.00275,-0.001925,-0.001925
1679993571660,1173560015012568,-0.0067375,-0.0039875,0.0011
1679993571663,1173560017514746,-0.0077,-9.625E-4,1.375E-4
1679993571666,1173560020016669,-0.005775,-0.0059125,-0.001925
1679993571667,1173560022519053,-0.0067375,-0.0070125,-9.625E-4
1679993571670,1173560025020976,-0.005775,-0.0070125,-0.00385
1679993571672,1173560027523125,-0.005775,-0.0099,-0.00385
1679993571675,1173560030025202,-0.0077,-0.0099,-0.0028875
1679993571677,1173560032527356,-0.0088,-0.0089375,-0.00385
1679993571680,1173560035029279,-0.0097624995,-0.0089375,-0.006875
1679993571683,1173560037531655,-0.0097624995,-0.01595,-0.0059125
1679993571686,1173560040033578,-0.0097624995,-0.0169125,-0.0078375
1679993571688,1173560042535732,-0.010725,-0.0169125,-0.0078375
1679993571690,1173560045037809,-0.014712499,-0.0169125,-0.0078375
1679993571694,1173560047539934,-0.014712499,-0.0180125,-0.0089375
1679993571695,1173560050041857,-0.016775,-0.022,-0.006875
1679993571698,1173560052544241,-0.0116875,-0.0248875,-0.006875
1679993571700,1173560055046164,-0.014712499,-0.022,-0.006875
1679993571702,1173560057548327,-0.014712499,-0.0199375,-0.0089375
1679993571705,1173560060050404,-0.01375,-0.0229625,-0.006875
1679993571708,1173560062552558,-0.016775,-0.0259875,-0.0099
1679993571710,1173560065054481,-0.0207625,-0.0199375,-0.0089375
1679993571712,1173560067556635,-0.0207625,-0.0229625,-0.0078375
1679993571715,1173560070058804,-0.0207625,-0.0248875,-0.0078375
1679993571718,1173560072560881,-0.021724999,-0.0248875,-0.0059125
1679993571720,1173560075063035,-0.021724999,-0.0229625,-0.00495
1679993571725,1173560077565207,-0.0226875,-0.0248875,-0.00495
1679993571728,1173560080067361,-0.026675,-0.0248875,-0.00495
1679993571729,1173560082569284,-0.0226875,-0.022,-0.0028875
1679993571731,1173560085071438,-0.0237875,-0.0199375,-0.00385
1679993571733,1173560087573515,-0.026675,-0.0199375,-0.0028875
1679993571735,1173560090075688,-0.027775,-0.018975,0.0011
1679993571739,1173560092577842,-0.02475,-0.022,-9.625E-4
1679993571740,1173560095079996,-0.0257125,-0.0209,-0.001925
1679993571743,1173560097581919,-0.026675,-0.0180125,0.0011
1679993571745,1173560100084073,-0.026675,-0.018975,0.0011
1679993571750,1173560102586241,-0.027775,-0.018975,1.375E-4
1679993571751,1173560105088318,-0.027775,-0.0149875,0.0011
1679993571753,1173560107590241,-0.0257125,-0.011,0.004125
1679993571755,1173560110092606,-0.02475,-0.011,0.0050875
1679993571757,1173560112594760,-0.0287375,-0.011,0.00715
1679993571761,1173560115096683,-0.0317625,-0.0070125,0.00715
1679993571764,1173560117598837,-0.032725,-0.0099,0.00715
1679993571766,1173560120100914,-0.0336875,-0.0070125,0.00715
1679993571767,1173560122603068,-0.0308,-0.001925,0.00605
1679993571769,1173560125105221,-0.0347875,-0.0039875,0.0081124995
1679993571773,1173560127607375,-0.037675,-0.0039875,0.009075
1679993571776,1173560130109298,-0.038775,-0.001925,0.0081124995
1679993571779,1173560132611419,-0.038775,0.0,0.009075
1679993571780,1173560135113496,-0.037675,0.0020625,0.0121
1679993571783,1173560137615650,-0.037675,0.0050875,0.014162499
1679993571785,1173560140117804,-0.0407,0.0100375,0.013062499
1679993571788,1173560142619958,-0.0446875,0.009075,0.013062499
1679993571790,1173560145121857,-0.043725,0.011,0.014162499
1679993571793,1173560147624011,-0.0427625,0.014025,0.020075
1679993571795,1173560150126088,-0.043725,0.0149875,0.020075
1679993571799,1173560152628241,-0.04675,0.0191125,0.0221375
1679993571800,1173560155130174,-0.04675,0.0180125,0.0240625
1679993571803,1173560157632558,-0.0446875,0.0191125,0.0240625
1679993571805,1173560160134712,-0.043725,0.022,0.026124999
1679993571807,1173560162636635,-0.0446875,0.0259875,0.0270875
1679993571810,1173560165138712,-0.043725,0.0270875,0.0270875
1679993571813,1173560167640866,-0.0446875,0.0240625,0.0270875
1679993571815,1173560170143020,-0.0507375,0.0270875,0.02805
1679993571818,1173560172645174,-0.0477125,0.022,0.02805
1679993571820,1173560175147327,-0.0457875,0.0231,0.0301125
1679993571823,1173560177649275,-0.04675,0.0240625,0.02915
1679993571825,1173560180151428,-0.048675,0.0240625,0.02915
1679993571828,1173560182653505,-0.0446875,0.0210375,0.0301125
1679993571830,1173560185155659,-0.043725,0.01705,0.02915
1679993571833,1173560187657813,-0.04675,0.0180125,0.031075
1679993571836,1173560190159977,-0.0446875,0.01705,0.0331375
1679993571838,1173560192661900,-0.0457875,0.0121,0.02915
1679993571840,1173560195164054,-0.04675,0.0121,0.026124999
1679993571843,1173560197666131,-0.0457875,0.0100375,0.02805
1679993571845,1173560200168285,-0.0457875,0.0100375,0.02805
1679993571849,1173560202670438,-0.0446875,0.0039875,0.02805
1679993571851,1173560205172592,-0.0418,0.0020625,0.02805
1679993571854,1173560207674529,-0.0397375,0.003025,0.0251625
1679993571855,1173560210176683,-0.0418,0.0,0.0251625
1679993571859,1173560212678760,-0.0427625,-0.001925,0.026124999
1679993571860,1173560215180914,-0.03575,-0.001925,0.0251625
1679993571864,1173560217683140,-0.0336875,-0.0039875,0.0240625
1679993571865,1173560220185217,-0.0287375,-0.00495,0.0221375
1679993571867,1173560222687140,-0.0257125,-0.00495,0.020075
1679993571870,1173560225189294,-0.0237875,-0.0028875,0.020075
1679993571874,1173560227691428,-0.0226875,-0.0028875,0.020075
1679993571876,1173560230193505,-0.0207625,-0.0039875,0.014162499
1679993571878,1173560232695659,-0.0198,-0.0059125,0.014162499
1679993571880,1173560235197813,-0.0177375,-0.0059125,0.013062499
1679993571885,1173560237699948,-0.0177375,0.0,0.013062499
1679993571886,1173560240201871,-0.0177375,-9.625E-4,0.0100375
1679993571888,1173560242704025,-0.016775,-0.001925,0.00715
1679993571890,1173560245206102,-0.01375,-9.625E-4,0.0081124995
1679993571893,1173560247708256,-0.01375,-9.625E-4,0.00715
1679993571895,1173560250210391,-0.0116875,0.0020625,0.0050875
1679993571899,1173560252712544,-0.0116875,0.0011,0.004125
1679993571900,1173560255214467,-0.010725,0.0039875,1.375E-4
1679993571906,1173560257716582,-0.010725,0.00605,0.0020625
1679993571907,1173560260218659,-0.0097624995,0.003025,0.0011
1679993571907,1173560262720813,-0.0097624995,0.011,0.0020625
1679993571911,1173560265222967,-0.0067375,0.0149875,0.0011
1679993571914,1173560267725121,-0.005775,0.013062499,0.0011
1679993571916,1173560270227044,-0.0037125,0.0121,0.0011
1679993571918,1173560272729198,-6.875E-4,0.0070125,0.0011
1679993571922,1173560275231275,2.75E-4,0.0100375,0.0011
1679993571924,1173560277733429,0.0022,0.0149875,0.0031625
1679993571926,1173560280235577,0.005225,0.014025,0.0031625
1679993571929,1173560282737731,0.0072875,0.0100375,0.00605
1679993571930,1173560285239885,0.006325,0.009075,0.00605
1679993571934,1173560287741808,0.0103124995,0.0121,0.004125
1679993571935,1173560290243885,0.00825,0.011,0.0050875
1679993571938,1173560292746035,0.0042625,0.0070125,0.00715
1679993571943,1173560295248189,0.0092124995,0.00605,0.0050875
1679993571945,1173560297750343,0.00825,0.009075,0.004125
1679993571945,1173560300252497,0.006325,0.0100375,0.0081124995
1679993571949,1173560302754424,0.0033,0.0039875,0.0100375
1679993571951,1173560305256577,0.0042625,0.0039875,0.0081124995
1679993571954,1173560307758731,0.0033,0.0020625,0.00715
1679993571955,1173560310260885,0.0012375,0.0011,0.0050875
1679993571960,1173560312762962,2.75E-4,-0.001925,0.0081124995
1679993571961,1173560315264909,2.75E-4,-0.0028875,0.0100375
1679993571963,1173560317767063,2.75E-4,-0.001925,0.0100375
1679993571965,1173560320269217,2.75E-4,-0.0059125,0.0100375
1679993571968,1173560322771371,-6.875E-4,-0.0070125,0.0121
1679993571971,1173560325273439,-0.00275,-0.0089375,0.0111375
1679993571973,1173560327775593,2.75E-4,-0.0119624995,0.013062499
1679993571976,1173560330277746,-6.875E-4,-0.0089375,0.013062499
1679993571978,1173560332779669,-0.0037125,-0.0138875,0.0121
1679993571980,1173560335281832,-0.005775,-0.0169125,0.013062499
1679993571983,1173560337783986,-0.0067375,-0.0209,0.013062499
1679993571987,1173560340286063,-0.0077,-0.0199375,0.013062499
1679993571988,1173560342788217,-0.0077,-0.0209,0.013062499
1679993571990,1173560345290347,-0.010725,-0.022,0.0111375
1679993571993,1173560347792270,-0.0127875,-0.0259875,0.013062499
1679993571995,1173560350294424,-0.0116875,-0.0248875,0.014162499
1679993571997,1173560352796578,-0.01375,-0.0229625,0.014162499
1679993572000,1173560355298722,-0.016775,-0.0259875,0.0121
1679993572003,1173560357800799,-0.016775,-0.0290125,0.0111375
1679993572005,1173560360302953,-0.0187,-0.0259875,0.0121
1679993572010,1173560362804876,-0.0187,-0.0259875,0.0111375
1679993572012,1173560365307006,-0.0177375,-0.0309375,0.013062499
1679993572014,1173560367809391,-0.016775,-0.0290125,0.013062499
1679993572016,1173560370311314,-0.016775,-0.022,0.0100375
1679993572018,1173560372813391,-0.0187,-0.0199375,0.013062499
1679993572021,1173560375315545,-0.015675,-0.0199375,0.0111375
1679993572026,1173560377817688,-0.016775,-0.0199375,0.0111375
1679993572027,1173560380319612,-0.014712499,-0.0149875,0.0100375
1679993572029,1173560382821688,-0.014712499,-0.0119624995,0.0100375
1679993572030,1173560385323919,-0.0198,-0.012925,0.009075
1679993572033,1173560387826034,-0.0187,-0.0138875,0.0081124995
1679993572035,1173560390328188,-0.0198,-0.0070125,0.0081124995
1679993572038,1173560392830342,-0.0187,-0.0059125,0.00715
1679993572040,1173560395332265,-0.0198,-0.0028875,0.00605
1679993572043,1173560397834342,-0.0198,-0.0028875,0.0081124995
1679993572045,1173560400336573,-0.0187,-0.00495,0.0031625
1679993572048,1173560402838727,-0.0177375,-0.001925,0.0031625
1679993572051,1173560405340803,-0.0177375,0.003025,0.0050875
1679993572053,1173560407842732,-0.0198,0.009075,0.0050875
1679993572055,1173560410344885,-0.0207625,0.009075,0.0050875
1679993572060,1173560412847039,-0.0226875,0.00605,0.0031625
1679993572062,1173560415349193,-0.0207625,0.011,0.0031625
1679993572065,1173560417851337,-0.0198,0.014025,0.0031625
1679993572066,1173560420353414,-0.0187,0.0100375,0.0020625
1679993572067,1173560422855568,-0.0177375,0.013062499,0.0031625
1679993572070,1173560425357491,-0.0177375,0.0121,0.0020625
1679993572075,1173560427859679,-0.016775,0.0160875,0.0020625
1679993572077,1173560430361833,-0.016775,0.014025,0.0031625
1679993572079,1173560432863986,-0.014712499,0.0121,0.0031625
1679993572080,1173560435366140,-0.01375,0.014025,0.0020625
1679993572083,1173560437868217,-0.014712499,0.0121,0.0011
1679993572085,1173560440370150,-0.014712499,0.0121,0.0020625
1679993572087,1173560442872304,-0.010725,0.011,-9.625E-4
1679993572090,1173560445374458,-0.010725,0.0100375,-0.001925
1679993572093,1173560447876612,-0.0097624995,0.0070125,-0.001925
1679993572095,1173560450378703,-0.010725,0.00605,-9.625E-4
1679993572101,1173560452880857,-0.0116875,0.0039875,-0.001925
1679993572102,1173560455382780,-0.0127875,0.0020625,-0.001925
1679993572104,1173560457884934,-0.0097624995,0.0011,-0.0028875
1679993572106,1173560460387015,-0.0097624995,-0.001925,-0.001925
1679993572108,1173560462889246,-0.010725,-9.625E-4,-0.001925
1679993572110,1173560465391323,-0.010725,-0.0039875,-0.001925
1679993572113,1173560467893477,-0.0088,-0.0039875,-9.625E-4
1679993572115,1173560470395631,-0.0067375,-0.0070125,-0.001925
1679993572118,1173560472897563,-0.0088,-0.0099,-0.001925
1679993572120,1173560475399640,-0.0116875,-0.00495,-0.001925
1679993572126,1173560477901871,-0.0097624995,-0.007975,1.375E-4
1679993572127,1173560480404024,-0.0088,-0.007975,-9.625E-4
1679993572129,1173560482906101,-0.0077,-0.0089375,-9.625E-4
1679993572131,1173560485408255,-0.0097624995,-0.012925,-9.625E-4
1679993572133,1173560487910178,-0.0097624995,-0.011,-9.625E-4
1679993572139,1173560490412361,-0.005775,-0.007975,-0.001925
1679993572140,1173560492914515,-0.005775,-0.0119624995,1.375E-4
1679993572142,1173560495416669,-0.0067375,-0.012925,0.0011
1679993572146,1173560497918746,-0.0088,-0.0119624995,0.0011
1679993572147,1173560500420900,-0.005775,-0.0169125,1.375E-4
1679993572149,1173560502922823,-0.0067375,-0.012925,0.0011
1679993572151,1173560505424982,-0.005775,-0.0138875,0.0011
1679993572153,1173560507927135,-0.005775,-0.0138875,0.0011
1679993572155,1173560510429289,-0.0077,-0.0138875,0.0031625
1679993572158,1173560512931366,-0.0037125,-0.012925,0.004125
1679993572160,1173560515433515,-0.00275,-0.011,0.004125
1679993572163,1173560517935438,-0.0037125,-0.0119624995,0.0031625
1679993572165,1173560520437592,-0.0017875,-0.0119624995,0.0050875
1679993572168,1173560522939746,-0.0037125,-0.0119624995,0.00605
1679993572170,1173560525441823,-0.0037125,-0.012925,0.00605
1679993572175,1173560527943987,-0.0037125,-0.0119624995,0.00605
1679993572176,1173560530446141,-6.875E-4,-0.0099,0.00605
1679993572179,1173560532948294,-0.0037125,-0.0138875,0.004125
1679993572180,1173560535450462,-0.005775,-0.0138875,0.0020625
1679993572183,1173560537952385,-0.0067375,-0.0180125,0.004125
1679993572185,1173560540454539,-0.0037125,-0.0180125,0.0020625
1679993572188,1173560542956616,-0.00275,-0.018975,0.0020625
1679993572192,1173560545458770,-0.0067375,-0.0209,0.0031625
1679993572194,1173560547960717,-0.0088,-0.0209,0.0050875
1679993572196,1173560550463102,-0.0067375,-0.0209,0.004125
1679993572198,1173560552965025,-0.0067375,-0.02695,0.004125
1679993572201,1173560555467179,-0.005775,-0.02695,0.0050875
1679993572203,1173560557969237,-0.0077,-0.0319,0.0031625
1679993572205,1173560560471390,-0.0097624995,-0.0319,0.0031625
1679993572207,1173560562973313,-0.005775,-0.034925,0.0031625
1679993572211,1173560565475703,-0.0037125,-0.0339625,0.0020625
1679993572214,1173560567977857,-0.0077,-0.033,0.0050875
1679993572216,1173560570479780,-0.0097624995,-0.033,0.00715
1679993572219,1173560572981857,-0.0088,-0.0358875,0.00605
1679993572220,1173560575484011,-0.010725,-0.0369875,0.00605
1679993572224,1173560577986179,-0.0088,-0.034925,0.009075
1679993572226,1173560580488332,-0.010725,-0.0358875,0.00605
1679993572228,1173560582990256,-0.0116875,-0.0389125,0.0100375
1679993572230,1173560585492409,-0.015675,-0.03795,0.0121
1679993572233,1173560587994577,-0.015675,-0.0369875,0.0100375
1679993572235,1173560590496654,-0.016775,-0.0400125,0.0100375
1679993572238,1173560592998808,-0.01375,-0.03795,0.0100375
1679993572240,1173560595500962,-0.016775,-0.034925,0.009075
1679993572243,1173560598003102,-0.0198,-0.0369875,0.0081124995
1679993572245,1173560600505025,-0.0187,-0.0369875,0.009075
1679993572249,1173560603007179,-0.021724999,-0.0339625,0.0081124995
1679993572252,1173560605509256,-0.0177375,-0.034925,0.0111375
1679993572254,1173560608011184,-0.0187,-0.029975,0.0100375
1679993572256,1173560610513338,-0.0198,-0.0290125,0.0100375
1679993572260,1173560613015722,-0.0187,-0.0279125,0.0100375
1679993572261,1173560615517645,-0.0226875,-0.029975,0.015125
1679993572263,1173560618019799,-0.0237875,-0.029975,0.0121
1679993572265,1173560620521881,-0.0207625,-0.0279125,0.0100375
1679993572269,1173560623024035,-0.0226875,-0.0259875,0.0121
1679993572271,1173560625525958,-0.0237875,-0.029975,0.0100375
1679993572273,1173560628028343,-0.0237875,-0.0309375,0.0100375
1679993572275,1173560630530266,-0.02475,-0.0290125,0.0100375
1679993572277,1173560633032434,-0.0226875,-0.0279125,0.0111375
1679993572280,1173560635534587,-0.0177375,-0.0229625,0.0100375
1679993572284,1173560638036664,-0.0198,-0.0259875,0.0111375
1679993572288,1173560640538606,-0.0226875,-0.0248875,0.0100375
1679993572290,1173560643040991,-0.0226875,-0.0248875,0.0100375
1679993572292,1173560645543145,-0.0226875,-0.0259875,0.0100375
1679993572294,1173560648045068,-0.0207625,-0.0180125,0.0081124995
1679993572296,1173560650547145,-0.0187,-0.0199375,0.0111375
1679993572299,1173560653049309,-0.0177375,-0.0199375,0.0111375
1679993572300,1173560655551463,-0.0198,-0.018975,0.0081124995
1679993572304,1173560658053616,-0.0177375,-0.0209,0.0050875
1679993572305,1173560660555770,-0.01375,-0.0209,0.0050875
1679993572308,1173560663057693,-0.0187,-0.0248875,0.0050875
1679993572311,1173560665559722,-0.0226875,-0.0259875,0.0050875
1679993572313,1173560668061876,-0.016775,-0.0209,0.0020625
1679993572315,1173560670564030,-0.0177375,-0.0209,1.375E-4
1679993572318,1173560673066184,-0.0198,-0.0248875,-9.625E-4
1679993572320,1173560675568097,-0.021724999,-0.0259875,-0.001925
1679993572324,1173560678070251,-0.0237875,-0.0229625,-0.0028875
1679993572327,1173560680572405,-0.0226875,-0.029975,-9.625E-4
1679993572328,1173560683074482,-0.021724999,-0.0319,1.375E-4
1679993572330,1173560685576645,-0.021724999,-0.029975,1.375E-4
1679993572334,1173560688078569,-0.021724999,-0.02695,1.375E-4
1679993572336,1173560690580953,-0.0207625,-0.0309375,-9.625E-4
1679993572339,1173560693083107,-0.0207625,-0.033,0.0011
1679993572341,1173560695585030,-0.0198,-0.0290125,1.375E-4
1679993572343,1173560698087092,-0.0207625,-0.034925,0.0020625
1679993572345,1173560700589246,-0.0226875,-0.03795,0.0011
1679993572348,1173560703091400,-0.02475,-0.0389125,0.0011
1679993572350,1173560705593554,-0.0226875,-0.0389125,0.0020625
1679993572353,1173560708095472,-0.0226875,-0.0419375,0.0011
1679993572357,1173560710597625,-0.0226875,-0.0449625,0.0020625
1679993572358,1173560713099779,-0.0207625,-0.0468875,0.0011
1679993572362,1173560715601813,-0.0187,-0.044,0.0020625
1679993572364,1173560718103736,-0.0207625,-0.0449625,0.0020625
1679993572366,1173560720606121,-0.0198,-0.044,0.0020625
1679993572368,1173560723108044,-0.0177375,-0.045925,0.0050875
1679993572373,1173560725610198,-0.0187,-0.0419375,0.0050875
1679993572378,1173560728112362,-0.0198,-0.0400125,0.00605
1679993572378,1173560730614439,-0.0207625,-0.0369875,0.009075
1679993572379,1173560733116362,-0.0237875,-0.03795,0.0081124995
1679993572380,1173560735618746,-0.0226875,-0.034925,0.0111375
1679993572383,1173560738120904,-0.0226875,-0.0339625,0.0081124995
1679993572385,1173560740622827,-0.021724999,-0.0369875,0.0050875
1679993572388,1173560743124904,-0.0237875,-0.0339625,0.004125
1679993572390,1173560745627058,-0.02475,-0.0309375,0.00605
1679993572393,1173560748129212,-0.0226875,-0.029975,0.0031625
1679993572395,1173560750631366,-0.0257125,-0.0309375,0.0011
1679993572400,1173560753133520,-0.0207625,-0.0290125,0.0081124995
1679993572402,1173560755635443,-0.0207625,-0.02695,0.0050875
1679993572404,1173560758137506,-0.0226875,-0.0259875,0.004125
1679993572406,1173560760639736,-0.0226875,-0.0248875,0.0050875
1679993572408,1173560763141890,-0.0237875,-0.0209,0.0081124995
1679993572410,1173560765643967,-0.02475,-0.01595,0.004125
1679993572414,1173560768145890,-0.0237875,-0.0169125,0.0050875
1679993572416,1173560770648053,-0.02475,-0.0149875,0.004125
1679993572419,1173560773150207,-0.026675,-0.01595,0.00715
1679993572421,1173560775652284,-0.0257125,-0.012925,0.0100375
1679993572424,1173560778154515,-0.0257125,-0.0119624995,0.00605
1679993572431,1173560780656588,-0.0257125,-0.0149875,0.0011
1679993572431,1173560783158742,-0.0257125,-0.0119624995,1.375E-4
1679993572431,1173560785660665,-0.0257125,-0.007975,0.0031625
1679993572434,1173560788162818,-0.0287375,-0.0099,-0.001925
1679993572437,1173560790664894,-0.0257125,-0.0070125,0.0011
1679993572438,1173560793167125,-0.0257125,-0.007975,-9.625E-4
1679993572445,1173560795669202,-0.0287375,-0.0059125,-0.001925
1679993572445,1173560798171356,-0.026675,-0.011,-9.625E-4
1679993572446,1173560800673279,-0.027775,-0.0089375,0.0011
1679993572448,1173560803175414,-0.0257125,-0.0070125,0.0020625
1679993572450,1173560805677491,-0.0297,-0.0119624995,0.0011
1679993572453,1173560808179722,-0.0297,-0.0099,-0.001925
1679993572456,1173560810681875,-0.027775,-0.012925,1.375E-4
1679993572459,1173560813183938,-0.026675,-0.0119624995,-9.625E-4
1679993572464,1173560815685861,-0.027775,-0.0138875,-9.625E-4
1679993572465,1173560818188015,-0.0287375,-0.0138875,-0.001925
1679993572467,1173560820690169,-0.0317625,-0.0180125,-0.0028875
1679993572477,1173560823192323,-0.0308,-0.0199375,-0.00385
1679993572477,1173560825694390,-0.0308,-0.0209,-0.00385
1679993572478,1173560828196544,-0.032725,-0.02695,-0.001925
1679993572479,1173560830698698,-0.0336875,-0.0229625,-0.00495
1679993572480,1173560833200621,-0.032725,-0.02695,-0.001925
1679993572480,1173560835702814,-0.0336875,-0.033,-0.0028875
1679993572485,1173560838204967,-0.038775,-0.0369875,-0.00385
1679993572485,1173560840707121,-0.032725,-0.03795,-0.0028875
1679993572488,1173560843209198,-0.03575,-0.0419375,-0.00385
1679993572493,1173560845711342,-0.032725,-0.045925,-0.0028875
1679993572495,1173560848213265,-0.032725,-0.045925,-0.00385
1679993572495,1173560850715419,-0.0336875,-0.045925,-0.00495
1679993572499,1173560853217496,-0.0308,-0.04895,-0.00385
1679993572500,1173560855719727,-0.0308,-0.04895,-0.0028875
1679993572504,1173560858221804,-0.0317625,-0.04895,-0.0059125
1679993572506,1173560860723957,-0.0287375,-0.055,-0.001925
1679993572511,1173560863225881,-0.0297,-0.0539,-0.00385
1679993572512,1173560865728043,-0.0287375,-0.055,-0.006875
1679993572515,1173560868230120,-0.02475,-0.0529375,-0.006875
1679993572517,1173560870732351,-0.026675,-0.0529375,-0.00495
1679993572519,1173560873234428,-0.027775,-0.0539,-0.0078375
1679993572520,1173560875736582,-0.0257125,-0.051975,-0.0108624995
1679993572524,1173560878238741,-0.027775,-0.055,-0.012925
1679993572526,1173560880740664,-0.0257125,-0.0499125,-0.0119624995
1679993572528,1173560883242741,-0.0287375,-0.04895,-0.0108624995
1679993572531,1173560885744972,-0.0257125,-0.0499125,-0.0119624995
1679993572533,1173560888247148,-0.0257125,-0.0479875,-0.012925
1679993572536,1173560890749225,-0.02475,-0.0449625,-0.0169125
1679993572539,1173560893251148,-0.0237875,-0.0449625,-0.01485
1679993572541,1173560895753302,-0.0237875,-0.044,-0.01595
1679993572544,1173560898255456,-0.0226875,-0.0468875,-0.01595
1679993572545,1173560900757605,-0.021724999,-0.0468875,-0.01485
1679993572549,1173560903259759,-0.0207625,-0.0400125,-0.0169125
1679993572554,1173560905761841,-0.0237875,-0.0389125,-0.01595
1679993572555,1173560908263995,-0.0237875,-0.0400125,-0.0169125
1679993572556,1173560910765918,-0.0237875,-0.0358875,-0.0188375
1679993572558,1173560913268072,-0.0177375,-0.0400125,-0.017875
1679993572561,1173560915770148,-0.0198,-0.0358875,-0.017875
1679993572564,1173560918272379,-0.0198,-0.034925,-0.0188375
1679993572565,1173560920774442,-0.0177375,-0.034925,-0.0188375
1679993572568,1173560923276596,-0.0177375,-0.033,-0.0209
1679993572571,1173560925778519,-0.0177375,-0.0279125,-0.0199375
1679993572573,1173560928280673,-0.016775,-0.0259875,-0.0199375
1679993572579,1173560930782760,-0.014712499,-0.0248875,-0.0188375
1679993572581,1173560933284991,-0.015675,-0.0279125,-0.0209
1679993572582,1173560935787144,-0.015675,-0.0248875,-0.0218625
1679993572584,1173560938289221,-0.01375,-0.0180125,-0.0218625
1679993572588,1173560940791145,-0.01375,-0.0169125,-0.0229625
1679993572589,1173560943293298,-0.010725,-0.0180125,-0.0218625
1679993572591,1173560945795452,-0.010725,-0.01595,-0.0218625
1679993572593,1173560948297606,-0.0067375,-0.0119624995,-0.0229625
1679993572595,1173560950799683,-0.0077,-0.01595,-0.0209
1679993572598,1173560953301827,-0.005775,-0.0099,-0.0209
1679993572601,1173560955803981,-0.0077,-0.011,-0.0229625
1679993572604,1173560958305904,-0.0067375,-0.007975,-0.0209
1679993572605,1173560960808058,-0.00275,-0.00495,-0.0188375
1679993572608,1173560963310211,-0.0037125,-0.0059125,-0.0229625
1679993572611,1173560965812379,-0.00275,-0.0059125,-0.023924999
1679993572613,1173560968314456,-0.0017875,-0.00495,-0.023924999
1679993572615,1173560970816610,-0.0017875,-0.0059125,-0.023924999
1679993572619,1173560973318539,-0.005775,-0.0028875,-0.0218625
1679993572622,1173560975820693,-0.0017875,-0.0028875,-0.0248875
1679993572625,1173560978322847,-0.0017875,-0.0039875,-0.0229625
1679993572627,1173560980824924,-0.0067375,-9.625E-4,-0.0199375
1679993572629,1173560983327059,-0.0037125,-0.001925,-0.0209
1679993572631,1173560985828982,-0.0017875,-9.625E-4,-0.0218625
1679993572634,1173560988331366,-0.00275,-0.0028875,-0.0199375
1679993572636,1173560990833289,-0.00275,-0.0059125,-0.0199375
1679993572638,1173560993335443,-6.875E-4,-0.001925,-0.017875
1679993572641,1173560995837510,-0.0037125,-0.0028875,-0.017875
1679993572643,1173560998339664,-0.005775,-9.625E-4,-0.0169125
1679993572645,1173561000841587,-0.00275,-0.00495,-0.0119624995
1679993572650,1173561003343746,-0.00275,-0.0059125,-0.0119624995
1679993572651,1173561005845900,-0.005775,-0.0039875,-0.0169125
1679993572653,1173561008348054,-6.875E-4,-9.625E-4,-0.0119624995
1679993572656,1173561010850131,0.0012375,-0.0028875,-0.0089375
1679993572660,1173561013352309,-6.875E-4,-0.0039875,-0.0099
1679993572663,1173561015854232,-0.0017875,-0.0059125,-0.0078375
1679993572665,1173561018356385,-0.0017875,-0.0070125,-0.0059125
1679993572667,1173561020858770,-0.00275,-0.00495,-0.00495
1679993572669,1173561023360693,-6.875E-4,-0.0059125,-0.0059125
1679993572671,1173561025862775,-0.0037125,-0.007975,-0.00385
1679993572673,1173561028364929,-0.0067375,-0.007975,-0.00495
1679993572678,1173561030867083,-0.005775,-0.0099,-0.00385
1679993572680,1173561033369006,-0.0037125,-0.0070125,-0.001925
1679993572682,1173561035871391,-0.0086624995,-0.001925,-0.0028875
1679993572685,1173561038373314,-0.0097624995,-0.0028875,0.0011
1679993572689,1173561040875467,-0.010725,-0.001925,0.0020625
1679993572690,1173561043377621,-0.0116875,-0.0028875,0.0020625
1679993572693,1173561045879683,-0.014712499,-0.007975,0.0031625
1679993572694,1173561048381606,-0.01375,-0.0039875,0.00605
1679993572696,1173561050883991,-0.01375,-0.0028875,0.00605
1679993572701,1173561053385914,-0.016775,-0.0028875,0.00715
1679993572703,1173561055888063,-0.0127875,-0.0039875,0.009075
1679993572705,1173561058390140,-0.014712499,-9.625E-4,0.0111375
1679993572707,1173561060892294,-0.0177375,0.0011,0.0100375
1679993572715,1173561063394217,-0.0196625,0.0,0.014162499
1679993572715,1173561065896601,-0.0196625,-0.001925,0.0121
1679993572715,1173561068398539,-0.021724999,0.0011,0.014162499
1679993572718,1173561070900693,-0.0226875,0.0011,0.0160875
1679993572719,1173561073402770,-0.0207625,-9.625E-4,0.0160875
1679993572721,1173561075904924,-0.0237875,0.0,0.0160875
1679993572724,1173561078407063,-0.0237875,0.0011,0.01705
1679993572727,1173561080908986,-0.02475,0.0,0.0191125
1679993572729,1173561083411140,-0.026675,0.0,0.020075
1679993572731,1173561085913294,-0.0237875,0.0,0.0210375
1679993572733,1173561088415448,-0.0257125,0.0011,0.026124999
1679993572739,1173561090917524,-0.026675,-9.625E-4,0.0240625
1679993572741,1173561093419448,-0.0306625,0.0011,0.0270875
1679993572743,1173561095921601,-0.0297,0.0020625,0.0270875
1679993572745,1173561098423977,-0.0336875,0.0039875,0.0270875
1679993572746,1173561100925900,-0.03575,0.0011,0.0301125
1679993572748,1173561103428054,-0.037675,0.0011,0.0320375
1679993572751,1173561105930131,-0.038775,-0.0028875,0.0301125
1679993572753,1173561108432285,-0.037675,-0.00495,0.031075
1679993572756,1173561110934203,-0.038775,0.0,0.0331375
1679993572763,1173561113436587,-0.0397375,0.0020625,0.0331375
1679993572764,1173561115938511,-0.043725,0.0020625,0.0341
1679993572766,1173561118440664,-0.0477125,0.0020625,0.0341
1679993572766,1173561120942726,-0.04675,0.0011,0.0361625
1679993572769,1173561123444880,-0.048675,0.0020625,0.0361625
1679993572771,1173561125946803,-0.0507375,0.0011,0.037125
1679993572775,1173561128449188,-0.0567875,0.0011,0.04015
1679993572777,1173561130951106,-0.0587125,0.0020625,0.039049998
1679993572779,1173561133453260,-0.0636625,0.0020625,0.042075
1679993572783,1173561135955414,-0.0666875,-9.625E-4,0.042075
1679993572784,1173561138457491,-0.065725,-0.0039875,0.0430375
1679993572786,1173561140959414,-0.0677875,-0.001925,0.0451
1679993572788,1173561143461548,-0.071775,0.003025,0.048125
1679993572791,1173561145963932,-0.0727375,0.0,0.0521125
1679993572794,1173561148465855,-0.071775,0.0020625,0.053075
1679993572797,1173561150967932,-0.0757625,0.0,0.053075
1679993572799,1173561153470091,-0.0776875,0.0011,0.053075
1679993572800,1173561155972245,-0.07975,0.003025,0.0561
1679993572804,1173561158474168,-0.07975,0.0039875,0.0581625
1679993572806,1173561160976322,-0.0847,0.0050875,0.0631125
1679993572808,1173561163478476,-0.0897875,0.009075,0.061049998
1679993572812,1173561165980625,-0.09075,0.00605,0.06215
1679993572815,1173561168482701,-0.09075,0.011,0.064075
1679993572816,1173561170984855,-0.093775,0.009075,0.0650375
1679993572819,1173561173486754,-0.0966625,0.0100375,0.0671
1679993572822,1173561175989139,-0.0996875,0.0121,0.0710875
1679993572824,1173561178491062,-0.0996875,0.014025,0.07315
1679993572826,1173561180993216,-0.098725,0.0121,0.07315
1679993572830,1173561183495293,-0.1007875,0.0149875,0.07205
1679993572831,1173561185997423,-0.1057375,0.0149875,0.0741125
1679993572834,1173561188499346,-0.1087625,0.0149875,0.07205
1679993572836,1173561191001730,-0.1106875,0.0149875,0.0760375
1679993572838,1173561193503653,-0.1117875,0.0149875,0.078099996
1679993572843,1173561196005821,-0.114675,0.01705,0.0771375
1679993572844,1173561198507898,-0.1186625,0.0180125,0.081125
1679993572846,1173561201010052,-0.1216875,0.0180125,0.081125
1679993572852,1173561203512197,-0.12375,0.020075,0.081125
1679993572853,1173561206014351,-0.126775,0.01705,0.0820875
1679993572854,1173561208516274,-0.125675,0.01705,0.087037496
1679993572856,1173561211018428,-0.1307625,0.01705,0.0820875
1679993572860,1173561213520505,-0.1337875,0.0160875,0.086075
1679993572862,1173561216022735,-0.137775,0.013062499,0.0900625
1679993572864,1173561218524807,-0.1387375,0.0070125,0.0911625
1679993572866,1173561221026961,-0.1406625,0.009075,0.0900625
1679993572868,1173561223528884,-0.142725,0.0070125,0.0930875
1679993572870,1173561226031038,-0.1447875,0.003025,0.0930875
1679993572873,1173561228533115,-0.147675,0.0011,0.09515
1679993572876,1173561231035269,-0.1507,0.0,0.098037496
1679993572878,1173561233537423,-0.153725,-0.001925,0.097075
1679993572881,1173561236039577,-0.1507,-0.007975,0.097075
1679993572884,1173561238541717,-0.1516625,-0.011,0.098037496
1679993572889,1173561241043640,-0.1546875,-0.0099,0.100099996
1679993572889,1173561243545717,-0.1557875,-0.0169125,0.103125
1679993572892,1173561246047870,-0.1607375,-0.022,0.1040875
1679993572894,1173561248550101,-0.1637625,-0.0209,0.1021625
1679993572896,1173561251052173,-0.1637625,-0.029975,0.10505
1679993572899,1173561253554096,-0.164725,-0.0339625,0.10615
1679993572901,1173561256056250,-0.1656875,-0.0339625,0.10615
1679993572904,1173561258558327,-0.1687125,-0.0369875,0.1071125
1679993572906,1173561261060481,-0.1727,-0.0389125,0.1071125
1679993572909,1173561263562712,-0.1736625,-0.0429,0.1071125
1679993572912,1173561266064789,-0.1736625,-0.0449625,0.1101375
1679993572914,1173561268566712,-0.175725,-0.0468875,0.1120625
1679993572916,1173561271068884,-0.17875,-0.0468875,0.114125
1679993572919,1173561273571038,-0.1797125,-0.0510125,0.11605
1679993572922,1173561276073115,-0.181775,-0.04895,0.11605
1679993572926,1173561278575341,-0.181775,-0.0499125,0.11715
1679993572928,1173561281077418,-0.181775,-0.051975,0.11605
1679993572930,1173561283579572,-0.186725,-0.04895,0.11715
1679993572934,1173561286081495,-0.1887875,-0.0479875,0.122099996
1679993572935,1173561288583649,-0.19167499,-0.0468875,0.1230625
1679993572936,1173561291085741,-0.19167499,-0.044,0.1211375
1679993572939,1173561293587971,-0.1907125,-0.0429,0.1230625
1679993572942,1173561296090125,-0.1956625,-0.0389125,0.125125
1679993572944,1173561298592202,-0.1956625,-0.0389125,0.125125
1679993572946,1173561301094125,-0.1997875,-0.0339625,0.1260875
1679993572950,1173561303596279,-0.1997875,-0.0369875,0.1260875
1679993572954,1173561306098356,-0.1967625,-0.0358875,0.12705
1679993572956,1173561308600510,-0.1967625,-0.033,0.12705
1679993572957,1173561311102664,-0.1997875,-0.0309375,0.12815
1679993572960,1173561313604818,-0.2057,-0.029975,0.12815
1679993572963,1173561316106756,-0.2017125,-0.0248875,0.1291125
1679993572965,1173561318608910,-0.203775,-0.0229625,0.130075
1679993572967,1173561321111063,-0.2017125,-0.0259875,0.1291125
1679993572969,1173561323613140,-0.203775,-0.022,0.1310375
1679993572973,1173561326115294,-0.208725,-0.0209,0.130075
1679993572974,1173561328617477,-0.208725,-0.0169125,0.1310375
1679993572977,1173561331119631,-0.21175,-0.0229625,0.1351625
1679993572980,1173561333621554,-0.21175,-0.0229625,0.136125
1679993572981,1173561336123631,-0.2127125,-0.0248875,0.136125
1679993572984,1173561338625780,-0.2127125,-0.0229625,0.1331
1679993572986,1173561341128011,-0.2167,-0.022,0.1370875
1679993572989,1173561343630087,-0.2176625,-0.0209,0.13915
1679993572994,1173561346132241,-0.2176625,-0.0229625,0.13213749
1679993572994,1173561348634174,-0.2176625,-0.0290125,0.136125
1679993572997,1173561351136328,-0.2167,-0.029975,0.1370875
1679993573002,1173561353638482,-0.22275,-0.0309375,0.136125
1679993573002,1173561356140636,-0.2237125,-0.0309375,0.136125
1679993573005,1173561358642717,-0.2217875,-0.0369875,0.1370875
1679993573006,1173561361144871,-0.225775,-0.0419375,0.13805
1679993573008,1173561363647025,-0.225775,-0.045925,0.1420375
1679993573012,1173561366148948,-0.22275,-0.045925,0.1420375
1679993573014,1173561368651025,-0.22275,-0.0479875,0.1450625
1679993573015,1173561371153154,-0.2237125,-0.0539,0.1441
1679993573019,1173561373655308,-0.225775,-0.055,0.1441
1679993573022,1173561376157462,-0.22275,-0.0578875,0.1450625
1679993573024,1173561378659409,-0.2217875,-0.05995,0.1461625
1679993573027,1173561381161563,-0.224675,-0.0609125,0.147125
1679993573028,1173561383663640,-0.2237125,-0.0620125,0.147125
1679993573032,1173561386165794,-0.225775,-0.062975,0.1450625
1679993573033,1173561388668025,-0.2297625,-0.0639375,0.147125
1679993573038,1173561391170122,-0.230725,-0.067925,0.1461625
1679993573039,1173561393672045,-0.2286625,-0.0688875,0.1441
1679993573042,1173561396174199,-0.230725,-0.0688875,0.147125
1679993573044,1173561398676352,-0.230725,-0.0699875,0.1461625
1679993573046,1173561401178429,-0.2297625,-0.0688875,0.1441
1679993573048,1173561403680578,-0.230725,-0.067925,0.1441
1679993573052,1173561406182732,-0.2297625,-0.0669625,0.1450625
1679993573054,1173561408684886,-0.2286625,-0.0699875,0.1450625
1679993573056,1173561411186809,-0.2286625,-0.0719125,0.1450625
1679993573060,1173561413688968,-0.2286625,-0.07095,0.147125
1679993573062,1173561416191045,-0.2297625,-0.0749375,0.1441
1679993573064,1173561418693275,-0.230725,-0.0779625,0.1461625
1679993573066,1173561421195352,-0.2297625,-0.067925,0.1480875
1679993573069,1173561423697506,-0.230725,-0.0719125,0.147125
1679993573078,1173561426199442,-0.2267375,-0.0730125,0.1480875
1679993573080,1173561428701596,-0.230725,-0.077,0.1480875
1679993573080,1173561431203750,-0.2347125,-0.0779625,0.1461625
1679993573081,1173561433705841,-0.230725,-0.077,0.1461625
1679993573083,1173561436207995,-0.2327875,-0.08195,0.1441
1679993573085,1173561438710149,-0.23375,-0.0859375,0.1431375
1679993573087,1173561441212072,-0.2347125,-0.088,0.1450625
1679993573089,1173561443714226,-0.2387,-0.0950125,0.1441
1679993573092,1173561446216384,-0.23375,-0.0979,0.1441
1679993573095,1173561448718538,-0.2327875,-0.099,0.1461625
1679993573096,1173561451220615,-0.2347125,-0.10395,0.1450625
1679993573100,1173561453722538,-0.23773749,-0.108899996,0.1441
1679993573102,1173561456224702,-0.2316875,-0.111925,0.1431375
1679993573104,1173561458726856,-0.2327875,-0.11495,0.1441
1679993573106,1173561461229010,-0.2347125,-0.1170125,0.1431375
1679993573111,1173561463731087,-0.23375,-0.1269125,0.141075
1679993573113,1173561466233222,-0.23375,-0.132,0.13805
1679993573115,1173561468735376,-0.23375,-0.1348875,0.141075
1679993573117,1173561471237299,-0.23773749,-0.1419,0.141075
1679993573119,1173561473739452,-0.236775,-0.1458875,0.141075
1679993573122,1173561476241606,-0.2316875,-0.150975,0.136125
1679993573124,1173561478743750,-0.2327875,-0.154,0.13805
1679993573126,1173561481245827,-0.2327875,-0.1549625,0.1370875
1679993573128,1173561483747981,-0.230725,-0.161975,0.13915
1679993573132,1173561486249904,-0.2297625,-0.1659625,0.1370875
1679993573134,1173561488751981,-0.2327875,-0.166925,0.1351625
1679993573136,1173561491254232,-0.230725,-0.1659625,0.1370875
1679993573139,1173561493756386,-0.2277,-0.166925,0.13805
1679993573143,1173561496258463,-0.2277,-0.1720125,0.136125
1679993573144,1173561498760616,-0.2267375,-0.177925,0.1331
1679993573146,1173561501262520,-0.2286625,-0.177925,0.1310375
1679993573150,1173561503764674,-0.230725,-0.1788875,0.1331
1679993573152,1173561506267059,-0.2286625,-0.1788875,0.1351625
1679993573156,1173561508768982,-0.225775,-0.1819125,0.1351625
1679993573158,1173561511271064,-0.2217875,-0.1830125,0.1331
1679993573159,1173561513773218,-0.2217875,-0.18095,0.136125
1679993573163,1173561516275372,-0.2217875,-0.1819125,0.1351625
1679993573165,1173561518777295,-0.22275,-0.1819125,0.1351625
1679993573166,1173561521279468,-0.219725,-0.1819125,0.136125
1679993573169,1173561523781621,-0.2167,-0.18095,0.1310375
1679993573172,1173561526283775,-0.2167,-0.1859,0.130075
1679993573174,1173561528785852,-0.21367499,-0.183975,0.1291125
1679993573178,1173561531287775,-0.21175,-0.1819125,0.130075
1679993573179,1173561533789929,-0.2107875,-0.176,0.12705
1679993573183,1173561536292006,-0.2096875,-0.1788875,0.12815
1679993573184,1173561538794237,-0.208725,-0.1799875,0.12705
1679993573188,1173561541296415,-0.203775,-0.1788875,0.122099996
1679993573189,1173561543798492,-0.2017125,-0.1799875,0.120037496
1679993573194,1173561546300415,-0.2017125,-0.177925,0.1211375
1679993573195,1173561548802569,-0.20075,-0.1749,0.11715
1679993573196,1173561551304722,-0.20075,-0.1769625,0.1150875
1679993573198,1173561553806866,-0.20075,-0.177925,0.1131625
1679993573202,1173561556309020,-0.1967625,-0.1769625,0.1111
1679993573203,1173561558811097,-0.1956625,-0.1769625,0.1111
1679993573206,1173561561313251,-0.1947,-0.1799875,0.1111
1679993573210,1173561563815169,-0.1947,-0.1769625,0.109037496
1679993573212,1173561566317323,-0.19167499,-0.18095,0.10505
1679993573214,1173561568819477,-0.18975,-0.1799875,0.10505
1679993573216,1173561571321631,-0.1887875,-0.18095,0.103125
1679993573219,1173561573823784,-0.186725,-0.1830125,0.10505
1679993573222,1173561576325861,-0.1846625,-0.1859,0.103125
1679993573227,1173561578827784,-0.1827375,-0.187,0.100099996
1679993573228,1173561581329938,-0.1797125,-0.1909875,0.100099996
1679993573230,1173561583832333,-0.1797125,-0.19195,0.100099996
1679993573233,1173561586334256,-0.1777875,-0.1929125,0.098037496
1679993573235,1173561588836333,-0.1727,-0.1989625,0.100099996
1679993573237,1173561591338487,-0.16775,-0.198,0.098037496
1679993573239,1173561593840410,-0.16775,-0.1989625,0.100099996
1679993573243,1173561596342578,-0.159775,-0.20295,0.0991375
1679993573244,1173561598844962,-0.15675,-0.199925,0.09515
1679993573246,1173561601346885,-0.1577125,-0.199925,0.09405
1679993573249,1173561603848962,-0.153725,-0.2050125,0.092125
1679993573253,1173561606351102,-0.147675,-0.2039125,0.0900625
1679993573254,1173561608853256,-0.147675,-0.20693749,0.087037496
1679993573256,1173561611355179,-0.1467125,-0.20899999,0.08305
1679993573261,1173561613857333,-0.1447875,-0.2099625,0.081125
1679993573264,1173561616359463,-0.1436875,-0.2050125,0.0760375
1679993573266,1173561618861617,-0.1417625,-0.20899999,0.0741125
1679993573267,1173561621363694,-0.1436875,-0.2099625,0.07205
1679993573269,1173561623865847,-0.1406625,-0.2079,0.0710875
1679993573273,1173561626367771,-0.1397,-0.2079,0.0671
1679993573274,1173561628869890,-0.137775,-0.20899999,0.0691625
1679993573277,1173561631372275,-0.1357125,-0.20899999,0.0650375
1679993573279,1173561633874198,-0.13475,-0.20693749,0.0631125
1679993573284,1173561636376275,-0.1307625,-0.20693749,0.061049998
1679993573285,1173561638878429,-0.126775,-0.2079,0.06215
1679993573290,1173561641380352,-0.125675,-0.20295,0.06215
1679993573291,1173561643882506,-0.12375,-0.2019875,0.0570625
1679993573294,1173561646384660,-0.120725,-0.2050125,0.0540375
1679993573298,1173561648886814,-0.114675,-0.2008875,0.0540375
1679993573299,1173561651388895,-0.109725,-0.199925,0.0540375
1679993573301,1173561653891049,-0.1076625,-0.2019875,0.0521125
1679993573304,1173561656393203,-0.10175,-0.1969,0.0471625
1679993573305,1173561659039091,-0.10175,-0.1959375,0.0430375
1679993573307,1173561661397245,-0.1007875,-0.1940125,0.042075
1679993573309,1173561663899399,-0.095699996,-0.1929125,0.039049998
1679993573312,1173561666401476,-0.093775,-0.1879625,0.0361625
1679993573314,1173561668903630,-0.09075,-0.188925,0.0331375
1679993573316,1173561671405789,-0.0886875,-0.18493749,0.0331375
1679993573319,1173561673907942,-0.0856625,-0.18095,0.031075
1679993573322,1173561676409865,-0.0837375,-0.1799875,0.02915
1679993573324,1173561678912019,-0.081675,-0.1788875,0.026124999
1679993573326,1173561681414173,-0.0746625,-0.1709125,0.0240625
1679993573329,1173561683916250,-0.073699996,-0.1689875,0.0240625
1679993573333,1173561686418173,-0.071775,-0.1659625,0.0221375
1679993573335,1173561688920558,-0.06875,-0.16293749,0.01705
1679993573338,1173561691422688,-0.0677875,-0.155925,0.015125
1679993573340,1173561693924611,-0.0617375,-0.155925,0.013062499
1679993573343,1173561696426688,-0.05775,-0.1500125,0.0100375
1679993573345,1173561698928842,-0.054725,-0.1489125,0.009075
1679993573346,1173561701430995,-0.0556875,-0.1458875,0.00605
1679993573349,1173561703933163,-0.0517,-0.1379125,0.0031625
1679993573354,1173561706435317,-0.0457875,-0.13695,-9.625E-4
1679993573355,1173561708937240,-0.0477125,-0.132,-0.00385
1679993573357,1173561711439394,-0.0407,-0.1249875,-0.00495
1679993573359,1173561713941471,-0.03575,-0.1269125,-0.0078375
1679993573362,1173561716443625,-0.03575,-0.1199,-0.0099
1679993573365,1173561718945779,-0.0317625,-0.1159125,-0.0119624995
1679993573366,1173561721447933,-0.026675,-0.1170125,-0.01595
1679993573369,1173561723949856,-0.0226875,-0.111925,-0.017875
1679993573372,1173561726452009,-0.0187,-0.1060125,-0.0209
1679993573376,1173561728954086,-0.014712499,-0.1018875,-0.023924999
1679993573378,1173561731456240,-0.0116875,-0.1029875,-0.02585
1679993573380,1173561733958370,-0.0097624995,-0.0969375,-0.0319
1679993573382,1173561736460524,-0.005775,-0.0919875,-0.034925
1679993573384,1173561738962447,0.0012375,-0.0889625,-0.036849998
1679993573387,1173561741464601,0.0033,-0.0859375,-0.0389125
1679993573389,1173561743966678,0.0072875,-0.086899996,-0.0419375
1679993573394,1173561746468808,0.0103124995,-0.0829125,-0.0449625
1679993573396,1173561748971038,0.016224999,-0.0730125,-0.047849998
1679993573397,1173561751473115,0.0213125,-0.0699875,-0.050875
1679993573399,1173561753975038,0.0243375,-0.0669625,-0.0539
1679993573402,1173561756477168,0.0292875,-0.0589875,-0.0548625
1679993573404,1173561758979322,0.03025,-0.0589875,-0.05995
1679993573406,1173561761481399,0.033275,-0.0578875,-0.0609125
1679993573410,1173561763983322,0.038225,-0.051975,-0.0609125
1679993573413,1173561766485697,0.044275,-0.0510125,-0.0658625
1679993573415,1173561768987851,0.0473,-0.0510125,-0.072875
1679993573417,1173561771489774,0.0463375,-0.04895,-0.0738375
1679993573423,1173561773991928,0.0512875,-0.0449625,-0.0738375
1679993573424,1173561776494004,0.0573375,-0.0468875,-0.0768625
1679993573426,1173561778996158,0.060225,-0.0499125,-0.078925
1679993573428,1173561781498312,0.066275,-0.0479875,-0.0848375
1679993573429,1173561784000466,0.069299996,-0.0479875,-0.0878625
1679993573432,1173561786502389,0.077275,-0.0468875,-0.089925
1679993573434,1173561789004543,0.083325,-0.04895,-0.0908875
1679993573436,1173561791506635,0.088275,-0.0468875,-0.094875
1679993573439,1173561794008789,0.089237496,-0.0510125,-0.0988625
1679993573442,1173561796510943,0.09625,-0.0510125,-0.0999625
1679993573444,1173561799013096,0.100237496,-0.0499125,-0.1049125
1679993573446,1173561801515048,0.100237496,-0.0479875,-0.1079375
1679993573450,1173561804017201,0.105325,-0.0479875,-0.1109625
1679993573453,1173561806519355,0.1093125,-0.0499125,-0.111925
1679993573455,1173561809021432,0.113299996,-0.051975,-0.1159125
1679993573457,1173561811523596,0.11825,-0.0499125,-0.117837496
1679993573460,1173561814025750,0.121275,-0.0539,-0.1189375
1679993573462,1173561816527904,0.1243,-0.0539,-0.1208625
1679993573464,1173561819029827,0.126225,-0.0529375,-0.12595
1679993573466,1173561821531904,0.1332375,-0.055,-0.127875
1679993573469,1173561824034044,0.1392875,-0.051975,-0.12595
1679993573472,1173561826536274,0.14025,-0.0499125,-0.1269125
1679993573474,1173561829038351,0.1423125,-0.0479875,-0.127875
1679993573477,1173561831540534,0.143275,-0.045925,-0.1318625
1679993573479,1173561834042457,0.149325,-0.0429,-0.1329625
1679993573482,1173561836544611,0.1522125,-0.0389125,-0.13585
1679993573485,1173561839046688,0.1552375,-0.034925,-0.1348875
1679993573488,1173561841548838,0.160325,-0.0290125,-0.1379125
1679993573490,1173561844050992,0.16225,-0.0259875,-0.1398375
1679993573493,1173561846553146,0.1692625,-0.0259875,-0.138875
1679993573495,1173561849055069,0.17325,-0.022,-0.1419
1679993573497,1173561851557223,0.1753125,-0.0169125,-0.1419
1679993573500,1173561854059313,0.1783375,-0.01595,-0.14093749
1679993573502,1173561856561467,0.1802625,-0.012925,-0.1398375
1679993573504,1173561859063621,0.18425,-0.00495,-0.1419
1679993573506,1173561861565775,0.1903,-0.0059125,-0.1419
1679993573509,1173561864067698,0.192225,-0.007975,-0.1398375
1679993573512,1173561866569842,0.1962125,-0.00495,-0.1428625
1679993573514,1173561869071919,0.1992375,-9.625E-4,-0.1428625
1679993573518,1173561871574073,0.2022625,0.003025,-0.1419
1679993573520,1173561874076304,0.2052875,0.0070125,-0.1428625
1679993573522,1173561876578390,0.20927499,0.011,-0.144925
1679993573526,1173561879080314,0.2123,0.013062499,-0.144925
1679993573531,1173561881582467,0.2132625,0.0210375,-0.14795
1679993573531,1173561884084621,0.2123,0.0270875,-0.1489125
1679993573533,1173561886586683,0.2123,0.022,-0.1489125
1679993573534,1173561889088837,0.2132625,0.022,-0.1519375
1679993573536,1173561891590991,0.2162875,0.036025,-0.1508375
1679993573540,1173561894092914,0.2193125,0.0369875,-0.1508375
1679993573542,1173561896594991,0.2193125,0.0350625,-0.1519375
1679993573544,1173561899097222,0.21725,0.0400125,-0.1519375
1679993573547,1173561901599375,0.2193125,0.0451,-0.149875
1679993573549,1173561904101452,0.2193125,0.044,-0.1489125
1679993573553,1173561906603616,0.220275,0.044,-0.149875
1679993573554,1173561909105539,0.220275,0.0460625,-0.149875
1679993573559,1173561911607693,0.2193125,0.047025,-0.14795
1679993573560,1173561914109847,0.2182125,0.0451,-0.14795
1679993573564,1173561916612035,0.2212375,0.047025,-0.1458875
1679993573566,1173561919114112,0.2212375,0.0479875,-0.144925
1679993573567,1173561921616266,0.2233,0.0479875,-0.1489125
1679993573569,1173561924118189,0.2223375,0.0490875,-0.144925
1679993573575,1173561926620319,0.220275,0.0510125,-0.1419
1679993573575,1173561929122396,0.2212375,0.050049998,-0.1439625
1679993573577,1173561931624626,0.220275,0.050049998,-0.1428625
1679993573580,1173561934126703,0.2193125,0.0521125,-0.1439625
1679993573582,1173561936628857,0.2193125,0.0561,-0.1419
1679993573584,1173561939131011,0.2193125,0.0570625,-0.1428625
1679993573586,1173561941632934,0.2162875,0.0570625,-0.14093749
1679993573589,1173561944135011,0.214225,0.0600875,-0.1398375
1679993573592,1173561946637242,0.2132625,0.0589875,-0.1379125
1679993573594,1173561949139396,0.2123,0.064075,-0.1379125
1679993573596,1173561951641501,0.214225,0.064075,-0.133925
1679993573601,1173561954143654,0.20927499,0.0620125,-0.1318625
1679993573603,1173561956645577,0.20625,0.0699875,-0.1309
1679993573605,1173561959147731,0.20625,0.0730125,-0.1238875
1679993573606,1173561961650116,0.203225,0.0790625,-0.1219625
1679993573609,1173561964152039,0.2013,0.0790625,-0.1189375
1679993573612,1173561966654116,0.1992375,0.0851125,-0.1189375
1679993573614,1173561969156270,0.1962125,0.086075,-0.1109625
1679993573616,1173561971658429,0.1903,0.087037496,-0.1079375
1679993573620,1173561974160352,0.1852125,0.0950125,-0.105875
1679993573624,1173561976662506,0.182325,0.100099996,-0.10285
1679993573629,1173561979164659,0.181225,0.102025,-0.100925
1679993573629,1173561981666756,0.1793,0.10505,-0.0999625
1679993573629,1173561984168910,0.17325,0.1071125,-0.09185
1679993573633,1173561986671064,0.1683,0.1111,-0.0889625
1679993573634,1173561989172987,0.170225,0.1150875,-0.083875
1679993573637,1173561991675073,0.1683,0.1181125,-0.08195
1679993573640,1173561994177304,0.16225,0.1181125,-0.0759
1679993573642,1173561996679458,0.160325,0.119075,-0.0688875
1679993573644,1173561999181535,0.15619999,0.121,-0.0688875
1679993573647,1173562001683458,0.154275,0.122099996,-0.0688875
1679993573649,1173562004185607,0.149325,0.1249875,-0.0669625
1679993573652,1173562006687760,0.1452,0.1291125,-0.061875
1679993573654,1173562009189914,0.143275,0.1310375,-0.058849998
1679993573657,1173562011692068,0.14025,0.1310375,-0.056925
1679993573661,1173562014194131,0.132275,0.1370875,-0.0539
1679993573663,1173562016696285,0.127325,0.1450625,-0.0518375
1679993573664,1173562019198208,0.122237496,0.1420375,-0.050875
1679993573666,1173562021700362,0.1122,0.1441,-0.0429
1679993573669,1173562024202516,0.105325,0.1480875,-0.0408375
1679993573672,1173562026704651,0.099275,0.152075,-0.0389125
1679993573677,1173562029206727,0.0972125,0.152075,-0.034925
1679993573678,1173562031708881,0.093225,0.1511125,-0.028875
1679993573679,1173562034210804,0.0842875,0.152075,-0.02695
1679993573683,1173562036712943,0.0803,0.1590875,-0.023924999
1679993573684,1173562039215097,0.0752125,0.154,-0.0199375
1679993573686,1173562041717251,0.071225,0.1590875,-0.0188375
1679993573689,1173562044219405,0.0682,0.163075,-0.012925
1679993573693,1173562046721468,0.0622875,0.16499999,-0.0108624995
1679993573694,1173562049223391,0.0572,0.1661,-0.0078375
1679993573696,1173562051725545,0.050325,0.16499999,-0.00495
1679993573700,1173562054227929,0.044275,0.1670625,-9.625E-4
1679993573703,1173562056729856,0.0372625,0.168025,0.0020625
1679993573704,1173562059231933,0.027224999,0.1689875,0.00605
1679993573706,1173562061734087,0.0242,0.168025,0.0111375
1679993573710,1173562064236241,0.0202125,0.168025,0.0160875
1679993573713,1173562066738160,0.015262499,0.17105,0.0210375
1679993573715,1173562069240314,0.005225,0.1720125,0.0251625
1679993573718,1173562071742468,0.0012375,0.1750375,0.02915
1679993573720,1173562074244622,-0.0037125,0.1810875,0.0331375
1679993573723,1173562076746699,-0.0127875,0.1860375,0.0361625
1679993573725,1173562079248856,-0.0177375,0.1890625,0.039049998
1679993573727,1173562081750780,-0.0207625,0.19607499,0.0430375
1679993573729,1173562084252933,-0.026675,0.201025,0.0451
1679993573732,1173562086755087,-0.0336875,0.2050125,0.048125
1679993573734,1173562089257241,-0.0418,0.2061125,0.0521125
1679993573736,1173562091759328,-0.043725,0.2101,0.0540375
1679993573740,1173562094261482,-0.0477125,0.2129875,0.0581625
1679993573743,1173562096763405,-0.0528,0.2129875,0.0600875
1679993573744,1173562099265559,-0.0627,0.2190375,0.06215
1679993573747,1173562101767977,-0.0647625,0.2190375,0.06215
1679993573750,1173562104269901,-0.0748,0.2190375,0.0661375
1679993573753,1173562106771977,-0.0807125,0.21807499,0.0710875
1679993573755,1173562109274131,-0.0837375,0.2160125,0.0741125
1679993573757,1173562111776285,-0.0968,0.2160125,0.078099996
1679993573761,1173562114278439,-0.10175,0.21807499,0.081125
1679993573763,1173562116780593,-0.1067,0.2140875,0.0820875
1679993573764,1173562119282516,-0.1087625,0.2190375,0.08305
1679993573767,1173562121784593,-0.114675,0.2171125,0.0911625
1679993573769,1173562124286713,-0.1216875,0.212025,0.0930875
1679993573772,1173562126788943,-0.126775,0.20899999,0.0961125
1679993573774,1173562129291020,-0.1326875,0.2129875,0.0991375
1679993573776,1173562131792943,-0.137775,0.20899999,0.100099996
1679993573780,1173562134295092,-0.142725,0.2101,0.1040875
1679993573783,1173562136797246,-0.148775,0.2129875,0.10615
1679993573784,1173562139299323,-0.153725,0.20899999,0.1101375
1679993573788,1173562141801554,-0.159775,0.20899999,0.1101375
1679993573790,1173562144303636,-0.1617,0.2061125,0.1120625
1679993573793,1173562146805790,-0.1687125,0.2050125,0.120037496
1679993573795,1173562149307713,-0.175725,0.2061125,0.1211375
1679993573796,1173562151809867,-0.1777875,0.1991,0.120037496
1679993573799,1173562154311944,-0.181775,0.2050125,0.122099996
1679993573802,1173562156814087,-0.186725,0.2101,0.125125
1679993573804,1173562159316241,-0.19373749,0.212025,0.12815
1679993573807,1173562161818395,-0.1986875,0.2101,0.1291125
1679993573810,1173562164320549,-0.2047375,0.20899999,0.1331
1679993573813,1173562166822458,-0.2077625,0.20899999,0.13805
1679993573814,1173562169324535,-0.214775,0.2129875,0.13915
1679993573816,1173562171826689,-0.219725,0.2129875,0.1420375
1679993573820,1173562174328920,-0.225775,0.212025,0.1441
1679993573822,1173562176830992,-0.2297625,0.212025,0.14905
1679993573826,1173562179332915,-0.2327875,0.21505,0.1560625
1679993573828,1173562181835068,-0.23375,0.21505,0.16005
1679993573832,1173562184337222,-0.23773749,0.2171125,0.163075
1679993573835,1173562186839318,-0.241725,0.22,0.1651375
1679993573836,1173562189341472,-0.2437875,0.2211,0.1640375
1679993573836,1173562191843626,-0.2497,0.2211,0.169125
1679993573839,1173562194345780,-0.2508,0.223025,0.17215
1679993573842,1173562196847703,-0.2517625,0.2270125,0.1731125
1679993573845,1173562199349857,-0.2567125,0.2281125,0.1731125
1679993573846,1173562201851934,-0.258775,0.229075,0.1750375
1679993573849,1173562204354164,-0.2618,0.22605,0.1780625
1679993573852,1173562206856265,-0.263725,0.2281125,0.1780625
1679993573854,1173562209358419,-0.2717,0.2220625,0.1771
1679993573856,1173562211860342,-0.2756875,0.2220625,0.180125
1679993573860,1173562214362496,-0.279675,0.22605,0.18205
1679993573864,1173562216864568,-0.2817375,0.2190375,0.185075
1679993573866,1173562219366722,-0.2897125,0.21807499,0.1890625
1679993573868,1173562221868953,-0.29273748,0.2140875,0.1890625
1679993573869,1173562224371030,-0.29479998,0.2061125,0.1901625
1679993573872,1173562226872953,-0.296725,0.2061125,0.1920875
1679993573874,1173562229375102,-0.302775,0.2019875,0.19305
1679993573877,1173562231877255,-0.3007125,0.198,0.19415
1679993573879,1173562234379332,-0.3058,0.1890625,0.19813749
1679993573883,1173562236881563,-0.3086875,0.1841125,0.19813749
1679993573885,1173562239383645,-0.3086875,0.1810875,0.202125
1679993573887,1173562241885799,-0.3067625,0.1750375,0.202125
1679993573889,1173562244387722,-0.3086875,0.17105,0.20405
1679993573893,1173562246889876,-0.3147375,0.1640375,0.20515
1679993573895,1173562249391953,-0.3147375,0.1551,0.20515
1679993573897,1173562251894199,-0.313775,0.154,0.2080375
1679993573901,1173562254396275,-0.3147375,0.1511125,0.207075
1679993573904,1173562256898429,-0.3157,0.143,0.2080375
1679993573905,1173562259496871,-0.3168,0.13805,0.2080375
1679993573907,1173562261902486,-0.3196875,0.1340625,0.207075
1679993573909,1173562264404563,-0.3227125,0.132,0.20515
1679993573913,1173562266906794,-0.32175,0.1260875,0.2080375
1679993573914,1173562269408871,-0.32175,0.1230625,0.2080375
1679993573917,1173562271911030,-0.3227125,0.119075,0.2110625
1679993573920,1173562274412953,-0.32175,0.1120625,0.2121625
1679993573923,1173562276915107,-0.3257375,0.109037496,0.21505
1679993573925,1173562279417261,-0.3306875,0.1071125,0.213125
1679993573927,1173562281919428,-0.33275,0.100099996,0.213125
1679993573929,1173562284421505,-0.335775,0.098037496,0.2121625
1679993573932,1173562286923659,-0.3337125,0.0919875,0.21505
1679993573934,1173562289425813,-0.33673748,0.086075,0.21807499
1679993573938,1173562291927751,-0.33673748,0.0820875,0.2190375
1679993573941,1173562294429905,-0.3388,0.077,0.22013749
1679993573944,1173562296931982,-0.3397625,0.075075,0.2220625
1679993573945,1173562299434213,-0.33673748,0.075075,0.2250875
1679993573947,1173562301936290,-0.335775,0.066,0.22605
1679993573950,1173562304438433,-0.335775,0.0600875,0.2281125
1679993573952,1173562306940357,-0.33673748,0.0589875,0.22715
1679993573954,1173562309442510,-0.3337125,0.0570625,0.2281125
1679993573957,1173562311944587,-0.33275,0.0510125,0.2311375
1679993573960,1173562314446813,-0.33673748,0.0479875,0.229075
1679993573962,1173562316948890,-0.335775,0.0430375,0.2281125
1679993573964,1173562319451044,-0.3317875,0.0369875,0.229075
1679993573967,1173562321952967,-0.335775,0.02805,0.2321
1679993573969,1173562324455121,-0.335775,0.0290125,0.235125
1679993573974,1173562326957266,-0.3388,0.0210375,0.2321
1679993573976,1173562329459420,-0.3306875,0.0149875,0.2330625
1679993573980,1173562331961496,-0.33275,0.014025,0.2330625
1679993573982,1173562334463664,-0.3337125,0.011,0.2330625
1679993573984,1173562336965587,-0.33275,0.0070125,0.2300375
1679993573985,1173562339467972,-0.3306875,-0.001925,0.2300375
1679993573987,1173562341969895,-0.335775,-0.0059125,0.235125
1679993573989,1173562344472049,-0.3317875,-0.0039875,0.23815
1679993573993,1173562346974126,-0.3287625,-0.0070125,0.23705
1679993573994,1173562349476280,-0.3267,-0.0089375,0.23705
1679993573997,1173562351978203,-0.3257375,-0.0119624995,0.2391125
1679993573999,1173562354480357,-0.32175,-0.0199375,0.2410375
1679993574003,1173562356982496,-0.3207875,-0.0209,0.2431
1679993574005,1173562359484650,-0.3157,-0.0248875,0.2451625
1679993574007,1173562361986727,-0.31075,-0.0229625,0.2431
1679993574011,1173562364488881,-0.3086875,-0.0248875,0.2451625
1679993574015,1173562366991044,-0.3037375,-0.0229625,0.2451625
1679993574016,1173562369492967,-0.29975,-0.0248875,0.246125
1679993574018,1173562371995121,-0.296725,-0.0209,0.246125
1679993574020,1173562374497275,-0.29273748,-0.0209,0.2470875
1679993574023,1173562376999444,-0.29479998,-0.0209,0.2470875
1679993574026,1173562379501521,-0.29067498,-0.0169125,0.246125
1679993574028,1173562382003674,-0.2897125,-0.018975,0.2440625
1679993574029,1173562384505597,-0.2838,-0.01595,0.2431
1679993574033,1173562387007986,-0.2817375,-0.01595,0.24007499
1679993574034,1173562389509909,-0.2866875,-0.007975,0.23705
1679993574037,1173562392012063,-0.28875,-0.0099,0.23705
1679993574039,1173562394514140,-0.2897125,-0.00495,0.2360875
1679993574043,1173562397016294,-0.2866875,-0.0039875,0.2360875
1679993574046,1173562399518217,-0.28875,-0.0028875,0.2321
1679993574047,1173562402020371,-0.2897125,-0.001925,0.2321
1679993574051,1173562404522755,-0.28875,-9.625E-4,0.229075
1679993574054,1173562407024659,-0.2866875,-0.001925,0.2311375
1679993574056,1173562409526736,-0.2866875,0.0,0.229075
1679993574058,1173562412028890,-0.2847625,0.0,0.2311375
1679993574061,1173562414531044,-0.2827,0.003025,0.235125
1679993574063,1173562417032967,-0.2787125,0.003025,0.235125
1679993574064,1173562419535116,-0.2767875,0.0,0.235125
1679993574066,1173562422037270,-0.2737625,-0.001925,0.23815
1679993574070,1173562424539424,-0.2728,0.0,0.2391125
1679993574073,1173562427041501,-0.2707375,-0.0039875,0.2391125
1679993574075,1173562429543655,-0.2677125,-0.0028875,0.2391125
1679993574079,1173562432045602,-0.2607,-9.625E-4,0.23815
1679993574081,1173562434547986,-0.257675,-9.625E-4,0.23705
1679993574083,1173562437049909,-0.257675,0.0020625,0.24007499
1679993574085,1173562439552063,-0.257675,-0.0028875,0.2391125
1679993574089,1173562442054140,-0.25575,-0.0039875,0.23815
1679993574090,1173562444556294,-0.25575,-0.0039875,0.2391125
1679993574093,1173562447058217,-0.2536875,-0.0070125,0.235125
1679993574095,1173562449560352,-0.2487375,-0.00495,0.235125
1679993574097,1173562452062736,-0.247775,-0.0070125,0.2360875
1679993574102,1173562454564660,-0.2457125,-0.0099,0.235125
1679993574103,1173562457066737,-0.2457125,-0.0149875,0.2321
1679993574105,1173562459568885,-0.24475,-0.0149875,0.2311375
1679993574107,1173562462071039,-0.241725,-0.018975,0.2321
1679993574110,1173562464572962,-0.23773749,-0.0209,0.2311375
1679993574112,1173562467075347,-0.2327875,-0.0248875,0.2321
1679993574114,1173562469577270,-0.2316875,-0.02695,0.2330625
1679993574118,1173562472079448,-0.2267375,-0.0339625,0.2311375
1679993574119,1173562474581525,-0.224675,-0.0369875,0.2300375
1679993574123,1173562477083679,-0.2237125,-0.0419375,0.2281125
1679993574127,1173562479585602,-0.21573749,-0.045925,0.22715
1679993574129,1173562482087981,-0.214775,-0.0499125,0.22715
1679993574130,1173562484589904,-0.21175,-0.0578875,0.2231625
1679993574133,1173562487092058,-0.2068,-0.0609125,0.2211
1679993574137,1173562489594135,-0.203775,-0.064899996,0.21807499
1679993574138,1173562492096289,-0.197725,-0.0719125,0.21505
1679993574140,1173562494598222,-0.1947,-0.077,0.213125
1679993574143,1173562497100607,-0.186725,-0.0779625,0.2101
1679993574145,1173562499602761,-0.1837,-0.0809875,0.2080375
1679993574146,1173562502104684,-0.1827375,-0.0859375,0.20515
1679993574149,1173562504606761,-0.176825,-0.0859375,0.2061125
1679993574153,1173562507108914,-0.1747625,-0.0889625,0.20515
1679993574154,1173562509611068,-0.170775,-0.0889625,0.20515
1679993574157,1173562512112991,-0.164725,-0.0939125,0.2061125
1679993574160,1173562514615361,-0.1607375,-0.09295,0.20515
1679993574164,1173562517117284,-0.159775,-0.0939125,0.202125
1679993574166,1173562519619438,-0.1507,-0.0919875,0.19813749
1679993574167,1173562522121515,-0.14575,-0.0889625,0.19813749
1679993574169,1173562524623683,-0.143825,-0.0859375,0.1970375
1679993574172,1173562527125606,-0.1397,-0.084975,0.19415
1679993574176,1173562529627990,-0.132825,-0.08195,0.191125
1679993574178,1173562532129914,-0.126775,-0.0730125,0.1881
1679993574180,1173562534632067,-0.12375,-0.07095,0.185075
1679993574183,1173562537134221,-0.121825,-0.0639375,0.180125
1679993574185,1173562539636298,-0.1148125,-0.051975,0.1780625
1679993574187,1173562542138221,-0.11275,-0.0499125,0.1771
1679993574190,1173562544640601,-0.1117875,-0.0449625,0.1750375
1679993574193,1173562547142755,-0.1057375,-0.0369875,0.17215
1679993574195,1173562549644678,-0.1038125,-0.029975,0.169125
1679993574197,1173562552146832,-0.099825,-0.025024999,0.169125
1679993574201,1173562554648899,-0.098725,-0.014025,0.1651375
1679993574203,1173562557151052,-0.098725,-0.011,0.1651375
1679993574205,1173562559652976,-0.0947375,-0.00495,0.16115
1679993574210,1173562562155360,-0.09075,0.0011,0.1590875
1679993574211,1173562564657283,-0.088825,0.003025,0.158125
1679993574213,1173562567159360,-0.087725,0.011,0.15413749
1679993574215,1173562569661514,-0.082775,0.014025,0.15015
1679993574218,1173562572163745,-0.082775,0.0180125,0.14905
1679993574219,1173562574665822,-0.0787875,0.0240625,0.1441
1679993574223,1173562577167779,-0.073699996,0.0231,0.1401125
1679993574225,1173562579669933,-0.0727375,0.0259875,0.1401125
1679993574227,1173562582172086,-0.0677875,0.0240625,0.13805
1679993574229,1173562584674163,-0.0627,0.0231,0.1331
1679993574232,1173562587176399,-0.0647625,0.0259875,0.1291125
1679993574234,1173562589678476,-0.0627,0.0240625,0.125125
1679993574238,1173562592180630,-0.0567875,0.020075,0.1260875
1679993574240,1173562594682553,-0.0507375,0.0121,0.1230625
1679993574244,1173562597184712,-0.0457875,0.011,0.122099996
1679993574245,1173562599686866,-0.0457875,0.00605,0.1150875
1679993574249,1173562602188943,-0.0418,-0.003025,0.114125
1679993574253,1173562604691097,-0.03575,-0.0070125,0.1131625
1679993574253,1173562607193250,-0.0297,-0.007975,0.108075
1679993574255,1173562609695394,-0.0287375,-0.0119624995,0.1040875
1679993574259,1173562612197317,-0.02475,-0.01595,0.0991375
1679993574259,1173562614699471,-0.0207625,-0.0229625,0.09515
1679993574263,1173562617201548,-0.0158125,-0.02695,0.0900625
1679993574265,1173562619703793,-0.0127875,-0.0279125,0.0851125
1679993574267,1173562622205870,-0.0097624995,-0.0369875,0.078099996
1679993574269,1173562624708024,-0.0037125,-0.0369875,0.0760375
1679993574273,1173562627209947,0.0012375,-0.0419375,0.0741125
1679993574276,1173562629712106,0.0022,-0.047025,0.0671
1679993574278,1173562632214183,0.0042625,-0.0499125,0.0631125
1679993574280,1173562634716336,0.0092124995,-0.051975,0.061049998
1679993574283,1173562637218490,0.011275,-0.0539,0.0561
1679993574286,1173562639720644,0.0171875,-0.058025,0.0561
1679993574289,1173562642222552,0.022275,-0.0539,0.0570625
1679993574289,1173562644724706,0.0242,-0.058025,0.0521125
1679993574293,1173562647226860,0.03025,-0.0589875,0.0490875
1679993574294,1173562649728937,0.032175,-0.0609125,0.0460625
1679993574298,1173562652231101,0.0372625,-0.062975,0.04015
1679993574299,1173562654733255,0.0391875,-0.0620125,0.037125
1679993574303,1173562657235408,0.043175,-0.0620125,0.0320375
1679993574304,1173562659737331,0.0501875,-0.0620125,0.02915
1679993574307,1173562662239485,0.0562375,-0.0620125,0.0231
1679993574310,1173562664741543,0.0592625,-0.0609125,0.01705
1679993574314,1173562667243774,0.060225,-0.058025,0.013062499
1679993574316,1173562669745928,0.065175,-0.0559625,0.009075
1679993574318,1173562672248005,0.0672375,-0.0510125,0.00715
1679993574320,1173562674749923,0.0721875,-0.04895,0.004125
1679993574324,1173562677252077,0.0752125,-0.0449625,0.0020625
1679993574325,1173562679754154,0.077275,-0.0369875,1.375E-4
1679993574327,1173562682256308,0.0812625,-0.029975,-0.0028875
1679993574329,1173562684758538,0.0812625,-0.018975,-0.00495
1679993574333,1173562687260610,0.0862125,-0.011,-0.0108624995
1679993574335,1173562689762533,0.087175,0.0,-0.0199375
1679993574338,1173562692264687,0.0902,0.0039875,-0.0248875
1679993574340,1173562694766841,0.091299996,0.0121,-0.028875
1679993574345,1173562697268913,0.091299996,0.0231,-0.0358875
1679993574345,1173562699771067,0.093225,0.031075,-0.0389125
1679993574348,1173562702273221,0.098175,0.033,-0.0419375
1679993574351,1173562704775374,0.1023,0.042075,-0.045925
1679993574354,1173562707277289,0.1032625,0.044,-0.047849998
1679993574355,1173562709779442,0.104225,0.0460625,-0.0499125
1679993574357,1173562712281519,0.109175,0.0510125,-0.0518375
1679993574359,1173562714783673,0.110275,0.0600875,-0.050875
1679993574362,1173562717285889,0.1161875,0.064075,-0.056925
1679993574364,1173562719787966,0.1172875,0.0671,-0.0609125
1679993574367,1173562722290120,0.1142625,0.0710875,-0.061875
1679993574369,1173562724792043,0.11825,0.066,-0.0658625
1679993574374,1173562727294077,0.1172875,0.0650375,-0.0669625
1679993574375,1173562729796231,0.1161875,0.0589875,-0.06985
1679993574378,1173562732298461,0.115225,0.0561,-0.07095
1679993574380,1173562734800538,0.110275,0.0510125,-0.0759
1679993574382,1173562737302466,0.1051875,0.044,-0.0749375
1679993574384,1173562739804620,0.1051875,0.033,-0.0738375
1679993574388,1173562742306774,0.1032625,0.018975,-0.0738375
1679993574391,1173562744808851,0.1023,0.0050875,-0.0759
1679993574393,1173562747311048,0.1032625,-0.007975,-0.0779625
1679993574394,1173562749813125,0.1032625,-0.0229625,-0.08085
1679993574397,1173562752315279,0.1051875,-0.0449625,-0.08195
1679993574399,1173562754817432,0.1082125,-0.0620125,-0.0848375
1679993574402,1173562757319356,0.110275,-0.078925,-0.086899996
1679993574404,1173562759821432,0.1122,-0.0919875,-0.0908875
1679993574407,1173562762323586,0.1142625,-0.1060125,-0.0908875
1679993574409,1173562764825817,0.1243,-0.117975,-0.09295
1679993574413,1173562767327880,0.1302125,-0.12595,-0.0939125
1679993574415,1173562769830034,0.1353,-0.132,-0.095837496
1679993574418,1173562772331957,0.14025,-0.1329625,-0.095837496
1679993574420,1173562774834111,0.1472625,-0.1329625,-0.0988625
1679993574423,1173562777336164,0.154275,-0.1299375,-0.1018875
1679993574427,1173562779838395,0.154275,-0.1280125,-0.106837496
1679993574429,1173562782340471,0.1552375,-0.1199,-0.105875
1679993574431,1173562784842625,0.1552375,-0.1109625,-0.1098625
1679993574435,1173562787344524,0.1552375,-0.10395,-0.116875
1679993574435,1173562789846678,0.15125,-0.0969375,-0.1199
1679993574437,1173562792348832,0.1472625,-0.091025,-0.12595
1679993574440,1173562794850909,0.1392875,-0.086899996,-0.1288375
1679993574442,1173562797353063,0.1353,-0.08195,-0.12595
1679993574444,1173562799855202,0.131175,-0.078925,-0.1318625
1679993574447,1173562802357125,0.1243,-0.077,-0.1318625
1679993574450,1173562804859202,0.11825,-0.07095,-0.1329625
1679993574453,1173562807361432,0.1161875,-0.067925,-0.1329625
1679993574455,1173562809863572,0.109175,-0.067925,-0.1318625
1679993574458,1173562812365649,0.1062875,-0.0669625,-0.1309
1679993574465,1173562814867803,0.1051875,-0.0609125,-0.133925
1679993574467,1173562817369726,0.104225,-0.0589875,-0.1318625
1679993574468,1173562819871875,0.1023,-0.0539,-0.1329625
1679993574469,1173562822374260,0.100237496,-0.0479875,-0.1318625
1679993574471,1173562824876183,0.1023,-0.0419375,-0.12595
1679993574474,1173562827378260,0.099275,-0.034925,-0.12485
1679993574475,1173562829880414,0.098175,-0.029975,-0.1208625
1679993574478,1173562832382581,0.09625,-0.025024999,-0.1159125
1679993574480,1173562834884504,0.0922625,-0.018975,-0.1079375
1679993574483,1173562837386658,0.089237496,-0.01595,-0.10285
1679993574485,1173562839888812,0.087175,-0.007975,-0.0939125
1679993574487,1173562842390889,0.08525,-0.00495,-0.0889625
1679993574490,1173562844893043,0.0831875,-0.001925,-0.083875
1679993574494,1173562847395197,0.0831875,0.0011,-0.0759
1679993574495,1173562849897120,0.0842875,0.0039875,-0.0738375
1679993574498,1173562852399285,0.0831875,0.0070125,-0.07095
1679993574501,1173562854901439,0.0842875,0.0121,-0.0669625
1679993574504,1173562857403592,0.08525,0.011,-0.067925
1679993574505,1173562859905746,0.08525,0.014025,-0.067925
1679993574507,1173562862407823,0.0831875,0.01705,-0.0688875
1679993574510,1173562864909736,0.082225,0.0180125,-0.07095
1679993574512,1173562867411890,0.0792,0.01705,-0.0719125
1679993574514,1173562869914275,0.076175,0.020075,-0.0749375
1679993574517,1173562872416198,0.071225,0.0270875,-0.0768625
1679993574519,1173562874918362,0.0672375,0.02805,-0.078925
1679993574523,1173562877420439,0.0682,0.031075,-0.0779625
1679993574525,1173562879922593,0.066275,0.029975,-0.078925
1679993574527,1173562882424516,0.0642125,0.0341,-0.0779625
1679993574530,1173562884926683,0.060225,0.039049998,-0.0779625
1679993574532,1173562887428837,0.0583,0.039049998,-0.0738375
1679993574535,1173562889930991,0.0532125,0.0460625,-0.0669625
1679993574539,1173562892433068,0.049225,0.047025,-0.0628375
1679993574543,1173562894935289,0.0482625,0.0490875,-0.05995
1679993574544,1173562897437443,0.0473,0.0510125,-0.0559625
1679993574546,1173562899939366,0.0422125,0.053075,-0.0499125
1679993574547,1173562902441520,0.038225,0.050049998,-0.045925
1679993574550,1173562904943674,0.038225,0.050049998,-0.039875
1679993574552,1173562907445822,0.0363,0.0490875,-0.036849998
1679993574555,1173562909947899,0.032175,0.0451,-0.02695
1679993574557,1173562912450053,0.0292875,0.0451,-0.0229625
1679993574560,1173562914951976,0.0232375,0.0430375,-0.0199375
1679993574563,1173562917454135,0.021175,0.044,-0.017875
1679993574564,1173562919956289,0.01925,0.044,-0.01485
1679993574567,1173562922458443,0.015262499,0.033,-0.0099
1679993574570,1173562924960520,0.00825,0.0320375,-0.0078375
1679993574572,1173562927462674,0.0042625,0.033,-0.00385
1679993574576,1173562929964596,2.75E-4,0.0290125,-0.001925
1679993574578,1173562932466750,-0.00275,0.0270875,0.0011
1679993574580,1173562934969134,-0.0067375,0.0160875,0.0011
1679993574583,1173562937471062,-0.01375,0.013062499,0.0031625
1679993574585,1173562939973139,-0.0158125,0.011,0.0050875
1679993574588,1173562942475293,-0.01375,0.003025,0.00605
1679993574589,1173562944977447,-0.016775,0.0011,0.00715
1679993574592,1173562947479601,-0.0187,0.0,0.00715
1679993574595,1173562949981558,-0.021724999,-0.0059125,0.0121
1679993574597,1173562952483712,-0.0268125,-0.011,0.01705
1679993574599,1173562954985866,-0.0317625,-0.01595,0.020075
1679993574602,1173562957487942,-0.03575,-0.0209,0.0221375
1679993574604,1173562959990096,-0.0427625,-0.0290125,0.0251625
1679993574607,1173562962492245,-0.0488125,-0.036025,0.031075
1679993574610,1173562964994168,-0.055825,-0.0429,0.0361625
1679993574614,1173562967496322,-0.0617375,-0.0429,0.042075
1679993574616,1173562969998476,-0.0708125,-0.045925,0.0471625
1679993574619,1173562972500630,-0.0757625,-0.0499125,0.0551375
1679993574621,1173562975002707,-0.082775,-0.0529375,0.0600875
1679993574625,1173562977504630,-0.088825,-0.0510125,0.064075
1679993574627,1173562980006784,-0.095699996,-0.0479875,0.07315
1679993574628,1173562982509178,-0.10175,-0.045925,0.078099996
1679993574630,1173562985011332,-0.1057375,-0.0479875,0.0881375
1679993574633,1173562987513255,-0.110825,-0.047025,0.09405
1679993574635,1173562990015332,-0.1167375,-0.0449625,0.098037496
1679993574637,1173562992517490,-0.1258125,-0.0449625,0.10615
1679993574640,1173562995019644,-0.126775,-0.047025,0.1101375
1679993574642,1173562997521567,-0.1307625,-0.045925,0.11605
1679993574645,1173563000023952,-0.1337875,-0.04895,0.1241625
1679993574648,1173563002525871,-0.1387375,-0.051975,0.1310375
1679993574652,1173563005027948,-0.1447875,-0.0539,0.136125
1679993574654,1173563007530101,-0.148775,-0.051975,0.13915
1679993574656,1173563010032255,-0.1507,-0.0539,0.1450625
1679993574658,1173563012534168,-0.1557875,-0.05995,0.1461625
1679993574660,1173563015036553,-0.159775,-0.0620125,0.1450625
1679993574663,1173563017538476,-0.1628,-0.066,0.1461625
1679993574665,1173563020040553,-0.1607375,-0.07095,0.1420375
1679993574667,1173563022542707,-0.1628,-0.07095,0.1401125
1679993574671,1173563025044948,-0.165825,-0.07095,0.136125
1679993574673,1173563027547025,-0.1667875,-0.0759,0.12815
1679993574674,1173563030049178,-0.164725,-0.0730125,0.1241625
1679993574677,1173563032551101,-0.16775,-0.0699875,0.120037496
1679993574679,1173563035053279,-0.165825,-0.066,0.11605
1679993574683,1173563037555433,-0.16775,-0.0609125,0.114125
1679993574685,1173563040057510,-0.17173749,-0.058025,0.114125
1679993574688,1173563042559664,-0.16775,-0.0529375,0.1150875
1679993574690,1173563045061828,-0.1687125,-0.0479875,0.11715
1679993574693,1173563047563982,-0.1727,-0.0479875,0.122099996
1679993574695,1173563050065905,-0.17379999,-0.0419375,0.1241625
1679993574698,1173563052568059,-0.176825,-0.0389125,0.12815
1679993574700,1173563055070136,-0.1808125,-0.0369875,0.13213749
1679993574703,1173563057572376,-0.1837,-0.0369875,0.13915
1679993574705,1173563060074453,-0.1848,-0.03795,0.1441
1679993574707,1173563062576607,-0.187825,-0.03795,0.147125
1679993574710,1173563065078530,-0.19373749,-0.0400125,0.1551
1679993574713,1173563067580674,-0.1958,-0.0419375,0.16115
1679993574715,1173563070082751,-0.197725,-0.0429,0.1651375
1679993574718,1173563072584905,-0.198825,-0.0449625,0.17105
1679993574720,1173563075087136,-0.1997875,-0.0429,0.1731125
1679993574723,1173563077589184,-0.2047375,-0.0449625,0.1771
1679993574729,1173563080091107,-0.2047375,-0.0479875,0.17613749
1679993574729,1173563082593260,-0.2047375,-0.0479875,0.17407499
1679993574731,1173563085095414,-0.2077625,-0.044,0.17215
1679993574734,1173563087597501,-0.2068,-0.0429,0.17105
1679993574738,1173563090099732,-0.2068,-0.0429,0.1681625
1679993574739,1173563092601809,-0.2068,-0.0400125,0.16005
1679993574740,1173563095103963,-0.2068,-0.0339625,0.1530375
1679993574743,1173563097605886,-0.2068,-0.033,0.15015
1679993574745,1173563100108040,-0.2068,-0.033,0.1450625
1679993574749,1173563102610117,-0.203775,-0.029975,0.1420375
1679993574750,1173563105112347,-0.2047375,-0.0309375,0.1370875
1679993574753,1173563107614424,-0.2047375,-0.0319,0.1310375
1679993574755,1173563110116558,-0.203775,-0.0319,0.1291125
1679993574758,1173563112618712,-0.2017125,-0.0309375,0.12705
1679993574760,1173563115120635,-0.203775,-0.0319,0.1241625
1679993574765,1173563117622789,-0.2057,-0.0339625,0.1241625
1679993574766,1173563120124862,-0.2068,-0.036025,0.125125
1679993574768,1173563122627093,-0.2107875,-0.036025,0.1241625
1679993574770,1173563125129170,-0.209825,-0.0429,0.1260875
1679993574773,1173563127631323,-0.209825,-0.0449625,0.125125
1679993574776,1173563130133247,-0.21175,-0.04895,0.125125
1679993574778,1173563132635428,-0.2127125,-0.04895,0.1260875
1679993574780,1173563135137505,-0.214775,-0.04895,0.1310375
1679993574783,1173563137639736,-0.2167,-0.0510125,0.13213749
1679993574786,1173563140141890,-0.219725,-0.0510125,0.1310375
1679993574788,1173563142643967,-0.220825,-0.0539,0.13213749
1679993574793,1173563145145895,-0.2248125,-0.051975,0.136125
1679993574795,1173563147648049,-0.2267375,-0.055,0.136125
1679993574796,1173563150150203,-0.225775,-0.047025,0.1351625
1679993574798,1173563152652280,-0.2288,-0.044,0.1331
1679993574803,1173563155154520,-0.230725,-0.0449625,0.1351625
1679993574805,1173563157656597,-0.23375,-0.0449625,0.1351625
1679993574806,1173563160158751,-0.2327875,-0.0429,0.1351625
1679993574808,1173563162660674,-0.2387,-0.0419375,0.1310375
1679993574810,1173563165162828,-0.242825,-0.036025,0.1291125
1679993574813,1173563167664885,-0.2468125,-0.0319,0.1260875
1679993574817,1173563170167116,-0.247775,-0.0229625,0.1241625
1679993574819,1173563172669193,-0.258775,-0.0259875,0.120037496
1679993574820,1173563175171347,-0.26675,-0.0169125,0.119075
