system_ts_ms, sensor_ts_ns, accX, accY, accZ
1680007949387,1187937737901571,5.4900002,6.56295,5.3239503
1680007949387,1187937740403725,5.4229503,6.5059505,5.37405
1680007949388,1187937742905955,5.4370503,6.47205,5.3500504
1680007949389,1187937745408176,5.4700503,6.53205,5.21595
1680007949393,1187937747910330,5.4420004,6.46995,5.2759504
1680007949401,1187937750412407,5.499,6.38805,5.2710004
1680007949401,1187937752914571,5.4870005,6.5389504,5.2180505
1680007949401,1187937755416725,5.4559503,6.5149503,5.3050504
1680007949402,1187937757918879,5.4580503,6.4789505,5.1589503
1680007949405,1187937760421109,5.4700503,6.5080504,5.2660503
1680007949408,1187937762923167,5.5590005,6.5080504,5.09595
1680007949411,1187937765425321,5.6020503,6.4669504,5.1010504
1680007949412,1187937767927475,5.63805,6.4939504,5.22795
1680007949416,1187937770429629,5.6260505,6.5659504,5.17995
1680007949418,1187937772931783,5.6719503,6.6850505,5.13
1680007949420,1187937775434008,5.7390003,6.6400504,5.27295
1680007949423,1187937777936085,5.66895,6.6900005,5.2180505
1680007949425,1187937780438239,5.7289505,6.6829505,5.3050504
1680007949432,1187937782940393,5.8510504,6.6829505,5.3380504
1680007949433,1187937785442547,5.80305,6.76905,5.28795
1680007949433,1187937787944701,5.85405,6.7840505,5.35995
1680007949435,1187937790446855,5.8440003,6.6900005,5.37195
1680007949438,1187937792949085,5.87505,6.80805,5.3689504
1680007949440,1187937795451162,5.87505,6.70905,5.32095
1680007949442,1187937797953296,5.964,6.8290505,5.3640003
1680007949449,1187937800455450,5.9490004,6.7519503,5.379
1680007949449,1187937802957604,5.91795,6.7600503,5.3569503
1680007949451,1187937805459579,5.9929504,6.7549505,5.35305
1680007949453,1187937807961964,5.9419503,6.8509502,5.4700503
1680007949455,1187937810464117,5.94495,6.78105,5.355
1680007949457,1187937812966271,5.8699503,6.8269506,5.29995
1680007949460,1187937815468425,5.925,6.8170505,5.2590003
1680007949466,1187937817970589,5.74305,6.8050504,5.2759504
1680007949466,1187937820472743,5.83395,6.7930503,5.22795
1680007949468,1187937822974974,5.76,6.8239503,5.16795
1680007949470,1187937825477051,5.775,6.7210503,5.0890503
1680007949473,1187937827979190,5.748,6.7240505,5.31405
1680007949475,1187937830481344,5.6860504,6.79995,5.2780504
1680007949478,1187937832983498,5.7340503,6.7879505,5.202
1680007949482,1187937835485421,5.715,6.6730504,5.25705
1680007949484,1187937837987584,5.7510004,6.7260003,5.2780504
1680007949486,1187937840489969,5.64795,6.8170505,5.28795
1680007949490,1187937842992122,5.62095,6.8629503,5.28795
1680007949490,1187937845494276,5.6140504,6.7840505,5.202
1680007949492,1187937847996430,5.63595,6.8029504,5.3880005
1680007949499,1187937850498575,5.6190004,6.7549505,5.19
1680007949499,1187937853000498,5.571,6.77895,5.295
1680007949500,1187937855502883,5.6449504,6.80805,5.24205
1680007949502,1187937858005037,5.6190004,6.8050504,5.2780504
1680007949505,1187937860507166,5.6140504,6.8290505,5.2930503
1680007949507,1187937863009320,5.631,6.90105,5.22795
1680007949510,1187937865511474,5.5999503,6.7639503,5.37195
1680007949515,1187937868013628,5.6020503,6.8650503,5.2540503
1680007949516,1187937870515536,5.7649503,6.7909503,5.2060504
1680007949518,1187937873017921,5.6239505,6.8910003,5.1990004
1680007949522,1187937875520075,5.703,6.8359504,5.2450504
1680007949524,1187937878022228,5.6980505,6.906,5.23995
1680007949526,1187937880524368,5.6400003,6.8910003,5.13
1680007949532,1187937883026291,5.6190004,6.85305,5.2639503
1680007949532,1187937885528445,5.6740503,6.8430004,5.2930503
1680007949533,1187937888030830,5.715,6.8430004,5.20905
1680007949535,1187937890532984,5.68095,6.8550005,5.3310003
1680007949538,1187937893035099,5.6860504,6.93195,5.2540503
1680007949540,1187937895537252,5.6929502,6.8550005,5.12505
1680007949542,1187937898039406,5.6190004,6.9580503,5.2330503
1680007949551,1187937900541560,5.60505,6.9079504,5.247
1680007949552,1187937903043483,5.6070004,6.8770504,5.2780504
1680007949553,1187937905545873,5.6400003,6.8890505,5.2210503
1680007949554,1187937908048027,5.7240005,6.91095,5.1940503
1680007949555,1187937910550180,5.6599503,6.9559503,5.31195
1680007949559,1187937913052329,5.643,6.8050504,5.1060004
1680007949561,1187937915554252,5.64795,6.9610505,5.3430004
1680007949565,1187937918056406,5.7000003,6.8770504,5.2590003
1680007949566,1187937920558791,5.736,6.8269506,5.295
1680007949568,1187937923060945,5.7049503,6.8359504,5.262
1680007949570,1187937925563099,5.77005,6.8290505,5.262
1680007949572,1187937928065252,5.68095,6.79995,5.1780005
1680007949575,1187937930567176,5.736,6.7429504,5.12505
1680007949577,1187937933069329,5.7000003,6.85305,5.17005
1680007949583,1187937935571714,5.6599503,6.7549505,5.2110004
1680007949584,1187937938073897,5.6620502,6.9370503,5.2380004
1680007949585,1187937940576051,5.7289505,6.8820004,5.1870003
1680007949588,1187937943078205,5.63805,6.93195,5.1199503
1680007949590,1187937945580358,5.6910005,6.867,5.0170503
1680007949593,1187937948082311,5.7340503,6.8959503,5.1130505
1680007949598,1187937950584464,5.58795,6.9490504,5.1060004
1680007949599,1187937953086849,5.6280003,6.83895,5.01195
1680007949601,1187937955588998,5.5690503,6.8479505,5.0790005
1680007949603,1187937958091152,5.59005,6.8770504,5.1319504
1680007949605,1187937960593075,5.6190004,6.8599505,5.0389504
1680007949607,1187937963095459,5.6329503,6.7879505,5.0719504
1680007949610,1187937965597613,5.6400003,6.8050504,5.18205
1680007949615,1187937968099782,5.5519505,6.79995,5.1870003
1680007949616,1187937970601936,5.676,6.8599505,5.1610503
1680007949618,1187937973103859,5.6020503,6.89895,5.1319504
1680007949620,1187937975606013,5.6620502,6.93195,5.15595
1680007949623,1187937978108368,5.7310505,6.846,5.06505
1680007949626,1187937980610522,5.631,6.90105,5.091
1680007949632,1187937983112445,5.676,6.8479505,5.0820003
1680007949632,1187937985614599,5.59005,6.8599505,5.0389504
1680007949635,1187937988116753,5.6790004,6.8239503,5.08395
1680007949638,1187937990617829,5.63595,6.8359504,5.10795
1680007949638,1187937993118908,5.6400003,6.8910003,5.1150002
1680007949640,1187937995623445,5.727,6.7840505,5.223
1680007949642,1187937998125599,5.65005,6.8550005,5.091
1680007949648,1187938000627787,5.57595,6.9250503,5.0820003
1680007949649,1187938003129710,5.6190004,6.774,5.1589503
1680007949652,1187938005631864,5.6520004,6.81195,5.25705
1680007949653,1187938008134018,5.6020503,6.9300003,5.12295
1680007949657,1187938010636393,5.59695,6.8820004,5.07705
1680007949658,1187938013138546,5.5300503,6.7909503,5.163
1680007949660,1187938015640700,5.4870005,6.8190002,5.19705
1680007949665,1187938018142854,5.5950003,6.8290505,5.05305
1680007949666,1187938020644777,5.59695,6.85305,5.103
1680007949668,1187938023146936,5.5140004,6.867,5.08395
1680007949672,1187938025649090,5.43405,6.8479505,5.1010504
1680007949676,1187938028151475,5.48505,6.8580003,5.1010504
1680007949677,1187938030653388,5.53305,6.9340506,5.0410504
1680007949681,1187938033155541,5.5350003,6.846,5.0940003
1680007949682,1187938035657695,5.451,6.8599505,4.97205
1680007949683,1187938038159849,5.4970503,6.8910003,4.986
1680007949686,1187938040662003,5.5279503,6.7960505,4.9840503
1680007949688,1187938043164422,5.5420504,6.93195,5.00505
1680007949690,1187938045666576,5.56605,6.91305,4.9570503
1680007949693,1187938048168729,5.5279503,6.9580503,4.92105
1680007949701,1187938050670652,5.47305,6.89895,4.98105
1680007949701,1187938053172806,5.4679503,7.0020003,4.9500003
1680007949702,1187938055674974,5.5690503,6.9079504,4.94805
1680007949703,1187938058177359,5.4900002,6.8820004,4.9500003
1680007949706,1187938060679282,5.5020003,6.9030004,4.8570004
1680007949709,1187938063181480,5.47305,6.879,4.96005
1680007949711,1187938065683634,5.4300003,6.8479505,4.9960504
1680007949715,1187938068185787,5.4679503,6.8629503,5.04405
1680007949717,1187938070687941,5.44605,6.8359504,5.046
1680007949719,1187938073190095,5.49195,6.8700004,5.0149503
1680007949721,1187938075692484,5.4229503,6.8359504,5.12295
1680007949723,1187938078194407,5.5230002,6.8910003,4.99095
1680007949726,1187938080696561,5.5020003,6.8050504,5.1150002
1680007949732,1187938083198715,5.5230002,6.8599505,5.046
1680007949732,1187938085700859,5.5020003,6.7549505,5.07495
1680007949733,1187938088202936,5.4970503,6.834,5.0389504
1680007949736,1187938090705167,5.49195,6.81195,5.1540003
1680007949738,1187938093207321,5.51805,6.834,5.0290504
1680007949741,1187938095709475,5.4970503,6.7450504,5.0869503
1680007949743,1187938098211619,5.5590005,6.7840505,4.99095
1680007949749,1187938100713772,5.406,6.8509502,5.0820003
1680007949749,1187938103215926,5.499,6.81195,5.1130505
1680007949751,1187938105718085,5.5279503,6.8509502,5.0149503
1680007949754,1187938108220239,5.4420004,6.8550005,4.926
1680007949757,1187938110722393,5.52495,6.8959503,4.8970504
1680007949758,1187938113224547,5.478,6.8430004,4.9290004
1680007949760,1187938115726701,5.5300503,6.867,4.81605
1680007949767,1187938118228830,5.4229503,6.9220505,4.833
1680007949769,1187938120730984,5.53695,6.97305,4.9290004
1680007949771,1187938123233369,5.55705,7.1260505,4.833
1680007949771,1187938125735292,5.631,7.1070004,4.84695
1680007949773,1187938128237446,5.53695,7.04895,4.7470503
1680007949776,1187938130739619,5.84595,7.59495,4.57905
1680007949778,1187938133241773,5.5519505,7.3030505,4.8349504
1680007949781,1187938135743849,5.49405,7.15005,4.4950504
1680007949784,1187938138246085,5.43195,7.2510004,4.3060503
1680007949786,1187938140748239,5.3239503,7.0540504,4.4040003
1680007949789,1187938143250393,5.2050004,7.03695,4.59795
1680007949791,1187938145752547,5.20905,6.91095,4.59105
1680007949794,1187938148254701,5.2189503,6.939,4.6320004
1680007949795,1187938150756879,5.22405,6.91305,4.7389503
1680007949798,1187938153258955,5.20695,6.94605,4.6579504
1680007949800,1187938155761186,5.2909503,6.8940005,4.6080003
1680007949802,1187938158263340,5.3239503,6.906,4.7320504
1680007949806,1187938160765494,5.1540003,6.9370503,4.584
1680007949808,1187938163267648,5.334,6.8869505,4.605
1680007949810,1187938165769725,5.28105,6.9199505,4.596
1680007949812,1187938168271879,5.18505,6.9370503,4.596
1680007949816,1187938170774099,5.2500005,6.8580003,4.4110503
1680007949818,1187938173276253,5.1450005,6.8100004,4.4809504
1680007949821,1187938175778407,5.157,6.8580003,4.4040003
1680007949823,1187938178280561,5.1210003,6.9820504,4.4110503
1680007949826,1187938180782729,4.9510503,6.98505,4.3180504
1680007949829,1187938183284806,5.0820003,7.2030005,4.3369503
1680007949831,1187938185786960,5.00295,6.9919505,4.30095
1680007949834,1187938188289190,5.0869503,7.0810504,4.2010503
1680007949837,1187938190791330,4.9240503,6.9199505,4.26
1680007949839,1187938193293407,4.932,6.9870005,4.11705
1680007949841,1187938195795561,4.8840003,7.1070004,4.0939503
1680007949843,1187938198297715,4.9099503,6.9990005,4.04505
1680007949846,1187938200799869,5.013,7.1329503,3.9709501
1680007949848,1187938203302113,4.99095,7.2049503,3.9970503
1680007949850,1187938205804267,5.02995,7.2769504,3.8530502
1680007949852,1187938208306421,4.94805,7.2750006,3.9420002
1680007949857,1187938210808575,4.8790503,7.2630005,3.89595
1680007949860,1187938213310638,4.8190503,7.011,3.7600503
1680007949862,1187938215812792,4.872,7.0690503,3.93495
1680007949863,1187938218315023,4.761,7.10895,3.9060001
1680007949866,1187938220817176,4.75005,7.1140504,4.02105
1680007949868,1187938223319253,4.776,7.28205,3.9630003
1680007949871,1187938225821378,4.809,7.3080006,3.9510002
1680007949874,1187938228323532,4.69395,7.1620502,3.89595
1680007949876,1187938230825763,4.7640004,7.188,3.7810502
1680007949878,1187938233327840,4.7850003,7.2289505,3.9270003
1680007949880,1187938235829994,4.833,7.2750006,4.0279503
1680007949883,1187938238332142,4.9290004,7.2460504,4.05405
1680007949887,1187938240834296,4.78095,7.287,4.0800004
1680007949888,1187938243336450,5.10405,7.4809504,4.0410004
1680007949890,1187938245838604,5.037,7.3819504,4.0470004
1680007949893,1187938248340744,5.19495,7.5379505,4.02105
1680007949898,1187938250842898,5.57595,7.6980004,4.22895
1680007949900,1187938253345052,5.44395,7.7299504,4.06605
1680007949902,1187938255847190,5.655,7.8850503,4.21005
1680007949904,1187938258349344,5.74305,7.8640504,4.0300503
1680007949907,1187938260851498,5.6980505,7.85895,4.1530504
1680007949908,1187938263353652,5.7960005,7.84005,4.12605
1680007949910,1187938265855806,5.7840004,7.9159503,4.09005
1680007949914,1187938268357951,5.9490004,7.8540006,4.1119504
1680007949917,1187938270859874,5.98995,7.8610506,4.0800004
1680007949919,1187938273362028,6.1189504,7.82805,4.21005
1680007949921,1187938275864181,6.045,7.7700005,4.368
1680007949923,1187938278366551,6.2100005,7.7580004,4.2460504
1680007949927,1187938280868705,6.1050005,7.6170006,4.32705
1680007949928,1187938283370859,6.07905,7.6069503,4.40205
1680007949930,1187938285873013,6.2200503,7.5210004,4.44
1680007949935,1187938288375162,6.3229504,7.4760003,4.68195
1680007949938,1187938290877086,6.3229504,7.4490004,4.8520503
1680007949940,1187938293379470,6.3810005,7.5160503,4.60305
1680007949942,1187938295881624,6.57495,7.56405,4.7920504
1680007949943,1187938298383547,6.4549503,7.524,4.7899504
1680007949948,1187938300885681,6.4450502,7.4610004,4.854
1680007949949,1187938303387835,6.5170503,7.4539504,4.81605
1680007949951,1187938305889989,6.38805,7.3560004,4.854
1680007949954,1187938308392143,6.4480505,7.452,4.7059503
1680007949957,1187938310894527,6.2629504,7.2240005,4.7470503
1680007949959,1187938313396686,6.32805,7.3369503,4.7899504
1680007949960,1187938315898840,6.12405,7.188,4.7299504
1680007949963,1187938318400763,6.22695,7.22205,4.8349504
1680007949966,1187938320902917,6.3810005,7.1959505,4.84005
1680007949968,1187938323405090,6.4399505,7.3080006,4.85895
1680007949972,1187938325907474,6.4240503,7.3030505,4.8850503
1680007949974,1187938328409397,6.5890503,7.3900504,4.893
1680007949977,1187938330911551,6.5860505,7.3339505,4.8450003
1680007949979,1187938333413725,6.5410504,7.3609505,4.881
1680007949981,1187938335915879,6.498,7.2460504,4.8520503
1680007949983,1187938338418033,6.49095,7.1070004,4.7200503
1680007949988,1187938340920417,6.91695,7.485,4.8970504
1680007949989,1187938343422571,6.8359504,7.38495,4.8619504
1680007949991,1187938345924749,6.8040004,7.452,4.6270504
1680007949994,1187938348426672,6.7780504,7.26,4.533
1680007949997,1187938350928826,6.6769505,7.42995,4.50705
1680007949999,1187938353430980,6.7660503,7.49205,4.48995
1680007950000,1187938355933057,6.7489505,7.48995,4.395
1680007950003,1187938358435288,6.8479505,7.7149506,4.50705
1680007950006,1187938360937441,6.7639503,7.5859504,4.248
1680007950012,1187938363439595,6.32805,7.4089503,4.1449504
1680007950012,1187938365941725,6.7180505,7.7179503,4.20795
1680007950013,1187938368443879,6.438,7.6069503,4.059
1680007950016,1187938370946033,6.2800503,7.66305,3.93195
1680007950018,1187938373448417,6.13605,7.7370005,3.7669501
1680007950020,1187938375950341,6.2200503,7.87095,3.7219503
1680007950023,1187938378452489,5.9929504,7.8850503,3.726
1680007950026,1187938380954643,6.3640504,8.014951,3.6450002
1680007950029,1187938383456797,5.9419503,7.8919506,3.52305
1680007950031,1187938385958874,6.09105,8.118,3.4840503
1680007950034,1187938388461037,5.80095,7.9830003,3.5130002
1680007950037,1187938390963268,5.7889504,8.047951,3.5110502
1680007950039,1187938393465421,5.6119504,8.07405,3.693
1680007950041,1187938395967575,5.38395,7.8370504,3.5080502
1680007950043,1187938398469729,5.1450005,7.60305,3.55605
1680007950048,1187938400971912,5.2519503,7.53105,3.4009502
1680007950050,1187938403473989,4.623,7.1959505,3.5389502
1680007950051,1187938405976220,4.4170504,7.1839504,3.42195
1680007950056,1187938408478374,4.42395,7.2889504,3.456
1680007950058,1187938410980508,4.67805,7.392,3.46005
1680007950059,1187938413482585,5.06295,7.6189504,3.25395
1680007950061,1187938415984739,4.96005,7.7179503,3.0700502
1680007950064,1187938418486893,4.8520503,7.7970004,3.0960002
1680007950068,1187938420989076,4.7590504,7.84005,2.9890501
1680007950069,1187938423491307,4.6870503,7.8420005,2.9260502
1680007950072,1187938425993384,4.611,7.76595,2.8860002
1680007950074,1187938428495537,4.6750503,7.7509503,2.9190001
1680007950077,1187938430997691,4.56495,7.6650004,2.9290502
1680007950079,1187938433499849,4.4760003,7.5259504,3.14895
1680007950080,1187938436002003,4.44495,7.45905,3.4360502
1680007950084,1187938438504234,4.584,7.4449506,3.561
1680007950088,1187938441006388,4.7569504,7.5330005,3.9540002
1680007950090,1187938443508465,5.02005,7.63395,3.9900002
1680007950091,1187938446010618,5.34105,7.7440505,4.0339503
1680007950093,1187938448512772,5.5540504,7.76805,3.9850502
1680007950097,1187938451014926,5.727,7.9140005,3.83205
1680007950098,1187938453517095,5.94705,7.9450502,3.8440502
1680007950100,1187938456019249,6.0360003,8.095051,3.6019502
1680007950104,1187938458521403,6.0259504,8.017051,3.6330001
1680007950106,1187938461023557,6.0090003,7.8250504,3.5010002
1680007950108,1187938463525729,5.9610004,7.8690004,3.7690501
1680007950110,1187938466027883,6.03105,7.8229504,3.86805
1680007950114,1187938468530037,5.97795,7.82805,3.7789502
1680007950116,1187938471032191,5.94705,7.833,3.7789502
1680007950119,1187938473534350,5.94705,7.7490005,3.7810502
1680007950122,1187938476036504,5.9689503,7.7869506,3.69
1680007950124,1187938478538658,5.9710503,7.6909504,3.7500002
1680007950127,1187938481040581,5.9419503,7.80105,3.8100002
1680007950130,1187938483542709,6.0019503,7.72695,3.7770002
1680007950132,1187938486045094,5.98995,7.629,3.7930503
1680007950134,1187938488547248,5.9950504,7.8160505,3.7429502
1680007950137,1187938491049402,5.9929504,7.7890506,3.7810502
1680007950139,1187938493551556,5.9809504,7.7890506,3.7240503
1680007950140,1187938496053699,6.0670505,7.761,3.83205
1680007950143,1187938498555853,6.0810003,7.8160505,3.6880503
1680007950146,1187938501058007,6.10305,7.8160505,3.7410002
1680007950148,1187938503560161,6.03105,7.8040504,3.7020001
1680007950151,1187938506062070,6.1410003,7.9020004,3.7410002
1680007950155,1187938508564224,6.10995,7.87305,3.73305
1680007950156,1187938511066378,6.1309505,7.7800503,3.5680501
1680007950160,1187938513568762,6.1189504,7.7490005,3.55605
1680007950162,1187938516070891,6.1530004,7.8180003,3.6829503
1680007950163,1187938518573045,6.2100005,7.8520503,3.7690501
1680007950166,1187938521074968,6.1699505,7.9159503,3.7570503
1680007950168,1187938523577122,6.1530004,7.8949504,3.73095
1680007950171,1187938526079276,6.1650004,7.9909506,3.6979501
1680007950173,1187938528581661,6.16695,7.833,3.7020001
1680007950176,1187938531083814,6.222,7.9810505,3.7020001
1680007950179,1187938533585738,6.129,7.96395,3.7549503
1680007950180,1187938536087891,6.0690002,8.068951,3.8149502
1680007950183,1187938538590065,6.05205,8.04105,3.66405
1680007950186,1187938541092219,5.92995,8.13195,3.6040502
1680007950188,1187938543594296,5.8390503,8.019,3.59505
1680007950191,1187938546096527,5.8219504,8.067,3.6379502
1680007950193,1187938548598685,5.9370003,7.9549503,3.52005
1680007950198,1187938551100838,5.7769504,7.93095,3.6829503
1680007950200,1187938553602992,5.6670003,7.9549503,3.5040002
1680007950202,1187938556105146,5.787,8.005051,3.42705
1680007950204,1187938558607315,5.75295,7.998,3.4990501
1680007950206,1187938561109469,5.66895,7.8760505,3.42
1680007950208,1187938563611623,5.64795,7.9279504,3.4099503
1680007950210,1187938566113777,5.62095,7.9090505,3.3979502
1680007950214,1187938568615930,5.6280003,7.8540006,3.252
1680007950216,1187938571118007,5.7000003,7.9069505,3.2430003
1680007950218,1187938573620161,5.7120004,7.9480505,3.2430003
1680007950221,1187938576122392,5.77005,7.9930506,3.2590501
1680007950223,1187938578624546,5.7720003,7.9909506,3.2689502
1680007950226,1187938581126729,5.676,7.8880506,3.2260501
1680007950228,1187938583628883,5.7460504,8.026951,3.2899501
1680007950232,1187938586131036,5.7190504,8.007,3.2929502
1680007950235,1187938588633190,5.6670003,7.938,3.2590501
1680007950238,1187938591135267,5.61705,8.07405,3.15105
1680007950239,1187938593637498,5.6520004,8.031,3.14895
1680007950241,1187938596139652,5.4799504,7.9620004,3.3100502
1680007950243,1187938598641806,5.5540504,8.019,3.147
1680007950246,1187938601143902,5.49195,8.035951,3.3310502
1680007950248,1187938603646055,5.418,8.071051,3.1279502
1680007950251,1187938606148209,5.466,8.064,3.18
1680007950253,1187938608650440,5.499,8.059951,3.17805
1680007950256,1187938611152613,5.5020003,8.142,3.1590002
1680007950258,1187938613654690,5.4630003,8.125051,3.2400002
1680007950260,1187938616156844,5.51595,8.043,3.072
1680007950263,1187938618658998,5.451,8.115001,3.3259501
1680007950266,1187938621161151,5.4559503,8.04105,3.13995
1680007950268,1187938623663305,5.4750004,8.07405,3.2329502
1680007950274,1187938626165536,5.4580503,8.059951,3.2280002
1680007950275,1187938628667613,5.51595,8.137051,3.18
1680007950277,1187938631169762,5.427,7.9549503,3.2569501
1680007950279,1187938633671916,5.4420004,7.9830003,3.11295
1680007950281,1187938636174070,5.60505,8.10105,3.2689502
1680007950283,1187938638675993,5.57805,7.9759502,3.0940502
1680007950287,1187938641178377,5.56395,7.9810505,3.3240001
1680007950289,1187938643680531,5.56605,7.9999504,3.1590002
1680007950291,1187938646182685,5.6119504,7.9909506,3.2929502
1680007950294,1187938648684839,5.5950003,7.9879503,3.3100502
1680007950296,1187938651186993,5.6190004,8.068951,3.3000002
1680007950299,1187938653689156,5.5420504,7.9759502,3.3240001
1680007950300,1187938656191387,5.5210505,7.9480505,3.3019502
1680007950304,1187938658693464,5.54895,7.9570503,3.2040002
1680007950307,1187938661195618,5.5420504,7.8829503,3.3019502
1680007950311,1187938663697748,5.63595,7.8919506,3.4480503
1680007950313,1187938666199902,5.65005,7.97205,3.3310502
1680007950315,1187938668701825,5.583,7.9669504,3.453
1680007950318,1187938671203979,5.655,7.9399505,3.34995
1680007950320,1187938673706363,5.6719503,7.8570004,3.3960001
1680007950322,1187938676208526,5.6839504,7.9140005,3.3979502
1680007950324,1187938678710680,5.77005,7.8850503,3.492
1680007950327,1187938681212834,5.676,7.9999504,3.4080002
1680007950330,1187938683714757,5.74095,7.8919506,3.3409503
1680007950331,1187938686216921,5.6400003,7.8880506,3.4360502
1680007950333,1187938688719305,5.7120004,7.8880506,3.3690002
1680007950336,1187938691221459,5.6329503,7.8880506,3.348
1680007950338,1187938693723613,5.60895,7.9279504,3.38895
1680007950341,1187938696225536,5.70795,7.8210006,3.34995
1680007950343,1187938698727671,5.6260505,7.8850503,3.4750502
1680007950348,1187938701229825,5.676,7.8829503,3.31905
1680007950350,1187938703731979,5.7049503,7.9120502,3.4819503
1680007950353,1187938706234133,5.6569505,7.9690504,3.4390502
1680007950354,1187938708736319,5.5300503,7.9620004,3.3690002
1680007950357,1187938711238473,5.5300503,7.9260006,3.3120003
1680007950359,1187938713740627,5.58795,7.97205,3.31395
1680007950361,1187938716242781,5.60895,7.9830003,3.453
1680007950363,1187938718744935,5.50605,7.938,3.252
1680007950366,1187938721247339,5.5279503,8.043,3.3379502
1680007950368,1187938723749263,5.4679503,7.9189506,3.3000002
1680007950373,1187938726251416,5.418,8.029051,3.4050002
1680007950373,1187938728753570,5.44395,8.097,3.3600001
1680007950377,1187938731255719,5.4490504,8.043,3.3310502
1680007950378,1187938733757796,5.4079504,8.121,3.2329502
1680007950380,1187938736259950,5.406,8.067,3.2710502
1680007950385,1187938738762181,5.44395,8.014951,3.2640002
1680007950387,1187938741264330,5.41305,8.055,3.25005
1680007950389,1187938743766483,5.3770504,8.08605,3.21105
1680007950393,1187938746268560,5.3310003,8.194051,3.34995
1680007950394,1187938748770791,5.31195,8.050051,3.2350502
1680007950397,1187938751272950,5.27895,8.097,3.2209501
1680007950399,1187938753775027,5.32695,8.076,3.147
1680007950401,1187938756277181,5.2519503,8.043,3.2070003
1680007950405,1187938758779335,5.274,8.139,3.20895
1680007950407,1187938761281488,5.26695,8.17695,3.2280002
1680007950409,1187938763783719,5.2500005,8.11305,3.2260501
1680007950412,1187938766285873,5.2519503,8.068951,3.1920002
1680007950415,1187938768787950,5.2600503,8.158051,3.2040002
1680007950417,1187938771290084,5.3029504,8.139,3.1660502
1680007950419,1187938773792238,5.214,8.14605,3.20895
1680007950422,1187938776294392,5.1780005,8.034,3.24495
1680007950424,1187938778796622,5.31195,8.155951,3.2040002
1680007950427,1187938781298699,5.1660004,8.097,3.2020502
1680007950433,1187938783800853,5.23995,8.182051,3.1039503
1680007950434,1187938786303007,5.2050004,8.125051,3.0700502
1680007950435,1187938788805161,5.14905,8.149051,3.1609502
1680007950437,1187938791307084,5.20695,8.125051,3.1660502
1680007950440,1187938793809238,5.2909503,8.194051,3.1350002
1680007950442,1187938796311622,5.157,8.17305,3.147
1680007950443,1187938798813776,5.2860003,8.28495,3.17805
1680007950446,1187938801315930,5.2189503,8.2570505,3.11805
1680007950448,1187938803818046,5.18505,8.26605,3.0960002
1680007950451,1187938806320200,5.2309504,8.271001,3.15405
1680007950454,1187938808822354,5.3239503,8.247001,3.20895
1680007950457,1187938811324507,5.2120504,8.338051,3.24495
1680007950460,1187938813826685,5.2519503,8.28495,3.1750503
1680007950462,1187938816328839,5.28795,8.332951,3.08205
1680007950464,1187938818830993,5.3310003,8.368951,3.2590501
1680007950466,1187938821332916,5.34105,8.36205,3.1200001
1680007950469,1187938823835070,5.3029504,8.326051,3.3379502
1680007950471,1187938826337249,5.32905,8.38095,3.18495
1680007950473,1187938828839633,5.355,8.458051,3.3019502
1680007950477,1187938831341787,5.3890505,8.403001,3.35295
1680007950478,1187938833843710,5.3820004,8.367001,3.28095
1680007950481,1187938836345864,5.3910003,8.38605,3.4249501
1680007950483,1187938838848037,5.3959503,8.484,3.4720502
1680007950486,1187938841350191,5.4820504,8.412001,3.3690002
1680007950488,1187938843852576,5.4540005,8.491051,3.4290001
1680007950490,1187938846354729,5.4580503,8.4529505,3.5130002
1680007950493,1187938848856652,5.3629503,8.470051,3.492
1680007950498,1187938851358787,5.3910003,8.434051,3.5320501
1680007950499,1187938853860941,5.39895,8.412001,3.5419502
1680007950501,1187938856363095,5.4229503,8.415,3.5040002
1680007950504,1187938858865153,5.38395,8.436001,3.561
1680007950506,1187938861367384,5.38395,8.41695,3.5010002
1680007950508,1187938863869538,5.3509502,8.415,3.5830503
1680007950511,1187938866371691,5.4700503,8.3550005,3.5800502
1680007950513,1187938868873845,5.451,8.44305,3.5680501
1680007950516,1187938871376003,5.4300003,8.436001,3.48705
1680007950519,1187938873878157,5.4079504,8.356951,3.6760502
1680007950521,1187938876380542,5.3820004,8.403001,3.6810002
1680007950523,1187938878882465,5.41305,8.38605,3.7020001
1680007950527,1187938881384605,5.41095,8.259001,3.7120502
1680007950529,1187938883886758,5.33895,8.223001,3.7530003
1680007950531,1187938886388912,5.43195,8.26395,3.8050501
1680007950535,1187938888890994,5.3310003,8.316,3.6760502
1680007950541,1187938891393225,5.20695,8.371051,3.8410501
1680007950542,1187938893895379,5.14905,8.424001,3.729
1680007950544,1187938896397533,5.1780005,8.307,3.762
1680007950545,1187938898899687,5.0149503,8.307,3.7810502
1680007950546,1187938901401763,4.9819503,8.316,3.7669501
1680007950548,1187938903903917,4.965,8.25405,3.6330001
1680007950553,1187938906406071,4.95795,8.27295,3.7120502
1680007950555,1187938908908302,4.881,8.25405,3.66405
1680007950557,1187938911410427,4.8570004,8.27595,3.66195
1680007950559,1187938913912581,4.8289504,8.247001,3.55395
1680007950562,1187938916414658,4.82595,8.211,3.4840503
1680007950563,1187938918916811,4.809,8.23995,3.6070502
1680007950567,1187938921418931,4.7449503,8.23695,3.5010002
1680007950569,1187938923921162,4.6920004,8.26095,3.5059502
1680007950573,1187938926423239,4.761,8.17305,3.4150503
1680007950574,1187938928925393,4.6660504,8.17305,3.3619502
1680007950579,1187938931427494,4.6729503,8.167951,3.4099503
1680007950580,1187938933929648,4.65105,8.142,3.3070502
1680007950581,1187938936431801,4.6270504,8.161051,3.417
1680007950583,1187938938933955,4.5150003,8.154,3.32205
1680007950587,1187938941436186,4.60305,8.067,3.27795
1680007950590,1187938943938258,4.47405,8.212951,3.1660502
1680007950592,1187938946440412,4.47405,8.179951,3.1420503
1680007950594,1187938948942566,4.4430003,8.24895,3.01005
1680007950597,1187938951444720,4.4380503,8.188951,3.1200001
1680007950598,1187938953946648,4.4359503,8.20395,3.07995
1680007950601,1187938956449032,4.45695,8.20395,2.9929502
1680007950604,1187938958951186,4.41405,8.211,3.0289502
1680007950606,1187938961453340,4.4620504,8.20605,3.01305
1680007950610,1187938963955489,4.3879504,8.13,2.8330503
1680007950612,1187938966457643,4.38105,8.29695,3.0250502
1680007950613,1187938968959566,4.32795,8.25405,2.9910002
1680007950617,1187938971461950,4.32795,8.142,2.8879502
1680007950618,1187938973964104,4.35195,8.247001,2.8900502
1680007950621,1187938976466277,4.3570504,8.211,2.8620002
1680007950624,1187938978968431,4.2010503,8.212951,2.9190001
1680007950627,1187938981470585,4.36905,8.268001,2.9550002
1680007950629,1187938983972508,4.4380503,8.22105,2.7970502
1680007950632,1187938986474667,4.4209504,8.17305,2.8620002
1680007950639,1187938988977051,4.4479504,8.212951,2.979
1680007950639,1187938991479205,4.3570504,8.21595,2.9190001
1680007950639,1187938993981128,4.395,8.224951,3.01005
1680007950641,1187938996483282,4.431,8.17695,2.9839501
1680007950643,1187938998985417,4.2439504,8.170051,3.015
1680007950648,1187939001487571,4.359,8.106,3.0250502
1680007950650,1187939003989955,4.2180004,8.27805,3.00495
1680007950651,1187939006492109,4.26795,8.23995,3.00495
1680007950654,1187939008994277,4.2109504,8.200951,3.0270002
1680007950657,1187939011496200,4.17705,8.23995,2.9550002
1680007950659,1187939013998585,4.122,8.27295,2.9340003
1680007950661,1187939016500508,4.1119504,8.194051,2.9550002
1680007950663,1187939019002677,4.13205,8.247001,2.9479501
1680007950667,1187939021504831,4.14405,8.26395,2.9650502
1680007950668,1187939024006984,4.1599503,8.25405,2.907
1680007950672,1187939026509138,4.28205,8.359051,2.8900502
1680007950674,1187939029011292,4.20795,8.26395,2.8590002
1680007950677,1187939031513677,4.30905,8.283,2.9239502
1680007950680,1187939034015831,4.25595,8.27295,2.9650502
1680007950682,1187939036517754,4.407,8.259001,2.979
1680007950685,1187939039019927,4.3380003,8.24895,3.051
1680007950688,1187939041522080,4.5100503,8.223001,3.0199502
1680007950690,1187939044024234,4.52895,8.28495,2.9910002
1680007950692,1187939046526388,4.584,8.25195,3.1060503
1680007950695,1187939049028542,4.70205,8.21805,3.0919502
1680007950697,1187939051530696,4.7520003,8.268001,3.0319502
1680007950699,1187939054032850,4.6969504,8.247001,3.183
1680007950701,1187939056535004,4.8120003,8.247001,3.2710502
1680007950705,1187939059037080,4.8520503,8.179951,3.2400002
1680007950707,1187939061539215,4.9080005,8.18505,3.3360002
1680007950709,1187939064041446,4.9219503,8.23695,3.2260501
1680007950713,1187939066543600,4.99095,8.247001,3.3409503
1680007950714,1187939069045754,5.03205,8.22105,3.4750502
1680007950717,1187939071547912,5.01105,8.187,3.453
1680007950719,1187939074049989,5.0490003,8.259001,3.4150503
1680007950722,1187939076552142,5.0539503,8.247001,3.5419502
1680007950725,1187939079054373,5.1450005,8.20905,3.4459503
1680007950728,1187939081556556,5.142,8.224951,3.4290001
1680007950730,1187939084058633,5.1280503,8.27295,3.4129503
1680007950732,1187939086560787,5.085,8.200951,3.492
1680007950733,1187939089062941,5.0989504,8.20905,3.489
1680007950736,1187939091565095,5.19,8.343,3.55395
1680007950739,1187939094067344,5.085,8.163,3.4800003
1680007950741,1187939096569498,5.109,8.24895,3.4680002
1680007950744,1187939099071652,5.18505,8.247001,3.4960501
1680007950747,1187939101573729,5.16405,8.3550005,3.6520503
1680007950748,1187939104075921,5.18505,8.304001,3.5749502
1680007950752,1187939106578075,5.0989504,8.259001,3.6450002
1680007950755,1187939109080228,4.9939504,8.22105,3.6090002
1680007950757,1187939111582382,5.07,8.352,3.6499503
1680007950761,1187939114084541,5.07,8.30895,3.52305
1680007950764,1187939116586695,5.058,8.3880005,3.5629501
1680007950766,1187939119088849,4.96005,8.22105,3.7500002
1680007950768,1187939121591003,4.932,8.22105,3.6469502
1680007950769,1187939124092926,4.881,8.280001,3.7050002
1680007950771,1187939126595305,4.9339504,8.2900505,3.7140002
1680007950774,1187939129097459,4.8190503,8.352,3.66405
1680007950777,1187939131599613,4.833,8.343,3.5629501
1680007950779,1187939134101767,4.7470503,8.292001,3.6709502
1680007950781,1187939136603921,4.81395,8.328,3.62595
1680007950784,1187939139106065,4.7970004,8.352,3.52005
1680007950787,1187939141607988,4.76595,8.344951,3.5130002
1680007950789,1187939144110372,4.7449503,8.331,3.4339502
1680007950792,1187939146612531,4.7569504,8.467051,3.384
1680007950794,1187939149114685,4.716,8.415,3.4840503
1680007950799,1187939151616608,4.6470003,8.335951,3.381
1680007950800,1187939154118762,4.7179503,8.368951,3.4630501
1680007950802,1187939156620892,4.6579504,8.46,3.31395
1680007950805,1187939159123277,4.635,8.42205,3.39105
1680007950807,1187939161625430,4.635,8.488951,3.3769503
1680007950809,1187939164127584,4.5940504,8.496,3.2310002
1680007950811,1187939166629738,4.60305,8.53695,3.22305
1680007950815,1187939169131632,4.644,8.503051,3.32205
1680007950817,1187939171633786,4.49805,8.544001,3.1350002
1680007950820,1187939174136171,4.49805,8.49405,3.144
1680007950821,1187939176638325,4.551,8.497951,3.1009502
1680007950824,1187939179140248,4.635,8.5990505,3.183
1680007950827,1187939181642382,4.4380503,8.628,2.9910002
1680007950829,1187939184144536,4.4380503,8.51295,3.0990002
1680007950832,1187939186646690,4.5100503,8.556001,3.21405
1680007950837,1187939189148757,4.42395,8.601001,3.0889502
1680007950839,1187939194150988,4.3830004,8.592,3.015
1680007950841,1187939194626372,4.41195,8.641951,2.9980502
1680007950843,1187939196655296,4.42395,8.641951,3.00795
1680007950844,1187939199157449,4.37295,8.625,3.0169501
1680007950847,1187939201659603,4.3230004,8.629951,2.97705
1680007950850,1187939204161757,4.3710003,8.652,3.0199502
1680007950852,1187939206664142,4.359,8.685,3.0030003
1680007950855,1187939209166065,4.3639503,8.652,2.8900502
1680007950857,1187939211668210,4.3039503,8.67105,3.0340502
1680007950859,1187939214170364,4.275,8.743051,3.0169501
1680007950863,1187939216672440,4.287,8.685,3.1200001
1680007950864,1187939219174594,4.2180004,8.656051,2.9550002
1680007950867,1187939221676748,4.3180504,8.797951,3.0889502
1680007950869,1187939224178993,4.19595,8.604,3.0700502
1680007950873,1187939226681147,4.287,8.779051,3.0199502
1680007950875,1187939229183301,4.26795,8.75205,2.9860501
1680007950878,1187939231685402,4.3060503,8.72595,3.111
1680007950880,1187939234187555,4.2060003,8.661,3.04095
1680007950883,1187939236689709,4.29705,8.82195,3.0319502
1680007950884,1187939239191940,4.25595,8.755051,3.108
1680007950888,1187939241694094,4.2319503,8.829,3.0700502
1680007950890,1187939244196229,4.26105,8.82195,2.979
1680007950891,1187939246698306,4.2709503,8.7310505,3.1680002
1680007950894,1187939249200460,4.2900004,8.653951,3.2430003
1680007950897,1187939251702613,4.2900004,8.757,3.2280002
1680007950899,1187939254204757,4.3450503,8.74995,3.11295
1680007950901,1187939256706911,4.3180504,8.71395,3.0889502
1680007950904,1187939259209065,4.26795,8.78295,3.1279502
1680007950907,1187939261711219,4.314,8.755051,3.2310002
1680007950910,1187939264213388,4.34205,8.769,3.24705
1680007950913,1187939266715541,4.32105,8.781,3.32205
1680007950915,1187939269217695,4.3060503,8.81505,3.2710502
1680007950918,1187939271719849,4.3450503,8.941051,3.3769503
1680007950920,1187939274221772,4.29195,8.84595,3.4440002
1680007950921,1187939276723940,4.3879504,9.01095,3.3049502
1680007950924,1187939279226094,4.5199504,8.929951,3.24495
1680007950927,1187939281728479,4.47195,8.956051,3.4800003
1680007950929,1187939284230632,4.57695,9.1039505,3.4150503
1680007950931,1187939286732800,4.6150503,9.15705,3.4650002
1680007950934,1187939289234954,4.596,9.064051,3.3670502
1680007950937,1187939291737108,4.7449503,9.06795,3.4720502
1680007950939,1187939294239031,4.73295,9.13305,3.4939501
1680007950941,1187939296741416,4.623,9.186001,3.417
1680007950944,1187939299243570,4.70205,9.052051,3.348
1680007950948,1187939301745723,4.6729503,8.958,3.3379502
1680007950950,1187939304247647,4.49595,8.961,3.3360002
1680007950953,1187939306749815,4.4880004,8.985001,3.4339502
1680007950954,1187939309251969,4.39995,8.958,3.561
1680007950957,1187939311754123,4.2709503,8.853001,3.3769503
1680007950959,1187939314256277,4.2390003,8.842951,3.456
1680007950961,1187939316758431,4.14405,8.74695,3.4819503
1680007950964,1187939319260604,4.05405,8.743051,3.4750502
1680007950967,1187939321762757,3.9570003,8.69505,3.357
1680007950969,1187939324264911,3.9259503,8.688001,3.3739502
1680007950971,1187939326767065,3.8370001,8.596951,3.348
1680007950974,1187939329269450,3.76305,8.56305,3.4050002
1680007950977,1187939331771387,3.6720002,8.625,3.3790503
1680007950979,1187939334273541,3.68895,8.553,3.252
1680007950981,1187939336775695,3.6360002,8.60595,3.31695
1680007950985,1187939339277872,3.5689502,8.653951,3.1320002
1680007950988,1187939341779949,3.5640001,8.613001,3.1950002
1680007950991,1187939344282103,3.5640001,8.58495,3.18
1680007950992,1187939346784334,3.5089502,8.544001,3.0319502
1680007950994,1187939349286488,3.51795,8.5990505,3.00795
1680007950997,1187939351788633,3.5140502,8.61795,2.9190001
1680007950999,1187939354290787,3.4080002,8.533951,2.90505
1680007951001,1187939356792863,3.4009502,8.54595,2.8470001
1680007951004,1187939359295017,3.4009502,8.628,2.8230002
1680007951007,1187939361797238,3.384,8.51295,2.8639503
1680007951009,1187939364299392,3.3769503,8.632951,2.811
1680007951011,1187939366801546,3.4060502,8.604,2.811
1680007951014,1187939369303700,3.3679502,8.635051,2.838
1680007951017,1187939371805777,3.348,8.496,2.6800501
1680007951019,1187939374307949,3.3679502,8.608951,2.7229502
1680007951023,1187939376810103,3.32205,8.601001,2.70105
1680007951025,1187939379312334,3.3960001,8.592,2.7160501
1680007951028,1187939381814416,3.28395,8.652,2.766
1680007951031,1187939384316570,3.32205,8.613001,2.766
1680007951034,1187939386818724,3.3360002,8.5990505,2.70795
1680007951035,1187939389320878,3.31995,8.61795,2.67705
1680007951038,1187939391823031,3.315,8.611051,2.69595
1680007951040,1187939394325262,3.35295,8.632951,2.6749501
1680007951042,1187939396827416,3.38895,8.647051,2.6800501
1680007951044,1187939399329493,3.35805,8.57295,2.70105
1680007951047,1187939401831647,3.28905,8.67105,2.802
1680007951049,1187939404333791,3.4129503,8.556001,2.7130501
1680007951052,1187939406835945,3.4060502,8.589001,2.73705
1680007951054,1187939409338098,3.3360002,8.604,2.6509502
1680007951058,1187939411840252,3.3270001,8.57295,2.6580002
1680007951062,1187939414342416,3.41805,8.580001,2.706
1680007951063,1187939416844570,3.4680002,8.5990505,2.57205
1680007951065,1187939419346493,3.4110003,8.46,2.62695
1680007951068,1187939421848647,3.4320002,8.51295,2.6509502
1680007951070,1187939424350801,3.4969501,8.628,2.775
1680007951073,1187939426853171,3.4440002,8.580001,2.6800501
1680007951074,1187939429355325,3.4110003,8.52,2.6749501
1680007951077,1187939431857479,3.4830003,8.533951,2.59605
1680007951079,1187939434359633,3.4060502,8.484,2.6100001
1680007951081,1187939436861556,3.4320002,8.57505,2.6560502
1680007951084,1187939439363695,3.49005,8.42895,2.6580002
1680007951087,1187939441866079,3.492,8.565001,2.73705
1680007951089,1187939444368233,3.51795,8.661,2.7469501
1680007951091,1187939446870156,3.5779502,8.61795,2.74005
1680007951094,1187939449372257,3.6379502,8.641951,2.74005
1680007951098,1187939451874411,3.6649501,8.628,2.742
1680007951100,1187939454376565,3.7219503,8.623051,2.69895
1680007951102,1187939456878719,3.7909503,8.641951,2.7199502
1680007951104,1187939459380873,3.8230503,8.632951,2.77305
1680007951107,1187939461883026,3.9640503,8.67105,2.835
1680007951108,1187939464385180,3.9469502,8.70405,2.742
1680007951112,1187939466887334,4.0350003,8.69205,2.8830001
1680007951114,1187939469389488,4.2319503,8.7949505,2.98095
1680007951117,1187939471891647,4.2900004,8.812051,3.0169501
1680007951119,1187939474394032,4.359,8.75895,3.0270002
1680007951121,1187939476895955,4.4359503,8.82405,3.18495
1680007951124,1187939479398108,4.42395,8.925,3.11595
1680007951127,1187939481900247,4.57905,8.805,3.2310002
1680007951129,1187939484402324,4.55805,8.84595,3.2380502
1680007951132,1187939486904478,4.57905,8.83605,3.357
1680007951136,1187939489406671,4.5750003,8.81505,3.28095
1680007951138,1187939491908825,4.704,8.78295,3.4080002
1680007951140,1187939494410979,4.72305,8.78295,3.4630501
1680007951142,1187939496913132,4.7299504,8.7949505,3.4720502
1680007951144,1187939499415209,4.7470503,8.743051,3.489
1680007951147,1187939501917344,4.7449503,8.779051,3.63
1680007951149,1187939504419498,4.75395,8.736,3.6780002
1680007951154,1187939506921729,4.7590504,8.724,3.7789502
1680007951155,1187939509423883,4.7260504,8.7310505,3.6520503
1680007951157,1187939511926042,4.7299504,8.77095,3.7740002
1680007951159,1187939514428118,4.80495,8.829,3.7570503
1680007951163,1187939516930272,4.821,8.788051,3.8869503
1680007951164,1187939519432426,4.833,8.84805,3.69495
1680007951168,1187939521934677,4.78095,8.812051,3.8719501
1680007951170,1187939524436754,4.9549503,8.877001,3.8170502
1680007951173,1187939526938908,4.8190503,8.997001,3.8359501
1680007951175,1187939529441062,4.83795,9.02505,3.8410501
1680007951178,1187939531943301,4.7779503,9.021001,3.7410002
1680007951180,1187939534445455,4.821,9.0400505,3.7219503
1680007951183,1187939536947609,4.788,9.021001,3.66195
1680007951184,1187939539449686,4.72095,9.042001,3.7170002
1680007951188,1187939541951840,4.7299504,9.106951,3.693
1680007951189,1187939544453975,4.7640004,9.06795,3.6379502
1680007951192,1187939546955898,4.65105,9.021001,3.6690001
1680007951194,1187939549458282,4.63005,9.09195,3.7429502
1680007951197,1187939551960436,4.66995,9.01605,3.59505
1680007951199,1187939554462575,4.55595,8.922001,3.6139503
1680007951201,1187939556964729,4.48395,8.865001,3.62295
1680007951204,1187939559466652,4.38495,8.797951,3.51795
1680007951207,1187939561968806,4.32795,8.78295,3.4990501
1680007951211,1187939564471172,4.26795,8.793,3.4030502
1680007951212,1187939566973325,4.22295,8.69505,3.4339502
1680007951214,1187939569475479,4.2060003,8.74695,3.35505
1680007951217,1187939571977633,4.09305,8.688001,3.1969502
1680007951219,1187939574479787,4.00005,8.733001,3.2929502
1680007951221,1187939576981696,3.8389502,8.604,3.1900501
1680007951224,1187939579483850,3.8059502,8.59395,3.1420503
1680007951227,1187939581986234,3.8130002,8.67105,3.04605
1680007951229,1187939584488388,3.7800002,8.5990505,2.97705
1680007951232,1187939586990291,3.79395,8.608951,2.9479501
1680007951234,1187939589492445,3.6430502,8.556001,3.0270002
1680007951237,1187939591994599,3.7200003,8.644951,2.9890501
1680007951239,1187939594496753,3.6190503,8.54895,2.9260502
1680007951242,1187939596999138,3.6379502,8.623051,2.91
1680007951244,1187939599501090,3.6139503,8.601001,2.87805
1680007951249,1187939602003244,3.6529503,8.680051,2.8930502
1680007951250,1187939604505397,3.70005,8.53695,2.87805
1680007951252,1187939607007551,3.6670501,8.656051,2.8140001
1680007951254,1187939609509686,3.7170002,8.55795,2.9239502
1680007951256,1187939612012071,3.7050002,8.503051,2.83995
1680007951263,1187939614513994,3.66,8.568001,2.7469501
1680007951263,1187939617016148,3.8230503,8.484,2.9569502
1680007951264,1187939619518301,3.7840502,8.470051,3.01005
1680007951266,1187939622020484,3.8509502,8.53695,2.96895
1680007951269,1187939624522561,3.8800502,8.53905,3.01005
1680007951272,1187939627024715,3.9019501,8.56995,2.9980502
1680007951274,1187939629526946,3.9469502,8.57295,3.0169501
1680007951276,1187939632029114,3.9709501,8.509951,3.0319502
1680007951278,1187939634531268,4.02405,8.61795,3.1320002
1680007951282,1187939637033345,4.05,8.56305,3.039
1680007951286,1187939639535493,4.0080004,8.592,3.0990002
1680007951289,1187939642037647,4.038,8.596951,3.11595
1680007951290,1187939644539878,4.0789504,8.54205,3.0580502
1680007951292,1187939647042032,4.05,8.5990505,3.18495
1680007951295,1187939649544186,4.0740004,8.65905,3.0940502
1680007951297,1187939652046278,4.0800004,8.652,3.18705
1680007951299,1187939654548431,4.1530504,8.61795,3.2350502
1680007951302,1187939657050585,4.1680503,8.608951,3.1900501
1680007951305,1187939659552739,4.182,8.67105,3.2620502
1680007951307,1187939662054917,4.1269503,8.67105,3.3120003
1680007951309,1187939664557071,4.1340003,8.629951,3.27795
1680007951312,1187939667059225,4.14405,8.68305,3.31395
1680007951314,1187939669561379,4.15605,8.544001,3.2350502
1680007951319,1187939672063508,4.1389503,8.61795,3.24495
1680007951320,1187939674565662,4.0740004,8.616,3.3670502
1680007951324,1187939677067893,3.9780002,8.604,3.31905
1680007951329,1187939679569959,4.026,8.6970005,3.2950501
1680007951330,1187939682072113,4.07205,8.641951,3.3000002
1680007951331,1187939684574267,3.9949503,8.64,3.1990502
1680007951333,1187939687076421,3.9930003,8.628,3.21405
1680007951335,1187939689578574,4.0009503,8.635051,3.32205
1680007951338,1187939692080498,3.8710501,8.688001,3.1900501
1680007951339,1187939694582872,3.9520502,8.71395,3.3289502
1680007951342,1187939697085026,3.8940003,8.743051,3.2929502
1680007951344,1187939699587180,3.8850002,8.84805,3.1200001
1680007951347,1187939702089103,3.8560503,8.7619505,3.072
1680007951349,1187939704591257,3.8179502,8.788051,3.0559502
1680007951352,1187939707093411,3.765,8.812051,3.0340502
1680007951354,1187939709595795,3.7120502,8.89605,3.07995
1680007951357,1187939712097949,3.7530003,8.82195,2.93595
1680007951361,1187939714599872,3.7339501,8.87895,2.98095
1680007951364,1187939717102041,3.6720002,8.989051,2.87595
1680007951365,1187939719604195,3.6690001,9.097051,2.8519502
1680007951367,1187939722106349,3.7080002,9.13305,2.84505
1680007951369,1187939724608733,3.6649501,9.162001,2.8279502
1680007951372,1187939727110887,3.7080002,9.21195,2.88105
1680007951374,1187939729612810,3.6550503,9.127951,2.7870002
1680007951377,1187939732114964,3.70005,9.14295,2.8500001
1680007951379,1187939734617118,3.6769502,9.219001,2.9170501
1680007951383,1187939737119272,3.7410002,9.217051,2.91195
1680007951384,1187939739621349,3.6910503,9.198001,2.90505
1680007951388,1187939742123575,3.6430502,9.217051,3.0250502
1680007951389,1187939744625728,3.55395,9.14505,3.108
1680007951394,1187939747127882,3.6090002,9.106951,3.051
1680007951395,1187939749630046,3.68895,9.076051,3.183
1680007951401,1187939752132200,3.7240503,9.06795,3.15405
1680007951402,1187939754634354,3.6739502,8.977051,3.108
1680007951404,1187939757136508,3.7120502,9.05895,3.1950002
1680007951405,1187939759638662,3.5860503,8.994,3.252
1680007951407,1187939762140834,3.7360501,8.937,3.3649502
1680007951411,1187939764642988,3.6790502,8.92695,3.3379502
1680007951412,1187939767145065,3.7720501,9.05895,3.3240001
1680007951414,1187939769647219,3.7200003,8.941051,3.28305
1680007951417,1187939772149373,3.7459502,9.01605,3.4030502
1680007951419,1187939774651604,3.7240503,8.932051,3.4050002
1680007951422,1187939777153681,3.7150502,8.946,3.4699502
1680007951425,1187939779655834,3.6720002,9.0060005,3.456
1680007951428,1187939782157988,3.6910503,8.922001,3.4080002
1680007951430,1187939784660142,3.5059502,8.989051,3.4990501
1680007951433,1187939787162296,3.42,8.877001,3.4390502
1680007951437,1187939789664522,3.51795,8.929951,3.4840503
1680007951440,1187939792165560,3.3630002,8.920051,3.3769503
1680007951440,1187939794666599,3.35295,8.829,3.52005
1680007951442,1187939797170676,3.2650502,8.86695,3.4770002
1680007951445,1187939799673060,3.2689502,8.83905,3.4510503
1680007951447,1187939802175195,3.21195,8.89395,3.4099503
1680007951449,1187939804677349,3.2260501,8.934,3.4390502
1680007951452,1187939807179503,3.183,8.865001,3.3979502
1680007951454,1187939809681657,3.1999502,8.862,3.3289502
1680007951457,1187939812183810,3.2380502,8.929951,3.2760003
1680007951459,1187939814685964,3.3079503,8.89095,3.3120003
1680007951462,1187939817188118,3.3460503,8.961,3.357
1680007951464,1187939819690272,3.48495,9.030001,3.3070502
1680007951468,1187939822192426,3.5419502,9.13095,3.2430003
1680007951469,1187939824694349,3.6810002,9.1380005,3.31905
1680007951474,1187939827196503,3.7150502,9.18105,3.2620502
1680007951476,1187939829698657,3.7819502,9.22395,3.3049502
1680007951478,1187939832201041,3.9420002,9.183001,3.4249501
1680007951480,1187939834702974,4.08705,9.27,3.3289502
1680007951482,1187939837205128,4.0410004,9.12405,3.28605
1680007951484,1187939839707282,4.07205,9.02295,3.4459503
1680007951487,1187939842209436,4.17705,9.064051,3.3690002
1680007951489,1187939844711590,4.08705,9.03705,3.4360502
1680007951492,1187939847214012,4.227,9.150001,3.561
1680007951494,1187939849716166,4.19595,8.97,3.5059502
1680007951497,1187939852218320,4.20795,9.01605,3.5130002
1680007951499,1187939854720243,4.11705,8.88405,3.6040502
1680007951502,1187939857222397,4.05,8.842951,3.6349502
1680007951505,1187939859724566,3.8800502,8.793,3.4720502
1680007951507,1187939862226720,3.8710501,8.68305,3.5040002
1680007951511,1187939864728874,3.8230503,8.653951,3.4249501
1680007951515,1187939867231027,3.8230503,8.74005,3.4440002
1680007951518,1187939869733181,3.8560503,8.6640005,3.4939501
1680007951521,1187939872235335,3.8179502,8.635051,3.4050002
1680007951522,1187939874737412,3.6840003,8.604,3.4440002
1680007951523,1187939877239566,3.6649501,8.661,3.3739502
1680007951524,1187939879741802,3.5860503,8.677951,3.2929502
1680007951528,1187939882243956,3.6019502,8.724,3.24495
1680007951530,1187939884746109,3.5299501,8.79105,3.3310502
1680007951532,1187939887248263,3.45405,8.677951,3.144
1680007951535,1187939889750417,3.5760002,8.6640005,3.1300502
1680007951537,1187939892252509,3.4729502,8.620951,3.0940502
1680007951539,1187939894754663,3.4420502,8.673,2.979
1680007951542,1187939897256894,3.3340502,8.625,3.0289502
1680007951544,1187939899759048,3.2719502,8.52705,2.9650502
1680007951549,1187939902261128,3.2770503,8.632951,3.0370502
1680007951551,1187939904763282,3.3049502,8.652,2.9310002
1680007951555,1187939907265436,3.348,8.67105,3.0919502
1680007951557,1187939909767585,3.3460503,8.553,2.8519502
1680007951559,1187939912269816,3.2070003,8.53005,2.88105
1680007951560,1187939914771893,3.1879501,8.580001,2.946
1680007951562,1187939917274047,3.3340502,8.57295,2.8900502
1680007951564,1187939919776200,3.31995,8.592,2.8950002
1680007951567,1187939922278345,3.35295,8.556001,2.93805
1680007951570,1187939924780499,3.3960001,8.553,2.8330503
1680007951572,1187939927282730,3.4009502,8.628,2.8830001
1680007951574,1187939929784807,3.4009502,8.641951,2.93805
1680007951577,1187939932286946,3.35805,8.56305,2.96895
1680007951579,1187939934789100,3.4950001,8.629951,2.9959502
1680007951581,1187939937291253,3.387,8.635051,3.084
1680007951586,1187939939793176,3.45405,8.616,3.0529501
1680007951589,1187939942295311,3.4060502,8.673,3.1729503
1680007951590,1187939944797696,3.315,8.604,3.1950002
1680007951593,1187939947299850,3.3750002,8.58705,3.183
1680007951595,1187939949802004,3.2740502,8.620951,3.2740502
1680007951597,1187939952303951,3.32205,8.628,3.3379502
1680007951599,1187939954806105,3.3030002,8.61795,3.1969502
1680007951602,1187939957308258,3.2070003,8.532001,3.1680002
1680007951604,1187939959810643,3.28605,8.51805,3.1350002
1680007951607,1187939962312797,3.1519501,8.55795,3.2260501
1680007951609,1187939964814961,3.28095,8.521951,3.3360002
1680007951612,1187939967317115,3.255,8.580001,3.2350502
1680007951614,1187939969819038,3.2770503,8.49405,3.13995
1680007951617,1187939972321192,3.3649502,8.553,3.21105
1680007951620,1187939974823316,3.45405,8.73795,3.2620502
1680007951624,1187939977325470,3.6379502,8.67105,3.2899501
1680007951626,1187939979827624,3.732,8.79105,3.2689502
1680007951629,1187939982329778,3.7480502,8.773951,3.3619502
1680007951631,1187939984831932,3.83505,8.800051,3.2280002
1680007951634,1187939987334086,3.8440502,8.724,3.1750503
1680007951638,1187939989836163,3.9139502,8.70405,3.2929502
1680007951640,1187939992338393,4.0069504,8.61795,3.219
1680007951642,1187939994840547,4.00005,8.616,3.24495
1680007951643,1187939997342686,4.01895,8.55795,3.2280002
1680007951645,1187939999844840,4.0009503,8.54895,3.2209501
1680007951647,1187940002346994,4.1530504,8.54595,3.1350002
1680007951649,1187940004849148,4.18695,8.45505,3.1630502
1680007951652,1187940007351301,4.18695,8.565001,3.1009502
1680007951655,1187940009853455,4.33995,8.53695,3.2310002
1680007951657,1187940012355609,4.3380003,8.604,3.0940502
1680007951661,1187940014857763,4.3110003,8.59395,3.2020502
1680007951663,1187940017359826,4.38495,8.61795,3.1969502
1680007951665,1187940019861980,4.39305,8.60595,3.1969502
1680007951667,1187940022364134,4.34205,8.71605,3.2640002
1680007951669,1187940024866364,4.29195,8.628,3.3289502
1680007951673,1187940027368518,4.275,8.608951,3.4009502
1680007951675,1187940029870595,4.22295,8.608951,3.3019502
1680007951677,1187940032372749,4.2060003,8.611051,3.3739502
1680007951679,1187940034874903,4.0789504,8.644951,3.219
1680007951683,1187940037377057,4.07205,8.613001,3.38595
1680007951685,1187940039879274,4.0140004,8.565001,3.384
1680007951688,1187940042381427,3.9810002,8.69505,3.3019502
1680007951690,1187940044883504,3.9210002,8.623051,3.25395
1680007951692,1187940047385658,3.79395,8.5990505,3.31905
1680007951694,1187940049887802,3.6480002,8.677951,3.27795
1680007951699,1187940052389956,3.58995,8.757,3.2620502
1680007951701,1187940054892110,3.51795,8.677951,3.2740502
1680007951702,1187940057394264,3.492,8.721001,3.2710502
1680007951704,1187940059896407,3.4110003,8.865001,3.32205
1680007951707,1187940062398561,3.4080002,8.829,3.1680002
1680007951709,1187940064900715,3.28095,8.779051,3.17805
1680007951713,1187940067402869,3.219,8.877001,3.1060503
1680007951716,1187940069905033,3.25305,8.874001,3.1560001
1680007951721,1187940072407187,3.1879501,8.989051,3.1609502
1680007951723,1187940074909341,3.17595,8.89095,3.1680002
1680007951725,1187940077411494,3.075,8.89395,3.2430003
1680007951726,1187940079913413,3.0229502,8.937,3.216
1680007951728,1187940082415797,3.01095,8.956051,3.2260501
1680007951730,1187940084917951,3.00795,8.83395,3.3049502
1680007951732,1187940087420105,3.1210501,8.86695,3.2380502
1680007951736,1187940089922028,3.1300502,8.925,3.22305
1680007951739,1187940092424182,3.04395,8.89605,3.252
1680007951740,1187940094926336,3.0250502,8.84805,3.3409503
1680007951743,1187940097428489,3.08505,8.920051,3.3409503
1680007951744,1187940099930874,3.0949502,8.862,3.28095
1680007951747,1187940102433038,3.2070003,8.83905,3.2710502
1680007951749,1187940104935192,3.1660502,8.86005,3.3120003
1680007951753,1187940107437115,3.11595,8.83605,3.27795
1680007951754,1187940109939269,3.14505,8.874001,3.2710502
1680007951757,1187940112441437,3.17595,8.842951,3.1300502
1680007951759,1187940114943821,3.13995,8.84595,3.1660502
1680007951762,1187940117445744,3.15405,8.962951,3.2209501
1680007951765,1187940119947898,3.15405,8.953051,3.183
1680007951768,1187940122450061,3.07995,8.920051,3.0630002
1680007951770,1187940124952215,3.14505,9.04905,3.1660502
1680007951774,1187940127454369,3.2260501,9.052051,3.11295
1680007951775,1187940129956523,3.1420503,9.05895,3.0600002
1680007951778,1187940132458696,3.1590002,9.01305,3.1750503
1680007951780,1187940134960850,3.183,9.16395,3.2209501
1680007951782,1187940137463004,3.2329502,9.22605,3.28305
1680007951785,1187940139965158,3.3340502,9.291,3.3690002
1680007951787,1187940142467312,3.3390002,9.3820505,3.4680002
1680007951790,1187940144969417,3.51795,9.40905,3.6109502
1680007951793,1187940147471648,3.5140502,9.556951,3.7170002
1680007951795,1187940149973801,3.5809503,9.564,3.7450502
1680007951798,1187940152475955,3.7390501,9.576,3.8749502
1680007951799,1187940154978032,3.79605,9.574051,3.9229503
1680007951802,1187940157480186,3.7390501,9.50895,3.8770502
1680007951805,1187940159982340,3.86805,9.36495,3.9160502
1680007951807,1187940162484571,3.8080502,9.373051,3.9630003
1680007951811,1187940164986658,3.8509502,9.23805,3.9270003
1680007951813,1187940167488811,3.7699502,9.17595,3.6330001
1680007951816,1187940169990965,3.83205,9.198001,3.5800502
1680007951818,1187940172493119,3.7170002,9.241051,3.4360502
1680007951821,1187940174995273,3.7600503,9.19305,3.3019502
1680007951822,1187940177497432,3.6670501,9.139951,3.0960002
1680007951825,1187940179999663,3.6000001,9.09195,2.7469501
1680007951828,1187940182501816,3.5350502,8.986951,2.6460001
1680007951830,1187940185003893,3.59805,9.139951,2.4499502
1680007951833,1187940187506042,3.3700502,9.12405,2.3400002
1680007951835,1187940190008196,3.4440002,8.97,2.13105
1680007951838,1187940192510119,3.38895,8.989051,2.055
1680007951841,1187940195012504,3.28605,9.04905,2.043
1680007951843,1187940197514658,3.2310002,8.86995,2.1360002
1680007951845,1187940200016811,3.11805,8.85,2.1430502
1680007951850,1187940202518735,3.0660002,8.89095,2.328
1680007951852,1187940205020888,3.0180001,8.773951,2.32995
1680007951854,1187940207523042,2.9869502,8.71605,2.4859502
1680007951855,1187940210025215,2.86695,8.83905,2.39205
1680007951858,1187940212527600,2.8570502,8.68995,2.5140002
1680007951861,1187940215029754,2.80005,8.652,2.6890502
1680007951863,1187940217531907,2.7570002,8.700001,2.8860002
1680007951865,1187940220034066,2.7520502,8.647051,2.706
1680007951867,1187940222535989,2.74005,8.73795,2.91405
1680007951871,1187940225038143,2.79795,8.71395,3.0630002
1680007951873,1187940227540528,2.7450001,8.70195,3.0600002
1680007951875,1187940230042682,2.8240502,8.736,2.9239502
1680007951877,1187940232544615,2.77095,8.788051,3.1320002
1680007951880,1187940235046769,2.8840501,8.70195,3.0559502
1680007951882,1187940237548922,2.778,8.74695,3.0220501
1680007951891,1187940240051071,2.7810001,8.841001,2.9929502
1680007951892,1187940242553225,2.8140001,8.941051,3.108
1680007951892,1187940245055379,2.841,8.917951,3.0600002
1680007951892,1187940247557533,2.769,8.934,3.18
1680007951894,1187940250059687,2.7210002,9.00105,3.04095
1680007951897,1187940252561860,2.7450001,9.066,3.0319502
1680007951899,1187940255064013,2.77605,9.06105,3.0030003
1680007951902,1187940257566090,2.778,9.03195,3.13995
1680007951905,1187940260068321,2.70705,9.139951,2.95005
1680007951907,1187940262570470,2.733,9.076051,2.9020503
1680007951912,1187940265072624,2.7259502,9.14295,3.0220501
1680007951914,1187940267574778,2.66295,9.135,2.97705
1680007951915,1187940270076855,2.73795,9.127951,2.94105
1680007951919,1187940272579028,2.66295,9.1039505,3.00795
1680007951920,1187940275081258,2.7589502,9.18105,2.9260502
1680007951924,1187940277583412,2.7139502,9.15495,2.8500001
1680007951927,1187940280085489,2.7520502,9.088051,2.8930502
1680007951929,1187940282587634,2.733,9.0730505,2.9530501
1680007951931,1187940285089788,2.805,9.09195,2.9670002
1680007951933,1187940287591942,2.86695,9.13305,2.8900502
1680007951935,1187940290094095,2.86695,9.066,3.01005
1680007951938,1187940292596326,2.81205,9.05895,3.0030003
1680007951940,1187940295098465,2.9200501,9.151951,2.9860501
1680007951942,1187940297600542,2.9269502,9.162001,3.0289502
1680007951945,1187940300102696,2.9479501,9.127951,2.9599502
1680007951947,1187940302604850,2.9220002,9.088051,3.04095
1680007951951,1187940305106951,2.9920502,9.102,2.9839501
1680007951955,1187940307609104,2.91,9.076051,2.9190001
1680007951956,1187940310111258,2.97495,8.934,3.0319502
1680007951958,1187940312613412,3.0300002,9.02295,2.9220002
1680007951963,1187940315115547,3.042,8.89095,2.9239502
1680007951964,1187940317617701,3.04395,9.078,2.8260002
1680007951965,1187940320119855,2.9530501,9.018001,2.91
1680007951968,1187940322622009,3.0199502,8.994,2.87805
1680007951972,1187940325124162,2.97705,8.944051,2.9670002
1680007951973,1187940327626051,3.042,8.946,2.93595
1680007951975,1187940330128205,3.01605,8.96805,2.91
1680007951980,1187940332630359,3.0010502,8.97,2.8590002
1680007951981,1187940335132744,3.0559502,8.944051,3.0600002
1680007951982,1187940337634667,2.97495,8.929951,2.90505
1680007951985,1187940340136812,3.0010502,9.01605,2.97705
1680007951988,1187940342638966,3.04395,8.91495,3.051
1680007951990,1187940345141119,2.9340003,9.02505,3.0600002
1680007951993,1187940347643263,2.98005,8.977051,2.979
1680007951995,1187940350145648,3.01095,8.908051,3.0340502
1680007952000,1187940352647802,3.0010502,8.986951,3.0250502
1680007952000,1187940355149956,2.94405,9.0060005,2.8590002
1680007952002,1187940357651879,3.0540001,8.85,2.946
1680007952004,1187940360154057,3.186,8.953051,3.1300502
1680007952007,1187940362656210,3.147,8.905951,3.0580502
1680007952010,1187940365158364,3.2209501,8.913,3.0030003
1680007952012,1187940367660518,3.1930501,8.946,2.946
1680007952014,1187940370162672,3.2290502,9.03495,3.0529501
1680007952017,1187940372664826,3.2650502,9.05895,3.0649502
1680007952019,1187940375166903,3.28395,9.01095,3.2260501
1680007952022,1187940377669057,3.3679502,9.14505,3.111
1680007952025,1187940380171205,3.45405,9.066,3.0319502
1680007952029,1187940382673436,3.4710002,9.21,3.0319502
1680007952030,1187940385175590,3.5160003,9.19995,3.2070003
1680007952033,1187940387677744,3.5710502,9.21195,2.9860501
1680007952038,1187940390179821,3.4990501,9.186001,2.9890501
1680007952042,1187940395181975,3.59295,9.19995,3.11295
1680007952042,1187940395310667,3.4990501,9.127951,3.08205
1680007952044,1187940397686359,3.5640001,9.066,3.00495
1680007952045,1187940400188513,3.6000001,9.19305,3.1320002
1680007952048,1187940402690638,3.66,9.042001,2.9980502
1680007952049,1187940405192715,3.5659502,9.15705,3.11295
1680007952052,1187940407694869,3.5740502,9.15495,3.0700502
1680007952055,1187940410197023,3.6169503,9.0400505,3.0580502
1680007952058,1187940412698941,3.5419502,9.052051,3.0679502
1680007952060,1187940415201325,3.5860503,9.04905,2.9860501
1680007952062,1187940417703479,3.6169503,9.06795,3.108
1680007952065,1187940420205633,3.528,8.982,3.0030003
1680007952067,1187940422707787,3.5110502,8.994,2.9670002
1680007952070,1187940425209941,3.5329502,8.99895,2.9959502
1680007952075,1187940427712095,3.4300501,8.925,2.98095
1680007952077,1187940430214325,3.5040002,9.021001,2.96895
1680007952079,1187940432759821,3.4369502,8.98005,2.8980002
1680007952081,1187940435218590,3.4320002,8.922001,3.147
1680007952082,1187940437720744,3.35805,8.98005,3.075
1680007952084,1187940440222898,3.3679502,9.01605,2.9670002
1680007952087,1187940442724821,3.351,8.961,2.9860501
1680007952089,1187940445227187,3.32205,8.986951,2.9599502
1680007952092,1187940447729340,3.3240001,8.913,2.8830001
1680007952094,1187940450231494,3.3679502,8.986951,3.0250502
1680007952097,1187940452733417,3.31695,8.886001,2.9959502
1680007952100,1187940455235580,3.2740502,8.874001,2.8950002
1680007952102,1187940457737734,3.24795,8.85495,2.943
1680007952104,1187940460239888,3.3010502,8.901,3.0030003
1680007952107,1187940462742273,3.2569501,8.92695,2.9599502
1680007952111,1187940465244412,3.2070003,8.944051,2.946
1680007952114,1187940467746566,3.2980502,8.85495,3.07995
1680007952116,1187940470248489,3.255,8.908051,3.01305
1680007952119,1187940472750643,3.1690502,8.889001,2.9569502
1680007952121,1187940475252797,3.2719502,8.841001,3.00495
1680007952122,1187940477755220,3.2070003,8.953051,3.1320002
1680007952124,1187940480257143,3.2959502,9.01605,3.00495
1680007952128,1187940482759297,3.1620002,8.88195,3.072
1680007952130,1187940485261450,3.21705,8.97,3.11805
1680007952132,1187940487763604,3.1740003,8.898001,3.0340502
1680007952134,1187940490265705,3.1639502,8.973001,3.1350002
1680007952139,1187940492767859,3.0970502,9.018001,3.2070003
1680007952140,1187940495270090,3.2329502,8.950951,3.075
1680007952142,1187940497772244,3.1710002,8.937,3.144
1680007952145,1187940500274417,3.17805,8.986951,3.015
1680007952149,1187940502776570,3.14505,8.913,2.9479501
1680007952151,1187940505278724,3.2569501,8.96805,3.0370502
1680007952153,1187940507780816,3.255,8.99895,3.04395
1680007952156,1187940510283047,3.2569501,8.934,3.01305
1680007952158,1187940512785201,3.32205,8.944051,3.1279502
1680007952160,1187940515287355,3.2310002,8.97,3.0960002
1680007952162,1187940517789509,3.28905,9.03495,3.1369503
1680007952165,1187940520291580,3.28095,8.96805,3.07695
1680007952167,1187940522793734,3.3049502,9.11205,3.1279502
1680007952170,1187940525295965,3.315,9.066,3.04605
1680007952172,1187940527798042,3.2959502,9.052051,3.1279502
1680007952175,1187940530300196,3.2770503,9.030001,2.9860501
1680007952177,1187940532802350,3.21,9.13305,2.97705
1680007952180,1187940535304504,3.28395,9.07995,2.9929502
1680007952182,1187940537806657,3.28905,9.118951,3.21405
1680007952186,1187940540308816,3.2620502,9.02505,3.111
1680007952189,1187940542811047,3.2050502,9.0730505,3.07995
1680007952191,1187940545313201,3.2070003,9.064051,2.9860501
1680007952193,1187940547815278,3.25005,9.094951,3.1249502
1680007952195,1187940550317432,3.2239501,9.05595,3.1200001
1680007952198,1187940552819590,3.28395,9.01305,3.2400002
1680007952200,1187940555321743,3.21705,9.02805,3.1420503
1680007952202,1187940557823897,3.2070003,9.17595,3.1900501
1680007952205,1187940560326051,3.17805,9.094951,3.1369503
1680007952207,1187940562828205,3.2070003,9.118951,3.1009502
1680007952210,1187940565330379,3.2260501,9.11205,3.0270002
1680007952213,1187940567832302,3.32205,9.03495,3.2329502
1680007952215,1187940570334456,3.3769503,9.121051,3.2260501
1680007952218,1187940572836840,3.37995,9.17895,3.2350502
1680007952220,1187940575338994,3.3409503,9.1039505,3.144
1680007952224,1187940577841167,3.4830003,9.11205,3.13995
1680007952227,1187940580343090,3.5419502,9.05895,3.2209501
1680007952229,1187940582845244,3.4969501,9.121051,3.144
1680007952232,1187940585347619,3.51795,9.1039505,3.18705
1680007952235,1187940587849772,3.5710502,9.009001,3.1680002
1680007952239,1187940590351696,3.5449502,8.98005,3.1560001
1680007952240,1187940593168311,3.6210003,8.961,3.21405
1680007952241,1187940595356003,3.6169503,8.98005,3.1320002
1680007952242,1187940597858143,3.52305,9.02505,3.2350502
1680007952245,1187940600360528,3.52095,9.00105,3.2070003
1680007952247,1187940602862451,3.4780502,8.874001,3.1560001
1680007952250,1187940605364605,3.4729502,8.89095,3.28605
1680007952252,1187940607866744,3.4390502,8.773951,3.147
1680007952255,1187940610368897,3.5740502,8.85495,3.21105
1680007952257,1187940612871051,3.5089502,8.818951,3.0679502
1680007952261,1187940615373205,3.4710002,8.817,3.084
1680007952263,1187940617875571,3.456,8.937,3.1320002
1680007952265,1187940620377494,3.456,8.901,3.1560001
1680007952268,1187940622879648,3.4710002,8.86695,3.0169501
1680007952272,1187940625381801,3.456,8.865001,2.9530501
1680007952274,1187940627883945,3.4300501,8.925,3.0250502
1680007952276,1187940630386022,3.4390502,8.829,2.9910002
1680007952278,1187940632888253,3.4609501,8.901,3.108
1680007952280,1187940635390407,3.4710002,8.920051,3.13995
1680007952282,1187940637892561,3.4249501,8.89395,2.9839501
1680007952285,1187940640394638,3.3700502,8.941051,3.0270002
1680007952288,1187940642896792,3.3820503,8.88195,3.07695
1680007952290,1187940645398945,3.2380502,8.886001,3.0370502
1680007952292,1187940647901176,3.2910001,8.92695,3.11295
1680007952295,1187940650403330,3.2980502,8.920051,2.9910002
1680007952299,1187940652905484,3.2650502,8.910001,3.0220501
1680007952301,1187940655407638,3.2070003,8.989051,3.0220501
1680007952303,1187940657909715,3.2260501,8.956051,3.0169501
1680007952305,1187940660411869,3.2650502,8.88405,3.0559502
1680007952308,1187940662914003,3.183,8.917951,3.0700502
1680007952310,1187940665416234,3.2650502,8.865001,3.20895
1680007952314,1187940667918311,3.1950002,8.925,3.0559502
1680007952316,1187940670420489,3.21,8.86695,3.0870001
1680007952318,1187940672922643,3.2620502,8.853001,3.0940502
1680007952321,1187940675424797,3.25005,8.841001,3.0889502
1680007952323,1187940677926950,3.21405,8.962951,3.1750503
1680007952325,1187940680429181,3.1950002,8.97,3.18495
1680007952328,1187940682931244,3.2740502,8.929951,3.144
1680007952330,1187940685433398,3.2980502,8.85,2.9910002
1680007952332,1187940687935552,3.219,9.021001,3.0990002
1680007952336,1187940690437711,3.25305,8.974951,3.15405
1680007952339,1187940692939865,3.2770503,8.997001,3.183
1680007952341,1187940695441788,3.3390002,8.96805,3.11805
1680007952343,1187940697944172,3.3100502,8.96805,3.14895
1680007952345,1187940700446326,3.38895,8.865001,2.9959502
1680007952348,1187940702948470,3.3439503,8.956051,3.11295
1680007952350,1187940705450393,3.3820503,8.982,3.18
1680007952354,1187940707952547,3.3750002,8.920051,2.9650502
1680007952356,1187940710454701,3.384,8.82195,3.2209501
1680007952358,1187940712957085,3.3289502,8.938951,3.0529501
1680007952360,1187940715459239,3.3990002,8.87205,3.084
1680007952363,1187940717961162,3.3340502,8.83395,3.1630502
1680007952365,1187940720463316,3.3340502,8.7949505,3.216
1680007952368,1187940722965470,3.35595,8.85795,3.21105
1680007952370,1187940725467638,3.456,8.87205,3.2929502
1680007952374,1187940727969792,3.4729502,8.773951,3.1420503
1680007952377,1187940730472176,3.3960001,8.80305,3.07695
1680007952379,1187940732974099,3.492,8.74005,3.0889502
1680007952380,1187940735476244,3.4470003,8.87205,3.2260501
1680007952383,1187940737978398,3.42705,8.785951,3.0630002
1680007952385,1187940740480552,3.4420502,8.865001,3.17805
1680007952388,1187940742982629,3.4320002,8.83605,3.0250502
1680007952390,1187940745484860,3.4950001,8.793,3.0559502
1680007952394,1187940747987014,3.4609501,8.830951,3.147
1680007952395,1187940750489167,3.44895,8.83905,3.1200001
1680007952398,1187940752991321,3.42,8.865001,3.1320002
1680007952400,1187940755493475,3.4470003,8.830951,3.1300502
1680007952403,1187940757995571,3.4320002,8.829,3.1350002
1680007952405,1187940760497802,3.42705,8.85495,3.147
1680007952408,1187940762999956,3.3990002,8.842951,3.1039503
1680007952412,1187940765502115,3.3820503,8.89095,3.0679502
1680007952413,1187940768004268,3.4729502,8.898001,3.0030003
1680007952416,1187940770506422,3.42,8.86995,3.0630002
1680007952418,1187940773008499,3.3820503,8.929951,3.07995
1680007952420,1187940775510653,3.42,8.97,3.1420503
1680007952423,1187940778012869,3.4129503,8.98005,2.95005
1680007952426,1187940780515023,3.45405,8.922001,3.1279502
1680007952428,1187940783017100,3.4750502,8.962951,3.21405
1680007952430,1187940785519253,3.4300501,8.944051,3.1039503
1680007952433,1187940788021412,3.4390502,9.00405,3.0700502
1680007952435,1187940790523335,3.4080002,8.842951,3.0700502
1680007952438,1187940793025720,3.459,9.02295,3.1039503
1680007952440,1187940795527874,3.42705,8.937,2.9839501
1680007952443,1187940798030028,3.4039502,8.97,3.2350502
1680007952445,1187940800532192,3.4080002,9.01605,3.1279502
1680007952449,1187940803034345,3.45405,8.99895,3.2659502
1680007952451,1187940805536499,3.52095,9.009001,3.2400002
1680007952454,1187940808038653,3.4630501,8.929951,3.2430003
1680007952455,1187940810540802,3.42705,8.953051,3.1660502
1680007952458,1187940813042956,3.4350002,8.982,3.18495
1680007952460,1187940815545110,3.48495,8.938951,3.0250502
1680007952463,1187940818047263,3.4510503,8.937,3.2329502
1680007952465,1187940820549182,3.4369502,8.98005,3.2040002
1680007952468,1187940823051335,3.456,8.973001,3.1729503
1680007952472,1187940825553720,3.52605,8.910001,3.25005
1680007952474,1187940828055874,3.4750502,8.989051,3.0700502
1680007952476,1187940830557816,3.4150503,8.938951,3.15105
1680007952479,1187940833059970,3.4780502,9.03195,3.14895
1680007952480,1187940835562354,3.52095,8.98005,3.1990502
1680007952483,1187940838064508,3.45405,8.937,3.2070003
1680007952488,1187940840566431,3.4990501,9.0060005,3.18705
1680007952490,1187940843068585,3.4680002,8.974951,3.2040002
1680007952492,1187940845570739,3.42,9.03495,3.1420503
1680007952493,1187940848072893,3.4609501,9.05895,3.1609502
1680007952496,1187940850574970,3.3720002,8.986951,3.2040002
1680007952498,1187940853077216,3.4470003,9.02505,3.22305
1680007952500,1187940855579370,3.42705,8.87205,3.0700502
1680007952503,1187940858081523,3.42,8.944051,3.1560001
1680007952506,1187940860583677,3.4300501,9.05595,3.11805
1680007952508,1187940863085831,3.3960001,8.99895,3.2070003
1680007952516,1187940865587989,3.3679502,9.03705,3.1950002
1680007952517,1187940868090143,3.52305,8.901,3.2070003
1680007952517,1187940870592297,3.4150503,8.905951,3.18705
1680007952518,1187940873094455,3.4009502,8.905951,3.1590002
1680007952520,1187940875596609,3.4440002,8.82405,3.14895
1680007952524,1187940878098686,3.4800003,8.86995,3.075
1680007952527,1187940880600840,3.4039502,8.977051,3.1279502
1680007952529,1187940883103060,3.4110003,8.950951,3.1350002
1680007952531,1187940885605214,3.4249501,8.961,3.108
1680007952533,1187940888107291,3.44895,8.83395,3.252
1680007952536,1187940890609445,3.4780502,8.84805,3.1249502
1680007952538,1187940893111598,3.4150503,8.932051,3.21405
1680007952540,1187940895613720,3.528,8.901,3.1300502
1680007952542,1187940898115874,3.4630501,8.817,3.0889502
1680007952546,1187940900618105,3.4060502,8.85495,3.1630502
1680007952548,1187940903120182,3.45405,8.800051,3.1200001
1680007952550,1187940905622336,3.4369502,8.788051,3.0870001
1680007952556,1187940908124469,3.4080002,8.829,3.1279502
1680007952557,1187940910626623,3.492,8.809951,3.108
1680007952559,1187940913128777,3.52605,8.7949505,3.147
1680007952564,1187940915630898,3.5449502,8.75205,3.1609502
1680007952565,1187940918133052,3.4510503,8.84595,3.1660502
1680007952568,1187940920635206,3.4710002,8.841001,3.11595
1680007952569,1187940923137360,3.4750502,8.83395,3.1420503
1680007952571,1187940925639283,3.5110502,8.79105,3.07995
1680007952573,1187940928141432,3.5419502,8.7619505,3.1350002
1680007952576,1187940930643585,3.5020502,8.788051,3.24705
1680007952578,1187940933145970,3.4830003,8.71605,3.1950002
1680007952580,1187940935648124,3.5500503,8.80305,3.0289502
1680007952584,1187940938150273,3.528,8.82195,3.18
1680007952588,1187940940652427,3.52605,8.773951,3.07995
1680007952590,1187940943154350,3.4710002,8.757,3.1009502
1680007952591,1187940945656503,3.5860503,8.818951,3.2040002
1680007952595,1187940948158888,3.5860503,8.83905,3.0870001
1680007952596,1187940950661042,3.5020502,8.874001,3.0529501
1680007952600,1187940953162965,3.5380502,8.88195,3.2260501
1680007952602,1187940955665119,3.5419502,8.965051,3.216
1680007952604,1187940958167273,3.6409502,8.97,3.0919502
1680007952607,1187940960669456,3.5640001,8.85495,3.1039503
1680007952609,1187940963171609,3.492,8.889001,3.11595
1680007952610,1187940965673763,3.6330001,9.018001,3.072
1680007952613,1187940968175917,3.5350502,8.949,3.0630002
1680007952616,1187940970678071,3.55395,9.021001,3.1420503
1680007952618,1187940973180215,3.58995,8.962951,3.18705
1680007952620,1187940975682369,3.59505,8.862,3.1420503
1680007952623,1187940978184446,3.52095,8.929951,3.1039503
1680007952628,1187940980686676,3.59805,8.908051,3.2329502
1680007952632,1187940983188830,3.4660501,8.982,3.11805
1680007952633,1187940985690984,3.5040002,8.934,3.21405
1680007952634,1187940988193138,3.4510503,8.922001,3.1369503
1680007952639,1187940990695287,3.44895,8.934,3.04905
1680007952641,1187940993196325,3.5299501,8.88405,3.075
1680007952642,1187940995697364,3.5760002,8.85495,3.1560001
1680007952644,1187940998201748,3.6000001,8.806951,3.1320002
1680007952646,1187941000703902,3.4729502,8.901,3.0580502
1680007952648,1187941003205979,3.528,8.950951,3.147
1680007952650,1187941005708148,3.6169503,8.812051,3.0679502
1680007952653,1187941008210302,3.5740502,8.886001,3.0960002
1680007952656,1187941010712456,3.5350502,8.769,3.04605
1680007952659,1187941013214687,3.4969501,8.818951,3.0199502
1680007952660,1187941015716744,3.5140502,8.874001,3.1320002
1680007952663,1187941018218898,3.52305,8.905951,3.04095
1680007952666,1187941020721052,3.4950001,8.83905,3.1300502
1680007952668,1187941023223206,3.4470003,8.84805,3.1560001
1680007952671,1187941025725345,3.5350502,8.917951,3.1590002
1680007952675,1187941028227576,3.45405,8.88195,3.1200001
1680007952678,1187941030729653,3.5400002,8.842951,3.111
1680007952680,1187941033367591,3.5779502,8.917951,3.0319502
1680007952681,1187941035733975,3.5110502,8.865001,3.072
1680007952683,1187941038236129,3.4390502,8.85495,2.94105
1680007952686,1187941040738052,3.55905,8.818951,3.15105
1680007952689,1187941043240206,3.5740502,8.84805,3.0319502
1680007952691,1187941045742571,3.6000001,8.817,3.1300502
1680007952693,1187941048244725,3.5419502,8.89605,3.111
1680007952696,1187941050746648,3.6019502,8.82195,3.1590002
1680007952698,1187941053248801,3.6169503,8.85,3.015
1680007952700,1187941055750955,3.6190503,8.779051,3.0559502
1680007952703,1187941058253114,3.55695,8.922001,3.0919502
1680007952706,1187941060755499,3.5710502,8.797951,3.051
1680007952709,1187941063257653,3.6090002,8.776051,3.07995
1680007952712,1187941065759830,3.5520003,8.812051,3.1320002
1680007952715,1187941068261754,3.62895,8.898001,3.1039503
1680007952717,1187941070763907,3.5860503,8.898001,3.04395
1680007952719,1187941073266061,3.6090002,8.865001,3.1369503
1680007952721,1187941075768446,3.6169503,8.785951,3.04395
1680007952723,1187941078270388,3.6670501,8.90295,3.0199502
1680007952727,1187941080772542,3.5809503,8.898001,3.1750503
1680007952730,1187941083274696,3.624,8.929951,3.1920002
1680007952731,1187941085776850,3.6169503,8.908051,3.0600002
1680007952733,1187941088278926,3.6139503,8.889001,3.072
1680007952737,1187941090781177,3.59505,8.898001,2.979
1680007952740,1187941093283331,3.6360002,8.86695,3.0319502
1680007952741,1187941095785485,3.6190503,8.90295,3.04605
1680007952744,1187941098287639,3.6409502,8.80305,3.0889502
1680007952746,1187941100789793,3.528,8.90295,2.9929502
1680007952750,1187941103291946,3.5760002,8.86695,3.0030003
1680007952752,1187941105794100,3.62895,8.994,2.9959502
1680007952754,1187941108296254,3.63105,8.87895,3.0870001
1680007952757,1187941110798331,3.6379502,8.96805,3.0340502
1680007952759,1187941113300485,3.6210003,8.961,3.072
1680007952761,1187941115802639,3.5659502,8.84805,3.0700502
1680007952763,1187941118304870,3.6529503,8.853001,2.9550002
1680007952766,1187941120807018,3.59295,8.84805,2.9550002
1680007952770,1187941123309172,3.5860503,8.920051,2.946
1680007952771,1187941125811249,3.5710502,8.913,3.2040002
1680007952773,1187941128313403,3.6190503,8.953051,3.0340502
1680007952776,1187941130815533,3.7200003,8.89095,3.0199502
1680007952778,1187941133317687,3.5779502,8.925,3.1990502
1680007952780,1187941135819918,3.52605,8.920051,3.1920002
1680007952783,1187941138322071,3.5350502,8.90295,3.1590002
1680007952788,1187941140824162,3.6450002,8.99205,2.9959502
1680007952791,1187941143326316,3.6090002,8.946,3.1060503
1680007952793,1187941145828470,3.6139503,8.973001,3.04905
1680007952795,1187941148330624,3.6210003,8.98005,3.1009502
1680007952797,1187941150832778,3.6810002,8.92695,3.1300502
1680007952799,1187941153334951,3.696,9.0060005,3.0319502
1680007952801,1187941155837104,3.624,8.989051,3.04605
1680007952803,1187941158339258,3.6190503,9.00405,3.1039503
1680007952806,1187941160841181,3.6670501,8.905951,3.0319502
1680007952809,1187941163343335,3.657,9.076051,3.04605
1680007952810,1187941165845499,3.6859503,8.986951,3.1300502
1680007952813,1187941168347884,3.6139503,8.949,2.9929502
1680007952817,1187941170850038,3.6330001,8.89605,3.0030003
1680007952819,1187941173352191,3.6190503,9.02295,3.04395
1680007952821,1187941175854345,3.63105,8.989051,2.9910002
1680007952825,1187941178356253,3.6330001,8.89095,3.0679502
1680007952828,1187941180858407,3.6019502,8.982,3.0700502
1680007952830,1187941183360792,3.5419502,8.87205,3.039
1680007952832,1187941185862942,3.6090002,8.82705,2.9670002
1680007952835,1187941188364865,3.6360002,8.874001,2.90505
1680007952839,1187941190867019,3.6810002,8.87895,3.0199502
1680007952840,1187941193369172,3.6090002,8.812051,2.9260502
1680007952841,1187941195871326,3.59505,8.81505,2.9650502
1680007952843,1187941198373455,3.72705,8.779051,3.04395
1680007952847,1187941200875609,3.6670501,8.785951,3.051
1680007952850,1187941203377763,3.6769502,8.779051,3.1300502
1680007952852,1187941205879917,3.68895,8.74005,3.1630502
1680007952854,1187941208382071,3.6529503,8.649,2.9890501
1680007952856,1187941210884200,3.7360501,8.72595,2.9929502
1680007952859,1187941213386354,3.6430502,8.806951,2.9650502
1680007952863,1187941215888739,3.7699502,8.680051,3.0529501
1680007952864,1187941218390681,3.62895,8.74695,2.9980502
1680007952867,1187941220892835,3.6409502,8.74995,3.0010502
1680007952868,1187941223394989,3.7339501,8.84805,3.0270002
1680007952871,1187941225897066,3.6670501,8.812051,2.9860501
1680007952874,1187941228399219,3.66195,8.806951,2.9929502
1680007952878,1187941230901460,3.6670501,8.81505,3.00495
1680007952879,1187941233403614,3.657,8.901,3.0169501
1680007952881,1187941235905691,3.6529503,8.806951,2.9860501
1680007952883,1187941238407845,3.68895,8.77095,3.0010502
1680007952887,1187941240909980,3.6720002,8.773951,3.01305
1680007952889,1187941243412134,3.657,8.84805,2.9190001
1680007952890,1187941245914287,3.66195,8.85495,2.9650502
1680007952893,1187941248416518,3.6720002,8.805,3.04395
1680007952897,1187941250918590,3.6670501,8.84805,2.9530501
1680007952900,1187941253420744,3.66,8.877001,2.9929502
1680007952902,1187941255922898,3.6840003,8.7949505,3.0600002
1680007952904,1187941258425052,3.6739502,8.925,2.9530501
1680007952906,1187941260927225,3.72705,8.925,2.943
1680007952908,1187941263429455,3.62895,8.841001,2.9620502
1680007952910,1187941265931532,3.6979501,8.962951,3.0250502
1680007952914,1187941268433686,3.6649501,8.88405,3.04095
1680007952917,1187941270935840,3.7240503,9.02295,2.9860501
1680007952921,1187941273437763,3.7240503,8.82705,2.9479501
1680007952922,1187941275939917,3.729,8.92695,3.0319502
1680007952923,1187941278442302,3.7150502,8.89095,2.979
1680007952927,1187941280944455,3.66,8.79105,3.04395
1680007952929,1187941283446604,3.7410002,8.853001,2.87595
1680007952931,1187941285948527,3.657,8.901,2.9959502
1680007952933,1187941288450681,3.6769502,8.977051,3.0870001
1680007952938,1187941290952850,3.696,8.89605,3.0319502
1680007952939,1187941293455004,3.7339501,8.82705,2.9550002
1680007952941,1187941295957388,3.7120502,8.812051,3.111
1680007952944,1187941298459542,3.7339501,8.87205,3.0340502
1680007952947,1187941300961696,3.6790502,8.865001,3.0169501
1680007952949,1187941303463619,3.7440002,8.910001,2.9569502
1680007952951,1187941305965773,3.732,8.78295,3.0220501
1680007952954,1187941308467927,3.7339501,8.944051,2.943
1680007952956,1187941310970312,3.7459502,8.925,3.015
1680007952958,1187941313472235,3.7480502,8.853001,2.8590002
1680007952961,1187941315974389,3.68895,8.944051,3.0919502
1680007952963,1187941318476542,3.6739502,8.805,2.9839501
1680007952966,1187941320978696,3.7440002,8.920051,2.9220002
1680007952968,1187941323480763,3.696,8.81505,3.0220501
1680007952971,1187941325982917,3.6480002,8.908051,2.87595
1680007952975,1187941328485148,3.8059502,8.908051,2.8830001
1680007952977,1187941330987302,3.76305,8.898001,2.9929502
1680007952979,1187941333489441,3.7390501,8.886001,2.9530501
1680007952981,1187941335991595,3.66,8.84595,2.9910002
1680007952983,1187941338493749,3.7200003,8.88195,2.9929502
1680007952986,1187941340995826,3.7339501,8.89095,3.0600002
1680007952988,1187941343498057,3.7339501,8.797951,2.97405
1680007952991,1187941346000225,3.6739502,8.86995,3.072
1680007952994,1187941348502379,3.7150502,8.90295,2.9530501
1680007952996,1187941351004456,3.732,8.913,2.93595
1680007952998,1187941353506686,3.7720501,8.91495,3.0370502
1680007953000,1187941356008773,3.7600503,8.817,3.01305
1680007953003,1187941358511004,3.8419502,8.925,3.0030003
1680007953006,1187941361013081,3.8200502,8.886001,2.943
1680007953008,1187941363515235,3.76305,8.910001,3.0220501
1680007953012,1187941366017422,3.7050002,8.938951,3.00495
1680007953014,1187941368519576,3.8370001,8.994,3.04905
1680007953017,1187941371021729,3.79605,8.925,2.9929502
1680007953019,1187941373523883,3.70005,8.818951,2.9670002
1680007953021,1187941376026037,3.8149502,8.87205,2.9569502
1680007953023,1187941378528187,3.7819502,8.937,2.9479501
1680007953026,1187941381030110,3.76305,8.806951,2.9550002
1680007953029,1187941383532264,3.7030501,8.829,3.01305
1680007953031,1187941386034648,3.7410002,8.87895,2.9290502
1680007953034,1187941388536782,3.7510502,8.917951,2.97705
1680007953037,1187941391038936,3.7390501,8.90295,2.9550002
1680007953039,1187941393540859,3.8200502,8.944051,2.91
1680007953041,1187941396043013,3.7410002,8.953051,2.96895
1680007953043,1187941398545167,3.7150502,8.977051,2.8590002
1680007953047,1187941401047538,3.79905,8.956051,2.8590002
1680007953050,1187941403549691,3.732,8.934,2.89995
1680007953052,1187941406051845,3.7870502,8.89395,2.8549502
1680007953054,1187941408553768,3.8230503,9.0060005,2.838
1680007953057,1187941411055936,3.7909503,8.946,2.80395
1680007953059,1187941413558090,3.7050002,8.925,2.9290502
1680007953060,1187941416060244,3.7200003,8.934,2.91
1680007953063,1187941418562398,3.7870502,8.898001,2.87805
1680007953067,1187941421064543,3.8029501,8.908051,2.88105
1680007953068,1187941423566696,3.7530003,8.842951,2.871
1680007953073,1187941426068850,3.7030501,8.812051,2.907
1680007953074,1187941428570927,3.7200003,8.797951,2.90505
1680007953076,1187941431073061,3.765,8.74995,2.9290502
1680007953078,1187941433575292,3.7480502,8.793,2.907
1680007953081,1187941436077446,3.68895,8.818951,2.9620502
1680007953083,1187941438579600,3.6739502,8.82705,2.8980002
1680007953088,1187941441081768,3.76305,8.776051,2.8620002
1680007953090,1187941443583922,3.8869503,8.85795,2.8549502
1680007953092,1187941446085999,3.7909503,8.853001,2.86905
1680007953093,1187941448588153,3.7459502,8.757,2.9569502
1680007953096,1187941451090384,3.7339501,8.779051,2.8930502
1680007953098,1187941453592543,3.8059502,8.842951,2.77305
1680007953101,1187941456094620,3.82695,8.72805,2.811
1680007953103,1187941458596773,3.8440502,8.82405,2.874
1680007953107,1187941461098927,3.8230503,8.841001,2.9290502
1680007953109,1187941463601090,3.9180002,8.75895,2.8519502
1680007953111,1187941466103244,3.86595,8.874001,2.778
1680007953113,1187941468605398,3.9109502,8.830951,2.9310002
1680007953117,1187941471107552,3.9469502,8.910001,2.9170501
1680007953119,1187941473609725,3.9259503,8.862,2.8210502
1680007953121,1187941476111878,3.93495,8.85495,2.89995
1680007953125,1187941478614032,3.8940003,8.82195,2.87805
1680007953128,1187941481116186,3.9300003,8.85795,2.8980002
1680007953130,1187941483618354,3.9060001,8.941051,2.91
1680007953132,1187941486120508,3.9229503,8.862,2.8950002
1680007953134,1187941488622662,4.0069504,8.85,2.811
1680007953149,1187941491124816,3.897,8.877001,2.8620002
1680007953149,1187941493626739,3.93495,8.89095,2.9569502
1680007953149,1187941496128887,3.9450002,8.973001,2.8830001
1680007953149,1187941498631272,4.0009503,8.886001,2.8860002
1680007953150,1187941501133426,3.8940003,8.973001,2.89995
1680007953150,1187941503635349,3.966,8.965051,2.76795
1680007953151,1187941506137508,3.9139502,8.946,2.89995
1680007953153,1187941508639662,3.8920503,8.917951,2.84295
1680007953156,1187941511141816,3.9499502,8.910001,2.7630002
1680007953158,1187941513643969,3.8869503,8.929951,2.8500001
1680007953162,1187941516146113,3.8610003,9.01605,2.8210502
1680007953164,1187941518648267,3.8850002,8.922001,2.86905
1680007953167,1187941521150421,3.86805,8.85,2.8879502
1680007953169,1187941523652575,3.8440502,8.917951,2.8230002
1680007953171,1187941526154729,3.79905,8.965051,2.7919502
1680007953174,1187941528656902,3.8200502,8.99895,2.871
1680007953177,1187941531159286,3.7699502,8.917951,2.8879502
1680007953179,1187941533661209,3.7339501,8.98005,2.766
1680007953181,1187941536163363,3.72705,8.973001,2.8519502
1680007953183,1187941538665517,3.7339501,8.89605,2.88105
1680007953189,1187941541167676,3.7600503,8.87895,2.907
1680007953189,1187941543669753,3.7699502,8.917951,2.83095
1680007953191,1187941546171984,3.7750502,8.889001,2.7490501
1680007953194,1187941548674137,3.7120502,8.929951,2.7850502
1680007953197,1187941551176291,3.76305,8.944051,2.7439501
1680007953200,1187941553678368,3.66,8.973001,2.70795
1680007953202,1187941556180522,3.7909503,9.01605,2.7439501
1680007953204,1187941558682695,3.7459502,8.961,2.77305
1680007953206,1187941561184849,3.7339501,8.898001,2.6560502
1680007953208,1187941563687080,3.6979501,8.965051,2.73195
1680007953211,1187941566189233,3.7480502,8.950951,2.9260502
1680007953213,1187941568691310,3.6430502,8.961,2.6820002
1680007953217,1187941571193464,3.68895,8.962951,2.6869502
1680007953219,1187941573695618,3.6379502,8.934,2.8900502
1680007953221,1187941576197772,3.7390501,8.941051,2.80395
1680007953224,1187941578700003,3.7200003,8.925,2.8189502
1680007953227,1187941581202066,3.7240503,8.85795,2.76795
1680007953229,1187941583704219,3.6910503,8.88195,2.83995
1680007953234,1187941586206373,3.732,8.83905,2.775
1680007953235,1187941588708531,3.7030501,8.90295,2.8519502
1680007953242,1187941591210454,3.7510502,8.86995,2.8639503
1680007953242,1187941593712839,3.8110502,8.83605,2.8210502
1680007953243,1187941596214993,3.8200502,8.956051,2.799
1680007953244,1187941598717162,3.83205,8.92695,2.7900002
1680007953249,1187941601219085,3.7840502,8.83905,2.83995
1680007953250,1187941603721238,3.8590503,8.865001,2.8879502
1680007953251,1187941606223392,3.8730001,8.913,2.8570502
1680007953253,1187941608725777,3.9019501,8.905951,2.8159502
1680007953257,1187941611227916,3.8200502,8.82705,2.80695
1680007953261,1187941613729839,3.9280503,8.917951,2.88105
1680007953262,1187941616231993,3.86595,8.89095,2.83995
1680007953263,1187941618734147,3.8590503,8.901,2.802
1680007953267,1187941621236531,3.9400501,8.901,2.775
1680007953268,1187941623738454,3.8370001,8.7949505,2.87595
1680007953271,1187941626240608,3.966,8.87895,2.7630002
1680007953275,1187941628742762,3.9400501,8.86695,2.88105
1680007953277,1187941631244883,4.0069504,8.905951,2.80695
1680007953279,1187941633747037,3.9469502,8.88195,2.8570502
1680007953283,1187941636249421,3.8800502,8.929951,2.7589502
1680007953285,1187941638751344,3.9180002,8.886001,2.799
1680007953288,1187941641253470,3.969,8.80305,2.8470001
1680007953290,1187941643755624,3.9400501,8.910001,2.6940002
1680007953291,1187941646257778,3.9540002,8.85,2.7850502
1680007953293,1187941648759932,3.8800502,8.88195,2.811
1680007953297,1187941651262066,3.9160502,8.917951,2.70105
1680007953298,1187941653764219,3.90405,8.946,2.6920502
1680007953301,1187941656266373,3.9420002,8.917951,2.742
1680007953303,1187941658768527,3.9400501,8.88195,2.7919502
1680007953306,1187941661270604,3.8940003,8.905951,2.7280502
1680007953308,1187941663772787,3.897,8.937,2.83095
1680007953313,1187941666274941,3.8899503,8.85795,2.7610502
1680007953315,1187941668777172,3.9139502,8.961,2.7130501
1680007953319,1187941671279272,3.8730001,8.829,2.7439501
1680007953322,1187941673780349,3.897,8.944051,2.7280502
1680007953322,1187941676281426,3.9019501,8.85795,2.7250502
1680007953325,1187941678785733,3.897,8.89395,2.7229502
1680007953327,1187941681287887,3.8610003,8.950951,2.6149502
1680007953329,1187941683790023,3.90405,8.925,2.7559502
1680007953331,1187941686292254,3.8560503,8.81505,2.7540002
1680007953334,1187941688794330,3.90405,8.89395,2.7520502
1680007953338,1187941691296484,3.8230503,9.00105,2.6560502
1680007953339,1187941693798638,3.86595,8.91495,2.7559502
1680007953341,1187941696300758,3.8749502,8.934,2.7109501
1680007953343,1187941698802912,3.8590503,8.86995,2.7280502
1680007953348,1187941701305066,3.8059502,8.994,2.7540002
1680007953353,1187941703807187,3.7770002,8.89095,2.84295
1680007953356,1187941706309340,3.83205,8.941051,2.77305
1680007953357,1187941708811494,3.801,8.962951,2.775
1680007953358,1187941711313417,3.7600503,8.920051,2.6920502
1680007953359,1187941713815571,3.76305,8.982,2.64105
1680007953361,1187941716317956,3.7510502,8.905951,2.8189502
1680007953363,1187941718820110,3.8440502,9.00405,2.67195
1680007953368,1187941721322264,3.7390501,9.085051,2.6560502
1680007953370,1187941723824187,3.72705,8.937,2.7229502
1680007953371,1187941726326321,3.7840502,8.910001,2.60295
1680007953374,1187941728828474,3.7510502,9.0400505,2.67705
1680007953377,1187941731330628,3.7840502,8.97,2.84295
1680007953379,1187941733833013,3.72705,8.946,2.7180002
1680007953381,1187941736335167,3.8389502,8.953051,2.67705
1680007953383,1187941738837090,3.7680001,8.97,2.7180002
1680007953388,1187941741339244,3.7720501,8.962951,2.6560502
1680007953391,1187941743841397,3.7720501,9.02295,2.67705
1680007953393,1187941746343551,3.8029501,8.994,2.6250002
1680007953395,1187941748845734,3.86595,8.973001,2.7610502
1680007953397,1187941751347888,3.83505,8.98005,2.766
1680007953399,1187941753850042,3.79395,8.96805,2.6920502
1680007953401,1187941756352196,3.7459502,9.00105,2.7229502
1680007953403,1187941758854273,3.8370001,9.02805,2.73705
1680007953407,1187941761356418,3.8440502,8.98005,2.66805
1680007953409,1187941763858571,3.8230503,9.02805,2.7589502
1680007953411,1187941766360802,3.8749502,8.92695,2.80395
1680007953414,1187941768862956,3.82695,8.934,2.7469501
1680007953417,1187941771365013,3.82695,9.01605,2.8140001
1680007953419,1187941773867167,3.8110502,8.874001,2.8159502
1680007953422,1187941776369321,3.8869503,8.910001,2.838
1680007953425,1187941778871474,3.8509502,8.937,2.7130501
1680007953428,1187941781373705,3.8710501,8.934,2.8330503
1680007953431,1187941783897398,3.8800502,8.922001,2.77305
1680007953434,1187941786377936,3.82695,8.934,2.7180002
1680007953437,1187941788880090,3.9139502,8.944051,2.73495
1680007953438,1187941791382254,3.8730001,8.917951,2.7130501
1680007953441,1187941793884408,3.86595,8.89095,2.7970502
1680007953442,1187941796386561,3.79605,8.937,2.73495
1680007953444,1187941798888715,3.7560003,8.88195,2.7949502
1680007953448,1187941801390874,3.8710501,8.913,2.7229502
1680007953449,1187941803893028,3.82695,8.934,2.83995
1680007953451,1187941806395182,3.8730001,8.949,2.6580002
1680007953455,1187941808897105,3.9090002,8.989051,2.6580002
1680007953457,1187941811399259,3.9450002,8.986951,2.6530502
1680007953459,1187941813901676,3.8610003,8.973001,2.67705
1680007953463,1187941816403830,3.8419502,8.925,2.63205
1680007953464,1187941818905984,3.8710501,8.910001,2.6920502
1680007953467,1187941821408138,3.79395,8.946,2.63895
1680007953469,1187941823910047,3.90405,8.874001,2.706
1680007953472,1187941826412201,3.897,8.865001,2.66805
1680007953474,1187941828914586,3.8730001,8.877001,2.69595
1680007953477,1187941831416739,3.8749502,8.962951,2.7180002
1680007953479,1187941833918662,3.86595,8.953051,2.76795
1680007953481,1187941836420816,3.897,8.946,2.706
1680007953483,1187941838922970,3.8590503,8.88405,2.74005
1680007953486,1187941841425124,3.8560503,8.950951,2.661
1680007953489,1187941843927201,3.8940003,8.889001,2.7109501
1680007953491,1187941846429417,3.8059502,8.91495,2.7250502
1680007953493,1187941848931571,3.82995,8.88405,2.7180002
1680007953497,1187941851433724,3.82995,8.908051,2.5770001
1680007953500,1187941853935878,3.8749502,8.89095,2.6869502
1680007953502,1187941856437974,3.7800002,9.03495,2.69895
1680007953505,1187941858940128,3.8059502,8.949,2.565
1680007953507,1187941861442359,3.8470502,8.934,2.742
1680007953509,1187941863944513,3.8509502,8.917951,2.799
1680007953512,1187941866446667,3.8110502,8.889001,2.7280502
1680007953514,1187941868948758,3.82695,8.862,2.6869502
1680007953517,1187941871450989,3.8590503,8.937,2.7280502
1680007953519,1187941873953143,3.82995,8.953051,2.7439501
1680007953522,1187941876455220,3.8130002,8.934,2.7160501
1680007953524,1187941878957369,3.8490002,8.874001,2.67
1680007953527,1187941881459523,3.8730001,8.842951,2.7469501
1680007953529,1187941883961677,3.86595,8.86695,2.66295
1680007953531,1187941886463830,3.7890003,8.973001,2.8230002
1680007953533,1187941888966061,3.8610003,8.941051,2.7130501
1680007953539,1187941891468138,3.8850002,8.925,2.7559502
1680007953541,1187941893970292,3.8800502,9.04905,2.706
1680007953542,1187941896472446,3.8490002,8.941051,2.7130501
1680007953544,1187941898974619,3.8730001,8.944051,2.778
1680007953547,1187941901476542,3.9160502,8.929951,2.7589502
1680007953549,1187941903978926,3.9090002,8.944051,2.62905
1680007953552,1187941906481080,3.9400501,8.862,2.7900002
1680007953555,1187941908983234,3.83505,8.956051,2.742
1680007953557,1187941911485147,3.8830502,8.920051,2.6920502
1680007953559,1187941913987301,3.9300003,8.886001,2.7229502
1680007953561,1187941916489455,3.8389502,8.925,2.7280502
1680007953563,1187941918991840,3.9300003,8.932051,2.7160501
1680007953567,1187941921493973,3.8610003,8.973001,2.7280502
1680007953569,1187941923996127,3.9400501,8.932051,2.7280502
1680007953571,1187941926498050,3.9760501,8.917951,2.742
1680007953575,1187941929000204,3.83505,8.901,2.8230002
1680007953578,1187941931502368,3.9450002,8.85795,2.7589502
1680007953579,1187941934004522,3.9420002,8.87895,2.811
1680007953581,1187941936506906,3.8920503,8.88195,2.7160501
1680007953584,1187941939008830,3.9280503,8.84595,2.63895
1680007953587,1187941941511002,3.93495,8.86005,2.5770001
1680007953589,1187941944013156,3.8779502,8.830951,2.67705
1680007953592,1187941946515310,3.9450002,8.88195,2.7130501
1680007953594,1187941949017387,4.02405,8.83905,2.83095
1680007953597,1187941951519589,3.9180002,8.82705,2.7280502
1680007953599,1187941954021743,3.9850502,8.84595,2.6560502
1680007953601,1187941956523897,3.9619503,8.817,2.70405
1680007953604,1187941959025973,3.8920503,8.86695,2.77305
1680007953607,1187941961528127,3.90405,8.830951,2.7630002
1680007953608,1187941964030271,3.9259503,8.805,2.7469501
1680007953613,1187941966532425,3.82995,8.934,2.7180002
1680007953614,1187941969034656,3.9450002,8.85495,2.778
1680007953618,1187941971536820,3.8779502,8.953051,2.7589502
1680007953619,1187941974038973,3.8710501,8.989051,2.6820002
1680007953621,1187941976541050,3.9019501,9.0400505,2.7900002
1680007953625,1187941979043204,3.8800502,8.88405,2.601
1680007953628,1187941981545358,3.9400501,8.98005,2.766
1680007953630,1187941984047560,3.8920503,8.958,2.70105
1680007953632,1187941986549714,3.8920503,8.956051,2.7250502
1680007953634,1187941989051791,3.8710501,9.02505,2.7199502
1680007953639,1187941991553955,3.83505,8.946,2.706
1680007953641,1187941994056108,3.9540002,9.01305,2.838
1680007953643,1187941996558031,3.9019501,8.944051,2.7949502
1680007953644,1187941999060185,3.86595,8.830951,2.775
1680007953647,1187942001562570,3.8440502,8.910001,2.6509502
1680007953652,1187942004064671,3.9300003,8.83605,2.7160501
1680007953655,1187942006566825,3.8850002,8.92695,2.76795
1680007953656,1187942009068748,3.8230503,8.91495,2.6800501
1680007953658,1187942011570902,3.9570003,8.84805,2.706
1680007953660,1187942014073055,3.8940003,8.889001,2.7850502
1680007953662,1187942016575426,3.90405,8.85495,2.8260002
1680007953664,1187942019077580,3.9420002,8.853001,2.6869502
1680007953668,1187942021579734,3.9540002,8.785951,2.6869502
1680007953669,1187942024081888,3.9829502,8.71605,2.80395
1680007953672,1187942026583815,3.9850502,8.812051,2.7180002
1680007953674,1187942029085969,3.897,8.805,2.7540002
1680007953677,1187942031588353,3.9450002,8.805,2.742
1680007953679,1187942034090507,3.9420002,8.7949505,2.70105
1680007953683,1187942036592416,3.9019501,8.743051,2.7540002
1680007953685,1187942039094570,4.02105,8.805,2.84505
1680007953689,1187942041596724,4.005,8.781,2.66805
1680007953691,1187942044098801,4.02105,8.757,2.775
1680007953693,1187942046600955,4.00005,8.74995,2.84295
1680007953694,1187942049103223,3.966,8.86695,2.7540002
1680007953697,1187942051605377,4.01205,8.86695,2.69595
1680007953699,1187942054107531,4.0470004,8.84595,2.77305
1680007953701,1187942056609685,4.026,8.84805,2.706
1680007953704,1187942059111762,4.0140004,8.944051,2.70405
1680007953707,1187942061613916,3.9949503,8.910001,2.6800501
1680007953709,1187942064116146,3.9850502,8.89605,2.6820002
1680007953712,1187942066618300,4.026,8.925,2.7630002
1680007953714,1187942069120469,3.8940003,8.98005,2.73705
1680007953717,1187942071622623,3.9520502,8.958,2.7870002
1680007953722,1187942074124700,3.9760501,8.925,2.66505
1680007953723,1187942076626854,3.8800502,9.02505,2.6250002
1680007953726,1187942079129038,4.0140004,9.018001,2.76795
1680007953729,1187942081631268,3.9139502,8.934,2.766
1680007953731,1187942084227884,3.9090002,9.01605,2.6749501
1680007953733,1187942086635499,3.9810002,8.974951,2.6509502
1680007953735,1187942089137653,3.9060001,9.0060005,2.69595
1680007953740,1187942091639816,3.9829502,9.02505,2.73705
1680007953742,1187942094141739,3.8590503,8.98005,2.7280502
1680007953742,1187942096644124,3.89895,8.937,2.6820002
1680007953744,1187942099146277,3.8560503,8.886001,2.6800501
1680007953746,1187942101648417,3.8710501,8.853001,2.7589502
1680007953749,1187942104150571,3.7680001,8.92695,2.7850502
1680007953753,1187942106652725,3.8509502,8.85795,2.7919502
1680007953754,1187942109154648,3.8749502,8.89095,2.69595
1680007953757,1187942111657033,3.79905,8.812051,2.8230002
1680007953759,1187942114159187,3.82995,8.89605,2.80905
1680007953768,1187942116661340,3.86805,8.83395,2.80695
1680007953768,1187942119163494,3.8370001,8.853001,2.7949502
1680007953769,1187942121665451,3.8440502,8.865001,2.7850502
1680007953769,1187942124167605,3.9300003,8.776051,2.7280502
1680007953771,1187942126669759,3.83205,8.86005,2.6820002
1680007953774,1187942129171913,3.90405,8.85495,2.7439501
1680007953777,1187942131674067,3.93495,8.767051,2.775
1680007953779,1187942134176245,3.9640503,8.889001,2.73495
1680007953781,1187942136678398,3.9469502,8.89605,2.778
1680007953784,1187942139180783,3.9760501,8.85795,2.6800501
1680007953787,1187942141682706,3.9949503,8.89395,2.7919502
1680007953789,1187942144184879,3.933,8.97,2.6509502
1680007953792,1187942146687033,3.897,8.982,2.6440501
1680007953794,1187942149189187,3.9019501,8.965051,2.7520502
1680007953797,1187942151691341,3.9970503,8.908051,2.7160501
1680007953801,1187942154193508,3.9619503,8.922001,2.77305
1680007953802,1187942156695662,3.8749502,9.009001,2.7630002
1680007953804,1187942159197816,3.8779502,8.97,2.69895
1680007953807,1187942161699970,3.8800502,9.00405,2.59095
1680007953809,1187942164202047,3.9900002,9.076051,2.73495
1680007953812,1187942166704201,3.9760501,8.946,2.6920502
1680007953814,1187942169206355,4.017,8.99205,2.7160501
1680007953817,1187942171708585,3.897,8.958,2.7180002
1680007953819,1187942174210662,3.8710501,9.054001,2.69895
1680007953821,1187942176712816,3.8730001,9.06105,2.799
1680007953825,1187942179215023,3.79905,8.98005,2.661
1680007953828,1187942181717177,3.8539503,8.99205,2.73195
1680007953830,1187942184219331,3.8509502,8.985001,2.6920502
1680007953833,1187942186721562,3.7770002,8.997001,2.6220002
1680007953835,1187942189223638,3.7770002,9.03705,2.67
1680007953839,1187942191725792,3.7240503,9.030001,2.6749501
1680007953841,1187942196727946,3.732,9.02295,2.59605
1680007953844,1187942196824307,3.7410002,8.953051,2.70795
1680007953845,1187942199232230,3.7480502,8.98005,2.7630002
1680007953847,1187942201734153,3.8490002,8.86005,2.6509502
1680007953849,1187942204236538,3.8779502,8.90295,2.5480502
1680007953851,1187942206738691,3.6649501,8.949,2.6170502
1680007953855,1187942209240855,3.6769502,8.932051,2.634
1680007953857,1187942211742778,3.6090002,8.953051,2.7180002
1680007953860,1187942214244932,3.6910503,8.905951,2.6530502
1680007953862,1187942216747086,3.6019502,8.91495,2.5930502
1680007953864,1187942219249456,3.6169503,8.97,2.6580002
1680007953869,1187942221751379,3.7240503,8.889001,2.5500002
1680007953872,1187942224253763,3.7240503,8.910001,2.706
1680007953873,1187942226755686,3.6739502,8.910001,2.60805
1680007953875,1187942229257806,3.7170002,8.90295,2.6869502
1680007953878,1187942231759960,3.6840003,8.87205,2.6800501
1680007953880,1187942234262345,3.765,8.82705,2.63895
1680007953882,1187942236764499,3.6379502,8.886001,2.7919502
1680007953884,1187942239266653,3.6070502,8.818951,2.6920502
1680007953887,1187942241768572,3.7890003,8.898001,2.67705
1680007953889,1187942244270725,3.7480502,8.86695,2.7520502
1680007953891,1187942246772879,3.7339501,8.842951,2.6220002
1680007953893,1187942249275033,3.7840502,8.88405,2.6800501
1680007953897,1187942251777157,3.7909503,8.85795,2.6490002
1680007953899,1187942254279311,3.8389502,8.87205,2.6869502
1680007953901,1187942256781465,3.86595,8.793,2.742
1680007953905,1187942259283542,3.6720002,8.818951,2.7160501
1680007953907,1187942261785695,3.8029501,8.87205,2.6869502
1680007953909,1187942264287839,3.83205,8.88195,2.6869502
1680007953913,1187942266790070,3.8230503,8.841001,2.661
1680007953916,1187942269292147,3.79395,8.812051,2.70795
1680007953918,1187942271794325,3.79605,8.755051,2.6940002
1680007953921,1187942274296479,3.9160502,8.755051,2.77095
1680007953922,1187942276798633,3.82995,8.84805,2.799
1680007953924,1187942279300786,3.8080502,8.781,2.80905
1680007953927,1187942281802940,3.9259503,8.793,2.6940002
1680007953930,1187942284305147,3.8419502,8.788051,2.73
1680007953931,1187942286807224,3.9090002,8.779051,2.778
1680007953934,1187942289309378,3.9259503,8.812051,2.7630002
1680007953937,1187942291811532,3.9619503,8.7949505,2.80395
1680007953939,1187942294313686,3.933,8.72805,2.7130501
1680007953941,1187942296815844,3.8869503,8.769,2.6940002
1680007953943,1187942299317998,3.8940003,8.75895,2.8330503
1680007953947,1187942301820152,3.9300003,8.793,2.6890502
1680007953950,1187942304322306,4.0410004,8.82195,2.7180002
1680007953953,1187942306824445,3.9469502,8.70405,2.73705
1680007953955,1187942309326368,4.01895,8.82705,2.7900002
1680007953958,1187942311828522,3.89895,8.818951,2.7180002
1680007953960,1187942314330906,3.9090002,8.809951,2.8210502
1680007953962,1187942316833060,3.9850502,8.81505,2.766
1680007953964,1187942319335181,3.9420002,8.818951,2.6869502
1680007953967,1187942321837104,4.0410004,8.79105,2.778
1680007953969,1187942324339258,4.0350003,8.908051,2.80695
1680007953971,1187942326841412,4.0350003,8.82405,2.8950002
1680007953974,1187942329343551,3.9850502,8.829,2.83095
1680007953979,1187942331845935,4.0009503,8.89395,2.7829502
1680007953981,1187942334348089,3.9450002,8.89395,2.7870002
1680007953983,1187942336850012,3.89895,8.889001,2.7109501
1680007953984,1187942339352176,3.9880502,8.962951,2.7610502
1680007953989,1187942341854330,3.9900002,8.865001,2.6869502
1680007953991,1187942344356484,3.9060001,8.91495,2.7469501
1680007953995,1187942346858590,4.017,8.889001,2.6460001
1680007953996,1187942349360744,3.86295,8.956051,2.5840502
1680007953998,1187942351862897,3.9090002,8.944051,2.73705
1680007954000,1187942354365051,3.9229503,8.958,2.7229502
1680007954002,1187942356867128,3.9259503,9.01305,2.70405
1680007954004,1187942359369282,3.9300003,9.018001,2.73495
1680007954007,1187942361871431,3.86595,8.99895,2.6509502
1680007954009,1187942364373662,3.9229503,8.937,2.7160501
1680007954012,1187942366875815,3.89895,9.009001,2.706
1680007954014,1187942369377892,3.801,9.00405,2.6460001
1680007954017,1187942371880046,3.8370001,9.0709505,2.775
1680007954019,1187942374382200,3.82695,8.946,2.67
1680007954022,1187942376884354,3.8590503,8.982,2.6890502
1680007954026,1187942379386585,3.7770002,8.950951,2.7520502
1680007954029,1187942381888758,3.8059502,8.910001,2.7919502
1680007954030,1187942384390604,3.8370001,8.905951,2.7610502
1680007954033,1187942386892758,3.8419502,8.958,2.6580002
1680007954035,1187942389395142,3.7909503,8.913,2.706
1680007954037,1187942391897291,3.7699502,8.977051,2.7180002
1680007954039,1187942394399445,3.7840502,8.97,2.7160501
1680007954042,1187942396901599,3.83505,8.86005,2.6800501
1680007954044,1187942399403522,3.7870502,8.908051,2.7180002
1680007954047,1187942401905724,3.8440502,8.982,2.7280502
1680007954049,1187942404407878,3.7870502,8.91495,2.6580002
1680007954052,1187942406910262,3.8250003,8.90295,2.7109501
1680007954054,1187942409412416,3.79395,8.922001,2.64105
1680007954057,1187942411914527,3.7530003,8.87205,2.7610502
1680007954059,1187942414416450,3.8029501,8.82195,2.6749501
1680007954063,1187942416918604,3.8590503,8.853001,2.7829502
1680007954065,1187942419420758,3.7870502,8.84595,2.7829502
1680007954067,1187942421922912,3.8419502,8.901,2.66295
1680007954072,1187942424425065,3.8440502,8.946,2.77305
1680007954074,1187942426927219,3.8149502,8.800051,2.7589502
1680007954076,1187942429429373,3.8490002,8.89095,2.73195
1680007954078,1187942431931527,3.86805,8.953051,2.73495
1680007954079,1187942434433594,3.8470502,8.797951,2.7540002
1680007954081,1187942436935825,3.8130002,8.85,2.7490501
1680007954084,1187942439437979,3.8419502,8.86005,2.7589502
1680007954088,1187942441940132,3.9160502,8.87205,2.7949502
1680007954089,1187942444442267,3.897,8.73795,2.7559502
1680007954092,1187942446944421,3.83205,8.788051,2.7469501
1680007954094,1187942449446498,3.9540002,8.88405,2.7970502
1680007954097,1187942451948652,3.8149502,8.743051,2.69895
1680007954101,1187942454450907,3.8940003,8.830951,2.70105
1680007954102,1187942456953060,3.8869503,8.812051,2.7850502
1680007954104,1187942459455214,3.86805,8.86995,2.8230002
1680007954107,1187942461957291,3.93495,8.932051,2.8159502
1680007954109,1187942464459445,3.966,8.781,2.799
1680007954112,1187942466961589,3.9109502,8.797951,2.80695
1680007954115,1187942469463820,3.9469502,8.86695,2.7520502
1680007954118,1187942471965897,3.969,8.79105,2.76795
1680007954119,1187942474468051,3.9379501,8.830951,2.7199502
1680007954122,1187942476970204,3.9109502,8.905951,2.73495
1680007954125,1187942479472344,3.9589503,8.805,2.799
1680007954128,1187942481974498,3.90405,8.913,2.7970502
1680007954129,1187942484476421,4.01205,8.84805,2.7799501
1680007954132,1187942486978806,3.8779502,8.84595,2.706
1680007954134,1187942489480960,3.8779502,8.917951,2.91
1680007954138,1187942491983127,3.966,8.7619505,2.87595
1680007954140,1187942494485281,3.9570003,8.886001,2.84295
1680007954142,1187942496987435,3.9739501,8.946,2.802
1680007954144,1187942499489358,3.9619503,8.85795,2.8500001
1680007954148,1187942501991763,3.9019501,8.7949505,2.7160501
1680007954150,1187942504493917,4.02105,8.917951,2.8230002
1680007954153,1187942506996071,3.9589503,8.925,2.8660502
1680007954155,1187942509497994,3.9900002,8.90295,2.8930502
1680007954157,1187942512000133,3.9450002,8.83905,2.7870002
1680007954159,1187942514502286,3.9850502,8.85795,2.775
1680007954162,1187942517004440,4.0069504,8.84595,2.7829502
1680007954164,1187942519506594,3.9180002,8.82405,2.93805
1680007954167,1187942522008777,3.9450002,8.83605,2.86905
1680007954169,1187942524510931,3.9540002,8.83905,2.8590002
1680007954172,1187942527013085,3.93495,8.773951,2.93805
1680007954176,1187942529515171,3.9379501,8.86005,2.95005
1680007954178,1187942532017324,3.9450002,8.84595,2.87595
1680007954180,1187942534519555,3.9970503,8.91495,2.7829502
1680007954182,1187942537021709,3.9949503,8.809951,2.91
1680007954184,1187942539523863,3.9520502,8.793,2.9170501
1680007954187,1187942542026046,3.9640503,8.74995,2.91195
1680007954189,1187942544528200,4.005,8.87205,2.8230002
1680007954192,1187942547030277,3.9970503,8.874001,2.76795
1680007954195,1187942549532507,4.0009503,8.862,2.80395
1680007954197,1187942552034652,3.9760501,8.88195,2.8930502
1680007954199,1187942554536806,4.005,8.842951,2.83095
1680007954202,1187942557038883,3.9829502,8.874001,2.775
1680007954205,1187942559541037,4.01205,8.929951,2.742
1680007954207,1187942562043191,3.9930003,8.809951,2.87595
1680007954209,1187942564545364,3.9450002,8.779051,2.8639503
1680007954213,1187942567047517,3.9520502,8.85795,2.871
1680007954216,1187942569549671,3.9379501,8.797951,2.80695
1680007954218,1187942572051825,3.93495,8.922001,2.83095
1680007954220,1187942574553974,3.9019501,8.91495,2.8140001
1680007954222,1187942577055897,3.8850002,8.88405,2.73705
1680007954225,1187942579558051,3.9970503,8.841001,2.7610502
1680007954229,1187942582060435,3.9300003,8.956051,2.8330503
1680007954231,1187942584562623,3.9469502,8.905951,2.67
1680007954233,1187942587064777,3.9139502,8.841001,2.73
1680007954235,1187942589566931,3.9300003,8.81505,2.7630002
1680007954238,1187942592068854,3.9139502,8.853001,2.7970502
1680007954240,1187942594571008,3.933,8.901,2.74005
1680007954242,1187942597073187,3.9640503,8.88195,2.799
1680007954246,1187942599575571,3.9499502,8.865001,2.8230002
1680007954249,1187942602077725,3.89895,8.7949505,2.8470001
1680007954251,1187942604579662,3.9520502,8.91495,2.8140001
1680007954253,1187942607081816,4.0080004,8.818951,2.8519502
1680007954256,1187942609583970,3.9259503,8.853001,2.811
1680007954260,1187942612086124,3.8800502,8.865001,2.8930502
1680007954262,1187942614588278,3.9090002,8.905951,2.8519502
1680007954265,1187942617090442,3.9180002,8.85795,2.88105
1680007954267,1187942619592595,4.01205,8.874001,2.7229502
1680007954269,1187942622094749,3.9810002,8.889001,2.8260002
1680007954271,1187942624596826,4.04295,8.877001,2.91195
1680007954272,1187942627098980,3.9379501,8.946,2.8879502
1680007954274,1187942629601211,3.933,8.965051,2.7130501
1680007954279,1187942632103365,3.9019501,8.88405,2.8549502
1680007954281,1187942634605519,3.86805,8.944051,2.8570502
1680007954283,1187942637107672,3.9259503,8.800051,2.8900502
1680007954285,1187942639609821,3.8940003,8.91495,2.73495
1680007954289,1187942642111898,3.9780002,8.89395,2.7949502
1680007954290,1187942644614129,3.9760501,8.874001,2.775
1680007954292,1187942647116206,3.8710501,8.85495,2.80905
1680007954294,1187942649618364,3.9900002,8.769,2.8230002
1680007954297,1187942652120518,3.9160502,8.767051,2.9569502
1680007954299,1187942654622671,3.8440502,8.88405,2.8330503
1680007954301,1187942657124825,3.9229503,8.874001,2.7949502
1680007954305,1187942659626979,3.9229503,8.91495,2.9650502
1680007954307,1187942662129148,4.02105,8.81505,2.8950002
1680007954309,1187942664631302,3.9379501,8.830951,2.8159502
1680007954312,1187942667133456,3.9739501,8.85,2.88105
1680007954314,1187942669635610,3.9520502,8.88405,2.8590002
1680007954317,1187942672137835,3.9450002,8.84595,2.7630002
1680007954321,1187942674639989,3.9180002,8.812051,2.9599502
1680007954322,1187942677142066,3.9019501,8.89605,2.8590002
1680007954326,1187942679644230,3.8940003,8.86695,2.8210502
1680007954329,1187942682146384,3.9640503,8.805,2.73705
1680007954331,1187942684648538,3.9570003,8.812051,2.874
1680007954333,1187942687150461,3.9300003,8.841001,2.8519502
1680007954334,1187942689652845,3.9829502,8.865001,2.9020503
1680007954337,1187942692154994,3.9810002,8.898001,2.7540002
1680007954339,1187942694656917,3.9210002,8.7640505,2.83995
1680007954342,1187942697159071,3.9300003,8.829,2.8140001
1680007954344,1187942699661225,4.0350003,8.87895,2.7439501
1680007954349,1187942702163374,3.9780002,8.90295,2.91405
1680007954350,1187942704665759,3.9880502,8.830951,2.8950002
1680007954355,1187942707167682,3.969,8.83605,2.7250502
1680007954357,1187942709669835,3.9109502,8.805,2.766
1680007954358,1187942712171989,4.0470004,8.87895,2.8210502
1680007954360,1187942714674114,3.9739501,8.862,2.8140001
1680007954364,1187942717176268,4.03305,8.806951,2.8980002
1680007954366,1187942719678422,3.969,8.829,2.8590002
1680007954368,1187942722180576,4.04295,8.862,2.8590002
1680007954370,1187942724682730,3.9970503,8.89095,2.9929502
1680007954372,1187942727184883,4.05,8.901,2.91
1680007954375,1187942729687037,3.9760501,8.83395,2.89995
1680007954379,1187942732189167,4.0080004,8.886001,2.7799501
1680007954381,1187942734691244,3.966,8.829,2.8660502
1680007954382,1187942737193475,3.9739501,8.89605,2.8930502
1680007954384,1187942739695629,3.8869503,8.78295,2.88105
1680007954396,1187942742197706,3.9739501,8.793,2.9239502
1680007954396,1187942744699849,3.9259503,8.841001,2.91
1680007954396,1187942747202003,4.017,8.733001,2.8210502
1680007954396,1187942749704157,3.9619503,8.84595,2.8260002
1680007954397,1187942752206388,3.9589503,8.910001,2.8210502
1680007954401,1187942754708460,3.9810002,8.842951,2.83095
1680007954402,1187942757210614,3.86595,8.877001,2.8930502
1680007954404,1187942759712768,3.9469502,8.830951,2.778
1680007954407,1187942762214921,3.8800502,8.830951,2.7919502
1680007954409,1187942764717075,3.9229503,8.905951,2.946
1680007954412,1187942767218984,3.969,8.7949505,2.8660502
1680007954414,1187942769721446,3.9970503,8.865001,2.89995
1680007954417,1187942772223523,3.9019501,8.913,2.83995
1680007954419,1187942774725677,3.966,8.917951,2.90505
1680007954422,1187942777227826,3.9379501,8.920051,2.8210502
1680007954425,1187942779729979,3.9469502,8.953051,2.871
1680007954428,1187942782231902,3.9540002,8.818951,2.86905
1680007954432,1187942784734287,3.9259503,8.986951,2.8330503
1680007954433,1187942787236427,3.9210002,8.941051,2.802
1680007954439,1187942789738581,3.8869503,8.901,2.83095
1680007954440,1187942792240504,3.9019501,8.929951,2.94105
1680007954441,1187942794742658,3.9180002,8.938951,2.778
1680007954445,1187942797244788,3.8710501,8.7619505,2.8620002
1680007954446,1187942799746941,3.8899503,8.908051,2.8230002
1680007954448,1187942802249326,3.9019501,8.86695,2.7870002
1680007954450,1187942804751249,3.8539503,8.898001,2.7970502
1680007954452,1187942807253403,3.8110502,8.865001,2.8500001
1680007954456,1187942809755542,3.9090002,8.917951,2.7850502
1680007954458,1187942812257696,3.90405,8.773951,2.8590002
1680007954459,1187942814759850,3.8490002,8.74005,2.9020503
1680007954462,1187942817262003,3.9160502,8.74995,2.8140001
1680007954465,1187942819764157,3.83505,8.830951,2.80695
1680007954467,1187942822266311,3.8779502,8.85,2.9239502
1680007954469,1187942824768465,3.8490002,8.830951,2.8140001
1680007954473,1187942827270619,3.9180002,8.81505,2.8470001
1680007954476,1187942829772701,3.8370001,8.88195,2.8830001
1680007954478,1187942832274932,3.9540002,8.79105,2.8189502
1680007954480,1187942834777085,3.82995,8.712001,2.8500001
1680007954482,1187942837279239,3.9540002,8.829,2.9220002
1680007954484,1187942839781316,3.8590503,8.809951,2.8950002
1680007954487,1187942842283480,3.9090002,8.74995,2.7919502
1680007954489,1187942844785634,3.8800502,8.74005,2.835
1680007954492,1187942847287788,3.9709501,8.7640505,3.0289502
1680007954495,1187942849789942,3.9300003,8.85,2.8830001
1680007954497,1187942852292085,3.9900002,8.74995,2.9020503
1680007954500,1187942854794239,3.9060001,8.757,2.8140001
1680007954502,1187942857296393,3.9259503,8.75895,2.94105
1680007954505,1187942859798547,3.9420002,8.830951,2.86905
1680007954507,1187942862300701,3.7870502,8.74695,2.8930502
1680007954509,1187942864802860,3.8850002,8.78295,2.9550002
1680007954515,1187942867305014,3.9450002,8.82405,2.946
1680007954518,1187942869807167,3.9589503,8.806951,2.8900502
1680007954519,1187942872504778,3.9109502,8.805,2.9650502
1680007954522,1187942874811470,3.9739501,8.89095,2.9530501
1680007954523,1187942877313393,3.8730001,8.74995,2.87805
1680007954525,1187942879815547,3.9880502,8.817,2.91405
1680007954528,1187942882317922,3.8850002,8.82405,2.91
1680007954530,1187942884820076,3.8869503,8.78295,2.8570502
1680007954532,1187942887321999,3.9300003,8.877001,2.9340003
1680007954534,1187942889824152,3.9229503,8.83605,2.9959502
1680007954539,1187942892326268,3.90405,8.785951,2.802
1680007954540,1187942894828422,3.8920503,8.818951,2.8879502
1680007954542,1187942897330807,3.8940003,8.812051,2.8210502
1680007954544,1187942899832730,3.9709501,8.72595,2.8230002
1680007954547,1187942902334884,3.9379501,8.853001,2.802
1680007954553,1187942904837043,3.969,8.917951,2.9220002
1680007954555,1187942907339196,3.9709501,8.84805,2.9170501
1680007954556,1187942909841350,3.9160502,8.82705,2.871
1680007954558,1187942912343504,3.9570003,8.84595,2.7970502
1680007954560,1187942914845581,3.9400501,8.87895,2.799
1680007954562,1187942917347730,3.9259503,8.889001,2.8330503
1680007954565,1187942919849884,3.8610003,8.82705,2.7540002
1680007954568,1187942922352038,3.9160502,8.974951,2.9340003
1680007954570,1187942924854268,3.8749502,8.89605,2.8830001
1680007954572,1187942927356422,3.9109502,8.920051,2.87595
1680007954575,1187942929858513,3.8230503,8.99205,2.775
1680007954579,1187942932360667,3.9139502,8.997001,2.7919502
1680007954580,1187942934862821,3.966,8.977051,2.8210502
1680007954583,1187942937364975,3.933,8.910001,2.9530501
1680007954584,1187942939867205,3.9019501,9.0060005,2.8159502
1680007954591,1187942942369359,3.9540002,8.922001,2.8330503
1680007954592,1187942944871436,3.8149502,8.898001,2.8140001
1680007954594,1187942947373590,3.9499502,8.910001,2.7589502
1680007954598,1187942949875744,3.82995,8.917951,2.9340003
1680007954599,1187942952377898,3.9139502,8.88405,2.8879502
1680007954601,1187942954880052,3.9210002,8.974951,2.8879502
1680007954602,1187942957382206,3.89895,8.946,2.946
1680007954604,1187942959884378,3.8110502,8.89605,2.7610502
1680007954608,1187942962386532,3.79905,8.89095,2.74005
1680007954610,1187942964888455,3.8230503,8.829,2.8210502
1680007954612,1187942967390609,3.8389502,8.925,2.8860002
1680007954614,1187942969892763,3.8869503,8.985001,2.8639503
