system_ts_ms, sensor_ts_ns, gyrX, gyrY, gyrZ
1680009357863,1189346216064533,0.0034375,0.0653125,-0.0191125
1680009357869,1189346218566692,0.0034375,0.066275,-0.020075
1680009357869,1189346221068846,0.001375,0.072325,-0.0210375
1680009357870,1189346223571000,0.001375,0.0732875,-0.0160875
1680009357871,1189346226073230,-0.0026125,0.0702625,-0.0180125
1680009357875,1189346228575606,-0.0026125,0.0672375,-0.015125
1680009357887,1189346231077529,-0.00165,0.061325,-0.0100375
1680009357888,1189346233579914,-0.0045375,0.06325,-0.015125
1680009357889,1189346236082068,-0.0045375,0.06325,-0.0070125
1680009357889,1189346238584221,-0.003575,0.060225,-0.0020625
1680009357890,1189346241086457,-0.008525,0.055275,-0.004125
1680009357890,1189346243588611,-0.009625,0.0482625,-0.0020625
1680009357891,1189346246090765,-0.0075625,0.0372625,-0.0
1680009357896,1189346248592919,-0.009625,0.0342375,0.0039875
1680009357896,1189346251095073,-0.01155,0.027224999,0.007975
1680009357898,1189346253597231,-0.0105875,0.0213125,0.0099
1680009357902,1189346256099693,-0.0105875,0.0202125,0.0119624995
1680009357903,1189346258601770,-0.013612499,0.0122375,0.0149875
1680009357906,1189346261103924,-0.01265,0.00825,0.0149875
1680009357909,1189346263606164,-0.0105875,0.0072875,0.01595
1680009357914,1189346266108318,-0.01155,0.0042625,0.0169125
1680009357916,1189346268610472,-0.013612499,0.0042625,0.0199375
1680009357917,1189346271112626,-0.014575,0.00825,0.022
1680009357918,1189346273615001,-0.014575,0.011275,0.0199375
1680009357923,1189346276117155,-0.0155375,0.0122375,0.022
1680009357924,1189346278619308,-0.014575,0.0143,0.0209
1680009357929,1189346281121462,-0.01155,0.015262499,0.022
1680009357930,1189346283623592,-0.0155375,0.016224999,0.0209
1680009357932,1189346286125823,-0.013612499,0.0213125,0.018975
1680009357934,1189346288627977,-0.01265,0.0243375,0.0169125
1680009357936,1189346291130361,-0.0105875,0.027224999,0.0199375
1680009357938,1189346293632515,-0.01265,0.0312125,0.018975
1680009357942,1189346296134684,-0.01155,0.0372625,0.01595
1680009357947,1189346298636838,-0.014575,0.0363,0.018975
1680009357947,1189346301138992,-0.01265,0.038225,0.01595
1680009357950,1189346303641208,-0.014575,0.0363,0.018975
1680009357952,1189346306143284,-0.0166375,0.0372625,0.0199375
1680009357954,1189346308645515,-0.01265,0.039325,0.0169125
1680009357955,1189346311147669,-0.01155,0.0402875,0.0229625
1680009357958,1189346313649823,-0.009625,0.0402875,0.022
1680009357963,1189346316152218,-0.0105875,0.044275,0.022
1680009357963,1189346318654371,-0.01265,0.0452375,0.0229625
1680009357968,1189346321156525,-0.01155,0.0463375,0.0259875
1680009357968,1189346323658679,-0.01155,0.0433125,0.029975
1680009357971,1189346326160833,-0.01155,0.0452375,0.028875
1680009357973,1189346328663059,-0.009625,0.0463375,0.0279125
1680009357979,1189346331165443,-0.0105875,0.0433125,0.029975
1680009357980,1189346333667597,-0.01155,0.044275,0.0309375
1680009357981,1189346336169765,-0.01155,0.0473,0.0309375
1680009357983,1189346338671919,-0.0105875,0.0473,0.0319
1680009357987,1189346341174073,-0.01155,0.0473,0.0279125
1680009357989,1189346343676227,-0.008525,0.0482625,0.0319
1680009357992,1189346346178481,-0.0075625,0.050325,0.0339625
1680009357996,1189346348680635,-0.0066,0.0512875,0.033
1680009357997,1189346351182789,-0.0075625,0.0562375,0.0339625
1680009357999,1189346353685174,-0.0066,0.0532125,0.033
1680009358002,1189346356187069,-0.0045375,0.050325,0.0358875
1680009358004,1189346358689453,4.125E-4,0.0532125,0.040975
1680009358007,1189346361191607,4.125E-4,0.0543125,0.0419375
1680009358009,1189346363693838,4.125E-4,0.0532125,0.0389125
1680009358014,1189346366195992,0.0034375,0.0532125,0.0369875
1680009358015,1189346368698155,0.0044,0.050325,0.03795
1680009358016,1189346371200309,0.0034375,0.049225,0.03795
1680009358019,1189346373702462,0.0034375,0.050325,0.039875
1680009358021,1189346376204616,0.0064625,0.0482625,0.040975
1680009358025,1189346378706977,0.0053625,0.0463375,0.0419375
1680009358029,1189346381209208,0.0064625,0.044275,0.0419375
1680009358030,1189346383711285,0.007425,0.039325,0.0419375
1680009358033,1189346386213515,0.0083875,0.033275,0.0429
1680009358035,1189346388715679,0.0083875,0.0342375,0.044
1680009358037,1189346391217833,0.0083875,0.0323125,0.044
1680009358039,1189346393719987,0.0083875,0.022275,0.045925
1680009358042,1189346396222372,0.00935,0.0202125,0.045925
1680009358048,1189346398724525,0.012375,0.0253,0.0479875
1680009358049,1189346401226683,0.0114124995,0.0243375,0.0479875
1680009358051,1189346403728837,0.0083875,0.0202125,0.0479875
1680009358052,1189346406230991,0.0083875,0.0202125,0.0468875
1680009358053,1189346408733222,0.012375,0.01925,0.0449625
1680009358056,1189346411235606,0.012375,0.01925,0.045925
1680009358058,1189346413737500,0.013475,0.016224999,0.0429
1680009358063,1189346416239885,0.0094875,0.0182875,0.044
1680009358064,1189346418742039,0.0114124995,0.0182875,0.0429
1680009358066,1189346421244193,0.012375,0.015262499,0.0389125
1680009358068,1189346423746356,0.007425,0.01925,0.0389125
1680009358071,1189346426248509,0.0064625,0.015262499,0.0389125
1680009358073,1189346428750740,0.0053625,0.00825,0.039875
1680009358079,1189346431252894,0.0053625,0.015262499,0.03795
1680009358080,1189346433755043,0.0053625,0.00825,0.0358875
1680009358081,1189346436257197,0.001375,0.0072875,0.0389125
1680009358083,1189346438759581,0.002475,0.006325,0.0419375
1680009358087,1189346441261505,0.0053625,0.005225,0.040975
1680009358088,1189346443763966,0.0044,0.0072875,0.039875
1680009358091,1189346446266135,0.0064625,0.00825,0.040975
1680009358097,1189346448768289,0.0044,0.006325,0.040975
1680009358098,1189346451270443,0.0044,0.006325,0.0419375
1680009358101,1189346453772596,0.0044,0.00825,0.0429
1680009358103,1189346456274750,0.0064625,0.005225,0.0429
1680009358105,1189346458777135,0.007425,0.006325,0.040975
1680009358106,1189346461279289,0.0064625,0.0103124995,0.040975
1680009358112,1189346463781443,0.0064625,0.00825,0.039875
1680009358113,1189346466283678,0.0064625,0.005225,0.039875
1680009358113,1189346468785755,0.0083875,0.0072875,0.039875
1680009358116,1189346471287986,0.01045,0.0133375,0.03795
1680009358119,1189346473790140,0.0083875,0.0133375,0.0369875
1680009358122,1189346476292539,0.007425,0.0122375,0.0339625
1680009358123,1189346478794692,0.0094875,0.017324999,0.033
1680009358129,1189346481296846,0.0114124995,0.01925,0.0319
1680009358129,1189346483799000,0.007425,0.0202125,0.0309375
1680009358132,1189346486301144,0.0064625,0.0202125,0.0309375
1680009358134,1189346488803298,0.0094875,0.0213125,0.0309375
1680009358138,1189346491305529,0.007425,0.0232375,0.0319
1680009358139,1189346493807683,0.0064625,0.0232375,0.028875
1680009358142,1189346496310048,0.007425,0.0253,0.0319
1680009358149,1189346498811971,0.0064625,0.0232375,0.0309375
1680009358150,1189346501314356,0.01045,0.027224999,0.0309375
1680009358151,1189346503816510,0.01045,0.028324999,0.0319
1680009358154,1189346506318664,0.01045,0.028324999,0.033
1680009358154,1189346508820860,0.0094875,0.028324999,0.033
1680009358156,1189346511323014,0.0083875,0.028324999,0.029975
1680009358159,1189346513825168,0.0094875,0.0292875,0.0248875
1680009358165,1189346516327553,0.0094875,0.0312125,0.028875
1680009358166,1189346518829462,0.0083875,0.0312125,0.0319
1680009358168,1189346521331616,0.0083875,0.03025,0.0279125
1680009358169,1189346523834077,0.0053625,0.03025,0.0259875
1680009358171,1189346526336231,0.0053625,0.0312125,0.0279125
1680009358176,1189346528838399,0.0053625,0.0342375,0.0279125
1680009358177,1189346531340553,0.0053625,0.033275,0.0248875
1680009358181,1189346533842707,0.0053625,0.0323125,0.023924999
1680009358182,1189346536344860,0.0044,0.033275,0.023924999
1680009358184,1189346538847245,0.0053625,0.03025,0.023924999
1680009358186,1189346541349409,0.0034375,0.028324999,0.022
1680009358189,1189346543851563,0.0064625,0.0323125,0.0199375
1680009358192,1189346546353717,0.007425,0.0312125,0.0209
1680009358196,1189346548855870,0.0053625,0.03025,0.0199375
1680009358197,1189346551358115,0.0034375,0.0323125,0.018975
1680009358200,1189346553860269,0.0053625,0.03025,0.012925
1680009358202,1189346556362654,0.0064625,0.03025,0.011
1680009358204,1189346558864808,0.0044,0.0312125,0.0119624995
1680009358207,1189346561366952,0.0034375,0.0323125,0.007975
1680009358209,1189346563869106,0.0034375,0.0312125,0.0119624995
1680009358216,1189346566371260,0.002475,0.028324999,0.0119624995
1680009358216,1189346568873414,0.002475,0.03025,0.011
1680009358217,1189346571375640,-0.0026125,0.0292875,0.012925
1680009358219,1189346573878024,-0.0045375,0.0243375,0.0099
1680009358221,1189346576379947,-0.003575,0.0243375,0.007975
1680009358223,1189346578882332,-0.0056375,0.0232375,0.007975
1680009358231,1189346581384486,-0.0045375,0.017324999,0.0059125
1680009358232,1189346583886669,-0.0066,0.017324999,0.0099
1680009358233,1189346586388823,-0.0066,0.016224999,0.011
1680009358233,1189346588891053,-0.0066,0.0103124995,0.006875
1680009358236,1189346591393207,-0.009625,0.00825,0.0059125
1680009358238,1189346593895361,-0.0066,0.00825,0.007975
1680009358241,1189346596397520,-0.0066,0.0042625,0.011
1680009358247,1189346598899674,-0.008525,0.0033,0.0059125
1680009358247,1189346601402058,-0.008525,0.0033,0.00495
1680009358250,1189346603904227,-0.0105875,0.0023375,0.007975
1680009358253,1189346606406458,-0.009625,2.75E-4,0.0059125
1680009358255,1189346608908535,-0.0066,-0.00275,0.0028875
1680009358256,1189346611410689,-0.0105875,-0.004675,0.0028875
1680009358259,1189346613913150,-0.0125124995,-0.0037125,0.0028875
1680009358262,1189346616415304,-0.0105875,-0.0097624995,0.0039875
1680009358263,1189346618917458,-0.008525,-0.0086624995,0.0028875
1680009358266,1189346621419612,-0.009625,-0.00275,0.00495
1680009358269,1189346623921766,-0.008525,-6.875E-4,0.0039875
1680009358271,1189346626423919,-0.009625,-0.0037125,0.0039875
1680009358274,1189346628926072,-0.0066,-0.0017875,0.0028875
1680009358276,1189346631428303,-0.0066,2.75E-4,0.0028875
1680009358278,1189346633930688,-0.0056375,-6.875E-4,0.001925
1680009358281,1189346636432621,-0.009625,0.0023375,-0.0
1680009358285,1189346638934775,-0.0045375,0.005225,-0.0011
1680009358288,1189346641437159,-0.003575,0.005225,-0.0020625
1680009358291,1189346643939313,-0.0045375,0.005225,-0.003025
1680009358293,1189346646773573,0.0034375,0.0133375,-0.003025
1680009358295,1189346648943727,0.001375,0.017324999,-0.0011
1680009358296,1189346651445881,-0.0045375,0.0182875,-0.0011
1680009358298,1189346653948035,0.001375,0.0213125,-0.0011
1680009358302,1189346656450193,-0.0015125,0.0243375,-0.003025
1680009358304,1189346658952347,-0.0026125,0.022275,-0.003025
1680009358306,1189346661454732,-0.003575,0.03025,-0.003025
1680009358309,1189346663956963,-0.003575,0.033275,-0.003025
1680009358312,1189346666459068,-0.003575,0.039325,-0.003025
1680009358314,1189346668961298,-0.003575,0.0372625,-0.004125
1680009358316,1189346671463452,-0.003575,0.041249998,-0.003025
1680009358320,1189346673965606,-0.0026125,0.0433125,-0.003025
1680009358322,1189346676467784,-0.0015125,0.044275,-0.004125
1680009358326,1189346678970169,4.125E-4,0.0433125,-0.003025
1680009358329,1189346681472322,0.001375,0.0452375,-0.0070125
1680009358333,1189346683973374,4.125E-4,0.0473,-0.0081124995
1680009358333,1189346686474451,0.001375,0.0482625,-0.0100375
1680009358334,1189346688978759,4.125E-4,0.0452375,-0.009075
1680009358336,1189346691480990,0.002475,0.0463375,-0.009075
1680009358339,1189346693983144,0.002475,0.0473,-0.011
1680009358342,1189346696485297,4.125E-4,0.0433125,-0.011
1680009358343,1189346698987692,0.002475,0.049225,-0.0100375
1680009358346,1189346701489846,4.125E-4,0.0463375,-0.013062499
1680009358349,1189346703992000,4.125E-4,0.044275,-0.0121
1680009358351,1189346706494154,-0.0026125,0.044275,-0.0100375
1680009358353,1189346708996307,0.001375,0.0433125,-0.009075
1680009358356,1189346711498533,-0.0026125,0.0433125,-0.0081124995
1680009358359,1189346714000687,-0.003575,0.0402875,-0.011
1680009358363,1189346716502841,-0.0015125,0.039325,-0.011
1680009358366,1189346719005231,-0.003575,0.038225,-0.011
1680009358368,1189346721507384,-0.008525,0.0372625,-0.0100375
1680009358370,1189346724009308,-0.008525,0.0363,-0.009075
1680009358372,1189346726511769,-0.003575,0.0323125,-0.009075
1680009358374,1189346729013923,-0.0066,0.0312125,-0.009075
1680009358377,1189346731516063,-0.0066,0.0292875,-0.009075
1680009358379,1189346734018217,-0.0066,0.03025,-0.0081124995
1680009358382,1189346736520370,-0.008525,0.0312125,-0.0081124995
1680009358384,1189346739022524,-0.009625,0.0292875,-0.009075
1680009358387,1189346741524692,-0.0075625,0.0253,-0.0070125
1680009358389,1189346744027077,-0.009625,0.027224999,-0.009075
1680009358391,1189346746529231,-0.009625,0.0312125,-0.00605
1680009358394,1189346749031461,-0.0105875,0.0312125,-0.0070125
1680009358396,1189346751533544,-0.0105875,0.0323125,-0.0121
1680009358402,1189346754035775,-0.008525,0.0323125,-0.009075
1680009358403,1189346756537929,-0.0105875,0.0353375,-0.009075
1680009358405,1189346759040314,-0.0105875,0.0353375,-0.0081124995
1680009358407,1189346761542481,-0.0105875,0.0342375,-0.0070125
1680009358409,1189346764044635,-0.0066,0.0323125,-0.0081124995
1680009358412,1189346766546789,-0.0045375,0.0353375,-0.009075
1680009358414,1189346769048943,-0.0015125,0.039325,-0.009075
1680009358416,1189346771551097,-0.0026125,0.041249998,-0.0100375
1680009358419,1189346774053328,-0.003575,0.039325,-0.013062499
1680009358421,1189346776555712,4.125E-4,0.0402875,-0.0121
1680009358424,1189346779057866,0.001375,0.038225,-0.011
1680009358427,1189346781560020,0.0034375,0.0433125,-0.0121
1680009358429,1189346784062189,0.0034375,0.0402875,-0.0121
1680009358432,1189346786564343,0.007425,0.0433125,-0.011
1680009358434,1189346789066497,0.0053625,0.041249998,-0.011
1680009358438,1189346791568727,0.0034375,0.041249998,-0.0100375
1680009358440,1189346794070894,0.0044,0.0452375,-0.013062499
1680009358443,1189346796573048,0.0064625,0.0452375,-0.0121
1680009358445,1189346799075202,0.0083875,0.0463375,-0.0100375
1680009358447,1189346801577356,0.0114124995,0.049225,-0.0121
1680009358449,1189346804079740,0.0083875,0.0452375,-0.0100375
1680009358452,1189346806581943,0.0094875,0.0452375,-0.0081124995
1680009358454,1189346809084097,0.007425,0.050325,-0.0121
1680009358456,1189346811586251,0.0094875,0.050325,-0.0121
1680009358459,1189346814088405,0.0094875,0.049225,-0.011
1680009358462,1189346816590535,0.01045,0.0532125,-0.013062499
1680009358463,1189346819092688,0.01045,0.0532125,-0.0100375
1680009358466,1189346821594842,0.01045,0.0482625,-0.0100375
1680009358469,1189346824097227,0.0094875,0.0532125,-0.0121
1680009358472,1189346826599463,0.0053625,0.0532125,-0.0121
1680009358475,1189346829101540,0.0064625,0.055275,-0.011
1680009358477,1189346831603693,0.0083875,0.055275,-0.011
1680009358479,1189346834105924,0.0083875,0.0562375,-0.0100375
1680009358482,1189346836608083,0.0094875,0.06325,-0.0121
1680009358486,1189346839110468,0.0083875,0.0583,-0.0121
1680009358488,1189346841612621,0.0064625,0.0642125,-0.0121
1680009358494,1189346844114775,0.0064625,0.0653125,-0.015125
1680009358494,1189346846616938,0.0083875,0.0642125,-0.0121
1680009358494,1189346849119092,0.0083875,0.0653125,-0.015125
1680009358496,1189346851621246,0.0053625,0.0653125,-0.0160875
1680009358498,1189346854123707,0.0044,0.0683375,-0.0121
1680009358502,1189346856625646,0.0064625,0.0672375,-0.0121
1680009358504,1189346859127799,0.002475,0.066275,-0.0100375
1680009358506,1189346861630184,0.0034375,0.071225,-0.011
1680009358509,1189346864132338,0.0053625,0.072325,-0.011
1680009358513,1189346866634487,0.0053625,0.071225,-0.013062499
1680009358515,1189346869136641,0.0044,0.071225,-0.0081124995
1680009358518,1189346871638871,0.0064625,0.071225,-0.011
1680009358519,1189346874141025,0.0064625,0.072325,-0.013062499
1680009358522,1189346876643179,0.0064625,0.0732875,-0.009075
1680009358525,1189346879145318,0.0034375,0.071225,-0.0100375
1680009358528,1189346881647472,0.0053625,0.071225,-0.013062499
1680009358530,1189346884149856,0.007425,0.0763125,-0.013062499
1680009358532,1189346886652010,0.0064625,0.07425,-0.015125
1680009358535,1189346889154241,0.0053625,0.0702625,-0.01705
1680009358537,1189346891656391,0.0034375,0.069299996,-0.0160875
1680009358539,1189346894158545,0.002475,0.069299996,-0.013062499
1680009358542,1189346896660699,4.125E-4,0.069299996,-0.015125
1680009358543,1189346899162852,0.001375,0.069299996,-0.0160875
1680009358547,1189346901665015,0.001375,0.0682,-0.020075
1680009358554,1189346904167400,-0.00165,0.0653125,-0.01705
1680009358555,1189346906669554,4.125E-4,0.06325,-0.0160875
1680009358556,1189346909171708,-0.00165,0.0653125,-0.01705
1680009358557,1189346911673938,-0.00165,0.060225,-0.015125
1680009358559,1189346914176092,-0.003575,0.0562375,-0.0160875
1680009358562,1189346916678246,-0.0045375,0.0572,-0.015125
1680009358564,1189346919180400,-0.003575,0.0543125,-0.0121
1680009358567,1189346921682785,-0.003575,0.052249998,-0.013062499
1680009358569,1189346924184708,-0.0086624995,0.050325,-0.0121
1680009358572,1189346926686861,-0.01155,0.050325,-0.013062499
1680009358574,1189346929189323,-0.009625,0.049225,-0.011
1680009358576,1189346931691477,-0.0105875,0.044275,-0.0100375
1680009358578,1189346934193631,-0.0105875,0.0452375,-0.0100375
1680009358583,1189346936695785,-0.01265,0.050325,-0.011
1680009358585,1189346939197938,-0.014575,0.049225,-0.0121
1680009358588,1189346941700092,-0.013612499,0.0462,-0.011
1680009358590,1189346944202232,-0.014575,0.041249998,-0.0100375
1680009358593,1189346946704617,-0.014575,0.041249998,-0.0081124995
1680009358595,1189346949206771,-0.0166375,0.0433125,-0.0081124995
1680009358597,1189346951709001,-0.0166375,0.039325,-0.00605
1680009358599,1189346954211078,-0.01265,0.0372625,-0.004125
1680009358602,1189346956713294,-0.0155375,0.0352,-0.003025
1680009358605,1189346959215448,-0.0176,0.0352,-0.003025
1680009358606,1189346961717833,-0.0166375,0.0292875,-0.0
1680009358609,1189346964219986,-0.0155375,0.0253,-0.0
1680009358612,1189346966722126,-0.0166375,0.0242,9.625E-4
1680009358615,1189346969224280,-0.0185625,0.022275,0.001925
1680009358618,1189346971726434,-0.0185625,0.01925,9.625E-4
1680009358619,1189346974228588,-0.0176,0.015262499,0.0039875
1680009358622,1189346976731049,-0.0176,0.0143,0.006875
1680009358626,1189346979233203,-0.020624999,0.011275,0.006875
1680009358628,1189346981735126,-0.0215875,0.005225,0.011
1680009358630,1189346984237511,-0.0196625,0.0012375,0.0119624995
1680009358636,1189346986739650,-0.0176,-0.00275,0.012925
1680009358636,1189346989241804,-0.0155375,-0.0097624995,0.0149875
1680009358637,1189346991743957,-0.0176,-0.010725,0.01595
1680009358639,1189346994246188,-0.0176,-0.01375,0.023924999
1680009358642,1189346996748342,-0.0176,-0.0207625,0.023924999
1680009358647,1189346999250727,-0.0176,-0.021724999,0.0229625
1680009358647,1189347001752650,-0.0185625,-0.0257125,0.0259875
1680009358650,1189347004255034,-0.0185625,-0.026675,0.0259875
1680009358652,1189347006757188,-0.0176,-0.021724999,0.0248875
1680009358654,1189347009259342,-0.0185625,-0.026675,0.0279125
1680009358657,1189347011761559,-0.0196625,-0.027775,0.028875
1680009358659,1189347014263713,-0.0196625,-0.027775,0.0279125
1680009358664,1189347016765867,-0.0166375,-0.02475,0.0279125
1680009358665,1189347019268020,-0.0155375,-0.026675,0.0279125
1680009358669,1189347021770145,-0.0176,-0.02475,0.02695
1680009358669,1189347024272299,-0.0185625,-0.0207625,0.0248875
1680009358672,1189347026774761,-0.0155375,-0.016775,0.0248875
1680009358674,1189347029276838,-0.0166375,-0.0116875,0.02695
1680009358677,1189347031778991,-0.0166375,-0.01375,0.0259875
1680009358679,1189347034281217,-0.0155375,-0.0067375,0.02695
1680009358682,1189347036783371,-0.014575,-0.0037125,0.0279125
1680009358686,1189347039285525,-0.0176,-0.0017875,0.0279125
1680009358687,1189347041787910,-0.0166375,0.0012375,0.0279125
1680009358689,1189347044290063,-0.020624999,0.0072875,0.0319
1680009358692,1189347046792217,-0.0196625,0.015262499,0.0319
1680009358694,1189347049294371,-0.0185625,0.0143,0.0309375
1680009358697,1189347051796525,-0.020624999,0.0182875,0.0339625
1680009358702,1189347054298679,-0.0185625,0.022275,0.0389125
1680009358703,1189347056800910,-0.0196625,0.027224999,0.033
1680009358705,1189347059303294,-0.02255,0.0292875,0.0389125
1680009358707,1189347061805448,-0.02365,0.0323125,0.0389125
1680009358709,1189347064307602,-0.02365,0.0363,0.0369875
1680009358712,1189347066809742,-0.0265375,0.041249998,0.0389125
1680009358714,1189347069311896,-0.025575,0.0433125,0.0389125
1680009358718,1189347071814049,-0.031625,0.0462,0.0389125
1680009358719,1189347074316280,-0.03355,0.044275,0.039875
1680009358723,1189347076818424,-0.034649998,0.0473,0.040975
1680009358725,1189347079320578,-0.03355,0.0462,0.0449625
1680009358727,1189347081822732,-0.0356125,0.0473,0.044
1680009358729,1189347084325116,-0.0386375,0.050325,0.045925
1680009358732,1189347086827049,-0.0396,0.0462,0.0429
1680009358734,1189347089329510,-0.0416625,0.038225,0.044
1680009358738,1189347091831664,-0.0416625,0.0352,0.04895
1680009358741,1189347094333818,-0.042625,0.038225,0.045925
1680009358743,1189347096835972,-0.04455,0.0372625,0.045925
1680009358745,1189347099338125,-0.0466125,0.0292875,0.0479875
1680009358748,1189347101840279,-0.0405625,0.0253,0.04895
1680009358750,1189347104342433,-0.04455,0.0202125,0.051975
1680009358753,1189347106844818,-0.0466125,0.0132,0.0559625
1680009358754,1189347109346939,-0.04455,0.00825,0.0539
1680009358757,1189347111849169,-0.0466125,0.0022,0.0559625
1680009358759,1189347114351323,-0.0485375,-0.0037125,0.056925
1680009358762,1189347116853477,-0.047575,-0.0116875,0.0559625
1680009358765,1189347119355626,-0.0515625,-0.0198,0.0578875
1680009358766,1189347121858011,-0.0506,-0.027775,0.0589875
1680009358769,1189347124360164,-0.0485375,-0.0367125,0.0578875
1680009358771,1189347126862318,-0.053625,-0.0457875,0.061875
1680009358775,1189347129364477,-0.05555,-0.048675,0.0669625
1680009358777,1189347131866631,-0.0545875,-0.05775,0.066
1680009358779,1189347134368785,-0.056649998,-0.059675,0.0688875
1680009358781,1189347136870939,-0.05555,-0.0638,0.07095
1680009358784,1189347139373400,-0.058575,-0.065725,0.072875
1680009358787,1189347141875539,-0.0616,-0.065725,0.0749375
1680009358789,1189347144377462,-0.058575,-0.0677875,0.077
1680009358792,1189347146879847,-0.0576125,-0.0617375,0.0779625
1680009358794,1189347149382001,-0.0576125,-0.0647625,0.0779625
1680009358796,1189347151884155,-0.058575,-0.05775,0.0779625
1680009358799,1189347154386414,-0.0595375,-0.0537625,0.0779625
1680009358802,1189347156888568,-0.0576125,-0.0528,0.078925
1680009358805,1189347159390722,-0.056649998,-0.0477125,0.0779625
1680009358807,1189347161893131,-0.053625,-0.0446875,0.0779625
1680009358809,1189347164395054,-0.05555,-0.0418,0.0798875
1680009358813,1189347166897438,-0.0515625,-0.0367125,0.0779625
1680009358815,1189347169399669,-0.0515625,-0.0317625,0.0798875
1680009358817,1189347171901823,-0.0526625,-0.0287375,0.0809875
1680009358820,1189347174403982,-0.0515625,-0.0198,0.0809875
1680009358822,1189347176906136,-0.0515625,-0.016775,0.08195
1680009358825,1189347179408290,-0.053625,-0.0088,0.084975
1680009358827,1189347181910438,-0.0506,0.0033,0.0859375
1680009358830,1189347184412592,-0.0485375,0.0103124995,0.086899996
1680009358833,1189347186914977,-0.0515625,0.0182875,0.0908875
1680009358837,1189347189417208,-0.0506,0.0292875,0.0908875
1680009358838,1189347191919285,-0.0485375,0.038225,0.0939125
1680009358839,1189347194421520,-0.0515625,0.044275,0.094875
1680009358842,1189347196923674,-0.0485375,0.0512875,0.0969375
1680009358845,1189347199425828,-0.0545875,0.061325,0.0979
1680009358846,1189347201928213,-0.053625,0.0702625,0.099
1680009358854,1189347204430352,-0.0515625,0.0763125,0.099
1680009358854,1189347206932505,-0.053625,0.0862125,0.0979
1680009358855,1189347209434659,-0.0526625,0.091299996,0.0999625
1680009358858,1189347211936813,-0.0515625,0.0972125,0.1018875
1680009358859,1189347214438967,-0.0545875,0.1023,0.0979
1680009358862,1189347216941198,-0.05555,0.1032625,0.0999625
1680009358864,1189347219443577,-0.0576125,0.1062875,0.1018875
1680009358867,1189347221945731,-0.0576125,0.10725,0.099
1680009358870,1189347224447885,-0.058575,0.105325,0.095975
1680009358872,1189347226949808,-0.0595375,0.104225,0.094875
1680009358874,1189347229452299,-0.064625,0.105325,0.094875
1680009358876,1189347231954452,-0.064625,0.1012,0.095975
1680009358879,1189347234456606,-0.064625,0.0972125,0.095975
1680009358882,1189347236958760,-0.06765,0.09625,0.0969375
1680009358885,1189347239460919,-0.0716375,0.093225,0.0969375
1680009358888,1189347241963073,-0.0716375,0.0873125,0.094875
1680009358891,1189347244465458,-0.0735625,0.0873125,0.095975
1680009358893,1189347246967611,-0.0765875,0.0812625,0.0979
1680009358894,1189347249469842,-0.07865,0.07425,0.0979
1680009358896,1189347251972006,-0.0836,0.0763125,0.0969375
1680009358899,1189347254474083,-0.086625,0.066275,0.0969375
1680009358902,1189347256976314,-0.0815375,0.0642125,0.0969375
1680009358904,1189347259478468,-0.0856625,0.060225,0.0939125
1680009358907,1189347261980837,-0.08855,0.0543125,0.094875
1680009358910,1189347264482991,-0.0906125,0.055275,0.095975
1680009358912,1189347266985145,-0.0955625,0.0562375,0.0979
1680009358916,1189347269487299,-0.0955625,0.049225,0.0969375
1680009358917,1189347271989530,-0.0966625,0.0462,0.094875
1680009358919,1189347274491606,-0.0966625,0.0462,0.0969375
1680009358922,1189347276993837,-0.09955,0.044275,0.099
1680009358927,1189347279496222,-0.1016125,0.0433125,0.0969375
1680009358931,1189347281998164,-0.1016125,0.039325,0.099
1680009358932,1189347284500549,-0.1056,0.039325,0.0969375
1680009358934,1189347287110164,-0.1076625,0.041249998,0.099
1680009358936,1189347289504856,-0.1076625,0.0433125,0.095975
1680009358938,1189347292007116,-0.108625,0.041249998,0.094875
1680009358939,1189347294509270,-0.11165,0.039325,0.0979
1680009358942,1189347297011424,-0.113575,0.0402875,0.0979
1680009358945,1189347299513578,-0.1175625,0.038225,0.0979
1680009358947,1189347302015731,-0.113575,0.038225,0.0979
1680009358949,1189347304517890,-0.1145375,0.0352,0.099
1680009358952,1189347307020275,-0.1145375,0.0372625,0.095975
1680009358954,1189347309522506,-0.1166,0.039325,0.0919875
1680009358957,1189347312024660,-0.1145375,0.041249998,0.0939125
1680009358960,1189347314526847,-0.1126125,0.044275,0.0919875
1680009358964,1189347317029001,-0.113575,0.0452375,0.0908875
1680009358966,1189347319531155,-0.1175625,0.0433125,0.089925
1680009358968,1189347322033309,-0.1175625,0.050325,0.0859375
1680009358971,1189347324535689,-0.1186625,0.0532125,0.084975
1680009358973,1189347327037842,-0.12265,0.050325,0.084975
1680009358975,1189347329539996,-0.1236125,0.0532125,0.0809875
1680009358977,1189347332042150,-0.1266375,0.060225,0.0779625
1680009358980,1189347334544381,-0.1315875,0.0572,0.0759
1680009358982,1189347337046549,-0.1315875,0.0583,0.0749375
1680009358985,1189347339548703,-0.1346125,0.060225,0.073975
1680009358987,1189347342051087,-0.1376375,0.06325,0.0749375
1680009358990,1189347344553241,-0.13859999,0.0672375,0.073975
1680009358992,1189347347055400,-0.1425875,0.0653125,0.0719125
1680009358994,1189347349557554,-0.14465,0.066275,0.0699875
1680009358998,1189347352059708,-0.1475375,0.0642125,0.07095
1680009359002,1189347354561861,-0.1496,0.0653125,0.0719125
1680009359003,1189347357064313,-0.1516625,0.06325,0.073975
1680009359006,1189347359566236,-0.1535875,0.0672375,0.07095
1680009359008,1189347362068621,-0.15853749,0.0672375,0.0669625
1680009359011,1189347364570775,-0.1615625,0.066275,0.064899996
1680009359013,1189347367072928,-0.163625,0.0642125,0.064899996
1680009359016,1189347369575097,-0.1645875,0.066275,0.062975
1680009359017,1189347372077328,-0.16665,0.0642125,0.061875
1680009359019,1189347374579482,-0.1706375,0.0642125,0.061875
1680009359023,1189347377081636,-0.1736625,0.0653125,0.0639375
1680009359025,1189347379583790,-0.17765,0.0653125,0.066
1680009359027,1189347382085952,-0.18053749,0.0622875,0.066
1680009359030,1189347384588337,-0.1846625,0.052249998,0.0639375
1680009359032,1189347387090491,-0.1865875,0.0433125,0.066
1680009359038,1189347389592727,-0.1896125,0.052249998,0.0688875
1680009359039,1189347392094881,-0.1936,0.0642125,0.07095
1680009359041,1189347394597034,-0.1945625,0.0682,0.073975
1680009359044,1189347397099188,-0.2006125,0.0682,0.072875
1680009359046,1189347399601342,-0.2055625,0.066275,0.0699875
1680009359047,1189347402103496,-0.21065,0.069299996,0.0719125
1680009359050,1189347404605867,-0.2165625,0.069299996,0.0699875
1680009359053,1189347407108020,-0.22055,0.0653125,0.066
1680009359055,1189347409610174,-0.22165,0.0702625,0.062975
1680009359057,1189347412112405,-0.22659999,0.069299996,0.061875
1680009359059,1189347414614559,-0.2305875,0.069299996,0.0609125
1680009359062,1189347417116713,-0.2286625,0.072325,0.055
1680009359064,1189347419618867,-0.2336125,0.07425,0.051975
1680009359068,1189347422121251,-0.2396625,0.083325,0.0449625
1680009359069,1189347424623405,-0.24255,0.0862125,0.039875
1680009359072,1189347427125554,-0.25465,0.0903375,0.033
1680009359076,1189347429627708,-0.26565,0.0952875,0.029975
1680009359078,1189347432129862,-0.2706,0.1032625,0.0248875
1680009359079,1189347434632092,-0.2795375,0.1142625,0.0209
1680009359082,1189347437134251,-0.28765,0.126225,0.012925
1680009359085,1189347439636405,-0.2996125,0.12925,0.0099
1680009359087,1189347442138790,-0.3075875,0.138325,0.0119624995
1680009359089,1189347444640713,-0.31955,0.1502875,0.007975
1680009359092,1189347447143081,-0.33261248,0.1632125,0.00495
1680009359094,1189347449645235,-0.34155,0.1742125,9.625E-4
1680009359097,1189347452147389,-0.350625,0.1863125,0.0039875
1680009359099,1189347454649620,-0.3675375,0.18727499,9.625E-4
1680009359102,1189347457151779,-0.37661248,0.193325,-0.003025
1680009359104,1189347459653933,-0.3876125,0.2162875,-0.003025
1680009359107,1189347462156087,-0.4005375,0.2352625,-0.00605
1680009359109,1189347464658240,-0.40865,0.2512125,-0.0081124995
1680009359115,1189347467160380,-0.41854998,0.2633125,-0.0081124995
1680009359121,1189347469662842,-0.4285875,0.275275,-0.009075
1680009359122,1189347472164996,-0.443575,0.2853125,-0.009075
1680009359122,1189347474667149,-0.4566375,0.29425,-0.009075
1680009359122,1189347477169303,-0.4725875,0.3092375,-0.009075
1680009359125,1189347479671452,-0.4866125,0.3183125,-0.009075
1680009359127,1189347482173606,-0.498575,0.3262875,-0.0100375
1680009359129,1189347484675991,-0.5116375,0.3372875,-0.0081124995
1680009359133,1189347487178144,-0.526625,0.346225,-0.0100375
1680009359135,1189347489680298,-0.53955,0.34925,-0.009075
1680009359137,1189347492182447,-0.548625,0.3612125,-0.0070125
1680009359140,1189347494684601,-0.5566,0.3642375,-0.004125
1680009359142,1189347497186832,-0.5685625,0.3653375,-0.003025
1680009359144,1189347499688986,-0.57365,0.37125,-0.0
1680009359147,1189347502191365,-0.5825875,0.3702875,0.0028875
1680009359153,1189347504693519,-0.58959997,0.37125,0.00495
1680009359155,1189347507195673,-0.5985375,0.3733125,0.00495
1680009359156,1189347509697827,-0.603625,0.3763375,0.006875
1680009359158,1189347512199957,-0.608575,0.3763375,0.006875
1680009359159,1189347514702111,-0.61654997,0.3752375,0.0059125
1680009359162,1189347517204341,-0.6216375,0.3782625,0.001925
1680009359165,1189347519706726,-0.6265875,0.3752375,0.0028875
1680009359167,1189347522208649,-0.6326375,0.3702875,9.625E-4
1680009359169,1189347524711029,-0.6375875,0.37125,9.625E-4
1680009359172,1189347527213183,-0.6425375,0.3722125,-0.0011
1680009359174,1189347529715336,-0.64955,0.3733125,-0.0050875
1680009359177,1189347532217490,-0.6556,0.3702875,-0.00605
1680009359179,1189347534719634,-0.66165,0.3672625,-0.0070125
1680009359184,1189347537221865,-0.6666,0.369325,-0.003025
1680009359185,1189347539724019,-0.6686625,0.3642375,-0.004125
1680009359189,1189347542226173,-0.67265,0.358325,-0.0020625
1680009359191,1189347544728543,-0.67265,0.346225,9.625E-4
1680009359193,1189347547230697,-0.67155,0.33825,-0.0
1680009359194,1189347549732851,-0.67265,0.3293125,0.0028875
1680009359197,1189347552235005,-0.6766375,0.3183125,0.0059125
1680009359199,1189347554737159,-0.6815875,0.2963125,0.007975
1680009359202,1189347557239317,-0.685575,0.2712875,0.0099
1680009359205,1189347559741548,-0.6925875,0.26427498,0.0119624995
1680009359207,1189347562243702,-0.7035875,0.253275,0.0119624995
1680009359209,1189347564745856,-0.7106,0.2382875,0.0119624995
1680009359212,1189347567248250,-0.72655,0.214225,0.012925
1680009359215,1189347569750173,-0.7426375,0.18727499,0.0149875
1680009359218,1189347572252557,-0.7536375,0.1643125,0.022
1680009359220,1189347574754711,-0.7676625,0.1412125,0.0229625
1680009359222,1189347577256923,-0.7756375,0.11825,0.0259875
1680009359227,1189347579759077,-0.7855375,0.104225,0.0358875
1680009359229,1189347582261231,-0.79461247,0.09625,0.040975
1680009359232,1189347584763379,-0.801625,0.08525,0.0479875
1680009359235,1189347587333533,-0.8096,0.0842875,0.0539
1680009359236,1189347589767687,-0.8166125,0.083325,0.062975
1680009359238,1189347592270072,-0.8226625,0.0812625,0.0688875
1680009359240,1189347594772303,-0.8276125,0.0803,0.073975
1680009359243,1189347597274471,-0.8325625,0.07425,0.084975
1680009359245,1189347599776625,-0.8325625,0.0803,0.088
1680009359247,1189347602278779,-0.8355875,0.08525,0.09295
1680009359251,1189347604780933,-0.83765,0.088275,0.099
1680009359253,1189347607283303,-0.83765,0.09625,0.106975
1680009359255,1189347609785456,-0.83655,0.09625,0.111925
1680009359257,1189347612287610,-0.839575,0.1023,0.111925
1680009359260,1189347614789764,-0.8386125,0.111237496,0.116875
1680009359264,1189347617291918,-0.83765,0.116325,0.1219625
1680009359266,1189347619794072,-0.83765,0.11825,0.121
1680009359269,1189347622296226,-0.83765,0.1233375,0.1249875
1680009359270,1189347624798687,-0.8336625,0.1302125,0.122925
1680009359272,1189347627300610,-0.82362497,0.138325,0.1199
1680009359274,1189347629802976,-0.8185375,0.143275,0.1199
1680009359277,1189347632305130,-0.8135875,0.1522125,0.1139875
1680009359279,1189347634807284,-0.80355,0.1552375,0.1109625
1680009359282,1189347637309437,-0.7986,0.1573,0.105875
1680009359286,1189347639811682,-0.7896625,0.1643125,0.0999625
1680009359287,1189347642313836,-0.7805875,0.1692625,0.095975
1680009359290,1189347644816221,-0.7726125,0.171325,0.0908875
1680009359292,1189347647318144,-0.7665625,0.17325,0.0919875
1680009359295,1189347649820298,-0.7585875,0.182325,0.0889625
1680009359297,1189347652322682,-0.7506125,0.1832875,0.08195
1680009359303,1189347654824836,-0.7426375,0.18727499,0.0829125
1680009359304,1189347657327067,-0.73562497,0.18933749,0.077
1680009359306,1189347659829221,-0.72765,0.18933749,0.0759
1680009359307,1189347662331366,-0.7225625,0.1882375,0.0798875
1680009359310,1189347664833519,-0.7206375,0.1863125,0.0798875
1680009359313,1189347667335673,-0.713625,0.18727499,0.0759
1680009359316,1189347669837827,-0.7096375,0.18425,0.078925
1680009359321,1189347672340202,-0.70661247,0.1793,0.08195
1680009359322,1189347674842356,-0.7035875,0.1772375,0.0779625
1680009359323,1189347677344509,-0.6996,0.1722875,0.0779625
1680009359328,1189347679846663,-0.69465,0.1722875,0.078925
1680009359329,1189347682348899,-0.6895625,0.1683,0.0779625
1680009359331,1189347684850976,-0.6846125,0.1643125,0.078925
1680009359333,1189347687353438,-0.680625,0.1573,0.0759
1680009359335,1189347689855591,-0.6796625,0.159225,0.072875
1680009359339,1189347692357745,-0.674575,0.1573,0.0759
1680009359341,1189347694859918,-0.67265,0.160325,0.073975
1680009359343,1189347697362072,-0.6736125,0.160325,0.073975
1680009359344,1189347699864226,-0.67265,0.1662375,0.072875
1680009359347,1189347702366457,-0.669625,0.170225,0.0749375
1680009359351,1189347704868629,-0.6645375,0.176275,0.073975
1680009359353,1189347707370783,-0.658625,0.18727499,0.0688875
1680009359355,1189347709873168,-0.6535375,0.1992375,0.0669625
1680009359357,1189347712375091,-0.65065,0.2132625,0.0688875
1680009359361,1189347714877245,-0.63965,0.220275,0.066
1680009359362,1189347717379649,-0.6326375,0.23127499,0.0639375
1680009359365,1189347719881880,-0.62755,0.242275,0.0609125
1680009359367,1189347722384034,-0.6216375,0.247225,0.055
1680009359371,1189347724886192,-0.6136625,0.2512125,0.0529375
1680009359373,1189347727388346,-0.6045875,0.2602875,0.0468875
1680009359377,1189347729890500,-0.59455,0.26221249,0.0449625
1680009359378,1189347732392654,-0.5886375,0.26125,0.0449625
1680009359380,1189347734894807,-0.5746125,0.2563,0.0389125
1680009359382,1189347737397178,-0.5655375,0.2572625,0.03795
1680009359385,1189347739899409,-0.553575,0.2542375,0.0369875
1680009359387,1189347742401486,-0.5385875,0.2453,0.0319
1680009359392,1189347744903711,-0.5226375,0.236225,0.033
1680009359393,1189347747405865,-0.5086125,0.2292125,0.029975
1680009359395,1189347749908019,-0.4945875,0.2182125,0.0248875
1680009359397,1189347752410404,-0.4796,0.20927499,0.0229625
1680009359403,1189347754912577,-0.4695625,0.198275,0.0209
1680009359404,1189347757414731,-0.45265,0.18727499,0.022
1680009359406,1189347759916884,-0.4376625,0.1722875,0.0209
1680009359407,1189347762419038,-0.4246,0.1552375,0.0229625
1680009359416,1189347764921187,-0.4096125,0.1392875,0.023924999
1680009359417,1189347767423341,-0.4005375,0.1233375,0.0199375
1680009359418,1189347769925802,-0.38953748,0.111237496,0.0248875
1680009359419,1189347772427726,-0.3815625,0.0873125,0.023924999
1680009359421,1189347774930110,-0.37565,0.0683375,0.0259875
1680009359423,1189347777432264,-0.366575,0.0532125,0.0279125
1680009359425,1189347779934423,-0.3606625,0.0342375,0.028875
1680009359428,1189347782436577,-0.3565375,0.0122375,0.028875
1680009359432,1189347784938808,-0.35365,-0.0037125,0.0319
1680009359433,1189347787440961,-0.350625,-0.016775,0.0339625
1680009359435,1189347789943115,-0.3485625,-0.0306625,0.03795
1680009359438,1189347792445284,-0.3485625,-0.0446875,0.0429
1680009359441,1189347794947438,-0.34265,-0.0617375,0.0479875
1680009359442,1189347797449823,-0.3386625,-0.0746625,0.0499125
1680009359447,1189347799951972,-0.3366,-0.07975,0.0499125
1680009359448,1189347802454126,-0.333575,-0.0917125,0.0559625
1680009359453,1189347804956357,-0.3295875,-0.0996875,0.0539
1680009359455,1189347807458511,-0.322575,-0.10175,0.0529375
1680009359456,1189347809960665,-0.322575,-0.1076625,0.051975
1680009359458,1189347812462809,-0.3185875,-0.1076625,0.0499125
1680009359460,1189347814964962,-0.3185875,-0.1067,0.0479875
1680009359463,1189347817467347,-0.3155625,-0.10175,0.04895
1680009359465,1189347819969501,-0.3075875,-0.0897875,0.045925
1680009359468,1189347822471650,-0.3026375,-0.0837375,0.044
1680009359471,1189347824973804,-0.2965875,-0.07975,0.0419375
1680009359473,1189347827475957,-0.2916375,-0.071775,0.0419375
1680009359475,1189347829978188,-0.2795375,-0.0517,0.040975
1680009359478,1189347832480352,-0.27555,-0.026675,0.0389125
1680009359482,1189347834982506,-0.2685375,-0.0097624995,0.03795
1680009359483,1189347837484891,-0.2556125,0.0033,0.0369875
1680009359486,1189347839987044,-0.24365,0.0182875,0.0309375
1680009359489,1189347842489207,-0.234575,0.03025,0.029975
1680009359492,1189347844991438,-0.2195875,0.0473,0.0279125
1680009359493,1189347847493592,-0.21065,0.0583,0.0259875
1680009359496,1189347849995746,-0.2006125,0.069299996,0.022
1680009359497,1189347852497900,-0.190575,0.0793375,0.0209
1680009359502,1189347855000068,-0.17655,0.0903375,0.0149875
1680009359503,1189347857502222,-0.1606,0.100237496,0.011
1680009359505,1189347860004607,-0.1505625,0.1032625,0.0099
1680009359507,1189347862506761,-0.13653749,0.10725,0.0059125
1680009359511,1189347865008900,-0.12155,0.10725,0.0028875
1680009359513,1189347867511130,-0.108625,0.1123375,-0.0020625
1680009359515,1189347870013284,-0.0955625,0.1123375,-0.0050875
1680009359519,1189347872515438,-0.086625,0.1123375,-0.00605
1680009359521,1189347875017833,-0.0726,0.110275,-0.0100375
1680009359523,1189347877519987,-0.0595375,0.1062875,-0.0121
1680009359527,1189347880022140,-0.053625,0.099275,-0.011
1680009359529,1189347882524294,-0.045649998,0.0952875,-0.0081124995
1680009359532,1189347885026443,-0.034649998,0.088275,-0.0081124995
1680009359535,1189347887528597,-0.02365,0.0763125,-0.011
1680009359537,1189347890030828,-0.013612499,0.0622875,-0.0100375
1680009359537,1189347892532982,-0.0066,0.0512875,-0.00605
1680009359541,1189347895035140,0.0034375,0.0363,-0.003025
1680009359543,1189347897537525,0.012375,0.0213125,-0.004125
1680009359545,1189347900039448,0.0193875,2.75E-4,-0.003025
1680009359547,1189347902541833,0.0284625,-0.0196625,-0.003025
1680009359551,1189347905043987,0.034375,-0.0367125,-0.0020625
1680009359552,1189347907546217,0.0374,-0.0627,-0.003025
1680009359555,1189347910048371,0.04235,-0.0787875,-0.00605
1680009359558,1189347912550525,0.045375,-0.093775,-0.004125
1680009359561,1189347915052688,0.0484,-0.1117875,-0.00605
1680009359566,1189347917554842,0.0554125,-0.126775,-0.004125
1680009359567,1189347920056996,0.0584375,-0.131725,-0.0
1680009359569,1189347922559380,0.0614625,-0.1447875,-0.0
1680009359571,1189347925061534,0.0664125,-0.148775,0.001925
1680009359573,1189347927563765,0.068475,-0.1527625,0.0059125
1680009359575,1189347930065842,0.073425,-0.158675,0.0039875
1680009359577,1189347932568073,0.079475,-0.1546875,0.007975
1680009359581,1189347935070226,0.0834625,-0.1507,0.007975
1680009359583,1189347937572395,0.08635,-0.142725,0.006875
1680009359585,1189347940074780,0.0924,-0.1357125,0.006875
1680009359587,1189347942576934,0.095425,-0.131725,0.007975
1680009359592,1189347945079088,0.100375,-0.1216875,0.006875
1680009359593,1189347947581242,0.106425,-0.1137125,0.0089375
1680009359595,1189347950083395,0.1073875,-0.1076625,0.00495
1680009359598,1189347952585549,0.112475,-0.093775,9.625E-4
1680009359603,1189347955087995,0.11935,-0.0837375,-0.0050875
1680009359604,1189347957589918,0.1214125,-0.071775,-0.00605
1680009359607,1189347960092072,0.1254,-0.059675,-0.0081124995
1680009359608,1189347962594456,0.134475,-0.048675,-0.0121
1680009359613,1189347965096610,0.14245,-0.03575,-0.0210375
1680009359613,1189347967598764,0.1513875,-0.02475,-0.0210375
1680009359615,1189347970100918,0.1584,-0.0127875,-0.026124999
1680009359619,1189347972603149,0.167475,-0.0077,-0.02805
1680009359622,1189347975105302,0.17545,0.0012375,-0.033
1680009359623,1189347977607456,0.177375,0.011275,-0.0380875
1680009359625,1189347980109610,0.18645,0.017324999,-0.0411125
1680009359628,1189347982611764,0.1934625,0.0243375,-0.0451
1680009359631,1189347985113918,0.1953875,0.0342375,-0.048125
1680009359633,1189347987616303,0.199375,0.0353375,-0.0521125
1680009359635,1189347990118533,0.2033625,0.033275,-0.055
1680009359639,1189347992620687,0.20735,0.0363,-0.059125
1680009359641,1189347995122841,0.210375,0.033275,-0.058025
1680009359643,1189347997624995,0.2124375,0.0312125,-0.0570625
1680009359646,1189348000127154,0.2134,0.028324999,-0.055
1680009359647,1189348002629538,0.2124375,0.0232375,-0.053075
1680009359652,1189348005131692,0.2124375,0.016224999,-0.0510125
1680009359653,1189348007633846,0.216425,0.015262499,-0.048125
1680009359655,1189348010135986,0.2124375,0.0072875,-0.044
1680009359658,1189348012638217,0.2124375,-0.0017875,-0.0411125
1680009359661,1189348015140294,0.2124375,-0.0067375,-0.0380875
1680009359663,1189348017642524,0.2063875,-0.0127875,-0.033
1680009359665,1189348020144899,0.2044625,-0.0187,-0.0240625
1680009359668,1189348022647053,0.2033625,-0.0237875,-0.022
1680009359671,1189348025149207,0.20047499,-0.02475,-0.0210375
1680009359672,1189348027651361,0.20047499,-0.0297,-0.0180125
1680009359677,1189348030153514,0.2014375,-0.0317625,-0.011
1680009359679,1189348032655668,0.2044625,-0.03575,-0.00605
1680009359682,1189348035157899,0.2044625,-0.037675,-0.0020625
1680009359683,1189348037660053,0.2044625,-0.0407,9.625E-4
1680009359686,1189348040162207,0.2063875,-0.043725,0.007975
1680009359687,1189348042664337,0.2033625,-0.0446875,0.0119624995
1680009359691,1189348045166490,0.20047499,-0.04675,0.0138875
1680009359692,1189348047668875,0.1953875,-0.0477125,0.0169125
1680009359695,1189348050171029,0.1904375,-0.0457875,0.01595
1680009359701,1189348052673159,0.1874125,-0.04675,0.0169125
1680009359702,1189348055175390,0.18535,-0.04675,0.018975
1680009359703,1189348057677543,0.18645,-0.048675,0.022
1680009359705,1189348060179697,0.183425,-0.049775,0.0229625
1680009359707,1189348062681851,0.1824625,-0.0507375,0.0209
1680009359711,1189348065183986,0.177375,-0.048675,0.0169125
1680009359714,1189348067686371,0.1733875,-0.0537625,0.018975
1680009359716,1189348070188601,0.1703625,-0.0526625,0.018975
1680009359719,1189348072690678,0.1684375,-0.0477125,0.0169125
1680009359721,1189348075192822,0.1623875,-0.0507375,0.0169125
1680009359723,1189348077695053,0.1593625,-0.0507375,0.0169125
1680009359726,1189348080197207,0.1584,-0.0517,0.018975
1680009359728,1189348082699591,0.1584,-0.0537625,0.018975
1680009359731,1189348085201759,0.1604625,-0.048675,0.018975
1680009359733,1189348087703913,0.1574375,-0.04675,0.018975
1680009359735,1189348090206067,0.150425,-0.0446875,0.01595
1680009359739,1189348092708221,0.145475,-0.043725,0.0199375
1680009359743,1189348095210375,0.14245,-0.0416625,0.0199375
1680009359744,1189348097712528,0.1373625,-0.038775,0.0209
1680009359744,1189348100214759,0.134475,-0.0347875,0.01595
1680009359747,1189348102716913,0.1293875,-0.0297,0.01595
1680009359753,1189348105219293,0.1254,-0.0287375,0.012925
1680009359754,1189348107721447,0.122375,-0.027775,0.0138875
1680009359756,1189348110223370,0.1164625,-0.026675,0.01595
1680009359758,1189348112725754,0.112475,-0.0207625,0.0138875
1680009359761,1189348115227985,0.113437496,-0.0187,0.0099
1680009359762,1189348117730130,0.1104125,-0.0177375,0.011
1680009359766,1189348120232284,0.106425,-0.016775,0.0119624995
1680009359769,1189348122734438,0.09845,-0.014712499,0.011
1680009359771,1189348125236591,0.0933625,-0.015675,0.0138875
1680009359773,1189348127738976,0.090475,-0.0116875,0.01595
1680009359777,1189348130240899,0.084425,-0.0086624995,0.018975
1680009359778,1189348132743284,0.079475,-0.005775,0.018975
1680009359781,1189348135245515,0.073425,2.75E-4,0.0229625
1680009359783,1189348137747592,0.0664125,2.75E-4,0.023924999
1680009359786,1189348140249750,0.0594,0.0023375,0.02695
1680009359789,1189348142751981,0.057475,0.0042625,0.0309375
1680009359791,1189348145254366,0.051425,0.006325,0.0339625
1680009359796,1189348147756500,0.0474375,0.006325,0.0358875
1680009359796,1189348150258653,0.046475,0.00825,0.0358875
1680009359797,1189348152760807,0.040425,0.015262499,0.039875
1680009359802,1189348155262961,0.0364375,0.01925,0.0429
1680009359803,1189348157765192,0.0383625,0.0213125,0.0419375
1680009359806,1189348160267346,0.0364375,0.0323125,0.0429
1680009359808,1189348162769500,0.034375,0.0342375,0.0449625
1680009359811,1189348165271653,0.034375,0.0323125,0.0468875
1680009359813,1189348167773807,0.0303875,0.0342375,0.0479875
1680009359815,1189348170275961,0.0284625,0.0402875,0.04895
1680009359821,1189348172778091,0.0284625,0.038225,0.04895
1680009359822,1189348175280553,0.0254375,0.0433125,0.04895
1680009359823,1189348177782630,0.0224125,0.0473,0.0499125
1680009359829,1189348180284875,0.018424999,0.049225,0.0479875
1680009359830,1189348182787029,0.02145,0.0463375,0.0468875
1680009359832,1189348185289183,0.0174625,0.0402875,0.044
1680009359835,1189348187791337,0.012375,0.0463375,0.044
1680009359836,1189348190293721,0.012375,0.0433125,0.0479875
1680009359838,1189348192795875,0.01045,0.041249998,0.0468875
1680009359841,1189348195298009,0.007425,0.0342375,0.0468875
1680009359843,1189348197800163,0.01045,0.0323125,0.0479875
1680009359848,1189348200302317,0.01045,0.033275,0.04895
1680009359848,1189348202804548,0.01045,0.028324999,0.0499125
1680009359852,1189348205306942,0.0083875,0.0243375,0.04895
1680009359853,1189348207808865,0.0083875,0.022275,0.0479875
1680009359855,1189348210311250,0.0083875,0.0202125,0.051975
1680009359859,1189348212813404,0.0114124995,0.0202125,0.051975
1680009359861,1189348215315563,0.012375,0.0133375,0.051975
1680009359866,1189348217817717,0.012375,0.0103124995,0.0499125
1680009359866,1189348220319870,0.013475,0.0122375,0.0479875
1680009359869,1189348222822101,0.013475,0.0103124995,0.051975
1680009359872,1189348225324260,0.018424999,0.0033,0.0529375
1680009359873,1189348227826414,0.0174625,2.75E-4,0.0479875
1680009359875,1189348230328568,0.0144375,2.75E-4,0.0539
1680009359880,1189348232830952,0.0154,-0.0017875,0.0559625
1680009359882,1189348235332889,0.013475,-0.0067375,0.051975
1680009359883,1189348237835351,0.0154,-0.0077,0.051975
1680009359886,1189348240337505,0.0144375,-0.0086624995,0.055
1680009359888,1189348242839659,0.0154,-0.0086624995,0.0529375
1680009359891,1189348245341813,0.018424999,-0.0116875,0.051975
1680009359893,1189348247843966,0.018424999,-0.0116875,0.0539
1680009359895,1189348250346120,0.018424999,-0.0127875,0.055
1680009359899,1189348252848274,0.018424999,-0.0097624995,0.0559625
1680009359903,1189348255350664,0.0193875,-0.0097624995,0.055
1680009359905,1189348257852818,0.02035,-0.005775,0.0578875
1680009359906,1189348260355048,0.0193875,-0.004675,0.0559625
1680009359909,1189348262857125,0.02145,0.0012375,0.055
1680009359911,1189348265359279,0.023375,0.0072875,0.055
1680009359913,1189348267861500,0.024475,0.011275,0.055
1680009359919,1189348270363885,0.023375,0.0143,0.055
1680009359920,1189348272866038,0.024475,0.0202125,0.0559625
1680009359922,1189348275368192,0.0254375,0.0213125,0.0529375
1680009359923,1189348277870346,0.0273625,0.0312125,0.0468875
1680009359926,1189348280372476,0.0303875,0.0353375,0.0479875
1680009359928,1189348282874630,0.029424999,0.038225,0.0468875
1680009359932,1189348285376784,0.029424999,0.0363,0.0468875
1680009359933,1189348287879038,0.0334125,0.044275,0.044
1680009359936,1189348290381423,0.03135,0.050325,0.040975
1680009359939,1189348292883346,0.035475,0.049225,0.03795
1680009359942,1189348295385731,0.0334125,0.0512875,0.0389125
1680009359943,1189348297887905,0.03135,0.0562375,0.0339625
1680009359945,1189348300390058,0.034375,0.055275,0.0309375
1680009359947,1189348302892289,0.034375,0.0512875,0.033
1680009359952,1189348305394443,0.0383625,0.052249998,0.0319
1680009359953,1189348307896597,0.0394625,0.049225,0.029975
1680009359956,1189348310398742,0.0413875,0.050325,0.02695
1680009359958,1189348312900896,0.043449998,0.049225,0.02695
1680009359962,1189348315403049,0.040425,0.044275,0.0309375
1680009359963,1189348317905511,0.040425,0.0353375,0.02695
1680009359966,1189348320407588,0.043449998,0.03025,0.02695
1680009359969,1189348322909742,0.0444125,0.0253,0.0279125
1680009359971,1189348325411973,0.0444125,0.017324999,0.028875
1680009359973,1189348327914126,0.046475,0.0133375,0.028875
1680009359977,1189348330416299,0.051425,2.75E-4,0.0279125
1680009359979,1189348332918453,0.051425,-0.005775,0.029975
1680009359983,1189348335420838,0.045375,-0.015675,0.0319
1680009359987,1189348337922992,0.05335,-0.0237875,0.0339625
1680009359988,1189348340425145,0.051425,-0.027775,0.0369875
1680009359991,1189348342927308,0.0504625,-0.0347875,0.0358875
1680009359993,1189348345429462,0.0523875,-0.0427625,0.0369875
1680009359994,1189348347931693,0.0523875,-0.04675,0.040975
1680009359996,1189348350433847,0.05335,-0.0457875,0.039875
1680009359998,1189348352936222,0.054449998,-0.0477125,0.0429
1680009360003,1189348355438376,0.054449998,-0.048675,0.044
1680009360005,1189348357940530,0.0554125,-0.048675,0.0429
1680009360006,1189348360442684,0.0594,-0.048675,0.0429
1680009360007,1189348362944852,0.0603625,-0.04675,0.0429
1680009360011,1189348365447006,0.0603625,-0.0457875,0.044
1680009360015,1189348367949236,0.0603625,-0.0446875,0.039875
1680009360016,1189348370451390,0.0603625,-0.03575,0.040975
1680009360018,1189348372953529,0.057475,-0.0317625,0.0419375
1680009360021,1189348375455914,0.057475,-0.027775,0.040975
1680009360023,1189348377957837,0.05335,-0.027775,0.0389125
1680009360026,1189348380460221,0.051425,-0.0237875,0.039875
1680009360028,1189348382962452,0.0484,-0.0187,0.0369875
1680009360032,1189348385464606,0.046475,-0.015675,0.040975
1680009360033,1189348387966760,0.0474375,-0.0067375,0.044
1680009360035,1189348390468914,0.046475,-0.0017875,0.040975
1680009360038,1189348392971068,0.0504625,0.0042625,0.0429
1680009360041,1189348395473237,0.054449998,0.0103124995,0.044
1680009360043,1189348397975621,0.0584375,0.017324999,0.045925
1680009360046,1189348400477775,0.0603625,0.0253,0.0499125
1680009360048,1189348402979929,0.062425,0.0323125,0.0499125
1680009360053,1189348405482155,0.0694375,0.0342375,0.0499125
1680009360054,1189348407984232,0.0743875,0.0372625,0.055
1680009360056,1189348410486385,0.079475,0.0452375,0.0539
1680009360058,1189348412988616,0.0814,0.049225,0.055
1680009360061,1189348415490765,0.0804375,0.052249998,0.051975
1680009360063,1189348417993150,0.0853875,0.055275,0.04895
1680009360066,1189348420495303,0.08635,0.0532125,0.04895
1680009360068,1189348422997457,0.0853875,0.049225,0.0468875
1680009360071,1189348425499602,0.08745,0.0482625,0.045925
1680009360072,1189348428001756,0.089375,0.044275,0.045925
1680009360075,1189348430503987,0.090475,0.0402875,0.045925
1680009360078,1189348433006371,0.091437496,0.0372625,0.0468875
1680009360081,1189348435508290,0.095425,0.0323125,0.0479875
1680009360083,1189348438010443,0.09845,0.0292875,0.0499125
1680009360086,1189348440512828,0.100375,0.0213125,0.04895
1680009360091,1189348443014982,0.1043625,0.0143,0.051975
1680009360093,1189348445517227,0.10835,0.0133375,0.0529375
1680009360094,1189348448019380,0.113437496,0.0023375,0.0589875
1680009360096,1189348450521457,0.113437496,-0.0067375,0.0609125
1680009360098,1189348453023688,0.12045,-0.0086624995,0.061875
1680009360101,1189348455525842,0.123475,-0.016775,0.062975
1680009360103,1189348458028222,0.1263625,-0.021724999,0.066
1680009360105,1189348460530376,0.133375,-0.026675,0.0669625
1680009360108,1189348463032529,0.1354375,-0.032725,0.0688875
1680009360111,1189348465534683,0.139425,-0.0407,0.072875
1680009360113,1189348468036889,0.1464375,-0.048675,0.0779625
1680009360115,1189348470538966,0.1494625,-0.060775,0.0779625
1680009360120,1189348473041197,0.15235,-0.0647625,0.0779625
1680009360124,1189348475543581,0.15345,-0.0757625,0.078925
1680009360125,1189348478045519,0.1584,-0.082775,0.0798875
1680009360128,1189348480547904,0.1574375,-0.092675,0.0809875
1680009360130,1189348483050058,0.1574375,-0.1027125,0.0829125
1680009360133,1189348485552231,0.156475,-0.104775,0.0809875
1680009360136,1189348488135077,0.1544125,-0.1027125,0.086899996
1680009360138,1189348490556615,0.1494625,-0.1067,0.086899996
1680009360139,1189348493058769,0.1464375,-0.1137125,0.086899996
1680009360141,1189348495560923,0.145475,-0.1087625,0.0889625
1680009360143,1189348498063077,0.14135,-0.109725,0.0889625
1680009360145,1189348500565207,0.1403875,-0.1117875,0.0908875
1680009360148,1189348503067591,0.1354375,-0.1087625,0.0939125
1680009360152,1189348505569822,0.128425,-0.1076625,0.094875
1680009360153,1189348508071976,0.1274625,-0.1067,0.0969375
1680009360155,1189348510574159,0.12045,-0.103675,0.095975
1680009360158,1189348513076313,0.117425,-0.1087625,0.0939125
1680009360161,1189348515578467,0.1144,-0.1067,0.09295
1680009360164,1189348518080624,0.106425,-0.1076625,0.0919875
1680009360167,1189348520583009,0.100375,-0.10175,0.0889625
1680009360170,1189348523085163,0.090475,-0.1027125,0.0829125
1680009360173,1189348525587317,0.0853875,-0.1027125,0.0809875
1680009360174,1189348528089471,0.07645,-0.0917125,0.0759
1680009360176,1189348530591610,0.068475,-0.082775,0.072875
1680009360178,1189348533093841,0.0664125,-0.076725,0.0688875
1680009360181,1189348535595918,0.057475,-0.0666875,0.062975
1680009360183,1189348538098149,0.05335,-0.059675,0.0578875
1680009360186,1189348540600534,0.0484,-0.04675,0.0539
1680009360188,1189348543102687,0.043449998,-0.03575,0.0468875
1680009360191,1189348545604841,0.04235,-0.0237875,0.0429
1680009360194,1189348548106995,0.0364375,-0.01375,0.033
1680009360195,1189348550609149,0.029424999,-0.00275,0.02695
1680009360200,1189348553111394,0.0264,0.0122375,0.0209
1680009360203,1189348555613548,0.0284625,0.0253,0.0149875
1680009360205,1189348558115701,0.0264,0.0402875,0.007975
1680009360207,1189348560617841,0.024475,0.0482625,0.00495
1680009360210,1189348563120226,0.023375,0.061325,-0.0020625
1680009360212,1189348565622149,0.0303875,0.069299996,-0.0081124995
1680009360213,1189348568124534,0.0303875,0.0763125,-0.011
1680009360215,1189348570626764,0.0303875,0.082225,-0.0191125
1680009360220,1189348573128933,0.0364375,0.088275,-0.025024999
1680009360222,1189348575631087,0.0374,0.088275,-0.0320375
1680009360223,1189348578133241,0.0394625,0.0842875,-0.0341
1680009360226,1189348580635395,0.0413875,0.0803,-0.044
1680009360228,1189348583137548,0.0413875,0.0803,-0.053075
1680009360231,1189348585639932,0.0444125,0.072325,-0.0631125
1680009360235,1189348588142086,0.0484,0.0622875,-0.0680625
1680009360236,1189348590644240,0.051425,0.052249998,-0.0730125
1680009360239,1189348593146394,0.057475,0.0402875,-0.077
1680009360242,1189348595648548,0.0664125,0.03025,-0.078099996
1680009360244,1189348598150778,0.0633875,0.0182875,-0.078099996
1680009360246,1189348600652932,0.068475,0.005225,-0.077
1680009360248,1189348603155317,0.07645,-0.004675,-0.0710875
1680009360251,1189348605657471,0.0774125,-0.015675,-0.0680625
1680009360253,1189348608159625,0.0804375,-0.0287375,-0.0600875
1680009360255,1189348610661778,0.0884125,-0.0367125,-0.050049998
1680009360258,1189348613163932,0.0924,-0.0477125,-0.042075
1680009360261,1189348615666086,0.095425,-0.05775,-0.036025
1680009360263,1189348618168317,0.100375,-0.0636625,-0.0240625
1680009360266,1189348620670471,0.1043625,-0.071775,-0.0160875
1680009360269,1189348623172625,0.1073875,-0.0787875,-0.0070125
1680009360271,1189348625674775,0.112475,-0.0847,-0.0
1680009360273,1189348628177159,0.1183875,-0.0867625,0.007975
1680009360277,1189348630679313,0.122375,-0.0917125,0.0138875
1680009360279,1189348633181544,0.1254,-0.092675,0.022
1680009360282,1189348635683718,0.1293875,-0.098725,0.0248875
1680009360283,1189348638185871,0.133375,-0.0977625,0.0319
1680009360287,1189348640688025,0.1354375,-0.0917125,0.0419375
1680009360288,1189348643190179,0.1373625,-0.0897875,0.051975
1680009360291,1189348645692342,0.1403875,-0.0837375,0.0578875
1680009360293,1189348648194496,0.1403875,-0.076725,0.066
1680009360295,1189348650696880,0.1373625,-0.071775,0.077
1680009360298,1189348653199034,0.1354375,-0.0697125,0.0829125
1680009360303,1189348655701275,0.134475,-0.0617375,0.089925
1680009360303,1189348658203429,0.1354375,-0.0507375,0.094875
1680009360306,1189348660705506,0.13035,-0.0416625,0.0999625
1680009360310,1189348663207737,0.1263625,-0.0306625,0.1079375
1680009360311,1189348665710121,0.1254,-0.0207625,0.108899996
1680009360316,1189348668212275,0.123475,-0.01375,0.11
1680009360318,1189348670714429,0.122375,-0.0067375,0.1128875
1680009360320,1189348673216583,0.122375,0.0042625,0.1139875
1680009360323,1189348675718703,0.11935,0.011275,0.1199
1680009360325,1189348678220933,0.1214125,0.0143,0.122925
1680009360330,1189348680723010,0.124437496,0.0202125,0.1199
1680009360331,1189348683225472,0.1254,0.0253,0.1199
1680009360333,1189348685727641,0.1263625,0.0312125,0.1189375
1680009360335,1189348688238102,0.1274625,0.0402875,0.1189375
1680009360336,1189348690731949,0.1263625,0.038225,0.1189375
1680009360339,1189348693234102,0.128425,0.039325,0.116875
1680009360341,1189348695736256,0.1274625,0.039325,0.1189375
1680009360343,1189348698238482,0.1293875,0.039325,0.1189375
1680009360346,1189348700740636,0.1293875,0.039325,0.1159125
1680009360348,1189348703242790,0.128425,0.0363,0.116875
1680009360353,1189348705744944,0.13145,0.0353375,0.1199
1680009360355,1189348708247092,0.1364,0.0363,0.1199
1680009360356,1189348710749246,0.1373625,0.0323125,0.121
1680009360358,1189348713251631,0.1364,0.0292875,0.121
1680009360361,1189348715753862,0.1354375,0.03025,0.121
1680009360364,1189348718256026,0.133375,0.0312125,0.122925
1680009360373,1189348720758179,0.1354375,0.0253,0.122925
1680009360374,1189348723260333,0.1364,0.0213125,0.1238875
1680009360374,1189348725762487,0.133375,0.0243375,0.1249875
1680009360374,1189348728264641,0.13035,0.01925,0.128975
1680009360376,1189348730767040,0.13145,0.0182875,0.128975
1680009360378,1189348733269193,0.1364,0.0202125,0.128975
1680009360381,1189348735771347,0.1373625,0.0182875,0.1299375
1680009360383,1189348738273501,0.1373625,0.0182875,0.1309
1680009360385,1189348740775636,0.1364,0.0182875,0.1299375
1680009360389,1189348743277867,0.134475,0.0182875,0.1299375
1680009360392,1189348745780021,0.13035,0.015262499,0.12595
1680009360394,1189348748282174,0.1263625,0.015262499,0.1238875
1680009360396,1189348750784357,0.1274625,0.01925,0.1238875
1680009360398,1189348753286742,0.12045,0.0182875,0.122925
1680009360403,1189348755788896,0.112475,0.017324999,0.1238875
1680009360404,1189348758291050,0.111375,0.0213125,0.122925
1680009360406,1189348760793270,0.111375,0.03025,0.121
1680009360408,1189348763295424,0.10835,0.0312125,0.121
1680009360411,1189348765797578,0.1043625,0.0353375,0.1238875
1680009360413,1189348768299732,0.1104125,0.0363,0.122925
1680009360416,1189348770801886,0.10835,0.039325,0.1219625
1680009360420,1189348773304284,0.1104125,0.0402875,0.12595
1680009360422,1189348775806438,0.10835,0.039325,0.1249875
1680009360423,1189348778308592,0.10945,0.0372625,0.127875
1680009360427,1189348780810746,0.1104125,0.0372625,0.128975
1680009360429,1189348783312987,0.10835,0.0363,0.1269125
1680009360432,1189348785815064,0.1054625,0.0363,0.127875
1680009360435,1189348788317525,0.1034,0.0342375,0.127875
1680009360437,1189348790819679,0.102437496,0.0363,0.127875
1680009360439,1189348793321833,0.09735,0.033275,0.1269125
1680009360441,1189348795823987,0.0963875,0.033275,0.127875
1680009360443,1189348798326141,0.0933625,0.0342375,0.1269125
1680009360448,1189348800828294,0.08635,0.0342375,0.1249875
1680009360449,1189348803330448,0.0853875,0.0312125,0.12595
1680009360453,1189348805832679,0.0814,0.0353375,0.1269125
1680009360453,1189348808334833,0.0774125,0.0353375,0.1269125
1680009360456,1189348810837218,0.07535,0.0342375,0.1269125
1680009360458,1189348813339141,0.0743875,0.038225,0.128975
1680009360461,1189348815841285,0.0743875,0.0353375,0.128975
1680009360464,1189348818343669,0.07535,0.0363,0.1299375
1680009360467,1189348820845900,0.0743875,0.039325,0.12595
1680009360469,1189348823348054,0.07535,0.041249998,0.1249875
1680009360471,1189348825850179,0.078375,0.0372625,0.12595
1680009360473,1189348828352332,0.078375,0.0342375,0.1238875
1680009360478,1189348830854486,0.078375,0.03025,0.1189375
1680009360479,1189348833356640,0.078375,0.027224999,0.1199
1680009360481,1189348835859030,0.079475,0.0243375,0.1159125
1680009360487,1189348838361184,0.079475,0.016224999,0.1128875
1680009360488,1189348840863414,0.07535,0.00825,0.1159125
1680009360489,1189348843365491,0.073425,0.0103124995,0.111925
1680009360492,1189348845867751,0.0743875,0.0023375,0.11
1680009360493,1189348848369905,0.07535,-0.0037125,0.108899996
1680009360496,1189348850872059,0.07535,-0.0086624995,0.11
1680009360498,1189348853374443,0.0713625,-0.01375,0.106975
1680009360503,1189348855876568,0.0704,-0.0177375,0.1029875
1680009360505,1189348858378722,0.0704,-0.0207625,0.1049125
1680009360507,1189348860880876,0.0713625,-0.027775,0.10395
1680009360508,1189348863383030,0.073425,-0.0297,0.1049125
1680009360512,1189348865885184,0.0724625,-0.0317625,0.106975
1680009360513,1189348868387655,0.0724625,-0.0367125,0.10395
1680009360516,1189348870889578,0.0743875,-0.0367125,0.1049125
1680009360518,1189348873391732,0.0724625,-0.0407,0.106975
1680009360521,1189348875894117,0.0713625,-0.0427625,0.1109625
1680009360523,1189348878396266,0.0774125,-0.0367125,0.1128875
1680009360526,1189348880898420,0.078375,-0.0367125,0.11495
1680009360529,1189348883400573,0.079475,-0.032725,0.116875
1680009360531,1189348885902804,0.0814,-0.0257125,0.116875
1680009360533,1189348888404958,0.084425,-0.016775,0.116875
1680009360536,1189348890907116,0.08745,-0.0116875,0.1199
1680009360540,1189348893409270,0.091437496,-0.0017875,0.122925
1680009360542,1189348895911424,0.0963875,0.0103124995,0.1269125
1680009360544,1189348898413828,0.09735,0.0182875,0.1348875
1680009360546,1189348900915982,0.102437496,0.0253,0.138875
1680009360548,1189348903418213,0.105325,0.0292875,0.1458875
1680009360552,1189348905920367,0.10945,0.0352,0.1489125
1680009360554,1189348908422520,0.116325,0.0473,0.1568875
1680009360556,1189348910924688,0.117425,0.0473,0.1639
1680009360558,1189348913426842,0.1233375,0.050325,0.1659625
1680009360562,1189348915929227,0.1263625,0.0532125,0.1709125
1680009360563,1189348918431381,0.127325,0.0532125,0.172975
1680009360566,1189348920933525,0.1293875,0.052249998,0.1709125
1680009360568,1189348923435678,0.1343375,0.052249998,0.1689875
1680009360572,1189348925937909,0.138325,0.0482625,0.16293749
1680009360573,1189348928439986,0.1373625,0.049225,0.15895
1680009360578,1189348930942222,0.1354375,0.0402875,0.155925
1680009360579,1189348933444606,0.1364,0.033275,0.1489125
1680009360582,1189348935946760,0.1354375,0.0363,0.1458875
1680009360584,1189348938448914,0.13035,0.0312125,0.1458875
1680009360586,1189348940951068,0.1293875,0.03025,0.144925
1680009360588,1189348943453208,0.127325,0.033275,0.1439625
1680009360592,1189348945955362,0.1254,0.0342375,0.143
1680009360593,1189348948457593,0.1214125,0.033275,0.138875
1680009360596,1189348950959746,0.1214125,0.0363,0.1379125
1680009360598,1189348953462116,0.1183875,0.038225,0.13695
1680009360601,1189348955964270,0.1183875,0.039325,0.1299375
1680009360603,1189348958466193,0.1144,0.038225,0.127875
1680009360607,1189348960968578,0.10835,0.038225,0.1249875
1680009360609,1189348963470703,0.106425,0.0352,0.122925
1680009360611,1189348965972934,0.09735,0.0323125,0.1128875
1680009360615,1189348968475088,0.0903375,0.033275,0.1079375
1680009360617,1189348970977242,0.0853875,0.028324999,0.1049125
1680009360618,1189348973479396,0.0814,0.0213125,0.0999625
1680009360622,1189348975981510,0.0774125,0.0202125,0.0969375
1680009360624,1189348978483663,0.0743875,0.015262499,0.094875
1680009360626,1189348980986048,0.072325,0.005225,0.0919875
1680009360629,1189348983488303,0.072325,0.006325,0.088
1680009360632,1189348985990380,0.073425,0.0033,0.084975
1680009360633,1189348988492611,0.07535,2.75E-4,0.086899996
1680009360636,1189348990994764,0.0774125,2.75E-4,0.0859375
1680009360639,1189348993496918,0.0774125,0.0022,0.084975
1680009360641,1189348995999087,0.07645,-0.0017875,0.084975
1680009360643,1189348998501472,0.0743875,-0.0017875,0.084975
1680009360647,1189349001003626,0.073425,0.0012375,0.086899996
1680009360649,1189349003505779,0.073425,-0.00275,0.088
1680009360654,1189349006007933,0.0713625,-0.0037125,0.088
1680009360658,1189349008510087,0.0713625,-0.0077,0.0919875
1680009360658,1189349011012318,0.07535,-0.0097624995,0.0908875
1680009360661,1189349013514703,0.073425,-0.01375,0.0889625
1680009360663,1189349016016577,0.0743875,-0.0257125,0.089925
1680009360664,1189349018518961,0.0743875,-0.0257125,0.089925
1680009360665,1189349021021115,0.07645,-0.026675,0.0859375
1680009360668,1189349023523269,0.07535,-0.0308,0.084975
1680009360671,1189349026025452,0.072325,-0.038775,0.0889625
1680009360673,1189349028527683,0.0743875,-0.043725,0.088
1680009360676,1189349031029836,0.0743875,-0.049775,0.088
1680009360678,1189349033531990,0.0774125,-0.059675,0.0908875
1680009360681,1189349036034154,0.0814,-0.060775,0.0919875
1680009360683,1189349038536308,0.0804375,-0.0617375,0.0908875
1680009360686,1189349041038693,0.083325,-0.0638,0.0908875
1680009360690,1189349043540616,0.083325,-0.0666875,0.0908875
1680009360693,1189349046043072,0.0793375,-0.0666875,0.0908875
1680009360694,1189349048545226,0.0814,-0.0677875,0.09295
1680009360697,1189349051047380,0.083325,-0.065725,0.0908875
1680009360698,1189349053549534,0.083325,-0.0666875,0.0908875
1680009360701,1189349056051918,0.078375,-0.0666875,0.089925
1680009360703,1189349058554058,0.0804375,-0.0677875,0.0889625
1680009360706,1189349061056212,0.0793375,-0.06875,0.088
1680009360709,1189349063558366,0.07645,-0.0677875,0.0829125
1680009360711,1189349066060520,0.07535,-0.0638,0.0829125
1680009360713,1189349068562674,0.0704,-0.0627,0.0809875
1680009360716,1189349071064904,0.0694375,-0.060775,0.0779625
1680009360719,1189349073567058,0.067375,-0.05775,0.0749375
1680009360721,1189349076069212,0.0633875,-0.0567875,0.0688875
1680009360723,1189349078571366,0.0603625,-0.05775,0.0639375
1680009360730,1189349081073751,0.056375,-0.054725,0.061875
1680009360733,1189349083575904,0.050325,-0.049775,0.0589875
1680009360735,1189349086239366,0.051425,-0.048675,0.055
1680009360736,1189349088614751,0.045375,-0.049775,0.0499125
1680009360738,1189349091082443,0.040425,-0.0477125,0.04895
1680009360740,1189349093584597,0.0383625,-0.04675,0.045925
1680009360742,1189349096086751,0.039325,-0.043725,0.0429
1680009360743,1189349098588904,0.0364375,-0.043725,0.0389125
1680009360747,1189349101091053,0.0353375,-0.0347875,0.0358875
1680009360749,1189349103593515,0.0353375,-0.0336875,0.0369875
1680009360752,1189349106095592,0.0303875,-0.032725,0.028875
1680009360753,1189349108597746,0.0303875,-0.027775,0.0279125
1680009360756,1189349111099990,0.0364375,-0.0257125,0.023924999
1680009360759,1189349113602144,0.0374,-0.021724999,0.0199375
1680009360761,1189349116104298,0.0353375,-0.0207625,0.0149875
1680009360765,1189349118606452,0.0364375,-0.0198,0.0099
1680009360769,1189349121108837,0.0383625,-0.014712499,0.006875
1680009360772,1189349123610990,0.039325,-0.016775,0.0039875
1680009360775,1189349126113144,0.0364375,-0.016775,-0.0
1680009360776,1189349128615298,0.0383625,-0.015675,-0.003025
1680009360778,1189349131117481,0.040425,-0.0127875,-0.00605
1680009360780,1189349133619635,0.0444125,-0.01375,-0.0081124995
1680009360782,1189349136121866,0.043449998,-0.0116875,-0.0121
1680009360783,1189349138624250,0.04235,-0.010725,-0.013062499
1680009360786,1189349141126428,0.0474375,-0.0116875,-0.01705
1680009360788,1189349143628582,0.0484,-0.01375,-0.020075
1680009360791,1189349146130736,0.054449998,-0.0116875,-0.020075
1680009360793,1189349148632890,0.0554125,-0.014712499,-0.0191125
1680009360797,1189349151135120,0.056375,-0.0088,-0.020075
1680009360798,1189349153637255,0.0573375,-0.0097624995,-0.0191125
1680009360803,1189349156139409,0.0584375,-0.0127875,-0.0180125
1680009360806,1189349158641563,0.0594,-0.0127875,-0.01705
1680009360808,1189349161143938,0.062425,-0.0127875,-0.0191125
1680009360810,1189349163645861,0.061325,-0.0127875,-0.015125
1680009360812,1189349166148245,0.0573375,-0.01375,-0.013062499
1680009360814,1189349168650476,0.062425,-0.0097624995,-0.013062499
1680009360816,1189349171152630,0.0633875,-0.0097624995,-0.0160875
1680009360820,1189349173654789,0.0633875,-0.0127875,-0.0160875
1680009360822,1189349176156943,0.0633875,-0.0127875,-0.0160875
1680009360824,1189349178659097,0.0633875,-0.0097624995,-0.0160875
1680009360827,1189349181161250,0.0594,-0.0088,-0.01705
1680009360830,1189349183663668,0.0584375,-0.0127875,-0.0191125
1680009360832,1189349186165822,0.0584375,-0.014712499,-0.022
1680009360834,1189349188668053,0.054449998,-0.0187,-0.0270875
1680009360836,1189349191170130,0.0523875,-0.0177375,-0.02805
1680009360840,1189349193672355,0.0523875,-0.0198,-0.0301125
1680009360843,1189349196174509,0.0523875,-0.0198,-0.0341
1680009360844,1189349198676663,0.0523875,-0.0207625,-0.0380875
1680009360849,1189349201179048,0.0523875,-0.0187,-0.0400125
1680009360851,1189349203681202,0.0523875,-0.0237875,-0.042075
1680009360854,1189349206183346,0.05335,-0.02475,-0.0451
1680009360856,1189349208685500,0.0523875,-0.026675,-0.0460625
1680009360858,1189349211187654,0.0523875,-0.026675,-0.050049998
1680009360859,1189349213689808,0.051425,-0.0287375,-0.0521125
1680009360861,1189349216192039,0.051425,-0.0297,-0.0540375
1680009360863,1189349218694423,0.051425,-0.032725,-0.059125
1680009360866,1189349221196346,0.051425,-0.032725,-0.0600875
1680009360869,1189349223698731,0.0484,-0.0317625,-0.0620125
1680009360873,1189349226200885,0.0474375,-0.0297,-0.0631125
1680009360875,1189349228703039,0.050325,-0.032725,-0.0671
1680009360879,1189349231205269,0.051425,-0.038775,-0.0620125
1680009360882,1189349233707423,0.0523875,-0.038775,-0.0671
1680009360885,1189349236209558,0.0523875,-0.0367125,-0.069025
1680009360886,1189349238711712,0.0523875,-0.0457875,-0.0671
1680009360888,1189349241213866,0.0523875,-0.04675,-0.070125
1680009360890,1189349243716020,0.0484,-0.0507375,-0.0710875
1680009360892,1189349246218408,0.050325,-0.0517,-0.069025
1680009360894,1189349248720562,0.051425,-0.0528,-0.075075
1680009360896,1189349251222793,0.051425,-0.05775,-0.0760375
1680009360899,1189349253724947,0.051425,-0.060775,-0.0730125
1680009360902,1189349256227101,0.05335,-0.0638,-0.07205
1680009360904,1189349258729231,0.0474375,-0.0638,-0.0730125
1680009360906,1189349261231384,0.045375,-0.065725,-0.0741125
1680009360909,1189349263733769,0.045375,-0.06875,-0.0710875
1680009360912,1189349266235923,0.043449998,-0.0748,-0.069025
1680009360918,1189349268738072,0.0413875,-0.070675,-0.0710875
1680009360919,1189349271240226,0.0413875,-0.0697125,-0.07205
1680009360921,1189349273742456,0.040425,-0.071775,-0.0680625
1680009360923,1189349276244610,0.0413875,-0.0757625,-0.066
1680009360925,1189349278746687,0.0383625,-0.073699996,-0.0620125
1680009360928,1189349281249164,0.0383625,-0.06875,-0.0600875
1680009360929,1189349283751318,0.0374,-0.06875,-0.061049998
1680009360932,1189349286253471,0.034375,-0.0697125,-0.0570625
1680009360934,1189349288755625,0.0383625,-0.065725,-0.058025
1680009360937,1189349291257779,0.0383625,-0.0617375,-0.0570625
1680009360939,1189349293759938,0.0374,-0.0567875,-0.0561
1680009360942,1189349296262169,0.0334125,-0.0537625,-0.055
1680009360943,1189349298764323,0.0303875,-0.054725,-0.0540375
1680009360948,1189349301266711,0.029424999,-0.0457875,-0.055
1680009360949,1189349303768865,0.03135,-0.0418,-0.0540375
1680009360956,1189349306270788,0.029424999,-0.038775,-0.055
1680009360957,1189349308773173,0.029424999,-0.03575,-0.0561
1680009360958,1189349311275327,0.0303875,-0.0347875,-0.0570625
1680009360960,1189349313777568,0.029424999,-0.0308,-0.0561
1680009360961,1189349316279722,0.0273625,-0.0287375,-0.055
1680009360964,1189349318781876,0.0264,-0.0257125,-0.0570625
1680009360969,1189349321284020,0.0254375,-0.021724999,-0.0561
1680009360971,1189349323786174,0.0243375,-0.0187,-0.0540375
1680009360972,1189349326288328,0.0264,-0.0198,-0.0510125
1680009360973,1189349328790712,0.028324999,-0.0198,-0.0521125
1680009360978,1189349331292943,0.0254375,-0.016775,-0.050049998
1680009360979,1189349333795097,0.0264,-0.014712499,-0.048125
1680009360981,1189349336297247,0.029424999,-0.0207625,-0.0451
1680009360985,1189349338799401,0.0303875,-0.026675,-0.0430375
1680009360987,1189349341301554,0.0334125,-0.026675,-0.042075
1680009360992,1189349343803938,0.0334125,-0.0297,-0.044
1680009361008,1189349346306092,0.034375,-0.03575,-0.042075
1680009361008,1189349348808246,0.034375,-0.0418,-0.0411125
1680009361008,1189349351310400,0.0353375,-0.0446875,-0.0400125
1680009361008,1189349353812553,0.0374,-0.0507375,-0.0400125
1680009361008,1189349356314785,0.040425,-0.054725,-0.042075
1680009361009,1189349358816939,0.04235,-0.0567875,-0.0411125
1680009361009,1189349361319093,0.0463375,-0.05775,-0.0380875
1680009361009,1189349363821247,0.0484,-0.060775,-0.039049998
1680009361011,1189349366323400,0.050325,-0.0638,-0.039049998
1680009361013,1189349368825554,0.050325,-0.065725,-0.0350625
1680009361016,1189349371328015,0.0463375,-0.065725,-0.036025
1680009361019,1189349373830092,0.051425,-0.0666875,-0.0341
1680009361021,1189349376332323,0.05335,-0.0677875,-0.0320375
1680009361023,1189349378834477,0.0523875,-0.065725,-0.0301125
1680009361028,1189349381336630,0.054449998,-0.0697125,-0.0270875
1680009361030,1189349383838784,0.056375,-0.0677875,-0.02805
1680009361033,1189349386341184,0.0584375,-0.065725,-0.02805
1680009361035,1189349388843338,0.0594,-0.0647625,-0.025024999
1680009361036,1189349391345492,0.0603625,-0.065725,-0.022
1680009361039,1189349393847645,0.062425,-0.0638,-0.022
1680009361041,1189349396349784,0.06435,-0.0627,-0.022
1680009361043,1189349398852015,0.06435,-0.0617375,-0.0210375
1680009361047,1189349401354169,0.0633875,-0.0587125,-0.0210375
1680009361049,1189349403856554,0.0664125,-0.05775,-0.0191125
1680009361051,1189349406358702,0.0603625,-0.0537625,-0.0180125
1680009361054,1189349408860856,0.06435,-0.0567875,-0.015125
1680009361057,1189349411363010,0.0664125,-0.048675,-0.0100375
1680009361059,1189349413865164,0.062425,-0.0457875,-0.0081124995
1680009361061,1189349416367318,0.062425,-0.04675,-0.0020625
1680009361066,1189349418869535,0.0594,-0.048675,-0.0011
1680009361067,1189349421371688,0.057475,-0.048675,9.625E-4
1680009361069,1189349423873842,0.0554125,-0.04675,0.00495
1680009361072,1189349426375996,0.054449998,-0.048675,0.0059125
1680009361073,1189349428878381,0.0504625,-0.04675,0.007975
1680009361076,1189349431380338,0.0474375,-0.0446875,0.007975
1680009361080,1189349433882799,0.0474375,-0.0446875,0.007975
1680009361082,1189349436384953,0.0444125,-0.043725,0.0059125
1680009361085,1189349438887107,0.0413875,-0.0477125,0.0059125
1680009361087,1189349441389288,0.040425,-0.04675,0.0059125
1680009361089,1189349443891442,0.0394625,-0.0446875,0.00495
1680009361092,1189349446393596,0.035475,-0.04675,0.006875
1680009361093,1189349448895980,0.0364375,-0.04675,0.0059125
1680009361096,1189349451398134,0.0364375,-0.0427625,0.0059125
1680009361099,1189349453900270,0.0334125,-0.0407,0.0039875
1680009361106,1189349456402501,0.034375,-0.0407,0.0039875
1680009361107,1189349458904578,0.03135,-0.038775,0.0039875
1680009361108,1189349461406809,0.0303875,-0.0427625,0.006875
1680009361109,1189349463908957,0.029424999,-0.043725,0.006875
1680009361112,1189349466411342,0.029424999,-0.043725,0.0059125
1680009361114,1189349468913496,0.0273625,-0.0427625,0.007975
1680009361119,1189349471415650,0.03135,-0.043725,0.00495
1680009361120,1189349473917790,0.0284625,-0.0416625,9.625E-4
1680009361122,1189349476419943,0.0273625,-0.038775,-0.0
1680009361129,1189349478922097,0.024475,-0.038775,-0.0011
1680009361130,1189349481424240,0.024475,-0.038775,-0.004125
1680009361131,1189349483926702,0.0193875,-0.0336875,-0.0081124995
1680009361133,1189349486428855,0.0193875,-0.032725,-0.0121
1680009361136,1189349488931009,0.0144375,-0.032725,-0.015125
1680009361137,1189349491433163,0.01045,-0.0336875,-0.0180125
1680009361140,1189349493935322,0.0083875,-0.026675,-0.0210375
1680009361143,1189349496437476,0.0114124995,-0.027775,-0.0231
1680009361145,1189349498939707,0.007425,-0.0207625,-0.02805
1680009361146,1189349501441861,0.0053625,-0.015675,-0.0341
1680009361149,1189349503944014,0.0053625,-0.014712499,-0.0350625
1680009361152,1189349506446187,0.0064625,-0.01375,-0.036025
1680009361154,1189349508948341,0.007425,-0.016775,-0.0400125
1680009361156,1189349511450726,0.0053625,-0.0177375,-0.0460625
1680009361159,1189349513952880,0.0064625,-0.0177375,-0.048125
1680009361162,1189349516455033,0.007425,-0.0187,-0.0460625
1680009361164,1189349518957260,0.007425,-0.0237875,-0.0460625
1680009361167,1189349521459414,0.01045,-0.02475,-0.0510125
1680009361169,1189349523961568,0.007425,-0.027775,-0.0540375
1680009361171,1189349526463722,0.0064625,-0.0336875,-0.058025
1680009361174,1189349528965871,0.0053625,-0.0407,-0.061049998
1680009361179,1189349531468255,0.01045,-0.043725,-0.066
1680009361180,1189349533970486,0.0083875,-0.048675,-0.0680625
1680009361182,1189349536472553,0.007425,-0.0517,-0.070125
1680009361186,1189349538974707,0.007425,-0.0526625,-0.0730125
1680009361187,1189349541476938,0.007425,-0.059675,-0.0790625
1680009361189,1189349543979091,0.007425,-0.0636625,-0.0820875
1680009361192,1189349546481476,0.0083875,-0.0587125,-0.087037496
1680009361194,1189349548983640,0.0083875,-0.0617375,-0.091025
1680009361199,1189349551485794,0.0083875,-0.0636625,-0.091025
1680009361200,1189349553987948,0.0064625,-0.0587125,-0.09405
1680009361204,1189349556490101,0.0053625,-0.0537625,-0.100099996
1680009361205,1189349558992260,0.0064625,-0.0477125,-0.102025
1680009361207,1189349561494414,0.0064625,-0.0446875,-0.102025
1680009361211,1189349563996645,0.0034375,-0.0477125,-0.102025
1680009361212,1189349566498799,0.0034375,-0.043725,-0.10505
1680009361218,1189349569001183,0.0064625,-0.03575,-0.10505
1680009361218,1189349571503337,0.0044,-0.0336875,-0.1060125
1680009361220,1189349574005491,0.0034375,-0.032725,-0.1071125
1680009361222,1189349576507645,0.0034375,-0.0297,-0.11
1680009361224,1189349579009876,0.0034375,-0.0297,-0.11605
1680009361226,1189349581512015,0.0044,-0.0297,-0.1181125
1680009361229,1189349584014168,0.002475,-0.0297,-0.119075
1680009361231,1189349586516322,0.0034375,-0.0287375,-0.125125
1680009361234,1189349589018476,0.0064625,-0.0336875,-0.132
1680009361236,1189349591520861,0.0053625,-0.038775,-0.13805
1680009361239,1189349594022784,0.007425,-0.0367125,-0.13805
1680009361241,1189349596525245,0.007425,-0.037675,-0.1401125
1680009361244,1189349599027399,0.0083875,-0.0477125,-0.1441
1680009361247,1189349601529539,0.01045,-0.0517,-0.1511125
1680009361249,1189349604031693,0.012375,-0.0517,-0.154
1680009361253,1189349606533847,0.0144375,-0.05775,-0.158125
1680009361255,1189349609036001,0.0144375,-0.0627,-0.1590875
1680009361257,1189349611538385,0.0154,-0.0647625,-0.16499999
1680009361259,1189349614040529,0.0193875,-0.0697125,-0.168025
1680009361261,1189349616542683,0.0224125,-0.076725,-0.1700875
1680009361264,1189349619044914,0.024475,-0.07975,-0.1771
1680009361267,1189349621546991,0.029424999,-0.082775,-0.1841125
1680009361269,1189349624049116,0.034375,-0.09075,-0.187
1680009361271,1189349626551577,0.0383625,-0.095699996,-0.1890625
1680009361274,1189349629053731,0.04235,-0.0996875,-0.1940125
1680009361276,1189349631555885,0.0444125,-0.1027125,-0.1951125
1680009361279,1189349634058039,0.0484,-0.1106875,-0.198
1680009361281,1189349636560168,0.0523875,-0.1216875,-0.2030875
1680009361285,1189349639062322,0.054449998,-0.126775,-0.20405
1680009361286,1189349641564476,0.0584375,-0.1287,-0.207075
1680009361291,1189349644066717,0.0603625,-0.1337875,-0.2101
1680009361294,1189349646568871,0.0664125,-0.1447875,-0.212025
1680009361295,1189349649071255,0.068475,-0.1507,-0.212025
1680009361296,1189349651573178,0.067375,-0.15675,-0.21505
1680009361299,1189349654075563,0.0713625,-0.159775,-0.2160125
1680009361302,1189349656577732,0.07535,-0.1626625,-0.212025
1680009361304,1189349659079963,0.07645,-0.164725,-0.21505
1680009361306,1189349661582117,0.0804375,-0.1687125,-0.2160125
1680009361309,1189349664084194,0.0834625,-0.1687125,-0.21807499
1680009361312,1189349666586434,0.0853875,-0.1727,-0.21505
1680009361315,1189349669088819,0.0853875,-0.1687125,-0.212025
1680009361316,1189349671590973,0.08635,-0.16775,-0.2101
1680009361320,1189349674093127,0.0853875,-0.1626625,-0.2110625
1680009361322,1189349676595275,0.0853875,-0.159775,-0.2110625
1680009361325,1189349679097429,0.0884125,-0.14973749,-0.212025
1680009361329,1189349681599660,0.089375,-0.1417625,-0.2110625
1680009361333,1189349684100712,0.08745,-0.13475,-0.2110625
1680009361333,1189349686601751,0.08635,-0.126775,-0.20899999
1680009361335,1189349689106366,0.0884125,-0.1186625,-0.212025
1680009361336,1189349691608520,0.089375,-0.1117875,-0.2101
1680009361339,1189349694110674,0.091437496,-0.10175,-0.20899999
1680009361342,1189349696612828,0.090475,-0.092675,-0.20899999
1680009361344,1189349699114992,0.0924,-0.07975,-0.20899999
1680009361349,1189349701617223,0.095425,-0.065725,-0.20899999
1680009361350,1189349704119376,0.095425,-0.059675,-0.2061125
1680009361353,1189349706621530,0.0944625,-0.0477125,-0.2061125
1680009361355,1189349709123900,0.095425,-0.037675,-0.2080375
1680009361356,1189349711626054,0.09735,-0.0317625,-0.2101
1680009361359,1189349714127977,0.09845,-0.0237875,-0.2080375
1680009361362,1189349716630361,0.1043625,-0.015675,-0.20899999
1680009361366,1189349719132607,0.106425,-0.004675,-0.2080375
1680009361372,1189349721634761,0.10945,0.0023375,-0.207075
1680009361374,1189349724136915,0.111375,0.011275,-0.20899999
1680009361376,1189349726639069,0.1104125,0.015262499,-0.212025
1680009361379,1189349729141223,0.112475,0.01925,-0.20899999
1680009361381,1189349731643372,0.1183875,0.0253,-0.2080375
1680009361382,1189349734145756,0.12045,0.028324999,-0.2101
1680009361385,1189349736647910,0.12045,0.0312125,-0.21505
1680009361387,1189349739150141,0.1214125,0.03025,-0.2110625
1680009361388,1189349741652227,0.124437496,0.0312125,-0.20899999
1680009361390,1189349744154457,0.128425,0.0292875,-0.2101
1680009361392,1189349746656611,0.13035,0.0292875,-0.2140875
1680009361394,1189349749158996,0.1293875,0.0243375,-0.21505
1680009361396,1189349751661169,0.13035,0.0182875,-0.21505
1680009361399,1189349754163323,0.134475,0.011275,-0.21505
1680009361403,1189349756665477,0.133375,0.0012375,-0.2160125
1680009361406,1189349759167630,0.1274625,-0.004675,-0.2160125
1680009361408,1189349761669794,0.13035,-0.0116875,-0.22
1680009361410,1189349764171948,0.13035,-0.02475,-0.22
1680009361412,1189349766674410,0.1293875,-0.0297,-0.22
1680009361414,1189349769176563,0.1274625,-0.043725,-0.2190375
1680009361417,1189349771678487,0.1274625,-0.0507375,-0.2211
1680009361419,1189349774180885,0.1263625,-0.059675,-0.22
1680009361422,1189349776683039,0.124437496,-0.0746625,-0.2171125
1680009361424,1189349779185193,0.124437496,-0.0807125,-0.2160125
1680009361426,1189349781687424,0.123475,-0.0917125,-0.2160125
1680009361429,1189349784189593,0.1263625,-0.1067,-0.2110625
1680009361432,1189349786691746,0.122375,-0.1117875,-0.207075
1680009361433,1189349789193900,0.11935,-0.1216875,-0.207075
1680009361437,1189349791696054,0.1254,-0.125675,-0.2050125
1680009361440,1189349794198453,0.122375,-0.1337875,-0.2050125
1680009361443,1189349796700607,0.123475,-0.1417625,-0.202125
1680009361445,1189349799202760,0.123475,-0.142725,-0.2000625
1680009361447,1189349801704991,0.122375,-0.1516625,-0.2000625
1680009361449,1189349804207145,0.124437496,-0.148775,-0.2000625
1680009361452,1189349806709318,0.124437496,-0.147675,-0.2000625
1680009361454,1189349809211472,0.122375,-0.148775,-0.1951125
1680009361456,1189349811713626,0.123475,-0.147675,-0.191125
1680009361459,1189349814216010,0.12045,-0.147675,-0.1860375
1680009361462,1189349816718246,0.1164625,-0.1417625,-0.1830125
1680009361464,1189349819220323,0.113437496,-0.137775,-0.176
1680009361468,1189349821722477,0.111375,-0.1406625,-0.1700875
1680009361469,1189349824224708,0.111375,-0.136675,-0.1670625
1680009361472,1189349826726784,0.10945,-0.1357125,-0.1621125
1680009361474,1189349829229009,0.1073875,-0.1326875,-0.158125
1680009361478,1189349831731394,0.1073875,-0.1247125,-0.157025
1680009361480,1189349834233548,0.1054625,-0.1197625,-0.1511125
1680009361483,1189349836735717,0.106425,-0.1197625,-0.1480875
1680009361487,1189349839237870,0.1043625,-0.114675,-0.1441
1680009361489,1189349841740024,0.102437496,-0.11275,-0.1441
1680009361490,1189349844242178,0.101475,-0.1106875,-0.1420375
1680009361492,1189349846744409,0.101475,-0.1007875,-0.1401125
1680009361494,1189349849246563,0.1034,-0.098725,-0.136125
1680009361497,1189349851748717,0.100375,-0.093775,-0.1370875
1680009361499,1189349854251101,0.100375,-0.09075,-0.13805
1680009361503,1189349856753260,0.095425,-0.0837375,-0.13805
1680009361504,1189349859255414,0.090475,-0.0807125,-0.141075
1680009361507,1189349861757645,0.091437496,-0.081675,-0.143
1680009361509,1189349864259799,0.0884125,-0.082775,-0.1480875
1680009361512,1189349866761952,0.08635,-0.0807125,-0.1500125
1680009361518,1189349869264110,0.0814,-0.0776875,-0.1530375
1680009361519,1189349871766264,0.079475,-0.07975,-0.158125
1680009361520,1189349874268649,0.07535,-0.082775,-0.16005
1680009361523,1189349876770572,0.0713625,-0.0837375,-0.1621125
1680009361525,1189349879273033,0.0713625,-0.081675,-0.1670625
1680009361527,1189349881775207,0.067375,-0.082775,-0.1720125
1680009361529,1189349884277284,0.06435,-0.0847,-0.1720125
1680009361532,1189349886779515,0.06435,-0.087725,-0.1750375
1680009361534,1189349889281669,0.0614625,-0.0856625,-0.176
1680009361537,1189349891783823,0.0614625,-0.087725,-0.1750375
1680009361539,1189349894286197,0.0603625,-0.0917125,-0.1810875
1680009361542,1189349896788351,0.057475,-0.0947375,-0.185075
1680009361544,1189349899290505,0.054449998,-0.0947375,-0.187
1680009361546,1189349901792659,0.051425,-0.095699996,-0.1890625
1680009361550,1189349904294799,0.0463375,-0.0977625,-0.191125
1680009361553,1189349906796952,0.04235,-0.0968,-0.1940125
1680009361555,1189349909299183,0.0413875,-0.1007875,-0.2000625
1680009361557,1189349911801568,0.0394625,-0.1078,-0.2050125
1680009361559,1189349914303736,0.0374,-0.10175,-0.207075
1680009361563,1189349916805890,0.0374,-0.1027125,-0.2140875
1680009361565,1189349919308043,0.0394625,-0.103675,-0.21807499
1680009361567,1189349921810197,0.0364375,-0.10175,-0.22
1680009361569,1189349924312351,0.0394625,-0.098725,-0.2211
1680009361572,1189349926814582,0.0394625,-0.1027125,-0.2250875
1680009361574,1189349929316967,0.0383625,-0.10175,-0.22605
1680009361577,1189349931819120,0.0383625,-0.095699996,-0.22605
1680009361579,1189349934321043,0.0394625,-0.095699996,-0.2270125
1680009361582,1189349936823418,0.0394625,-0.0947375,-0.229075
1680009361584,1189349939325572,0.0353375,-0.0947375,-0.235125
1680009361587,1189349941827803,0.0334125,-0.095699996,-0.2330625
1680009361591,1189349944329943,0.034375,-0.0947375,-0.23705
1680009361593,1189349946832096,0.0334125,-0.0917125,-0.23705
1680009361595,1189349949334250,0.029424999,-0.0917125,-0.2360875
1680009361597,1189349951836404,0.0303875,-0.09075,-0.242
1680009361599,1189349954338558,0.029424999,-0.0867625,-0.242
1680009361602,1189349956840688,0.0284625,-0.0847,-0.245025
1680009361605,1189349959343149,0.0254375,-0.0867625,-0.2490125
1680009361607,1189349961845226,0.0284625,-0.0867625,-0.2501125
1680009361609,1189349964347380,0.03135,-0.0867625,-0.2490125
1680009361612,1189349966849611,0.0284625,-0.081675,-0.251075
1680009361617,1189349969351996,0.0303875,-0.0776875,-0.253
1680009361623,1189349971853919,0.029424999,-0.081675,-0.2541
1680009361624,1189349974356072,0.029424999,-0.082775,-0.2550625
1680009361624,1189349976858457,0.029424999,-0.0867625,-0.257125
1680009361625,1189349979360606,0.0254375,-0.0867625,-0.2600125
1680009361628,1189349981862760,0.0243375,-0.0867625,-0.25905
1680009361631,1189349984364991,0.0224125,-0.0947375,-0.2651
1680009361634,1189349986867144,0.0174625,-0.098725,-0.268125
1680009361635,1189349989369298,0.0133375,-0.10175,-0.27005
1680009361637,1189349991871452,0.00935,-0.104775,-0.27005
1680009361639,1189349994373606,0.0044,-0.1117875,-0.2690875
1680009361642,1189349996875755,-0.0066,-0.115775,-0.2690875
1680009361644,1189349999377909,-0.01265,-0.1216875,-0.2690875
1680009361647,1189350001880293,-0.014575,-0.125675,-0.268125
1680009361649,1189350004382524,-0.0196625,-0.125675,-0.27005
1680009361652,1189350006884668,-0.025575,-0.13475,-0.2660625
1680009361654,1189350009386822,-0.0276375,-0.14575,-0.267025
1680009361657,1189350011888976,-0.03355,-0.1436875,-0.27005
1680009361659,1189350014391130,-0.0396,-0.148775,-0.268125
1680009361662,1189350016893510,-0.0466125,-0.1507,-0.2660625
1680009361666,1189350019395664,-0.0515625,-0.15675,-0.262075
1680009361668,1189350021897818,-0.0545875,-0.1607375,-0.262075
1680009361670,1189350024399972,-0.05555,-0.1617,-0.267025
1680009361672,1189350026902202,-0.058575,-0.1667875,-0.267025
1680009361675,1189350029404264,-0.0636625,-0.17379999,-0.2651
1680009361678,1189350031906495,-0.0636625,-0.175725,-0.268125
1680009361679,1189350034408880,-0.06655,-0.17875,-0.267025
1680009361686,1189350036911005,-0.0735625,-0.1857625,-0.2660625
1680009361690,1189350039413158,-0.075625,-0.1876875,-0.2660625
1680009361690,1189350041915312,-0.075625,-0.18975,-0.2651
1680009361690,1189350044417466,-0.0796125,-0.1986875,-0.2660625
1680009361693,1189350046919620,-0.080575,-0.2077625,-0.2660625
1680009361697,1189350049421842,-0.0815375,-0.2107875,-0.262075
1680009361698,1189350051923996,-0.0856625,-0.214775,-0.2600125
1680009361699,1189350054426150,-0.0845625,-0.219725,-0.2580875
1680009361704,1189350056928303,-0.0856625,-0.2237125,-0.2600125
1680009361705,1189350059430457,-0.086625,-0.225775,-0.257125
1680009361707,1189350061932842,-0.086625,-0.2267375,-0.257125
1680009361709,1189350064435073,-0.086625,-0.2288,-0.256025
1680009361712,1189350066937226,-0.0845625,-0.23375,-0.253
1680009361714,1189350069439408,-0.086625,-0.2327875,-0.251075
1680009361716,1189350071941562,-0.08965,-0.23375,-0.2520375
1680009361719,1189350074443716,-0.0875875,-0.2316875,-0.24805
1680009361722,1189350076945870,-0.0875875,-0.2297625,-0.24805
1680009361725,1189350079448015,-0.0875875,-0.2267375,-0.2440625
1680009361727,1189350081950399,-0.0845625,-0.22275,-0.2410375
1680009361730,1189350084452630,-0.0836,-0.21367499,-0.2391125
1680009361732,1189350086954707,-0.080575,-0.2057,-0.2380125
1680009361735,1189350089456938,-0.07755,-0.19373749,-0.23705
1680009361737,1189350091959077,-0.07755,-0.180675,-0.23705
1680009361741,1189350094461231,-0.0735625,-0.1667875,-0.2360875
1680009361743,1189350096963615,-0.0735625,-0.1577125,-0.234025
1680009361745,1189350099465769,-0.0735625,-0.147675,-0.234025
1680009361747,1189350101967933,-0.0746625,-0.1326875,-0.234025
1680009361749,1189350104470087,-0.0735625,-0.12375,-0.235125
1680009361752,1189350106972241,-0.075625,-0.11275,-0.234025
1680009361754,1189350109474394,-0.0746625,-0.10175,-0.23705
1680009361757,1189350111976649,-0.0746625,-0.092675,-0.24007499
1680009361760,1189350114478803,-0.0735625,-0.081675,-0.2391125
1680009361762,1189350116981188,-0.0735625,-0.071775,-0.2410375
1680009361765,1189350119483342,-0.0746625,-0.0666875,-0.2380125
1680009361767,1189350121985490,-0.0746625,-0.0537625,-0.2391125
1680009361771,1189350124487644,-0.0765875,-0.048675,-0.24007499
1680009361772,1189350126989798,-0.07755,-0.0446875,-0.2391125
1680009361774,1189350129492029,-0.0765875,-0.03575,-0.2360875
1680009361780,1189350131994188,-0.07865,-0.0336875,-0.234025
1680009361781,1189350134496342,-0.07755,-0.0297,-0.231
1680009361783,1189350136998495,-0.0765875,-0.0287375,-0.2321
1680009361785,1189350139500880,-0.07865,-0.0257125,-0.2270125
1680009361787,1189350142003034,-0.07865,-0.0237875,-0.2250875
1680009361790,1189350144505202,-0.07755,-0.0257125,-0.22605
1680009361792,1189350147007433,-0.0765875,-0.0207625,-0.2220625
1680009361795,1189350149509586,-0.0746625,-0.02475,-0.22
1680009361797,1189350152011740,-0.07865,-0.0257125,-0.21807499
1680009361800,1189350154513885,-0.0735625,-0.0287375,-0.2190375
1680009361802,1189350157016039,-0.0726,-0.0287375,-0.2160125
1680009361805,1189350159518193,-0.0746625,-0.032725,-0.21505
1680009361807,1189350162020577,-0.0746625,-0.038775,-0.212025
1680009361809,1189350164522731,-0.075625,-0.0446875,-0.2080375
1680009361812,1189350167024972,-0.0726,-0.048675,-0.207075
1680009361815,1189350169527126,-0.0726,-0.0537625,-0.207075
1680009361819,1189350172029280,-0.0726,-0.060775,-0.2050125
1680009361821,1189350174531410,-0.069575,-0.065725,-0.202125
1680009361823,1189350177033794,-0.0716375,-0.065725,-0.1991
1680009361824,1189350179535948,-0.0686125,-0.076725,-0.1951125
1680009361826,1189350182038102,-0.069575,-0.082775,-0.19305
1680009361829,1189350184540256,-0.069575,-0.0858,-0.1881
1680009361832,1189350187042429,-0.06655,-0.095699996,-0.187
1680009361834,1189350189544659,-0.0625625,-0.103675,-0.1830125
1680009361837,1189350192046736,-0.0606375,-0.1106875,-0.1810875
1680009361839,1189350194549198,-0.058575,-0.1167375,-0.1750375
1680009361842,1189350197051343,-0.0545875,-0.120725,-0.1720125
1680009361845,1189350199553497,-0.0515625,-0.1247125,-0.1670625
1680009361847,1189350202055650,-0.0466125,-0.126775,-0.1640375
1680009361849,1189350204557804,-0.0396,-0.126775,-0.1621125
1680009361854,1189350207059991,-0.034649998,-0.12979999,-0.157025
1680009361855,1189350209562222,-0.034649998,-0.131725,-0.1560625
1680009361857,1189350212064376,-0.0276375,-0.12979999,-0.1530375
1680009361859,1189350214566530,-0.020624999,-0.1326875,-0.1500125
1680009361862,1189350217068938,-0.0166375,-0.131725,-0.1480875
1680009361865,1189350219570861,-0.0155375,-0.12773749,-0.1441
1680009361869,1189350222073015,-0.01265,-0.1247125,-0.1401125
1680009361870,1189350224575400,-0.0086624995,-0.126775,-0.136125
1680009361872,1189350227077612,-0.00165,-0.12979999,-0.1331
1680009361874,1189350229579765,0.001375,-0.1216875,-0.12705
1680009361877,1189350232081919,0.007425,-0.1167375,-0.12705
1680009361881,1189350234584073,0.01045,-0.115775,-0.1280125
1680009361883,1189350237086198,0.012375,-0.114675,-0.1230625
1680009361886,1189350239588352,0.0144375,-0.109725,-0.122099996
1680009361887,1189350242090736,0.0144375,-0.103675,-0.120037496
1680009361891,1189350244592967,0.018424999,-0.1007875,-0.1170125
1680009361894,1189350247095116,0.02035,-0.0977625,-0.1170125
1680009361895,1189350249597193,0.02145,-0.093775,-0.119075
1680009361898,1189350252099424,0.02035,-0.087725,-0.1181125
1680009361899,1189350254601578,0.0243375,-0.082775,-0.11605
1680009361903,1189350257103962,0.0243375,-0.0776875,-0.113025
1680009361905,1189350259606116,0.0254375,-0.070675,-0.1181125
1680009361907,1189350262108270,0.0284625,-0.070675,-0.113025
1680009361910,1189350264610424,0.03135,-0.0617375,-0.1111
1680009361912,1189350267112578,0.0353375,-0.05775,-0.11
1680009361915,1189350269614727,0.0374,-0.0567875,-0.1071125
1680009361917,1189350272116880,0.0383625,-0.0507375,-0.1060125
1680009361920,1189350274619111,0.040425,-0.048675,-0.1060125
1680009361923,1189350277121246,0.0444125,-0.0427625,-0.108075
1680009361926,1189350279623631,0.0474375,-0.0367125,-0.108075
1680009361929,1189350282125554,0.0444125,-0.0347875,-0.11
1680009361932,1189350284628015,0.0463375,-0.0297,-0.109037496
1680009361933,1189350287299107,0.0474375,-0.0287375,-0.108075
1680009361935,1189350289632338,0.045375,-0.026675,-0.108075
1680009361937,1189350292134492,0.0504625,-0.0207625,-0.1071125
1680009361939,1189350294636646,0.0504625,-0.015675,-0.109037496
1680009361942,1189350297138799,0.0504625,-0.014712499,-0.1071125
1680009361944,1189350299641184,0.0484,-0.0088,-0.1071125
1680009361947,1189350302143338,0.0504625,-0.0037125,-0.1040875
1680009361950,1189350304645492,0.054449998,-0.0017875,-0.103125
1680009361955,1189350307147723,0.056375,0.0012375,-0.099
1680009361956,1189350309649856,0.0573375,0.0042625,-0.099
1680009361959,1189350312152010,0.0584375,0.005225,-0.0950125
1680009361960,1189350314654164,0.0664125,0.005225,-0.092125
1680009361965,1189350317156549,0.0713625,0.0012375,-0.088
1680009361968,1189350319658703,0.0704,0.0022,-0.0851125
1680009361970,1189350322160856,0.0743875,0.0042625,-0.081125
1680009361971,1189350324663010,0.078375,2.75E-4,-0.0741125
1680009361973,1189350327165164,0.0853875,-0.00275,-0.07205
1680009361975,1189350329667318,0.0903375,-0.005775,-0.0710875
1680009361977,1189350332169559,0.0944625,-0.0097624995,-0.066
1680009361979,1189350334671943,0.09735,-0.01375,-0.061049998
1680009361983,1189350337174097,0.1013375,-0.015675,-0.0620125
1680009361985,1189350339676251,0.106425,-0.0187,-0.059125
1680009361987,1189350342178419,0.1104125,-0.021724999,-0.059125
1680009361990,1189350344680573,0.113437496,-0.0297,-0.0570625
1680009361992,1189350347182727,0.12045,-0.032725,-0.0561
1680009361995,1189350349684957,0.1254,-0.0336875,-0.055
1680009361997,1189350352187097,0.1254,-0.037675,-0.0540375
1680009361999,1189350354689251,0.1274625,-0.0457875,-0.0521125
1680009362004,1189350357191636,0.1293875,-0.0407,-0.0510125
1680009362007,1189350359693559,0.1293875,-0.043725,-0.055
1680009362009,1189350362195943,0.133375,-0.0457875,-0.0570625
1680009362012,1189350364698174,0.1384625,-0.0477125,-0.055
1680009362013,1189350367200328,0.1373625,-0.048675,-0.0521125
1680009362015,1189350369702482,0.1364,-0.0507375,-0.0521125
1680009362018,1189350372204626,0.139425,-0.049775,-0.050049998
1680009362019,1189350374706780,0.14739999,-0.0517,-0.0490875
1680009362025,1189350377208934,0.14739999,-0.0477125,-0.050049998
1680009362026,1189350379711318,0.150425,-0.048675,-0.050049998
1680009362028,1189350382213458,0.15235,-0.048675,-0.048125
1680009362031,1189350384715689,0.155375,-0.049775,-0.048125
1680009362033,1189350387217766,0.16335,-0.048675,-0.053075
1680009362037,1189350389719920,0.16445,-0.0446875,-0.0510125
1680009362038,1189350392222150,0.1684375,-0.0477125,-0.050049998
1680009362041,1189350394724328,0.172425,-0.0457875,-0.050049998
1680009362044,1189350397226713,0.17435,-0.043725,-0.0540375
1680009362047,1189350399728867,0.1764125,-0.043725,-0.0521125
1680009362049,1189350402231021,0.1794375,-0.037675,-0.0510125
1680009362053,1189350404733174,0.1794375,-0.037675,-0.053075
1680009362055,1189350407235328,0.1764125,-0.0416625,-0.050049998
1680009362056,1189350409737482,0.1764125,-0.0367125,-0.0510125
1680009362058,1189350412239944,0.17847499,-0.037675,-0.0521125
1680009362060,1189350414742097,0.1744875,-0.032725,-0.0510125
1680009362062,1189350417244021,0.1703625,-0.0297,-0.048125
1680009362065,1189350419746405,0.1703625,-0.0287375,-0.0460625
1680009362068,1189350422248559,0.1684375,-0.0257125,-0.042075
1680009362070,1189350424750718,0.1634875,-0.02475,-0.042075
1680009362073,1189350427252872,0.166375,-0.016775,-0.0411125
1680009362075,1189350429755103,0.1684375,-0.015675,-0.0380875
1680009362079,1189350432257256,0.167475,-0.0116875,-0.036025
1680009362081,1189350434759395,0.1604625,-0.010725,-0.0350625
1680009362083,1189350437261549,0.1593625,-0.0067375,-0.033
1680009362086,1189350439763934,0.1634875,-0.0037125,-0.0270875
1680009362088,1189350442266088,0.1634875,2.75E-4,-0.0270875
1680009362089,1189350444768241,0.166375,0.005225,-0.026124999
1680009362092,1189350447270486,0.16445,0.006325,-0.022
1680009362095,1189350449772640,0.16445,0.00825,-0.0180125
1680009362097,1189350452274794,0.1684375,0.011275,-0.0160875
1680009362102,1189350454776915,0.167475,0.0122375,-0.0121
1680009362104,1189350457279069,0.1703625,0.015262499,-0.0081124995
1680009362106,1189350459781453,0.172425,0.015262499,-0.0100375
1680009362108,1189350462283607,0.166375,0.0143,-0.0050875
1680009362109,1189350464785761,0.166375,0.011275,-0.004125
1680009362112,1189350467288006,0.1694,0.00825,-0.004125
1680009362116,1189350469790160,0.1684375,0.0033,-0.0020625
1680009362118,1189350472292313,0.172425,2.75E-4,9.625E-4
1680009362121,1189350474794467,0.1714625,-0.0017875,0.0039875
1680009362123,1189350477296852,0.1733875,-0.01375,0.007975
1680009362126,1189350479799006,0.172425,-0.0207625,0.006875
1680009362128,1189350482301160,0.172425,-0.027775,0.0059125
1680009362131,1189350484803313,0.1744875,-0.03575,0.0099
1680009362133,1189350487305477,0.177375,-0.0416625,0.012925
1680009362135,1189350489807631,0.17847499,-0.049775,0.007975
1680009362137,1189350492309862,0.177375,-0.0617375,0.0099
1680009362139,1189350494812016,0.1804,-0.0636625,0.012925
1680009362142,1189350497314400,0.1794375,-0.06875,0.01595
1680009362144,1189350499816554,0.177375,-0.0787875,0.0169125
1680009362147,1189350502318708,0.1794375,-0.0867625,0.018975
1680009362151,1189350504820862,0.17847499,-0.09075,0.0199375
1680009362154,1189350507323016,0.1794375,-0.0947375,0.0199375
1680009362155,1189350509825247,0.1794375,-0.0977625,0.022
1680009362157,1189350512327400,0.1794375,-0.104775,0.023924999
1680009362159,1189350514829554,0.1794375,-0.1067,0.0229625
1680009362162,1189350517331708,0.17847499,-0.1087625,0.0248875
1680009362165,1189350519834097,0.1764125,-0.11275,0.023924999
1680009362168,1189350522336020,0.17545,-0.1167375,0.023924999
1680009362170,1189350524838481,0.172425,-0.115775,0.0248875
1680009362172,1189350527340635,0.1703625,-0.115775,0.0229625
1680009362174,1189350529842789,0.1634875,-0.1186625,0.023924999
1680009362177,1189350532344953,0.161425,-0.114675,0.0248875
1680009362180,1189350534847107,0.156475,-0.114675,0.0229625
1680009362182,1189350537349261,0.155375,-0.11275,0.023924999
1680009362185,1189350539851414,0.15345,-0.104775,0.023924999
1680009362188,1189350542353785,0.1494625,-0.1027125,0.0248875
1680009362192,1189350544855939,0.14739999,-0.0996875,0.0259875
1680009362194,1189350547358170,0.144375,-0.0966625,0.0259875
1680009362196,1189350549860247,0.1373625,-0.092675,0.0309375
1680009362198,1189350552362491,0.133375,-0.0847,0.0279125
1680009362200,1189350554864645,0.1293875,-0.07975,0.02695
1680009362202,1189350557367030,0.123475,-0.0666875,0.02695
1680009362206,1189350559869184,0.117425,-0.05775,0.0279125
1680009362207,1189350562371338,0.1183875,-0.0507375,0.02695
1680009362211,1189350564873467,0.112475,-0.0416625,0.0259875
1680009362213,1189350567375621,0.106425,-0.026675,0.023924999
1680009362217,1189350569877775,0.1054625,-0.0207625,0.0199375
1680009362218,1189350572380016,0.100375,-0.0086624995,0.0199375
1680009362220,1189350574882401,0.0963875,0.0012375,0.0169125
1680009362223,1189350577384554,0.095425,0.006325,0.0149875
1680009362225,1189350579886477,0.0944625,0.0143,0.018975
1680009362229,1189350582388852,0.0933625,0.0182875,0.01595
1680009362231,1189350584891006,0.091437496,0.0243375,0.0119624995
1680009362234,1189350587393160,0.0864875,0.0292875,0.0119624995
1680009362236,1189350589895314,0.0884125,0.028324999,0.012925
1680009362238,1189350592397544,0.0853875,0.027224999,0.011
1680009362243,1189350594899698,0.0774125,0.0243375,0.0119624995
1680009362250,1189350597401852,0.0754875,0.0202125,0.012925
1680009362250,1189350599904237,0.0754875,0.016224999,0.011
1680009362250,1189350602406391,0.07645,0.00825,0.012925
1680009362250,1189350604908578,0.0774125,0.0023375,0.0119624995
1680009362253,1189350607410732,0.07645,-0.0017875,0.0149875
1680009362254,1189350609912886,0.0774125,-0.0116875,0.0199375
1680009362257,1189350612415040,0.078375,-0.0196625,0.0248875
1680009362261,1189350614917502,0.0774125,-0.02475,0.0259875
1680009362262,1189350617419425,0.0804375,-0.032725,0.029975
1680009362266,1189350619921809,0.079475,-0.038775,0.033
1680009362268,1189350622423963,0.0864875,-0.04675,0.0358875
1680009362270,1189350624926136,0.0853875,-0.054725,0.03795
1680009362273,1189350627428290,0.0853875,-0.060775,0.039875
1680009362274,1189350629930444,0.0864875,-0.065725,0.039875
1680009362277,1189350632432674,0.0853875,-0.06875,0.040975
1680009362281,1189350634934808,0.084425,-0.070675,0.040975
1680009362282,1189350637436962,0.079475,-0.071775,0.040975
1680009362285,1189350639939116,0.0774125,-0.0776875,0.0419375
1680009362287,1189350642441501,0.07645,-0.0807125,0.0389125
1680009362293,1189350644943635,0.0724625,-0.076725,0.040975
1680009362294,1189350647445789,0.067375,-0.0697125,0.0429
1680009362295,1189350649948020,0.0603625,-0.06875,0.0419375
1680009362297,1189350652450174,0.0594,-0.065725,0.045925
1680009362302,1189350654952328,0.057475,-0.054725,0.0499125
1680009362304,1189350657454463,0.056375,-0.0507375,0.04895
1680009362306,1189350659956617,0.0534875,-0.0427625,0.0539
1680009362308,1189350662458770,0.0523875,-0.0306625,0.056925
1680009362310,1189350664961155,0.0444125,-0.014712499,0.0529375
1680009362313,1189350667463309,0.040425,-0.0017875,0.055
1680009362315,1189350669965443,0.0364375,0.005225,0.056925
1680009362321,1189350672467673,0.0374,0.016224999,0.0589875
1680009362323,1189350674969750,0.035475,0.0323125,0.0589875
1680009362323,1189350677471981,0.029424999,0.0482625,0.0589875
1680009362328,1189350679974366,0.0254375,0.055275,0.0589875
1680009362329,1189350682476520,0.0273625,0.0642125,0.0589875
1680009362333,1189350684978673,0.0224125,0.077275,0.0589875
1680009362335,1189350687480827,0.02145,0.08525,0.0589875
1680009362336,1189350689982981,0.0204875,0.0952875,0.0578875
1680009362338,1189350692485135,0.0224125,0.1013375,0.056925
1680009362342,1189350694987366,0.023375,0.10725,0.055
1680009362344,1189350697489520,0.023375,0.113299996,0.0539
1680009362346,1189350699991904,0.018424999,0.1192125,0.055
1680009362347,1189350702493817,0.013475,0.122237496,0.0559625
1680009362352,1189350704996202,0.012375,0.1192125,0.0559625
1680009362354,1189350707498356,0.0083875,0.1172875,0.055
1680009362356,1189350710000510,0.007425,0.115225,0.0589875
1680009362357,1189350712502740,0.0064625,0.10725,0.0578875
1680009362361,1189350715004908,0.0044,0.099275,0.05995
1680009362363,1189350717507062,0.002475,0.093225,0.062975
1680009362366,1189350720009216,-0.0015125,0.083325,0.061875
1680009362367,1189350722511370,-0.0045375,0.0732875,0.0639375
1680009362371,1189350725013520,-0.0026125,0.069299996,0.0669625
1680009362372,1189350727515981,-0.0015125,0.055275,0.0719125
1680009362375,1189350730018135,-0.0015125,0.050325,0.0749375
1680009362381,1189350732520212,0.002475,0.038225,0.0749375
1680009362382,1189350735022457,4.125E-4,0.0312125,0.0759
1680009362384,1189350737524611,0.002475,0.0182875,0.0779625
1680009362386,1189350740026765,0.0044,0.0122375,0.0779625
1680009362388,1189350742528918,4.125E-4,0.0033,0.0798875
1680009362392,1189350745031303,-0.0026125,0.0012375,0.078925
1680009362393,1189350747533447,-0.0026125,2.75E-4,0.084975
1680009362395,1189350750035601,-0.003575,-0.0037125,0.0859375
1680009362397,1189350752537755,-0.0066,-6.875E-4,0.0829125
1680009362402,1189350755039908,-0.008525,0.0023375,0.0859375
1680009362404,1189350757542163,-0.009625,0.0042625,0.084975
1680009362406,1189350760044317,-0.0155375,0.006325,0.0859375
1680009362408,1189350762546471,-0.0166375,0.0103124995,0.088
1680009362411,1189350765048856,-0.0155375,0.0133375,0.0889625
1680009362413,1189350767551004,-0.0155375,0.0143,0.0889625
1680009362417,1189350770053158,-0.0155375,0.0143,0.0908875
1680009362419,1189350772555312,-0.0166375,0.0232375,0.09295
1680009362421,1189350775057543,-0.0176,0.022275,0.0939125
1680009362423,1189350777559669,-0.019524999,0.0232375,0.0939125
1680009362425,1189350780061823,-0.0246125,0.0232375,0.0969375
1680009362428,1189350782563976,-0.025575,0.0253,0.099
1680009362431,1189350785066361,-0.0265375,0.027224999,0.1029875
1680009362433,1189350787568501,-0.025575,0.028324999,0.106975
1680009362436,1189350790070655,-0.0276375,0.033275,0.111925
1680009362437,1189350792572886,-0.030524999,0.033275,0.1159125
1680009362441,1189350795075039,-0.030524999,0.0363,0.121
1680009362443,1189350797577193,-0.030524999,0.0372625,0.1199
1680009362446,1189350800079351,-0.0295625,0.038225,0.122925
1680009362448,1189350802581505,-0.0265375,0.0402875,0.1269125
1680009362451,1189350805083659,-0.019524999,0.041249998,0.127875
1680009362455,1189350807586120,-0.0155375,0.0482625,0.1299375
1680009362456,1189350810088216,-0.0105875,0.055275,0.1309
1680009362458,1189350812590370,-0.0066,0.055275,0.1348875
1680009362461,1189350815092601,-0.0026125,0.060225,0.1329625
1680009362463,1189350817594678,0.0034375,0.0642125,0.1348875
1680009362465,1189350820096909,0.007425,0.07425,0.1359875
1680009362470,1189350822599062,0.0083875,0.0812625,0.1348875
1680009362472,1189350825101447,0.0114124995,0.08525,0.1348875
1680009362473,1189350827603601,0.0114124995,0.093225,0.1348875
1680009362475,1189350830105755,0.0114124995,0.099275,0.1299375
1680009362480,1189350832607890,0.0114124995,0.105325,0.1309
1680009362482,1189350835110043,0.01045,0.1192125,0.1309
1680009362483,1189350837612197,0.01045,0.121275,0.1299375
1680009362486,1189350840114428,0.01045,0.127325,0.1249875
1680009362487,1189350842616813,0.0094875,0.1362625,0.122925
1680009362495,1189350845118943,0.0114124995,0.143275,0.121
1680009362497,1189350847620866,0.012375,0.1533125,0.121
1680009362498,1189350850123250,0.012375,0.1632125,0.116875
1680009362499,1189350852625404,0.013475,0.16733749,0.11495
1680009362502,1189350855127558,0.013475,0.17325,0.1109625
1680009362503,1189350857629789,0.012375,0.1802625,0.11
1680009362505,1189350860131948,0.013475,0.1882375,0.1109625
1680009362508,1189350862634101,0.013475,0.1973125,0.108899996
1680009362513,1189350865136255,0.013475,0.1973125,0.1079375
1680009362514,1189350867638409,0.0144375,0.198275,0.105875
1680009362517,1189350870140563,0.0144375,0.2013,0.108899996
1680009362519,1189350872643025,0.0154,0.1973125,0.106975
1680009362521,1189350875145101,0.0204875,0.19525,0.108899996
1680009362524,1189350877647336,0.0204875,0.193325,0.108899996
1680009362526,1189350880149490,0.0193875,0.18727499,0.105875
1680009362530,1189350882651644,0.0224125,0.181225,0.1109625
1680009362535,1189350885152702,0.02145,0.1742125,0.1128875
1680009362535,1189350887653779,0.018424999,0.1683,0.1139875
1680009362536,1189350890158317,0.013475,0.1573,0.1159125
1680009362537,1189350892660471,0.0174625,0.149325,0.1199
1680009362541,1189350895162625,0.013475,0.1442375,0.1199
1680009362543,1189350897664856,0.007425,0.1302125,0.121
1680009362545,1189350900166981,0.0053625,0.127325,0.1238875
1680009362547,1189350902669134,0.0034375,0.121275,0.122925
1680009362550,1189350905171519,-0.0045375,0.110275,0.122925
1680009362553,1189350907673442,-0.0045375,0.1023,0.1269125
1680009362555,1189350910175582,-0.009625,0.094325,0.1238875
1680009362557,1189350912677967,-0.009625,0.0842875,0.128975
1680009362562,1189350915180197,-0.01265,0.0793375,0.132
1680009362563,1189350917682351,-0.013612499,0.0763125,0.132
1680009362568,1189350920184510,-0.0155375,0.0683375,0.1329625
1680009362570,1189350922686664,-0.0196625,0.066275,0.1359875
1680009362572,1189350925188818,-0.02255,0.0562375,0.1359875
1680009362574,1189350927690972,-0.020624999,0.0512875,0.13695
1680009362575,1189350930193356,-0.02255,0.0562375,0.138875
1680009362577,1189350932695505,-0.0265375,0.055275,0.138875
1680009362580,1189350935197736,-0.0295625,0.055275,0.1359875
1680009362583,1189350937699813,-0.0356125,0.061325,0.1348875
1680009362585,1189350940201967,-0.042625,0.0642125,0.1359875
1680009362588,1189350942704211,-0.056649998,0.0702625,0.132
1680009362591,1189350945206365,-0.0705375,0.077275,0.132
1680009362593,1189350947708750,-0.07865,0.0862125,0.13695
1680009362595,1189350950210904,-0.08855,0.0952875,0.13695
1680009362598,1189350952713058,-0.09955,0.100237496,0.13695
1680009362602,1189350955215212,-0.1035375,0.111237496,0.13695
1680009362605,1189350957717365,-0.108625,0.1192125,0.1379125
1680009362607,1189350960219519,-0.11055,0.1233375,0.139975
1680009362609,1189350962721731,-0.1186625,0.12925,0.14093749
1680009362611,1189350965224116,-0.1166,0.12925,0.139975
1680009362613,1189350967726039,-0.11055,0.132275,0.139975
1680009362615,1189350970228423,-0.1126125,0.132275,0.138875
1680009362617,1189350972730577,-0.11165,0.1282875,0.13695
1680009362620,1189350975232505,-0.11055,0.1243,0.1348875
1680009362622,1189350977734967,-0.1095875,0.11825,0.13695
1680009362625,1189350980237121,-0.1076625,0.1142625,0.1379125
1680009362628,1189350982739275,-0.1035375,0.10725,0.1379125
1680009362631,1189350985241442,-0.1016125,0.0983125,0.139975
1680009362632,1189350987743596,-0.097625,0.088275,0.1419
1680009362636,1189350990245750,-0.0946,0.0793375,0.14093749
1680009362639,1189350992748135,-0.0925375,0.07425,0.1439625
1680009362642,1189350995250308,-0.091575,0.0653125,0.1469875
1680009362644,1189350997752461,-0.0856625,0.055275,0.149875
1680009362647,1189351000254692,-0.07755,0.049225,0.1489125
1680009362649,1189351002756846,-0.07755,0.0433125,0.154
1680009362651,1189351005259000,-0.07865,0.0372625,0.1529
1680009362653,1189351007761202,-0.0726,0.0323125,0.155925
1680009362655,1189351010263586,-0.06765,0.027224999,0.1568875
1680009362658,1189351012765740,-0.0625625,0.022275,0.1599125
1680009362661,1189351015267894,-0.05555,0.0182875,0.155925
1680009362663,1189351017770048,-0.053625,0.017324999,0.1579875
1680009362665,1189351020272221,-0.042625,0.015262499,0.1568875
1680009362668,1189351022774375,-0.036575,0.0103124995,0.155925
1680009362671,1189351025276528,-0.0286,0.0103124995,0.1549625
1680009362673,1189351027778759,-0.0196625,0.0072875,0.154
1680009362680,1189351030281144,-0.01155,0.0012375,0.1489125
1680009362683,1189351032783067,-0.003575,-6.875E-4,0.14795
1680009362684,1189351035285452,0.0034375,-0.0037125,0.1469875
1680009362687,1189351037787605,0.01045,-0.005775,0.1458875
1680009362689,1189351040289759,0.023375,-0.005775,0.14093749
1680009362691,1189351042791990,0.034375,-0.0017875,0.1379125
1680009362693,1189351045294144,0.043449998,0.0023375,0.1348875
1680009362694,1189351047796298,0.05335,0.0072875,0.1309
1680009362697,1189351050298457,0.0603625,0.00825,0.127875
1680009362699,1189351052800610,0.0683375,0.0122375,0.122925
1680009362701,1189351055302764,0.07645,0.0213125,0.1219625
1680009362702,1189351057805149,0.0814,0.028324999,0.1219625
1680009362705,1189351060307399,0.0903375,0.039325,0.1199
1680009362708,1189351062809476,0.089375,0.055275,0.1189375
1680009362711,1189351065311706,0.08635,0.0653125,0.1189375
1680009362715,1189351067813860,0.0793375,0.072325,0.1199
1680009362718,1189351070316043,0.073425,0.0842875,0.1219625
1680009362720,1189351072818197,0.06435,0.09625,0.122925
1680009362722,1189351075320582,0.0573375,0.1032625,0.1249875
1680009362723,1189351077822735,0.0523875,0.1142625,0.12595
1680009362726,1189351080324889,0.04235,0.1233375,0.128975
1680009362729,1189351082827048,0.0353375,0.1302125,0.128975
1680009362731,1189351085329202,0.029424999,0.1353,0.1299375
1680009362733,1189351087831433,0.023375,0.137225,0.1359875
1680009362737,1189351090333587,0.0193875,0.1353,0.1329625
1680009362739,1189351092835966,0.0144375,0.1353,0.1379125
1680009362741,1189351095338120,0.0144375,0.12925,0.1359875
1680009362743,1189351097840274,0.01045,0.11825,0.138875
1680009362746,1189351100342428,0.0083875,0.110275,0.139975
1680009362748,1189351102844577,0.0064625,0.094325,0.1348875
1680009362752,1189351105346730,0.007425,0.083325,0.13695
1680009362754,1189351107848961,0.0064625,0.0702625,0.13695
1680009362757,1189351110351115,0.0053625,0.0573375,0.13695
1680009362759,1189351112853240,0.0044,0.0372625,0.1359875
1680009362761,1189351115355394,0.0034375,0.0253,0.132
1680009362763,1189351117857778,0.0034375,0.017324999,0.132
1680009362767,1189351120359702,0.0034375,0.0103124995,0.128975
1680009362769,1189351122862173,4.125E-4,-6.875E-4,0.1269125
1680009362772,1189351125364327,-0.0045375,-0.005775,0.122925
1680009362773,1189351127866481,-0.0026125,-0.0086624995,0.121
1680009362775,1189351130368635,-0.0045375,-0.0116875,0.1199
1680009362777,1189351132870788,-0.0056375,-0.0127875,0.11495
1680009362781,1189351135372952,-0.0026125,-0.0116875,0.111925
1680009362784,1189351137875106,4.125E-4,-0.01375,0.11
1680009362786,1189351140377491,-0.0026125,-0.0086624995,0.105875
1680009362788,1189351142879645,-0.0026125,-0.0097624995,0.1018875
1680009362793,1189351145381784,4.125E-4,-0.010725,0.095975
1680009362796,1189351147883937,-0.00165,-0.0086624995,0.0919875
1680009362798,1189351150386091,4.125E-4,-0.00275,0.0908875
1680009362800,1189351152888322,-0.00165,2.75E-4,0.0859375
1680009362804,1189351155390688,-0.003575,2.75E-4,0.0809875
1680009362805,1189351157892841,-0.003575,0.0012375,0.0798875
1680009362808,1189351160394995,-0.0056375,0.006325,0.0809875
1680009362809,1189351162897149,-0.0075625,0.0133375,0.0798875
1680009362812,1189351165399336,-0.0105875,0.017324999,0.078925
1680009362813,1189351167901490,-0.0196625,0.0243375,0.078925
1680009362816,1189351170403721,-0.02255,0.0312125,0.0759
1680009362818,1189351172905875,-0.0295625,0.0372625,0.0779625
1680009362821,1189351175408259,-0.0306625,0.0482625,0.0779625
1680009362823,1189351177910158,-0.03355,0.0532125,0.0798875
1680009362826,1189351180412312,-0.0375375,0.06325,0.078925
1680009362830,1189351182914697,-0.0405625,0.0683375,0.0749375
1680009362835,1189351185416631,-0.045649998,0.0732875,0.073975
1680009362838,1189351188088938,-0.0526625,0.082225,0.0699875
1680009362841,1189351190421169,-0.0595375,0.089237496,0.0699875
1680009362843,1189351192923323,-0.0686125,0.0952875,0.0688875
1680009362845,1189351195425491,-0.0746625,0.100237496,0.0688875
1680009362846,1189351197927722,-0.0796125,0.100237496,0.0699875
1680009362848,1189351200430106,-0.08965,0.1032625,0.0688875
1680009362850,1189351202932260,-0.0946,0.1062875,0.0688875
1680009362852,1189351205434410,-0.102575,0.1013375,0.0719125
1680009362854,1189351207936564,-0.1126125,0.1013375,0.0719125
1680009362855,1189351210438718,-0.1175625,0.0983125,0.072875
