system_ts_ms, sensor_ts_ns, gyrX, gyrY, gyrZ
1679997304211,1177292565661786,-0.0169125,-0.0105875,0.0114124995
1679997304212,1177292568163709,-0.0218625,-0.0125124995,0.0103124995
1679997304215,1177292570665786,-0.0218625,-0.0125124995,0.00935
1679997304217,1177292573167709,-0.028875,-0.009625,0.007425
1679997304221,1177292575669863,-0.0298375,-0.009625,0.00935
1679997304231,1177292578171940,-0.0309375,-0.008525,0.006325
1679997304231,1177292580673838,-0.0309375,-0.0066,0.0053625
1679997304231,1177292583175915,-0.0328625,-0.0075625,0.0103124995
1679997304232,1177292585677838,-0.036849998,-0.008525,0.0114124995
1679997304233,1177292588179915,-0.0328625,-0.0075625,0.00935
1679997304236,1177292590681838,-0.033825,-0.009625,0.0144375
1679997304237,1177292593184016,-0.0328625,-0.0075625,0.0163625
1679997304242,1177292595686093,-0.033825,-0.009625,0.0144375
1679997304243,1177292598188016,-0.0358875,-0.0125124995,0.0144375
1679997304245,1177292600690170,-0.0319,-0.01155,0.0163625
1679997304247,1177292603192016,-0.0319,-0.014575,0.0144375
1679997304250,1177292605694078,-0.028875,-0.0125124995,0.0133375
1679997304253,1177292608196001,-0.028875,-0.013612499,0.012375
1679997304255,1177292610698386,-0.028875,-0.0075625,0.0133375
1679997304262,1177292613200232,-0.0279125,-0.0045375,0.00935
1679997304262,1177292615702155,-0.0248875,-0.0055,0.0053625
1679997304263,1177292618204309,-0.0248875,-0.0026125,0.0034375
1679997304267,1177292620706386,-0.0248875,-0.0015125,0.0044
1679997304268,1177292623208232,-0.022824999,0.002475,-6.875E-4
1679997304270,1177292625710391,-0.023924999,0.0044,-0.004675
1679997304279,1177292628212544,-0.0188375,0.012375,-0.003575
1679997304280,1177292630714467,-0.0188375,0.0174625,-0.003575
1679997304280,1177292633216314,-0.0158125,0.0174625,-0.00165
1679997304280,1177292635718453,-0.0138875,0.018424999,-0.00165
1679997304283,1177292638220530,-0.011825,0.018424999,4.125E-4
1679997304286,1177292640722377,-0.0138875,0.0204875,0.001375
1679997304287,1177292643224607,-0.0138875,0.0264,0.001375
1679997304293,1177292645726684,-0.011825,0.0264,4.125E-4
1679997304293,1177292648228626,-0.0138875,0.024475,-6.875E-4
1679997304298,1177292650730473,-0.0158125,0.0264,0.001375
1679997304299,1177292653232626,-0.0138875,0.0275,0.001375
1679997304301,1177292655734703,-0.01485,0.02145,0.0044
1679997304303,1177292658236626,-0.0138875,0.0204875,0.0034375
1679997304309,1177292660738780,-0.0169125,0.018424999,0.0044
1679997304309,1177292663240857,-0.0138875,0.0174625,0.0044
1679997304311,1177292665742780,-0.017875,0.012375,0.0023375
1679997304313,1177292668244866,-0.0199375,0.007425,0.0034375
1679997304316,1177292670746789,-0.0209,0.0094875,0.001375
1679997304318,1177292673248866,-0.022824999,0.0064625,0.0034375
1679997304322,1177292675751020,-0.02585,-5.5E-4,0.0034375
1679997304326,1177292678252943,-0.0248875,-0.0026125,0.0034375
1679997304327,1177292680755016,-0.0268125,0.001375,4.125E-4
1679997304328,1177292683256939,-0.028875,-0.0055,0.0034375
1679997304330,1177292685759016,-0.0309375,-0.0125124995,0.0023375
1679997304334,1177292688260919,-0.0309375,-0.014575,0.0034375
1679997304337,1177292690762996,-0.028875,-0.0165,0.0044
1679997304342,1177292693265150,-0.0298375,-0.025575,0.0023375
1679997304343,1177292695767073,-0.0328625,-0.0275,0.0023375
1679997304343,1177292698269150,-0.033825,-0.0275,0.001375
1679997304347,1177292700771073,-0.0309375,-0.0295625,0.0034375
1679997304348,1177292703273150,-0.0309375,-0.0325875,0.0023375
1679997304350,1177292705775073,-0.0298375,-0.0325875,-6.875E-4
1679997304353,1177292708277150,-0.0328625,-0.0325875,-0.00165
1679997304356,1177292710779304,-0.0298375,-0.03355,-6.875E-4
1679997304360,1177292713281222,-0.0298375,-0.0345125,4.125E-4
1679997304360,1177292715783299,-0.0298375,-0.036575,0.0023375
1679997304363,1177292718285222,-0.0309375,-0.041525,0.001375
1679997304366,1177292720787299,-0.0319,-0.042625,0.001375
1679997304368,1177292723289198,-0.0279125,-0.0435875,4.125E-4
1679997304377,1177292725791352,-0.02585,-0.047575,-0.00165
1679997304377,1177292728293429,-0.028875,-0.0435875,-0.0026125
1679997304378,1177292730795352,-0.0268125,-0.0435875,-0.0026125
1679997304379,1177292733297434,-0.0218625,-0.047575,-0.0056375
1679997304380,1177292735799588,-0.022824999,-0.0495,-0.004675
1679997304383,1177292738301511,-0.0248875,-0.0485375,-0.0066
1679997304387,1177292740803588,-0.022824999,-0.0515625,-0.0086624995
1679997304388,1177292743305511,-0.0218625,-0.052525,-0.0066
1679997304393,1177292745807588,-0.022824999,-0.05555,-0.009625
1679997304393,1177292748309511,-0.0209,-0.058575,-0.01265
1679997304395,1177292750811588,-0.0199375,-0.0576125,-0.014575
1679997304398,1177292753313741,-0.0158125,-0.0616,-0.015675
1679997304400,1177292755815684,-0.017875,-0.0595375,-0.0176
1679997304403,1177292758317760,-0.0209,-0.0605,-0.0185625
1679997304411,1177292760819684,-0.0209,-0.0595375,-0.0215875
1679997304412,1177292763321731,-0.0188375,-0.0616,-0.0246125
1679997304413,1177292765823655,-0.0209,-0.0616,-0.0276375
1679997304414,1177292768325731,-0.017875,-0.0595375,-0.0295625
1679997304416,1177292770827885,-0.0188375,-0.053625,-0.0336875
1679997304418,1177292773329808,-0.0209,-0.0455125,-0.036575
1679997304420,1177292775831905,-0.0199375,-0.0385,-0.0396
1679997304426,1177292778333828,-0.0218625,-0.0325875,-0.0416625
1679997304427,1177292780835905,-0.0188375,-0.025575,-0.0416625
1679997304428,1177292783337828,-0.0169125,-0.019524999,-0.0396
1679997304431,1177292785839967,-0.0158125,-0.0105875,-0.0405625
1679997304433,1177292788342121,-0.01485,4.125E-4,-0.042625
1679997304436,1177292790843967,-0.01485,0.0064625,-0.045649998
1679997304438,1177292793346044,-0.01485,0.007425,-0.0446875
1679997304445,1177292795848198,-0.0108624995,0.0174625,-0.0446875
1679997304446,1177292798350044,-0.012925,0.029424999,-0.047575
1679997304448,1177292800851967,-0.011825,0.0314875,-0.042625
1679997304449,1177292803354121,-0.0108624995,0.032449998,-0.0416625
1679997304451,1177292805856285,-0.0099,0.0364375,-0.0435875
1679997304453,1177292808358131,-0.0078375,0.0394625,-0.0396
1679997304456,1177292810860208,-0.0048125,0.043449998,-0.036575
1679997304461,1177292813362362,-0.0048125,0.0424875,-0.036575
1679997304462,1177292815864285,-0.0059125,0.0444125,-0.0325875
1679997304463,1177292818366357,-8.25E-4,0.0424875,-0.0286
1679997304467,1177292820868280,-0.0048125,0.043449998,-0.025575
1679997304468,1177292823370434,-0.0059125,0.0424875,-0.025575
1679997304470,1177292825872511,1.375E-4,0.0424875,-0.0246125
1679997304476,1177292828374352,-8.25E-4,0.040425,-0.0196625
1679997304477,1177292830876506,-0.00385,0.0364375,-0.020624999
1679997304478,1177292833378429,0.0020625,0.034375,-0.0196625
1679997304481,1177292835880583,-8.25E-4,0.0303875,-0.0166375
1679997304485,1177292838382424,-0.00385,0.024475,-0.014575
1679997304489,1177292840884578,-0.001925,0.024475,-0.014575
1679997304494,1177292843687347,-0.001925,0.0204875,-0.01265
1679997304495,1177292845888578,0.0011,0.02145,-0.0116875
1679997304495,1177292848390655,1.375E-4,0.0204875,-0.01265
1679997304496,1177292850892560,-8.25E-4,0.0174625,-0.0116875
1679997304498,1177292853394714,1.375E-4,0.0144375,-0.014575
1679997304501,1177292855896791,1.375E-4,0.007425,-0.01265
1679997304503,1177292858398714,1.375E-4,0.012375,-0.015675
1679997304509,1177292860900786,-8.25E-4,0.01045,-0.01265
1679997304510,1177292863402709,1.375E-4,0.012375,-0.0105875
1679997304510,1177292865904786,0.0031625,0.012375,-0.01265
1679997304513,1177292868406939,0.0031625,0.0114124995,-0.014575
1679997304516,1177292870908863,0.0050875,0.012375,-0.014575
1679997304518,1177292873410930,0.0061875,0.01045,-0.01265
1679997304522,1177292875912853,0.004125,0.012375,-0.015675
1679997304526,1177292878414930,0.0031625,0.0114124995,-0.0166375
1679997304527,1177292880916853,0.0081124995,0.0094875,-0.015675
1679997304529,1177292883418925,0.009075,0.0055,-0.014575
1679997304531,1177292885921078,0.004125,0.01045,-0.015675
1679997304533,1177292888423001,0.010175,0.013475,-0.015675
1679997304536,1177292890925078,0.0081124995,0.01045,-0.014575
1679997304538,1177292893427001,0.00715,0.007425,-0.01265
1679997304542,1177292895929088,0.013062499,0.0094875,-0.0185625
1679997304543,1177292898431011,0.0171875,0.0055,-0.0176
1679997304547,1177292900933088,0.013062499,0.0034375,-0.015675
1679997304549,1177292903435242,0.0160875,0.002475,-0.0176
1679997304550,1177292905937193,0.0191125,4.125E-4,-0.0196625
1679997304553,1177292908439270,0.0171875,-0.003575,-0.0196625
1679997304556,1177292910941193,0.0191125,-0.003575,-0.0246125
1679997304560,1177292913443270,0.020075,-0.0075625,-0.020624999
1679997304561,1177292915945438,0.0240625,-0.009625,-0.020624999
1679997304563,1177292918447361,0.0281875,-0.0125124995,-0.02365
1679997304566,1177292920949438,0.0281875,-0.0155375,-0.02365
1679997304568,1177292923451284,0.02915,-0.0165,-0.0215875
1679997304571,1177292925953438,0.0281875,-0.0286,-0.0226875
1679997304576,1177292928455603,0.0281875,-0.0295625,-0.020624999
1679997304577,1177292930957526,0.0270875,-0.0295625,-0.0196625
1679997304578,1177292933459603,0.026124999,-0.0295625,-0.0196625
1679997304580,1177292935961526,0.0281875,-0.0286,-0.0196625
1679997304583,1177292938463622,0.031075,-0.0325875,-0.0176
1679997304587,1177292940965545,0.0341,-0.0345125,-0.015675
1679997304589,1177292943467622,0.0331375,-0.0345125,-0.015675
1679997304593,1177292945969776,0.0331375,-0.0356125,-0.015675
1679997304594,1177292948471699,0.031075,-0.0345125,-0.01265
1679997304599,1177292950973752,0.0331375,-0.03355,-0.009625
1679997304599,1177292953475675,0.0391875,-0.0275,-0.009625
1679997304601,1177292955977752,0.0380875,-0.0275,-0.0066
1679997304603,1177292958479675,0.0380875,-0.020624999,-0.0056375
1679997304606,1177292960981757,0.0391875,-0.0176,-0.004675
1679997304608,1177292963483911,0.0391875,-0.0165,-0.004675
1679997304611,1177292965985834,0.0411125,-0.014575,-0.003575
1679997304613,1177292968487911,0.0422125,-0.008525,-0.0026125
1679997304616,1177292970989825,0.0441375,-0.0015125,-6.875E-4
1679997304619,1177292973491902,0.043175,4.125E-4,-6.875E-4
1679997304621,1177292975993825,0.043175,0.0044,0.001375
1679997304624,1177292978495979,0.0422125,0.01045,0.001375
1679997304628,1177292980998046,0.0462,0.01045,0.0023375
1679997304629,1177292983499969,0.0441375,0.0114124995,0.0023375
1679997304631,1177292986002046,0.0441375,0.013475,0.0053625
1679997304635,1177292988503935,0.0451,0.0154,0.0053625
1679997304637,1177292991006012,0.043175,0.0125124995,0.0053625
1679997304639,1177292993507935,0.0441375,0.0154,0.0053625
1679997304641,1177292996010089,0.0411125,0.0165,0.0044
1679997304643,1177292998512166,0.0391875,0.01045,0.007425
1679997304646,1177293001014084,0.038225,0.0094875,0.006325
1679997304648,1177293003516161,0.037125,0.0034375,0.006325
1679997304651,1177293006018084,0.0341,0.0015125,0.007425
1679997304653,1177293008520161,0.032175,-0.0026125,0.0053625
1679997304656,1177293011022089,0.0331375,-0.0105875,0.0034375
1679997304658,1177293013524243,0.02915,-0.013612499,0.0023375
1679997304661,1177293016026319,0.027224999,-0.0165,0.0034375
1679997304663,1177293018528473,0.0281875,-0.02255,0.001375
1679997304667,1177293021030324,0.0242,-0.0275,-6.875E-4
1679997304668,1177293023532248,0.0231,-0.030524999,-0.00165
1679997304673,1177293026034324,0.0251625,-0.030524999,-0.003575
1679997304674,1177293028536478,0.027224999,-0.0345125,-0.004675
1679997304676,1177293031038401,0.027224999,-0.0385,-0.0066
1679997304679,1177293033540502,0.0221375,-0.0396,-0.0086624995
1679997304683,1177293036042656,0.0202125,-0.0356125,-0.0105875
1679997304684,1177293038544502,0.0221375,-0.0435875,-0.014575
1679997304687,1177293041046430,0.021175,-0.04455,-0.015675
1679997304689,1177293043548584,0.0221375,-0.0424875,-0.0196625
1679997304691,1177293046050738,0.01815,-0.0396,-0.0215875
1679997304693,1177293048552584,0.0171875,-0.0385,-0.0246125
1679997304696,1177293051054661,0.016224999,-0.0424875,-0.026675
1679997304698,1177293053556815,0.015125,-0.0385,-0.0276375
1679997304701,1177293056058738,0.0121,-0.036575,-0.0325875
1679997304703,1177293058560584,0.015125,-0.030524999,-0.0356125
1679997304707,1177293061062969,0.0121,-0.0265375,-0.037675
1679997304710,1177293063564901,0.0111375,-0.0265375,-0.0356125
1679997304712,1177293066066978,0.0061875,-0.0286,-0.036575
1679997304715,1177293068568824,0.00715,-0.025575,-0.037675
1679997304717,1177293071070978,0.0092124995,-0.02255,-0.0405625
1679997304719,1177293073572901,0.00715,-0.02255,-0.0386375
1679997304721,1177293076074728,0.00715,-0.0185625,-0.034649998
1679997304723,1177293078577113,0.0081124995,-0.019524999,-0.0356125
1679997304727,1177293081079036,0.0092124995,-0.0215875,-0.0356125
1679997304728,1177293083581113,0.00715,-0.0204875,-0.0325875
1679997304732,1177293086082959,0.0081124995,-0.02255,-0.0286
1679997304733,1177293088585094,0.0061875,-0.02255,-0.0295625
1679997304736,1177293091087017,0.0081124995,-0.025575,-0.0286
1679997304738,1177293093589094,0.00715,-0.0286,-0.025575
1679997304741,1177293096091257,0.004125,-0.030524999,-0.0276375
1679997304743,1177293098593180,0.0031625,-0.03355,-0.0226875
1679997304748,1177293101095026,0.0022,-0.036575,-0.0176
1679997304750,1177293103597180,0.0022,-0.041525,-0.0185625
1679997304752,1177293106099344,1.375E-4,-0.047575,-0.0176
1679997304753,1177293108601421,-0.00385,-0.0506,-0.0166375
1679997304756,1177293111103267,-0.00385,-0.0534875,-0.0166375
1679997304758,1177293113605421,-0.00385,-0.0576125,-0.0176
1679997304760,1177293116107344,-0.0048125,-0.0576125,-0.0166375
1679997304763,1177293118609214,-0.0048125,-0.0576125,-0.0166375
1679997304767,1177293121111368,-0.0078375,-0.0576125,-0.0176
1679997304768,1177293123613522,-0.0078375,-0.0576125,-0.0196625
1679997304771,1177293126115598,-0.005775,-0.0605,-0.02365
1679997304773,1177293128617532,-0.0108624995,-0.0576125,-0.0215875
1679997304776,1177293131119609,-0.0108624995,-0.0506,-0.0215875
1679997304778,1177293133621532,-0.0127875,-0.0495,-0.0196625
1679997304781,1177293136123609,-0.0127875,-0.0485375,-0.0185625
1679997304785,1177293138625762,-0.0108624995,-0.0424875,-0.0166375
1679997304788,1177293141127685,-0.0108624995,-0.0435875,-0.0176
1679997304790,1177293143629762,-0.0127875,-0.0435875,-0.0166375
1679997304792,1177293146131685,-0.0127875,-0.0396,-0.0166375
1679997304794,1177293148633762,-0.01485,-0.036575,-0.0116875
1679997304796,1177293151135699,-0.0158125,-0.0345125,-0.0105875
1679997304799,1177293153637776,-0.0158125,-0.03355,-0.0116875
1679997304800,1177293156139930,-0.01485,-0.030524999,-0.0116875
1679997304803,1177293158641853,-0.01485,-0.0275,-0.0116875
1679997304806,1177293161143964,-0.0138875,-0.0215875,-0.009625
1679997304808,1177293163645887,-0.0158125,-0.0246125,-0.0116875
1679997304810,1177293166147964,-0.016775,-0.025575,-0.01265
1679997304813,1177293168649887,-0.0188375,-0.0176,-0.0116875
1679997304816,1177293171152041,-0.0188375,-0.019524999,-0.0105875
1679997304818,1177293173654132,-0.0198,-0.0165,-0.01265
1679997304822,1177293176156055,-0.017875,-0.0165,-0.01265
1679997304825,1177293178658132,-0.0188375,-0.0185625,-0.009625
1679997304828,1177293181160045,-0.0209,-0.013612499,-0.009625
1679997304830,1177293183662122,-0.0209,-0.013612499,-0.0116875
1679997304832,1177293186164045,-0.017875,-0.0155375,-0.0105875
1679997304836,1177293188666199,-0.0188375,-0.01155,-0.009625
1679997304840,1177293191168276,-0.0158125,-0.01155,-0.0105875
1679997304840,1177293193670209,-0.016775,-0.01155,-0.0066
1679997304840,1177293196172286,-0.016775,-0.0105875,-0.0116875
1679997304843,1177293198674209,-0.017875,-0.014575,-0.014575
1679997304846,1177293201176286,-0.0138875,-0.0155375,-0.0105875
1679997304848,1177293203678204,-0.0127875,-0.014575,-0.0105875
1679997304851,1177293206180358,-0.0158125,-0.0105875,-0.014575
1679997304853,1177293208682435,-0.01485,-0.013612499,-0.015675
1679997304856,1177293211184358,-0.01485,-0.0125124995,-0.014575
1679997304859,1177293213686411,-0.016775,-0.0125124995,-0.0176
1679997304861,1177293216188334,-0.016775,-0.013612499,-0.0196625
1679997304863,1177293218690411,-0.017875,-0.0125124995,-0.0166375
1679997304867,1177293221192565,-0.017875,-0.01155,-0.0176
1679997304868,1177293223694719,-0.016775,-0.0066,-0.020624999
1679997304871,1177293226196555,-0.0218625,-0.0066,-0.020624999
1679997304873,1177293228698478,-0.02585,-0.008525,-0.0185625
1679997304876,1177293231200632,-0.0237875,-0.0105875,-0.0185625
1679997304878,1177293233702478,-0.0237875,-0.008525,-0.0196625
1679997304881,1177293236204555,-0.02585,-0.0045375,-0.0185625
1679997304884,1177293238706709,-0.0298375,-0.0066,-0.0166375
1679997304887,1177293241208863,-0.0308,-0.0015125,-0.015675
1679997304889,1177293243710709,-0.0308,0.0015125,-0.0166375
1679997304891,1177293246212632,-0.0319,0.0015125,-0.0176
1679997304894,1177293248714777,-0.0319,0.0064625,-0.015675
1679997304898,1177293251216854,-0.0328625,0.0114124995,-0.01265
1679997304900,1177293253718700,-0.0358875,0.01045,-0.014575
1679997304901,1177293256220926,-0.0328625,0.0094875,-0.009625
1679997304903,1177293258723002,-0.033825,0.0114124995,-0.0086624995
1679997304907,1177293261224926,-0.0358875,0.0094875,-0.0116875
1679997304909,1177293263727002,-0.0319,0.0044,-0.0116875
1679997304911,1177293266228926,-0.0298375,0.0114124995,-0.0105875
1679997304913,1177293268730967,-0.0298375,0.01045,-0.0105875
1679997304916,1177293271233121,-0.0308,0.0094875,-0.0105875
1679997304919,1177293273735044,-0.0308,0.0064625,-0.0116875
1679997304921,1177293276237121,-0.02585,0.002475,-0.0086624995
1679997304923,1177293278739039,-0.0268125,0.0015125,-0.0105875
1679997304927,1177293281241116,-0.0248875,-0.0015125,-0.014575
1679997304928,1177293283743039,-0.02585,-0.0026125,-0.014575
1679997304931,1177293286245116,-0.0237875,-0.01155,-0.0105875
1679997304935,1177293288747035,-0.0237875,-0.013612499,-0.0105875
1679997304937,1177293291249189,-0.0237875,-0.0165,-0.014575
1679997304939,1177293293751035,-0.0209,-0.0204875,-0.0105875
1679997304941,1177293296253112,-0.0188375,-0.0265375,-0.01265
1679997304943,1177293298755343,-0.0158125,-0.03355,-0.015675
1679997304947,1177293301257174,-0.0188375,-0.0356125,-0.015675
1679997304949,1177293303759251,-0.017875,-0.0396,-0.01265
1679997304951,1177293306261405,-0.0198,-0.0466125,-0.01265
1679997304953,1177293308763328,-0.0209,-0.047575,-0.0116875
1679997304956,1177293311265174,-0.0218625,-0.0506,-0.009625
1679997304958,1177293313767275,-0.0198,-0.0534875,-0.0056375
1679997304961,1177293316269506,-0.0198,-0.0576125,-0.0086624995
1679997304963,1177293318771583,-0.0209,-0.0616,-0.009625
1679997304966,1177293321273429,-0.0209,-0.0625625,-0.0066
1679997304968,1177293323775588,-0.017875,-0.0644875,-0.004675
1679997304973,1177293326277511,-0.016775,-0.0675125,-0.004675
1679997304976,1177293328779588,-0.0158125,-0.0686125,-0.004675
1679997304977,1177293331281511,-0.016775,-0.069575,-0.003575
1679997304979,1177293333783650,-0.0188375,-0.0715,0.0023375
1679997304982,1177293336285727,-0.0209,-0.0686125,0.001375
1679997304983,1177293338787650,-0.0209,-0.0686125,0.001375
1679997304987,1177293341289727,-0.0158125,-0.06655,0.0023375
1679997304989,1177293343791655,-0.0198,-0.0675125,0.0034375
1679997304991,1177293346293732,-0.017875,-0.0686125,0.0044
1679997304993,1177293348795655,-0.0188375,-0.0595375,0.0053625
1679997304996,1177293351297809,-0.0198,-0.0576125,0.0034375
1679997304998,1177293353799886,-0.0218625,-0.052525,0.0053625
1679997305001,1177293356301814,-0.0209,-0.0495,0.0053625
1679997305004,1177293358803891,-0.0209,-0.04455,0.007425
1679997305006,1177293361305814,-0.0188375,-0.041525,0.007425
1679997305010,1177293363807891,-0.0188375,-0.0396,0.0083875
1679997305012,1177293366310031,-0.0158125,-0.03355,0.007425
1679997305013,1177293368811954,-0.01485,-0.0286,0.006325
1679997305016,1177293371314031,-0.0188375,-0.025575,0.00935
1679997305018,1177293373815954,-0.017875,-0.02255,0.0083875
1679997305021,1177293376318031,-0.0127875,-0.019524999,0.006325
1679997305024,1177293378819954,-0.01485,-0.0176,0.007425
1679997305028,1177293381322108,-0.0158125,-0.013612499,0.0044
1679997305029,1177293383824184,-0.0138875,-0.01155,0.0053625
1679997305031,1177293386326108,-0.0127875,-0.01155,0.0053625
1679997305033,1177293388828185,-0.0108624995,-0.0045375,0.0023375
1679997305036,1177293391330117,-0.0078375,-0.0075625,4.125E-4
1679997305039,1177293393832194,-0.005775,-0.0075625,0.0023375
1679997305041,1177293396334117,-8.25E-4,-0.0066,0.0023375
1679997305043,1177293398836270,1.375E-4,-0.0015125,0.001375
1679997305048,1177293401338352,0.0011,-0.0055,0.001375
1679997305049,1177293403840275,0.0061875,-0.0066,0.001375
1679997305051,1177293406342352,0.005225,-0.0055,4.125E-4
1679997305053,1177293408844275,0.00715,-0.0066,-0.00165
1679997305056,1177293411346357,0.0092124995,-0.0075625,-6.875E-4
1679997305058,1177293413848511,0.0111375,-0.0075625,0.0023375
1679997305061,1177293416350434,0.0132,-0.008525,0.0044
1679997305063,1177293418852511,0.0132,-0.008525,0.0044
1679997305067,1177293421354448,0.0202125,-0.0066,0.001375
1679997305069,1177293423856525,0.0221375,-0.003575,4.125E-4
1679997305071,1177293426358448,0.0231,-0.003575,0.001375
1679997305073,1177293428860525,0.0202125,-0.0055,0.0023375
1679997305076,1177293431362694,0.0242,-0.003575,0.001375
1679997305078,1177293433864848,0.0251625,-0.0055,-0.003575
1679997305081,1177293436366694,0.0251625,-0.0026125,-0.003575
1679997305085,1177293438868612,0.0281875,-0.0026125,-0.004675
1679997305088,1177293441370689,0.0341,-0.0015125,-0.0026125
1679997305089,1177293443872843,0.032175,4.125E-4,-0.003575
1679997305091,1177293446374689,0.0331375,0.0055,-0.004675
1679997305093,1177293448876920,0.0352,0.0034375,-0.004675
1679997305096,1177293451378968,0.0312125,0.013475,-0.003575
1679997305098,1177293453880814,0.0331375,0.01045,-6.875E-4
1679997305101,1177293456382737,0.0352,0.013475,-0.0026125
1679997305103,1177293458884891,0.0391875,0.0165,-0.00165
1679997305107,1177293461386973,0.037125,0.018424999,-6.875E-4
1679997305109,1177293463888896,0.0361625,0.02145,-0.00165
1679997305111,1177293466390973,0.0361625,0.023375,-0.0026125
1679997305113,1177293468892896,0.0380875,0.0224125,-6.875E-4
1679997305116,1177293471394973,0.0341,0.024475,0.001375
1679997305118,1177293473896905,0.037125,0.0264,0.001375
1679997305123,1177293476399290,0.0380875,0.0264,0.001375
1679997305126,1177293478901136,0.0361625,0.024475,4.125E-4
1679997305127,1177293481403059,0.0352,0.023375,-6.875E-4
1679997305130,1177293483905117,0.032175,0.029424999,0.0023375
1679997305131,1177293486407271,0.032175,0.029424999,0.0034375
1679997305133,1177293488909117,0.032175,0.0264,0.0023375
1679997305136,1177293491411271,0.0331375,0.023375,0.0044
1679997305138,1177293493913425,0.0331375,0.023375,0.0053625
1679997305141,1177293496415338,0.0331375,0.02145,0.0053625
1679997305143,1177293498917184,0.031075,0.0204875,0.0053625
1679997305148,1177293501419338,0.031075,0.0154,0.0053625
1679997305148,1177293503921415,0.0270875,0.012375,0.006325
1679997305151,1177293506423281,0.0270875,0.0114124995,0.0053625
1679997305153,1177293508925435,0.0251625,0.007425,0.007425
1679997305156,1177293511427588,0.0231,0.002475,0.0044
1679997305160,1177293513929511,0.0242,0.0034375,0.0053625
1679997305161,1177293516431348,0.01815,0.001375,0.0044
1679997305165,1177293518933502,0.0191125,-0.0015125,0.0044
1679997305167,1177293521435578,0.01815,-0.0015125,0.007425
1679997305168,1177293523937732,0.0171875,-0.003575,0.006325
1679997305171,1177293526439578,0.0171875,-0.0015125,0.0034375
1679997305173,1177293528941742,0.0160875,-0.003575,0.0044
1679997305176,1177293531443665,0.0171875,-0.0045375,0.0053625
1679997305179,1177293533945742,0.0171875,-0.0055,0.006325
1679997305181,1177293536447665,0.0160875,-0.0026125,0.0053625
1679997305183,1177293538949766,0.0160875,4.125E-4,0.006325
1679997305187,1177293541451920,0.0160875,4.125E-4,0.007425
1679997305189,1177293543953843,0.0191125,4.125E-4,0.006325
1679997305191,1177293546455920,0.0191125,0.0044,0.0053625
1679997305194,1177293548957842,0.01815,0.0094875,0.0053625
1679997305198,1177293551459919,0.021175,0.007425,0.0044
1679997305199,1177293553961842,0.0242,0.007425,0.0044
1679997305201,1177293556463919,0.0231,0.0114124995,0.0053625
1679997305203,1177293558966073,0.0242,0.0165,0.0044
1679997305206,1177293561468001,0.026124999,0.0165,0.0023375
1679997305208,1177293563970078,0.026124999,0.0174625,0.0023375
1679997305211,1177293566472001,0.0281875,0.02145,0.001375
1679997305216,1177293568974078,0.031075,0.0224125,0.001375
1679997305216,1177293571476001,0.0331375,0.023375,4.125E-4
1679997305218,1177293573978155,0.0341,0.0284625,-0.00165
1679997305221,1177293576480232,0.032175,0.029424999,-0.0026125
1679997305225,1177293578982150,0.032175,0.032449998,-0.0026125
1679997305227,1177293581484227,0.0331375,0.0303875,-0.0026125
1679997305229,1177293583986150,0.0341,0.0314875,-0.00165
1679997305235,1177293586488213,0.0352,0.032449998,-0.0075625
1679997305236,1177293588990136,0.0361625,0.029424999,-0.004675
1679997305238,1177293591492290,0.0341,0.0275,-0.00165
1679997305241,1177293593994367,0.0341,0.023375,-0.0026125
1679997305242,1177293596496290,0.032175,0.0193875,4.125E-4
1679997305244,1177293598998367,0.0341,0.0165,-6.875E-4
1679997305246,1177293601500266,0.0352,0.013475,-0.00165
1679997305249,1177293604002343,0.032175,0.0094875,0.001375
1679997305251,1177293606504266,0.0341,0.0064625,0.0023375
1679997305254,1177293609006420,0.0281875,-0.0026125,0.0034375
1679997305256,1177293611508574,0.026124999,-0.0075625,0.0023375
1679997305259,1177293614010445,0.0281875,-0.01155,0.0034375
1679997305261,1177293616512522,0.0242,-0.014575,0.007425
1679997305265,1177293619014445,0.0221375,-0.0185625,0.006325
1679997305267,1177293621516536,0.0242,-0.02255,0.0053625
1679997305269,1177293624018690,0.0221375,-0.02255,0.007425
1679997305272,1177293626520613,0.01815,-0.0265375,0.0083875
1679997305276,1177293629022767,0.0171875,-0.0295625,0.0114124995
1679997305277,1177293631524613,0.0160875,-0.0325875,0.0083875
1679997305279,1177293634026685,0.015125,-0.0325875,0.00935
1679997305281,1177293636528838,0.010175,-0.0286,0.0083875
1679997305285,1177293639030762,0.0111375,-0.025575,0.006325
1679997305287,1177293641532838,0.0121,-0.025575,0.00935
1679997305289,1177293644034762,0.0111375,-0.0215875,0.00935
1679997305291,1177293646536915,0.0160875,-0.0215875,0.00935
1679997305295,1177293649038992,0.0121,-0.020624999,0.007425
1679997305296,1177293651540915,0.0121,-0.013612499,0.0083875
1679997305299,1177293654042997,0.0121,-0.0105875,0.0044
1679997305302,1177293656544920,0.0111375,-0.0055,0.0053625
1679997305305,1177293659046997,0.0111375,-0.0015125,0.00935
1679997305311,1177293661548905,0.0132,-5.5E-4,0.007425
1679997305311,1177293664050982,0.0171875,0.002475,0.0053625
1679997305313,1177293666552905,0.0171875,0.0044,0.0034375
1679997305316,1177293669055290,0.01815,0.01045,0.0053625
1679997305318,1177293671557136,0.020075,0.01045,0.007425
1679997305320,1177293674059059,0.0191125,0.013475,0.007425
1679997305321,1177293676561127,0.0191125,0.012375,0.006325
1679997305325,1177293679063050,0.021175,0.01045,0.007425
1679997305327,1177293681565127,0.01815,0.0114124995,0.007425
1679997305329,1177293684067281,0.01815,0.01045,0.006325
1679997305332,1177293686569204,0.0191125,0.007425,0.006325
1679997305335,1177293689071262,0.0191125,0.0064625,0.007425
1679997305336,1177293691573185,0.01815,0.0055,0.00935
1679997305339,1177293694075339,0.0160875,-0.0015125,0.0103124995
1679997305342,1177293696577416,0.0171875,-0.003575,0.007425
1679997305345,1177293699079271,0.021175,-0.0026125,0.007425
1679997305349,1177293701581425,0.020075,-0.0055,0.00935
1679997305351,1177293704083579,0.021175,-0.0125124995,0.0103124995
1679997305352,1177293706585502,0.0221375,-0.0125124995,0.00935
1679997305355,1177293709087348,0.020075,-0.013612499,0.00935
1679997305357,1177293711589420,0.0221375,-0.01155,0.0103124995
1679997305358,1177293714091574,0.0242,-0.014575,0.007425
1679997305361,1177293716593497,0.026124999,-0.0165,0.0053625
1679997305365,1177293719095574,0.0251625,-0.0165,0.0053625
1679997305367,1177293721597733,0.0251625,-0.014575,0.0023375
1679997305368,1177293724099656,0.0251625,-0.0125124995,0.0023375
1679997305372,1177293726601502,0.026124999,-0.01155,4.125E-4
1679997305375,1177293729103656,0.0242,-0.0125124995,-0.00165
1679997305376,1177293731605748,0.026124999,-0.009625,-0.003575
1679997305379,1177293734107902,0.0270875,-0.0055,-0.003575
1679997305381,1177293736609748,0.026124999,-0.0026125,-0.003575
1679997305387,1177293739111892,0.026124999,-0.0026125,-0.004675
1679997305389,1177293741612852,0.0251625,4.125E-4,-0.003575
1679997305389,1177293744113815,0.0242,0.0044,-0.004675
1679997305391,1177293746617815,0.0221375,0.0044,-0.004675
1679997305396,1177293749119892,0.021175,0.0094875,-0.0026125
1679997305397,1177293751622046,0.0231,0.01045,4.125E-4
1679997305399,1177293754123969,0.0191125,0.013475,0.001375
1679997305401,1177293756626046,0.0191125,0.01045,0.0034375
1679997305405,1177293759127969,0.01815,0.01045,0.0034375
1679997305409,1177293761630041,0.0171875,0.01045,0.0044
1679997305409,1177293764131964,0.015125,0.0094875,0.0044
1679997305412,1177293766634117,0.0132,0.007425,0.0053625
1679997305416,1177293769136194,0.010175,0.0044,0.007425
1679997305417,1177293771638117,0.009075,0.002475,0.007425
1679997305419,1177293774140213,0.009075,0.002475,0.0083875
1679997305424,1177293776642137,0.00715,0.001375,0.006325
1679997305430,1177293779144193,0.0081124995,0.001375,0.0044
1679997305433,1177293781645154,0.0061875,-0.0026125,0.006325
1679997305433,1177293784146117,0.00715,-0.0026125,0.0053625
1679997305434,1177293786650347,0.0061875,-0.003575,0.0053625
1679997305435,1177293789152270,0.0050875,-0.003575,0.0053625
1679997305437,1177293791654347,0.0011,-0.0045375,0.0044
1679997305439,1177293794156270,0.0031625,-0.0045375,0.0034375
1679997305441,1177293796658352,0.0050875,-0.0045375,0.0053625
1679997305445,1177293799160275,0.004125,-0.003575,-6.875E-4
1679997305447,1177293801662429,0.00715,-0.0055,-0.0026125
1679997305449,1177293804164506,0.0022,-0.0075625,-0.0026125
1679997305452,1177293806666429,0.004125,-0.0045375,-0.00165
1679997305455,1177293809168506,0.0061875,-0.0026125,4.125E-4
1679997305457,1177293811670429,0.0050875,-0.0055,-6.875E-4
1679997305462,1177293814172506,0.00715,-0.0015125,4.125E-4
1679997305464,1177293816674679,0.00715,4.125E-4,-0.0056375
1679997305466,1177293819176602,0.0132,0.002475,-0.0026125
1679997305468,1177293821678756,0.0160875,0.001375,-0.003575
1679997305470,1177293824180602,0.015125,0.0064625,-0.0075625
1679997305471,1177293826682679,0.0160875,0.007425,-0.0056375
1679997305475,1177293829184838,0.0171875,0.0094875,-0.0075625
1679997305477,1177293831686761,0.0191125,0.013475,-0.0075625
1679997305478,1177293834188838,0.0191125,0.0144375,-0.0075625
1679997305482,1177293836690761,0.0251625,0.0154,-0.0075625
1679997305485,1177293839192857,0.0281875,0.013475,-0.009625
1679997305487,1177293841694780,0.02915,0.013475,-0.0086624995
1679997305488,1177293844196934,0.031075,0.0154,-0.014575
1679997305491,1177293846699011,0.0352,0.0144375,-0.0166375
1679997305495,1177293849200939,0.037125,0.0114124995,-0.0166375
1679997305498,1177293851703016,0.037125,0.007425,-0.014575
1679997305500,1177293854204939,0.0380875,0.007425,-0.0185625
1679997305502,1177293856707016,0.042075,0.0064625,-0.0176
1679997305506,1177293859208958,0.0391875,0.0044,-0.0185625
1679997305507,1177293861711112,0.037125,-5.5E-4,-0.0185625
1679997305509,1177293864213266,0.0391875,-0.0015125,-0.0196625
1679997305511,1177293866715112,0.0411125,-0.0045375,-0.0185625
1679997305515,1177293869217189,0.0391875,-0.01155,-0.0166375
1679997305517,1177293871719334,0.0391875,-0.0185625,-0.0166375
1679997305518,1177293874221257,0.043175,-0.0246125,-0.0116875
1679997305521,1177293876723334,0.042075,-0.0295625,-0.0086624995
1679997305525,1177293879225487,0.04015,-0.0396,-0.0086624995
1679997305527,1177293881727396,0.042075,-0.0466125,-0.0075625
1679997305529,1177293884229242,0.043175,-0.0576125,-0.0086624995
1679997305532,1177293886731319,0.0411125,-0.0616,-0.0066
1679997305537,1177293889233472,0.042075,-0.0675125,-0.0075625
1679997305538,1177293891735406,0.042075,-0.075625,-0.0056375
1679997305540,1177293894237482,0.042075,-0.07755,-0.003575
1679997305542,1177293896739636,0.0380875,-0.0836,-0.0056375
1679997305550,1177293899241554,0.0361625,-0.0906125,-0.0075625
1679997305550,1177293901743631,0.037125,-0.0925375,-0.009625
1679997305550,1177293904245554,0.0361625,-0.091575,-0.009625
1679997305552,1177293906747631,0.032175,-0.08855,-0.0066
1679997305555,1177293909249554,0.031075,-0.0875875,-0.0066
1679997305556,1177293911751708,0.0331375,-0.08855,-0.004675
1679997305560,1177293914253766,0.037125,-0.08855,-0.003575
1679997305561,1177293916755689,0.0352,-0.0836,-0.00165
1679997305568,1177293919257766,0.037125,-0.0765875,0.001375
1679997305568,1177293921759689,0.0361625,-0.0705375,0.001375
1679997305569,1177293924261766,0.0391875,-0.06655,0.0034375
1679997305573,1177293926763919,0.037125,-0.0605,0.006325
1679997305576,1177293929265842,0.0380875,-0.052525,0.0103124995
1679997305577,1177293931767919,0.0411125,-0.04455,0.0083875
1679997305581,1177293934269876,0.0411125,-0.0356125,0.0083875
1679997305582,1177293936771953,0.0411125,-0.0295625,0.00935
1679997305586,1177293939273876,0.04015,-0.0215875,0.0114124995
1679997305588,1177293941775953,0.0441375,-0.013612499,0.012375
1679997305589,1177293944278107,0.0462,-0.0075625,0.0114124995
1679997305591,1177293946780030,0.048125,4.125E-4,0.0103124995
1679997305595,1177293949282107,0.0501875,0.0094875,0.0103124995
1679997305597,1177293951784030,0.0501875,0.0154,0.00935
1679997305600,1177293954286107,0.0501875,0.023375,0.0114124995
1679997305602,1177293956788044,0.0490875,0.024475,0.0103124995
1679997305607,1177293959290121,0.0451,0.0314875,0.00935
1679997305607,1177293961792275,0.0462,0.0364375,0.0083875
1679997305611,1177293964294198,0.0490875,0.035475,0.0083875
1679997305612,1177293966796271,0.048125,0.0334125,0.007425
1679997305615,1177293969298194,0.0490875,0.0334125,0.0053625
1679997305617,1177293971800271,0.0460625,0.0364375,0.0023375
1679997305619,1177293974302194,0.0451,0.035475,-0.00165
1679997305621,1177293976804348,0.0441375,0.0334125,-6.875E-4
1679997305625,1177293979306506,0.0451,0.0334125,-0.0026125
1679997305628,1177293981808352,0.0460625,0.034375,-0.0026125
1679997305629,1177293984310429,0.043175,0.0284625,-0.003575
1679997305632,1177293986812583,0.042075,0.0264,-0.003575
1679997305635,1177293989314506,0.0441375,0.024475,-0.004675
1679997305636,1177293991816343,0.043175,0.0174625,-0.0066
1679997305639,1177293994318497,0.042075,0.01045,-0.0066
1679997305641,1177293996820651,0.0411125,0.013475,-0.009625
1679997305645,1177293999322497,0.0411125,0.0114124995,-0.009625
1679997305650,1177294001824564,0.0441375,0.007425,-0.009625
1679997305650,1177294004326718,0.042075,0.0064625,-0.0116875
1679997305652,1177294006828641,0.0411125,0.0034375,-0.0166375
1679997305655,1177294009330718,0.0380875,0.0044,-0.0176
1679997305657,1177294011832641,0.039049998,-5.5E-4,-0.0176
1679997305659,1177294014334794,0.0380875,-0.0015125,-0.020624999
1679997305661,1177294016836866,0.0380875,-0.0015125,-0.0226875
1679997305666,1177294019338713,0.0350625,-0.008525,-0.02365
1679997305667,1177294021840866,0.0350625,-0.0066,-0.0246125
1679997305669,1177294024342780,0.0341,-0.008525,-0.026675
1679997305671,1177294026844857,0.02805,-0.0075625,-0.031625
1679997305675,1177294029346780,0.026124999,-0.0066,-0.0286
1679997305677,1177294031848857,0.0240625,-0.0075625,-0.0295625
1679997305679,1177294034350781,0.0240625,-0.0056375,-0.0336875
1679997305682,1177294036853160,0.0240625,-0.003575,-0.0325875
1679997305687,1177294039355006,0.0221375,-0.0066,-0.0295625
1679997305689,1177294041856929,0.0231,-0.0075625,-0.0286
1679997305690,1177294044423391,0.021175,-0.0015125,-0.0286
1679997305692,1177294046861160,0.020075,-0.0045375,-0.0276375
1679997305695,1177294049363006,0.0191125,-0.0026125,-0.0276375
1679997305697,1177294051864929,0.0191125,-0.0066,-0.0276375
1679997305699,1177294054367314,0.01815,-0.0066,-0.025575
1679997305701,1177294056869237,0.01705,-0.0015125,-0.02365
1679997305705,1177294059371102,0.01815,-0.003575,-0.025575
1679997305708,1177294061873256,0.015125,-0.0066,-0.0226875
1679997305709,1177294064375333,0.0160875,-0.0066,-0.020624999
1679997305712,1177294066877179,0.0160875,-0.0056375,-0.0185625
1679997305715,1177294069379073,0.0111375,-0.0066,-0.0185625
1679997305717,1177294071881458,0.010175,-0.009625,-0.015675
1679997305719,1177294074383381,0.010175,-0.008525,-0.0166375
1679997305724,1177294076885227,0.0050875,-0.0066,-0.0166375
1679997305727,1177294079387376,0.0050875,-0.0066,-0.0166375
1679997305728,1177294082051068,0.00605,-0.009625,-0.015675
1679997305730,1177294084391376,0.004125,-0.0066,-0.015675
1679997305732,1177294086893453,0.0050875,-0.0105875,-0.0166375
1679997305735,1177294089395641,0.0081124995,-0.01155,-0.0105875
1679997305737,1177294091897564,0.010175,-0.009625,-0.0105875
1679997305739,1177294094399641,0.00715,-0.0105875,-0.01265
1679997305742,1177294096901564,0.00605,-0.008525,-0.014575
1679997305746,1177294099403607,0.009075,-0.0026125,-0.0105875
1679997305747,1177294101905530,0.0121,-0.003575,-0.0086624995
1679997305749,1177294104407684,0.00715,-0.003575,-0.01265
1679997305752,1177294106909761,0.009075,0.001375,-0.01265
1679997305756,1177294109411684,0.0081124995,0.002475,-0.009625
1679997305757,1177294111913742,0.0050875,0.0034375,-0.0116875
1679997305761,1177294114415665,0.0031625,0.0053625,-0.0105875
1679997305762,1177294116917742,0.0031625,0.0094875,-0.01265
1679997305765,1177294119419896,0.0050875,0.01045,-0.0105875
1679997305767,1177294121921828,0.0050875,0.0163625,-0.0105875
1679997305769,1177294124423905,0.0050875,0.0193875,-0.01265
1679997305771,1177294126925828,0.0050875,0.0193875,-0.009625
1679997305775,1177294129427905,0.004125,0.0224125,-0.009625
1679997305777,1177294131929828,0.0031625,0.0284625,-0.0086624995
1679997305779,1177294134431901,1.375E-4,0.0284625,-0.0105875
1679997305781,1177294136934054,0.0020625,0.029424999,-0.009625
1679997305786,1177294139435978,0.0031625,0.0264,-0.0056375
1679997305787,1177294141938054,0.0020625,0.0264,-0.0066
1679997305790,1177294144439978,-8.25E-4,0.0284625,-0.0066
1679997305792,1177294146942054,-8.25E-4,0.024475,-0.0066
1679997305795,1177294149443978,-8.25E-4,0.018424999,-0.0066
1679997305800,1177294151946034,-8.25E-4,0.013475,-0.004675
1679997305800,1177294154448188,-0.001925,0.0114124995,-0.0026125
1679997305802,1177294156950111,1.375E-4,0.0064625,-0.003575
1679997305805,1177294159452188,0.0011,0.0064625,-0.00165
1679997305806,1177294161954342,-0.001925,0.001375,0.001375
1679997305809,1177294164456179,-8.25E-4,-0.008525,-0.0026125
1679997305811,1177294166958102,0.0011,-0.009625,-0.00165
1679997305815,1177294169460487,0.0011,-0.0166375,-0.00165
1679997305816,1177294171962333,-0.00495,-0.0265375,-0.00165
1679997305820,1177294174464270,-8.25E-4,-0.0276375,-0.004675
1679997305822,1177294176966347,-0.0059125,-0.030524999,-0.0086624995
1679997305826,1177294179468501,-0.0078375,-0.0345125,-0.0075625
1679997305828,1177294181970347,-0.006875,-0.0435875,-0.0086624995
1679997305829,1177294184472275,-0.0078375,-0.0496375,-0.009625
1679997305832,1177294186974660,-0.0089375,-0.047575,-0.0116875
1679997305836,1177294189476583,-0.0078375,-0.0506,-0.015675
1679997305838,1177294191978429,-0.0078375,-0.053625,-0.015675
1679997305840,1177294194480501,-0.0078375,-0.0576125,-0.0166375
1679997305842,1177294196982655,-0.0089375,-0.0625625,-0.0166375
1679997305845,1177294199484578,-0.0089375,-0.063525,-0.0166375
1679997305847,1177294201986732,-0.0108624995,-0.0606375,-0.0196625
1679997305849,1177294204488809,-0.01595,-0.0595375,-0.0185625
1679997305852,1177294206990655,-0.017875,-0.0616,-0.0196625
1679997305855,1177294209492578,-0.017875,-0.063525,-0.0196625
1679997305857,1177294211994732,-0.0188375,-0.0625625,-0.020624999
1679997305860,1177294214496886,-0.017875,-0.0625625,-0.0196625
1679997305862,1177294216998747,-0.0169125,-0.0625625,-0.0176
1679997305866,1177294219500901,-0.0199375,-0.0545875,-0.0176
1679997305868,1177294222002978,-0.0218625,-0.0506,-0.0196625
1679997305869,1177294224504824,-0.0209,-0.0466125,-0.020624999
1679997305873,1177294227006742,-0.017875,-0.0396,-0.0185625
1679997305879,1177294229509127,-0.0199375,-0.0396,-0.0176
1679997305879,1177294232011050,-0.0199375,-0.036575,-0.015675
1679997305880,1177294234513127,-0.017875,-0.0325875,-0.0166375
1679997305882,1177294237015050,-0.017875,-0.030524999,-0.015675
1679997305885,1177294239517127,-0.017875,-0.0246125,-0.0176
1679997305887,1177294242019050,-0.0209,-0.019524999,-0.0166375
1679997305889,1177294244521127,-0.017875,-0.014575,-0.0166375
1679997305891,1177294247023280,-0.017875,-0.0105875,-0.009625
1679997305895,1177294249525213,-0.0138875,-0.009625,-0.0086624995
1679997305896,1177294252027289,-0.0138875,-0.0066,-0.009625
1679997305900,1177294254529213,-0.0138875,-0.003575,-0.0086624995
1679997305902,1177294257031290,-0.011825,-5.5E-4,-0.014575
1679997305906,1177294259533199,-0.011825,-0.0015125,-0.0116875
1679997305908,1177294262035276,-0.0099,4.125E-4,-0.0116875
1679997305912,1177294264537429,-0.006875,0.001375,-0.01265
1679997305914,1177294267039352,-0.00495,0.0044,-0.015675
1679997305916,1177294269541453,-0.0059125,0.0064625,-0.0116875
1679997305918,1177294272043376,-0.00385,0.007425,-0.0105875
1679997305923,1177294274545453,-0.00385,0.01045,-0.01265
1679997305923,1177294277047376,-0.00385,0.0064625,-0.014575
1679997305926,1177294279549544,1.375E-4,0.013475,-0.0166375
1679997305928,1177294282051621,0.0031625,0.0144375,-0.0166375
1679997305929,1177294284553544,0.0020625,0.0114124995,-0.0196625
1679997305933,1177294287055621,0.00605,0.01045,-0.0226875
1679997305935,1177294289557544,0.009075,0.013475,-0.0215875
1679997305937,1177294292059621,0.0081124995,0.01045,-0.025575
1679997305939,1177294294561544,0.00715,0.0064625,-0.026675
1679997305941,1177294297063698,0.00715,0.007425,-0.0246125
1679997305945,1177294299565775,0.010175,0.0064625,-0.0246125
1679997305949,1177294302067689,0.0121,0.0064625,-0.025575
1679997305951,1177294304569766,0.0121,0.002475,-0.0276375
1679997305953,1177294307071689,0.013062499,0.0034375,-0.0276375
1679997305955,1177294309573766,0.0121,4.125E-4,-0.0295625
1679997305957,1177294312075689,0.013062499,-0.0015125,-0.0295625
1679997305959,1177294314577833,0.01815,4.125E-4,-0.0276375
1679997305961,1177294317079910,0.01705,-0.0045375,-0.0276375
1679997305966,1177294319582064,0.015125,-0.0045375,-0.0276375
1679997305967,1177294322083910,0.013062499,-0.0045375,-0.026675
1679997305970,1177294324585828,0.013062499,-0.0045375,-0.0246125
1679997305972,1177294327087982,0.0160875,-0.009625,-0.02365
1679997305975,1177294329590059,0.013062499,-0.0105875,-0.0246125
1679997305976,1177294332091982,0.0121,-0.0125124995,-0.0246125
1679997305979,1177294334594141,0.0121,-0.0125124995,-0.0246125
1679997305982,1177294337096218,0.009075,-0.0166375,-0.0226875
1679997305988,1177294339598064,0.00715,-0.0176,-0.0215875
1679997305990,1177294342099131,0.00715,-0.019524999,-0.0215875
1679997305990,1177294344600208,0.004125,-0.0166375,-0.0226875
1679997305992,1177294347104285,0.004125,-0.014575,-0.0185625
1679997305995,1177294349606131,0.0050875,-0.0155375,-0.0176
1679997305997,1177294352108285,0.004125,-0.019524999,-0.0185625
1679997305999,1177294354610362,1.375E-4,-0.019524999,-0.0176
1679997306002,1177294357112271,0.0011,-0.019524999,-0.0166375
1679997306005,1177294359614348,-0.001925,-0.0215875,-0.015675
1679997306007,1177294362116502,-8.25E-4,-0.0215875,-0.0166375
1679997306009,1177294364618425,1.375E-4,-0.0166375,-0.014575
1679997306012,1177294367120502,-8.25E-4,-0.013612499,-0.01265
1679997306015,1177294369622425,1.375E-4,-0.01155,-0.014575
1679997306016,1177294372124502,-8.25E-4,-0.009625,-0.015675
1679997306020,1177294374626425,-0.00495,-0.008525,-0.0105875
1679997306023,1177294377128497,-8.25E-4,-0.0045375,-0.015675
1679997306028,1177294379630650,0.0011,-0.0026125,-0.014575
1679997306029,1177294384632573,-0.0059125,0.0034375,-0.01265
1679997306031,1177294384737189,-0.00385,0.0053625,-0.01265
1679997306033,1177294387136574,-0.001925,0.0053625,-0.014575
1679997306035,1177294389638616,-8.25E-4,0.0114124995,-0.0166375
1679997306037,1177294392140770,0.0011,0.0144375,-0.015675
1679997306039,1177294394642693,0.0011,0.0174625,-0.01265
1679997306042,1177294397144540,0.0020625,0.018424999,-0.01265
1679997306045,1177294399646708,0.0011,0.018424999,-0.015675
1679997306047,1177294402148785,0.0020625,0.0224125,-0.015675
1679997306049,1177294404650708,0.0020625,0.0224125,-0.01265
1679997306052,1177294407152785,0.0031625,0.0224125,-0.0116875
1679997306055,1177294409654939,0.0050875,0.023375,-0.009625
1679997306057,1177294412156862,0.00605,0.023375,-0.0086624995
1679997306061,1177294414658939,0.0081124995,0.024475,-0.009625
1679997306062,1177294417160862,0.00715,0.02145,-0.0056375
1679997306066,1177294419662915,0.00715,0.0193875,-0.0075625
1679997306068,1177294422164838,0.010175,0.0174625,-0.0056375
1679997306069,1177294424666992,0.0121,0.0144375,-0.0075625
1679997306072,1177294427169069,0.0111375,0.0163625,-0.009625
1679997306075,1177294429670992,0.015125,0.0174625,-0.0086624995
1679997306077,1177294432173083,0.0160875,0.0114124995,-0.009625
1679997306080,1177294434675006,0.015125,0.0094875,-0.0116875
1679997306084,1177294437177083,0.0191125,0.0034375,-0.01265
1679997306087,1177294439679237,0.01815,-0.0045375,-0.0116875
1679997306089,1177294442181165,0.0160875,-0.0105875,-0.015675
1679997306090,1177294444683242,0.0160875,-0.013612499,-0.0176
1679997306091,1177294447185165,0.013062499,-0.0166375,-0.0176
1679997306095,1177294449687242,0.020075,-0.020624999,-0.0166375
1679997306099,1177294452189155,0.0160875,-0.0215875,-0.0196625
1679997306100,1177294454691232,0.015125,-0.0276375,-0.0215875
1679997306102,1177294457193386,0.015125,-0.030524999,-0.0226875
1679997306106,1177294459695309,0.015125,-0.036575,-0.02365
1679997306107,1177294462197386,0.015125,-0.0396,-0.025575
1679997306110,1177294464699285,0.0111375,-0.0455125,-0.0226875
1679997306111,1177294467201362,0.0121,-0.0485375,-0.0246125
1679997306115,1177294469703285,0.0111375,-0.0495,-0.0226875
1679997306117,1177294472205439,0.009075,-0.0515625,-0.0185625
1679997306120,1177294474707531,0.0111375,-0.052525,-0.0166375
1679997306122,1177294477209454,0.009075,-0.0545875,-0.0176
1679997306125,1177294479711531,0.0031625,-0.0576125,-0.0176
1679997306127,1177294482213685,0.0061875,-0.058575,-0.01265
1679997306129,1177294484715536,0.0020625,-0.0616,-0.015675
1679997306132,1177294487217459,0.0011,-0.063525,-0.01265
1679997306136,1177294489719843,-0.001925,-0.058575,-0.0116875
1679997306138,1177294492221690,1.375E-4,-0.0605,-0.009625
1679997306140,1177294494723618,-0.001925,-0.0605,-0.009625
1679997306142,1177294497225695,-0.0059125,-0.058575,-0.0105875
1679997306146,1177294499727848,-0.0059125,-0.0545875,-0.0116875
1679997306148,1177294502229695,-0.006875,-0.0545875,-0.0176
1679997306149,1177294504731618,-0.0099,-0.05555,-0.015675
1679997306152,1177294507233997,-0.0089375,-0.0515625,-0.015675
1679997306156,1177294509735920,-0.0099,-0.0495,-0.014575
1679997306156,1177294512237767,-0.0099,-0.042625,-0.0176
1679997306160,1177294514739920,-0.0108624995,-0.04455,-0.0086624995
1679997306162,1177294517241992,-0.012925,-0.04455,-0.0086624995
1679997306165,1177294519743915,-0.012925,-0.0385,-0.0086624995
1679997306167,1177294522246069,-0.01485,-0.0396,-0.0066
1679997306169,1177294524748146,-0.011825,-0.0466125,-0.0066
1679997306173,1177294527250074,-0.0158125,-0.042625,-0.0066
1679997306176,1177294529752151,-0.017875,-0.0385,-0.0066
1679997306177,1177294532254074,-0.0158125,-0.0356125,-0.003575
1679997306180,1177294534756151,-0.017875,-0.036575,-0.003575
1679997306181,1177294537258074,-0.0188375,-0.0345125,-0.0056375
1679997306186,1177294539760228,-0.01485,-0.0325875,-0.0056375
1679997306188,1177294542262305,-0.0169125,-0.0286,-0.0066
1679997306189,1177294544764228,-0.01485,-0.0275,-0.0066
1679997306192,1177294547266305,-0.0138875,-0.030524999,-0.0056375
1679997306196,1177294549768228,-0.01485,-0.025575,-0.009625
1679997306197,1177294552270305,-0.011825,-0.0215875,-0.004675
1679997306200,1177294554772228,-0.0108624995,-0.0185625,-0.004675
1679997306202,1177294557274382,-0.0099,-0.014575,-0.003575
1679997306205,1177294559776493,-0.0099,-0.01155,-0.003575
1679997306207,1177294562278416,-0.0078375,-0.014575,-0.00165
1679997306211,1177294564780493,-0.0048125,-0.014575,-0.003575
1679997306213,1177294567282416,1.375E-4,-0.01155,-0.004675
1679997306215,1177294569784570,1.375E-4,-0.01155,-0.0056375
1679997306217,1177294572286627,1.375E-4,-0.0105875,-0.004675
1679997306219,1177294574788550,-0.001925,-0.0105875,-0.004675
1679997306222,1177294577290627,0.0031625,-0.003575,-0.004675
1679997306227,1177294579792546,0.0031625,-5.5E-4,-0.004675
1679997306229,1177294582294700,0.0020625,-0.0015125,-0.0056375
1679997306230,1177294584796777,0.0031625,-0.003575,-0.0026125
1679997306232,1177294587298700,1.375E-4,0.002475,-0.003575
1679997306235,1177294589800777,0.0011,0.002475,-0.004675
1679997306237,1177294592302690,1.375E-4,0.0055,-0.0056375
1679997306240,1177294594804767,-0.001925,0.0044,-0.0056375
1679997306242,1177294597306690,-0.006875,4.125E-4,-0.0026125
1679997306245,1177294599808844,-0.006875,0.002475,-0.0026125
1679997306248,1177294602310926,-0.006875,0.002475,-0.0026125
1679997306250,1177294604812849,-0.0099,0.002475,-0.00165
1679997306252,1177294607314926,-0.0089375,0.0044,0.0023375
1679997306256,1177294609816849,-0.0099,0.0055,0.0023375
1679997306257,1177294612318926,-0.0108624995,0.007425,0.0034375
1679997306260,1177294614820820,-0.0078375,0.0114124995,0.0053625
1679997306262,1177294617322974,-0.006875,0.0154,0.007425
1679997306266,1177294619825051,-0.006875,0.0165,0.0083875
1679997306268,1177294622326974,-0.0089375,0.0204875,0.00935
1679997306270,1177294624829065,-0.0108624995,0.0193875,0.0083875
1679997306272,1177294627330988,-0.0089375,0.024475,0.00935
1679997306277,1177294629833141,-0.0089375,0.0314875,0.0103124995
1679997306278,1177294632335218,-0.0089375,0.032449998,0.0083875
1679997306279,1177294634837141,-0.0099,0.0334125,0.00935
1679997306283,1177294637339233,-0.0078375,0.034375,0.0114124995
1679997306287,1177294639841387,-0.0099,0.0374,0.012375
1679997306289,1177294642343233,-0.0099,0.043449998,0.0103124995
1679997306290,1177294644845146,-0.0078375,0.0394625,0.012375
1679997306292,1177294647347299,-0.0078375,0.0394625,0.0114124995
1679997306297,1177294649849376,-0.0078375,0.043449998,0.012375
1679997306298,1177294652351530,-0.01485,0.040425,0.0144375
1679997306300,1177294654853453,-0.0138875,0.0394625,0.00935
1679997306302,1177294657355525,-0.0138875,0.034375,0.007425
1679997306306,1177294659857371,-0.012925,0.0374,0.0083875
1679997306308,1177294662359525,-0.012925,0.0334125,0.007425
1679997306309,1177294664861448,-0.0108624995,0.0264,0.0083875
1679997306312,1177294667363593,-0.012925,0.0303875,0.00935
1679997306315,1177294669865439,-0.011825,0.0284625,0.007425
1679997306317,1177294672367593,-0.011825,0.018424999,0.006325
1679997306320,1177294674869670,-0.0099,0.013475,0.0044
1679997306324,1177294677371597,-0.0089375,0.0114124995,0.0044
1679997306326,1177294679873674,-0.0108624995,0.0064625,0.0034375
1679997306328,1177294682375828,-0.0108624995,0.001375,0.0053625
1679997306331,1177294684877751,-0.011825,-5.5E-4,0.0044
1679997306332,1177294687379828,-0.0099,-0.0045375,4.125E-4
1679997306336,1177294689881766,-0.011825,-0.008525,0.001375
1679997306337,1177294692383843,-0.01485,-0.0105875,0.001375
1679997306340,1177294694885766,-0.0169125,-0.014575,4.125E-4
1679997306342,1177294697387843,-0.0199375,-0.0155375,0.001375
1679997306346,1177294699890007,-0.0169125,-0.0176,-6.875E-4
1679997306348,1177294702391930,-0.017875,-0.019524999,-6.875E-4
1679997306349,1177294704894007,-0.0199375,-0.0185625,-0.0026125
1679997306353,1177294707395930,-0.0169125,-0.020624999,0.001375
1679997306357,1177294709897997,-0.0169125,-0.025575,0.0044
1679997306358,1177294712399920,-0.017875,-0.0265375,0.0034375
1679997306361,1177294714902074,-0.017875,-0.0275,0.0023375
1679997306363,1177294717404151,-0.0169125,-0.0215875,0.001375
1679997306366,1177294719906079,-0.0188375,-0.02255,0.0034375
1679997306368,1177294722408156,-0.0188375,-0.0265375,0.0053625
1679997306370,1177294724910079,-0.01485,-0.0246125,0.0034375
1679997306374,1177294727412156,-0.0138875,-0.0215875,0.0023375
1679997306376,1177294729914079,-0.0138875,-0.02255,0.0044
1679997306377,1177294732416213,-0.012925,-0.02255,0.0044
1679997306383,1177294734918290,-0.012925,-0.02255,0.0034375
1679997306383,1177294737420213,-0.011825,-0.020624999,0.0053625
1679997306387,1177294739922290,-0.011825,-0.019524999,0.0053625
1679997306388,1177294742424208,-0.012925,-0.019524999,0.006325
1679997306390,1177294744926362,-0.0108624995,-0.020624999,0.0053625
1679997306392,1177294747428208,-0.011825,-0.020624999,0.006325
1679997306395,1177294749930362,-0.0108624995,-0.0215875,0.0053625
1679997306398,1177294752432520,-0.012925,-0.020624999,0.0053625
1679997306400,1177294754934367,-0.0108624995,-0.019524999,0.0023375
1679997306402,1177294757436443,-0.0078375,-0.0185625,0.006325
1679997306405,1177294759938597,-0.006875,-0.0215875,0.007425
1679997306408,1177294762440520,-0.0048125,-0.025575,0.0083875
1679997306409,1177294764942631,-0.0048125,-0.019524999,0.0083875
1679997306412,1177294767444554,-0.0059125,-0.0185625,0.00935
1679997306415,1177294769946631,-0.00385,-0.02255,0.0103124995
1679997306417,1177294772448554,-8.25E-4,-0.0215875,0.00935
1679997306421,1177294774950597,-0.001925,-0.0176,0.00935
1679997306422,1177294777452751,1.375E-4,-0.0185625,0.00935
1679997306427,1177294779954674,0.0011,-0.0176,0.0114124995
1679997306428,1177294782456751,0.0011,-0.013612499,0.012375
1679997306430,1177294784958708,1.375E-4,-0.0075625,0.0114124995
1679997306433,1177294787460785,0.0020625,-0.0045375,0.0083875
1679997306437,1177294789962708,0.0020625,-5.5E-4,0.007425
1679997306438,1177294792465093,0.0020625,0.0034375,0.007425
1679997306441,1177294794966905,0.0050875,0.0064625,0.0053625
1679997306442,1177294797468828,0.0061875,0.0114124995,0.0053625
1679997306445,1177294799970982,0.004125,0.0144375,0.007425
1679997306449,1177294802473059,0.00715,0.018424999,0.0044
1679997306450,1177294804974905,0.009075,0.0284625,0.0053625
1679997306453,1177294807476809,0.0081124995,0.0303875,0.0034375
1679997306457,1177294809979194,0.0111375,0.0314875,-6.875E-4
1679997306458,1177294812481117,0.009075,0.0385,4.125E-4
1679997306460,1177294814982963,0.0061875,0.040425,0.001375
1679997306462,1177294817485122,0.0081124995,0.040425,0.0034375
1679997306466,1177294819987199,0.00715,0.046475,0.0053625
1679997306468,1177294822489122,0.0061875,0.043449998,0.006325
1679997306470,1177294824991199,0.004125,0.045375,0.0053625
1679997306473,1177294827493377,0.0050875,0.046475,0.0053625
1679997306476,1177294829995300,0.0061875,0.051425,0.0083875
1679997306478,1177294832497146,0.00715,0.0484,0.00935
1679997306480,1177294834999300,0.0050875,0.0474375,0.006325
1679997306483,1177294837501377,0.0050875,0.046475,0.0053625
1679997306486,1177294840003309,0.0050875,0.043449998,0.007425
1679997306488,1177294842505463,0.0061875,0.0424875,0.0114124995
1679997306490,1177294845007540,0.004125,0.043449998,0.0114124995
1679997306492,1177294847509463,0.0020625,0.045375,0.0083875
1679997306496,1177294850011545,0.0031625,0.045375,0.0103124995
1679997306498,1177294852513468,0.0011,0.0374,0.0144375
1679997306500,1177294855015545,0.0020625,0.032449998,0.012375
1679997306502,1177294857517468,0.0020625,0.029424999,0.0114124995
1679997306507,1177294860019617,0.0011,0.02145,0.012375
1679997306508,1177294862521693,-8.25E-4,0.0144375,0.0163625
1679997306511,1177294865023617,0.0031625,0.012375,0.0163625
1679997306513,1177294867525693,0.0011,0.007425,0.017324999
1679997306516,1177294870027612,0.0031625,0.002475,0.017324999
1679997306518,1177294872529689,0.0031625,4.125E-4,0.017324999
1679997306525,1177294875031842,-8.25E-4,-0.003575,0.0163625
1679997306526,1177294877533765,0.0011,-0.0066,0.0163625
1679997306527,1177294880035842,0.0011,-0.009625,0.0154
1679997306528,1177294882537789,1.375E-4,-0.009625,0.0133375
1679997306530,1177294885039866,0.0011,-0.014575,0.0154
1679997306533,1177294887541789,0.0031625,-0.0185625,0.0133375
1679997306535,1177294890043866,-0.001925,-0.020624999,0.0133375
1679997306537,1177294892546025,-0.0048125,-0.02255,0.0133375
1679997306540,1177294895047948,1.375E-4,-0.0176,0.012375
1679997306543,1177294897550025,0.0020625,-0.020624999,0.0114124995
1679997306546,1177294900051948,1.375E-4,-0.0246125,0.0083875
1679997306551,1177294902554011,0.0020625,-0.0215875,0.00935
1679997306552,1177294905055934,1.375E-4,-0.0155375,0.0083875
1679997306553,1177294907558088,0.0011,-0.014575,0.007425
1679997306556,1177294910060165,0.0031625,-0.014575,0.0083875
1679997306558,1177294912562088,0.0011,-0.014575,0.0053625
1679997306560,1177294915064251,0.004125,-0.014575,0.007425
1679997306562,1177294917566328,0.0050875,-0.014575,0.0103124995
1679997306566,1177294920068174,0.0081124995,-0.0125124995,0.007425
1679997306568,1177294922570328,0.009075,-0.0105875,0.006325
1679997306569,1177294925072482,0.010175,-0.009625,0.0044
1679997306573,1177294927574405,0.0081124995,-0.0045375,0.0034375
1679997306576,1177294930076482,0.009075,-0.0026125,0.0034375
1679997306577,1177294932578405,0.0111375,-5.5E-4,0.001375
1679997306580,1177294935080458,0.010175,-0.0015125,0.0023375
1679997306582,1177294937582381,0.0121,-0.003575,0.0034375
1679997306588,1177294940084535,0.0121,-0.008525,4.125E-4
1679997306589,1177294942586381,0.0121,-0.0055,4.125E-4
1679997306591,1177294945088482,0.0121,-0.0066,0.0053625
1679997306593,1177294947590636,0.015125,-0.008525,0.0053625
1679997306596,1177294950092559,0.015125,-0.0125124995,0.0023375
1679997306599,1177294952594636,0.015125,-0.0155375,0.0034375
1679997306600,1177294955096790,0.013062499,-0.0125124995,0.0044
1679997306603,1177294957598708,0.0191125,-0.0105875,0.0044
1679997306605,1177294960100785,0.021175,-0.0125124995,0.0023375
1679997306607,1177294962602631,0.01815,-0.0185625,0.0034375
1679997306610,1177294965104819,0.01815,-0.0176,0.001375
1679997306612,1177294967606742,0.01815,-0.0215875,0.001375
1679997306616,1177294970108896,0.0171875,-0.019524999,0.001375
1679997306617,1177294972610973,0.020075,-0.02255,-6.875E-4
1679997306621,1177294975112915,0.020075,-0.0265375,-0.0026125
1679997306624,1177294977614992,0.0191125,-0.0275,-0.00165
1679997306628,1177294980116915,0.015125,-0.0246125,-0.004675
1679997306630,1177294982618992,0.0171875,-0.025575,-0.0026125
1679997306632,1177294985121156,0.0191125,-0.0275,-0.003575
1679997306633,1177294987623079,0.0160875,-0.020624999,-0.004675
1679997306636,1177294990125156,0.013062499,-0.020624999,-0.0086624995
1679997306638,1177294992627079,0.010175,-0.019524999,-0.0075625
1679997306640,1177294995129156,0.0160875,-0.019524999,-0.0066
1679997306643,1177294997631050,0.0160875,-0.0165,-0.004675
1679997306645,1177295000133127,0.010175,-0.0105875,-0.0066
1679997306650,1177295002635281,0.0121,-0.0045375,-0.0086624995
1679997306651,1177295005137204,0.0121,0.0034375,-0.0066
1679997306653,1177295007639290,0.0121,0.0064625,-0.004675
1679997306656,1177295010141213,0.0121,0.0034375,-0.004675
1679997306658,1177295012643290,0.013062499,0.007425,-0.0056375
1679997306661,1177295015145213,0.0160875,0.012375,-0.004675
1679997306663,1177295017647266,0.013062499,0.0144375,-0.003575
1679997306667,1177295020149420,0.0111375,0.0154,-0.0026125
1679997306668,1177295022651343,0.015125,0.0204875,-0.0026125
1679997306670,1177295025153420,0.013062499,0.02145,-6.875E-4
1679997306672,1177295027655343,0.0160875,0.023375,-0.00165
1679997306675,1177295030157401,0.015125,0.0334125,-6.875E-4
1679997306677,1177295032659324,0.0121,0.0303875,-6.875E-4
1679997306680,1177295035161478,0.010175,0.0314875,-0.0026125
1679997306682,1177295037663555,0.0121,0.034375,-0.00165
1679997306686,1177295040165468,0.010175,0.032449998,-0.00165
1679997306688,1177295042667545,0.0111375,0.0314875,-6.875E-4
1679997306690,1177295045169699,0.0111375,0.0303875,-6.875E-4
1679997306693,1177295047671545,0.0111375,0.0314875,4.125E-4
1679997306695,1177295050173483,0.009075,0.0334125,0.0034375
1679997306699,1177295052675868,0.0111375,0.0334125,0.001375
1679997306701,1177295055177791,0.009075,0.029424999,0.0023375
1679997306703,1177295057679637,0.00715,0.0264,0.0023375
1679997306708,1177295060181704,0.0081124995,0.023375,0.007425
1679997306709,1177295062683858,0.010175,0.023375,0.0083875
1679997306711,1177295065185781,0.0121,0.0224125,0.0083875
1679997306717,1177295067687858,0.013062499,0.0204875,0.0103124995
1679997306717,1177295070190012,0.010175,0.0154,0.0114124995
1679997306718,1177295072691950,0.009075,0.007425,0.0083875
1679997306720,1177295075194027,0.009075,0.0044,0.0103124995
1679997306722,1177295077695950,0.0081124995,0.002475,0.0103124995
1679997306726,1177295080198027,0.009075,-0.0015125,0.00935
1679997306727,1177295082699940,0.010175,-0.0075625,0.0083875
1679997306729,1177295085202094,0.009075,-0.0075625,0.0083875
1679997306732,1177295087704171,0.0081124995,-0.0075625,0.0044
1679997306737,1177295090206094,0.0061875,-0.0125124995,0.0044
1679997306739,1177295092708195,0.00715,-0.0125124995,0.0053625
1679997306740,1177295095210118,0.00715,-0.008525,4.125E-4
1679997306742,1177295097712195,0.0050875,-0.013612499,-6.875E-4
1679997306746,1177295100214118,0.010175,-0.0176,4.125E-4
1679997306749,1177295102716272,0.009075,-0.0176,-0.00165
1679997306750,1177295105218372,0.004125,-0.020624999,-0.003575
1679997306752,1177295107720296,0.0050875,-0.0246125,-0.003575
1679997306756,1177295110222372,0.004125,-0.031625,-0.0026125
1679997306757,1177295112724296,0.0061875,-0.0345125,-0.003575
1679997306760,1177295115226386,0.0081124995,-0.036575,-0.0026125
1679997306763,1177295117728540,0.0050875,-0.03355,-0.004675
1679997306766,1177295120230463,0.0050875,-0.0396,-0.0056375
1679997306768,1177295122732540,0.0031625,-0.0435875,-0.0056375
1679997306770,1177295125234386,0.0020625,-0.04455,-0.004675
1679997306774,1177295127736540,1.375E-4,-0.047575,-0.0056375
1679997306777,1177295130238694,-0.001925,-0.0495,-0.0026125
1679997306778,1177295132740617,-0.00385,-0.0495,-0.003575
1679997306781,1177295135242670,-0.0078375,-0.0515625,-0.003575
1679997306782,1177295137744593,-0.0059125,-0.0545875,-0.0026125
1679997306787,1177295140246670,-0.0078375,-0.053625,0.001375
1679997306791,1177295142748593,-0.011825,-0.0506,-0.00165
1679997306791,1177295145250747,-0.0099,-0.058575,-6.875E-4
1679997306792,1177295147752824,-0.0108624995,-0.0595375,0.0023375
1679997306795,1177295150254747,-0.012925,-0.05555,4.125E-4
1679997306798,1177295152756824,-0.011825,-0.0545875,0.001375
1679997306800,1177295155258747,-0.0108624995,-0.0595375,0.0023375
1679997306802,1177295157760819,-0.0138875,-0.0576125,4.125E-4
1679997306806,1177295160262742,-0.012925,-0.0495,4.125E-4
1679997306807,1177295162764896,-0.012925,-0.047575,0.001375
1679997306811,1177295165266973,-0.012925,-0.0455125,-6.875E-4
1679997306813,1177295167768910,-0.01485,-0.0455125,-6.875E-4
1679997306816,1177295170270987,-0.0138875,-0.0396,-6.875E-4
1679997306817,1177295172772910,-0.012925,-0.0356125,4.125E-4
1679997306820,1177295175274987,-0.0099,-0.0375375,-0.00165
1679997306822,1177295177777141,-0.0108624995,-0.036575,-0.0056375
1679997306827,1177295180279064,-0.0099,-0.0325875,-0.0056375
1679997306829,1177295182781141,-0.0089375,-0.0215875,-0.0075625
1679997306831,1177295185283064,-0.006875,-0.0215875,-0.0116875
1679997306832,1177295187785141,-0.0078375,-0.0265375,-0.009625
1679997306836,1177295190287093,-0.0078375,-0.020624999,-0.0086624995
1679997306837,1177295192789170,-0.0108624995,-0.0176,-0.0075625
1679997306840,1177295195291324,-0.0078375,-0.014575,-0.0066
1679997306843,1177295197793247,-0.0048125,-0.013612499,-0.003575
1679997306846,1177295200295382,-0.001925,-0.009625,-6.875E-4
1679997306849,1177295202797228,-0.0059125,-0.008525,-0.00165
1679997306851,1177295205299305,-0.0059125,-0.0075625,-0.0026125
1679997306853,1177295207801459,-0.0048125,-0.003575,-0.0026125
1679997306856,1177295210303314,-0.0048125,-5.5E-4,-6.875E-4
1679997306858,1177295212805468,-0.00385,0.002475,4.125E-4
1679997306860,1177295215307621,-0.00385,0.001375,0.001375
1679997306863,1177295217809545,-0.001925,0.0044,0.0044
1679997306867,1177295220311362,-0.001925,0.0064625,0.0044
1679997306868,1177295222813516,1.375E-4,0.0034375,0.0044
1679997306870,1177295225315593,0.0011,0.002475,0.0044
1679997306872,1177295227817746,0.0020625,0.0044,0.0023375
1679997306876,1177295230319593,0.004125,0.0055,0.0023375
1679997306878,1177295232821741,0.004125,0.001375,0.0023375
1679997306880,1177295235323664,0.0061875,0.007425,4.125E-4
1679997306883,1177295237825741,0.00715,0.0114124995,-6.875E-4
1679997306888,1177295240327651,0.0050875,0.0055,0.0023375
1679997306890,1177295242829728,0.00715,0.0055,-6.875E-4
1679997306892,1177295245331882,0.004125,0.0055,-0.003575
1679997306893,1177295247833805,0.00715,0.0094875,-0.00165
1679997306896,1177295250335882,0.0050875,0.0064625,-0.004675
1679997306899,1177295252837813,0.0050875,0.0064625,-0.004675
1679997306900,1177295255339890,0.0031625,0.0064625,-0.0056375
1679997306903,1177295257841813,0.0011,0.0114124995,-0.0056375
1679997306907,1177295260343890,0.0011,0.0114124995,-0.0066
1679997306909,1177295262846026,0.0020625,0.012375,-0.0066
1679997306910,1177295265347949,-8.25E-4,0.013475,-0.0066
1679997306915,1177295267850026,-0.0048125,0.0154,-0.0075625
1679997306917,1177295270351949,-0.0078375,0.0193875,-0.0086624995
1679997306919,1177295272853997,-0.006875,0.024475,-0.0075625
1679997306921,1177295275355920,-0.006875,0.024475,-0.0056375
1679997306926,1177295277858074,-0.0089375,0.0275,-0.004675
1679997306929,1177295280360151,-0.0089375,0.0303875,-0.00165
1679997306930,1177295283128450,-0.0078375,0.0334125,-0.0026125
1679997306932,1177295285422604,-0.0059125,0.032449998,-0.0026125
1679997306934,1177295287866065,-0.006875,0.0364375,0.001375
1679997306936,1177295290368142,-0.0089375,0.0374,-6.875E-4
1679997306939,1177295292870065,-0.0089375,0.034375,-0.00165
1679997306940,1177295295372228,-0.006875,0.0385,4.125E-4
1679997306943,1177295297874305,-0.0059125,0.0364375,0.001375
1679997306947,1177295300376228,-0.0048125,0.034375,0.001375
1679997306948,1177295302878305,-0.0089375,0.034375,0.0023375
1679997306950,1177295305380459,-0.0048125,0.0314875,0.0023375
1679997306953,1177295307882387,-0.006875,0.0314875,0.0034375
1679997306955,1177295310384464,-0.00385,0.0334125,0.0023375
1679997306957,1177295312886387,-0.001925,0.0314875,0.001375
1679997306961,1177295315388450,-0.0059125,0.029424999,0.0023375
1679997306963,1177295317890373,-0.006875,0.0264,0.006325
1679997306967,1177295320392450,-0.0078375,0.0193875,4.125E-4
1679997306968,1177295322894604,-0.0059125,0.0174625,0.001375
1679997306970,1177295325396527,-0.001925,0.013475,0.0053625
1679997306972,1177295327898608,-0.001925,0.0064625,0.006325
1679997306975,1177295330400531,-0.00385,0.001375,0.0034375
1679997306977,1177295332902608,-0.001925,-0.003575,0.0053625
1679997306980,1177295335404531,-8.25E-4,-0.009625,0.0053625
1679997306983,1177295337906911,1.375E-4,-0.01155,0.0053625
1679997306986,1177295340408758,-0.001925,-0.01155,0.00935
1679997306988,1177295342910681,0.0011,-0.019524999,0.0083875
1679997306990,1177295345412834,0.004125,-0.02255,0.007425
1679997306992,1177295347914911,1.375E-4,-0.0275,0.0083875
1679997306995,1177295350416748,0.0011,-0.0275,0.00935
1679997307000,1177295352918901,0.0020625,-0.0265375,0.0103124995
1679997307001,1177295355421055,1.375E-4,-0.0246125,0.007425
1679997307003,1177295357922983,1.375E-4,-0.025575,0.0053625
1679997307006,1177295360424830,0.0011,-0.025575,0.0034375
1679997307008,1177295362926983,0.0031625,-0.02255,0.0023375
1679997307010,1177295365429060,0.0031625,-0.020624999,0.001375
1679997307013,1177295367930939,0.0020625,-0.0105875,-6.875E-4
1679997307016,1177295370433093,0.0031625,-0.0105875,4.125E-4
1679997307018,1177295372935247,0.0020625,-0.0055,-0.0026125
1679997307020,1177295375437170,0.0050875,4.125E-4,-0.0056375
1679997307023,1177295377939247,0.0031625,0.0034375,-0.0066
1679997307028,1177295380441161,0.0031625,0.0154,-0.0056375
1679997307029,1177295382943238,0.0050875,0.0204875,-0.0026125
1679997307032,1177295385445161,0.0061875,0.0264,-0.004675
1679997307034,1177295387947315,0.0050875,0.0334125,-0.0056375
1679997307037,1177295390449392,0.0061875,0.040425,-0.00165
1679997307039,1177295392951315,0.00715,0.0495,-0.00165
1679997307041,1177295395453392,0.009075,0.0534875,-0.00165
1679997307043,1177295397955315,0.009075,0.0594,-6.875E-4
1679997307045,1177295400457392,0.009075,0.06545,0.001375
1679997307049,1177295402959315,0.010175,0.0694375,0.006325
1679997307050,1177295405461469,0.015125,0.073425,0.006325
1679997307053,1177295407963546,0.0160875,0.0754875,0.007425
1679997307056,1177295410465483,0.0160875,0.07645,0.007425
1679997307057,1177295412967560,0.0171875,0.07645,0.0083875
1679997307060,1177295415469483,0.0191125,0.079475,0.012375
1679997307063,1177295417971560,0.0191125,0.0774125,0.0103124995
1679997307067,1177295420473695,0.0191125,0.0715,0.0114124995
1679997307068,1177295422975618,0.0191125,0.0664125,0.0133375
1679997307070,1177295425477695,0.020075,0.067375,0.0133375
1679997307074,1177295427979618,0.0221375,0.0605,0.0163625
1679997307077,1177295430481699,0.0221375,0.0534875,0.017324999
1679997307079,1177295432983622,0.0240625,0.0504625,0.0154
1679997307080,1177295435485699,0.0240625,0.043449998,0.017324999
1679997307083,1177295437987853,0.0221375,0.0364375,0.0163625
1679997307085,1177295440489776,0.021175,0.029424999,0.0144375
1679997307088,1177295442991940,0.020075,0.024475,0.0133375
1679997307090,1177295445493786,0.0231,0.0174625,0.0133375
1679997307092,1177295447995863,0.0221375,0.01045,0.0114124995
1679997307095,1177295450498017,0.021175,0.007425,0.0133375
1679997307097,1177295452999940,0.021175,0.0064625,0.0133375
1679997307100,1177295455502031,0.0221375,4.125E-4,0.0144375
1679997307103,1177295458004184,0.0251625,-0.0055,0.0133375
1679997307106,1177295460506108,0.02915,-0.0066,0.007425
1679997307108,1177295463008180,0.026124999,-0.009625,0.0103124995
1679997307111,1177295465510027,0.0281875,-0.01155,0.0144375
1679997307113,1177295468012180,0.031075,-0.01155,0.0133375
1679997307116,1177295470514334,0.0341,-0.014575,0.0114124995
1679997307118,1177295473016247,0.0350625,-0.0125124995,0.0154
1679997307120,1177295475518324,0.037125,-0.0155375,0.0144375
1679997307123,1177295478020247,0.0380875,-0.0185625,0.0163625
1679997307126,1177295480522324,0.039049998,-0.0166375,0.02035
1679997307128,1177295483024171,0.042075,-0.014575,0.0213125
1679997307130,1177295485526343,0.0411125,-0.0155375,0.023375
1679997307133,1177295488028497,0.0411125,-0.013612499,0.0243375
1679997307135,1177295490530420,0.042075,-0.0185625,0.0273625
1679997307138,1177295493032266,0.043175,-0.0215875,0.0273625
1679997307140,1177295495534343,0.042075,-0.0215875,0.0264
1679997307142,1177295498036497,0.043175,-0.0276375,0.0264
1679997307146,1177295500538651,0.0441375,-0.0345125,0.0254375
1679997307150,1177295503040497,0.042075,-0.03355,0.0243375
1679997307151,1177295505542411,0.04015,-0.0375375,0.0254375
1679997307153,1177295508044565,0.0380875,-0.041525,0.0273625
1679997307156,1177295510546642,0.0411125,-0.042625,0.0254375
1679997307158,1177295513048488,0.04015,-0.0485375,0.02035
1679997307160,1177295515550719,0.04015,-0.0506,0.0254375
1679997307162,1177295518052810,0.04015,-0.0515625,0.0254375
1679997307165,1177295520554733,0.039049998,-0.063525,0.0243375
1679997307167,1177295523056579,0.0411125,-0.06655,0.0264
1679997307170,1177295525558733,0.0380875,-0.0675125,0.0273625
1679997307172,1177295528060800,0.042075,-0.0686125,0.0273625
1679997307175,1177295530562954,0.039049998,-0.0686125,0.0264
1679997307177,1177295533064877,0.042075,-0.0716375,0.029424999
1679997307180,1177295535566954,0.0441375,-0.0686125,0.028324999
1679997307183,1177295538068863,0.042075,-0.0625625,0.0264
1679997307188,1177295540570940,0.0441375,-0.0606375,0.0243375
1679997307189,1177295543072863,0.0441375,-0.0595375,0.023375
1679997307191,1177295545574940,0.0441375,-0.0485375,0.0213125
1679997307193,1177295548077108,0.048125,-0.042625,0.02035
1679997307196,1177295550579031,0.053075,-0.031625,0.0193875
1679997307199,1177295553081108,0.0561,-0.02255,0.012375
1679997307200,1177295555583031,0.0570625,-0.014575,0.0103124995
1679997307203,1177295558085108,0.0581625,-0.0045375,0.0083875
1679997307205,1177295560587060,0.0570625,0.0094875,0.0034375
1679997307207,1177295563089137,0.061049998,0.0193875,-6.875E-4
1679997307210,1177295565591291,0.0671,0.032449998,-6.875E-4
1679997307213,1177295568093214,0.0661375,0.0424875,-0.004675
1679997307215,1177295570595306,0.0710875,0.054449998,-0.0056375
1679997307217,1177295573097229,0.0710875,0.067375,-0.0075625
1679997307220,1177295575599306,0.075075,0.0774125,-0.009625
1679997307224,1177295578101229,0.078099996,0.0853875,-0.0116875
1679997307228,1177295580603368,0.0790625,0.0933625,-0.0105875
1679997307230,1177295583105445,0.081125,0.100375,-0.0116875
1679997307231,1177295585607368,0.08305,0.1073875,-0.01265
1679997307233,1177295588109445,0.08415,0.111375,-0.0075625
1679997307236,1177295590611383,0.08415,0.1144,-0.0066
1679997307243,1177295593113460,0.0851125,0.12045,-0.0075625
1679997307244,1177295595615383,0.087175,0.1183875,-0.0086624995
1679997307245,1177295598117536,0.087175,0.1183875,-0.009625
1679997307246,1177295600619613,0.0881375,0.1194875,-0.0075625
1679997307248,1177295603121526,0.0891,0.1214125,-0.009625
1679997307250,1177295605623680,0.0911625,0.1183875,-0.0056375
1679997307253,1177295608125526,0.092125,0.1144,-0.003575
1679997307255,1177295610627603,0.0930875,0.113437496,-0.0026125
1679997307258,1177295613129733,0.092125,0.106425,-0.003575
1679997307262,1177295615631887,0.09405,0.09845,-0.0026125
1679997307263,1177295618133733,0.092125,0.089375,-0.00165
1679997307267,1177295620635887,0.092125,0.0853875,-0.0026125
1679997307269,1177295623137781,0.0930875,0.0774125,-0.0056375
1679997307270,1177295625639858,0.0930875,0.067375,-0.0066
1679997307273,1177295628141781,0.0930875,0.0633875,-0.0086624995
1679997307276,1177295630643935,0.0930875,0.0633875,-0.0105875
1679997307278,1177295633146012,0.0911625,0.056375,-0.009625
1679997307280,1177295635647940,0.087175,0.0493625,-0.0105875
1679997307283,1177295638149786,0.0851125,0.040425,-0.01265
1679997307287,1177295640651940,0.08415,0.032449998,-0.01265
1679997307288,1177295643154017,0.08305,0.0303875,-0.01265
1679997307290,1177295645655940,0.081125,0.0273625,-0.014575
1679997307293,1177295648158108,0.078099996,0.0204875,-0.01265
1679997307296,1177295650660185,0.0771375,0.0163625,-0.0116875
1679997307301,1177295653162108,0.075075,0.0163625,-0.0116875
1679997307301,1177295655664180,0.075075,0.0114124995,-0.01265
1679997307303,1177295658166103,0.07205,0.0064625,-0.0105875
1679997307307,1177295660668180,0.07205,0.0034375,-0.0075625
1679997307308,1177295663170334,0.0710875,0.0044,-0.0075625
1679997307311,1177295665672257,0.070125,0.0044,-0.0056375
1679997307313,1177295668174305,0.070125,4.125E-4,-0.00165
1679997307316,1177295670676228,0.0680625,4.125E-4,4.125E-4
1679997307318,1177295673178305,0.070125,0.0034375,0.001375
1679997307320,1177295675680459,0.0680625,0.0053625,0.001375
1679997307323,1177295678182396,0.0671,0.0094875,0.001375
1679997307326,1177295680684473,0.0661375,0.0064625,-6.875E-4
1679997307328,1177295683186396,0.06215,0.0114124995,-6.875E-4
1679997307331,1177295685688473,0.0661375,0.01045,0.0023375
1679997307333,1177295688190377,0.065175,0.0094875,-6.875E-4
1679997307338,1177295690692531,0.064075,0.0174625,-0.004675
1679997307343,1177295693194608,0.065175,0.0204875,-0.0066
1679997307343,1177295695696531,0.0600875,0.0224125,-0.0075625
1679997307343,1177295698198608,0.0581625,0.0284625,-0.0086624995
1679997307346,1177295700700526,0.0600875,0.0264,-0.009625
1679997307348,1177295703202603,0.061049998,0.0284625,-0.0086624995
1679997307350,1177295705704526,0.059125,0.029424999,-0.0086624995
1679997307353,1177295708206680,0.059125,0.0303875,-0.0105875
1679997307355,1177295710708756,0.059125,0.0314875,-0.009625
1679997307358,1177295713210680,0.0551375,0.0334125,-0.0086624995
1679997307360,1177295715712756,0.0561,0.034375,-0.0056375
1679997307363,1177295718214680,0.0551375,0.0334125,-0.003575
1679997307366,1177295720716751,0.053075,0.0314875,4.125E-4
1679997307368,1177295723218675,0.0521125,0.034375,4.125E-4
1679997307370,1177295725721059,0.050049998,0.0334125,0.001375
1679997307374,1177295728222905,0.050049998,0.0303875,0.0044
1679997307377,1177295730724828,0.0460625,0.023375,0.0053625
1679997307379,1177295733226905,0.0451,0.0273625,0.006325
1679997307380,1177295735729059,0.042075,0.0204875,0.006325
1679997307383,1177295738230905,0.042075,0.0154,0.007425
1679997307387,1177295740733064,0.04015,0.013475,0.0044
1679997307388,1177295743235218,0.0411125,0.012375,0.007425
1679997307390,1177295745737141,0.0380875,0.007425,0.0083875
1679997307393,1177295748238987,0.0350625,0.0044,0.006325
1679997307396,1177295750741064,0.0380875,0.0034375,0.0044
1679997307398,1177295753243227,0.0380875,-0.0026125,0.0034375
1679997307400,1177295755745073,0.037125,-0.003575,0.0023375
1679997307403,1177295758247227,0.037125,-0.0015125,4.125E-4
1679997307406,1177295760749381,0.037125,-0.0075625,-0.0026125
1679997307408,1177295763251300,0.0350625,-0.0066,-0.004675
1679997307412,1177295765753146,0.02915,-0.008525,-0.0056375
1679997307413,1177295768255300,0.0251625,-0.013612499,-0.0075625
1679997307416,1177295770757377,0.0270875,-0.01155,-0.0066
1679997307418,1177295773259555,0.02805,-0.01155,-0.0086624995
1679997307420,1177295775761478,0.0231,-0.014575,-0.0116875
1679997307422,1177295778263555,0.0191125,-0.0176,-0.009625
1679997307427,1177295780765478,0.01705,-0.020624999,-0.014575
1679997307428,1177295783267593,0.0221375,-0.019524999,-0.01265
1679997307431,1177295785769516,0.0191125,-0.02255,-0.01265
1679997307432,1177295788271593,0.013062499,-0.0246125,-0.0166375
1679997307435,1177295790773747,0.013062499,-0.0295625,-0.0185625
1679997307437,1177295793275670,0.0111375,-0.0295625,-0.0185625
1679997307440,1177295795777761,0.0111375,-0.0286,-0.0166375
1679997307442,1177295798279684,0.010175,-0.03355,-0.015675
1679997307446,1177295800781761,0.010175,-0.03355,-0.0185625
1679997307449,1177295803283684,0.0050875,-0.03355,-0.015675
1679997307453,1177295805785728,0.0031625,-0.0386375,-0.01265
1679997307454,1177295808287882,0.004125,-0.036575,-0.0116875
1679997307457,1177295810789805,0.004125,-0.0375375,-0.01265
1679997307458,1177295813291882,0.0020625,-0.0396,-0.0086624995
1679997307460,1177295815793805,-0.00385,-0.0375375,-0.0086624995
1679997307463,1177295818295872,-0.00495,-0.0375375,-0.0086624995
1679997307467,1177295820797795,-0.00385,-0.0386375,-0.0075625
1679997307469,1177295823299949,-0.0059125,-0.0386375,-0.004675
1679997307470,1177295825802025,-0.00495,-0.041525,-0.004675
1679997307475,1177295828303915,-0.0059125,-0.0396,-6.875E-4
1679997307477,1177295830805991,-0.00495,-0.0356125,-0.0026125
1679997307478,1177295833307915,-0.006875,-0.0325875,0.001375
1679997307483,1177295835809991,-0.00495,-0.030524999,0.0044
1679997307484,1177295838311915,-0.006875,-0.0286,0.001375
1679997307488,1177295840814329,-0.0078375,-0.0276375,0.001375
1679997307490,1177295843316175,-0.0099,-0.0246125,0.007425
1679997307492,1177295845818098,-0.0089375,-0.0185625,0.0103124995
1679997307494,1177295848320180,-0.00495,-0.0166375,0.0103124995
1679997307497,1177295850822334,-0.0078375,-0.0166375,0.0083875
1679997307499,1177295853324180,-0.0078375,-0.01155,0.0103124995
1679997307501,1177295855826103,-0.006875,-0.0056375,0.0133375
1679997307503,1177295858328488,-0.0078375,-0.0075625,0.0144375
1679997307510,1177295860830315,-0.0078375,-0.0045375,0.0144375
1679997307510,1177295863332238,-0.006875,-0.0015125,0.0163625
1679997307511,1177295865834315,-0.0078375,-0.003575,0.0163625
1679997307513,1177295868336469,-0.006875,4.125E-4,0.0154
1679997307516,1177295870838392,-0.0059125,0.002475,0.0154
1679997307518,1177295873340469,-0.0078375,0.002475,0.017324999
1679997307522,1177295875842392,-0.0108624995,0.002475,0.0163625
1679997307525,1177295878344469,-0.0099,0.0034375,0.0144375
1679997307528,1177295880846392,-0.0108624995,0.001375,0.012375
1679997307530,1177295883348560,-0.0108624995,4.125E-4,0.012375
1679997307532,1177295885850637,-0.006875,0.002475,0.0114124995
1679997307533,1177295888352791,-0.0099,0.002475,0.0114124995
1679997307537,1177295890854637,-0.0108624995,0.0053625,0.007425
1679997307538,1177295893356560,-0.0099,0.012375,0.007425
1679997307541,1177295895858714,-0.0099,0.013475,0.0083875
1679997307543,1177295898360791,-0.006875,0.012375,0.0053625
1679997307548,1177295900862714,-0.006875,0.0174625,-6.875E-4
1679997307549,1177295903364786,-0.0059125,0.0224125,-0.003575
1679997307551,1177295905866940,-0.0059125,0.023375,-0.0056375
1679997307553,1177295908368863,-0.006875,0.0273625,-0.009625
1679997307556,1177295910870709,-0.0059125,0.0314875,-0.0116875
1679997307559,1177295913372863,-0.00385,0.034375,-0.01265
1679997307565,1177295915874921,-0.001925,0.0383625,-0.014575
1679997307567,1177295918377075,-0.00385,0.040425,-0.0185625
1679997307568,1177295920878921,1.375E-4,0.0444125,-0.0185625
1679997307570,1177295923381075,-0.001925,0.046475,-0.0196625
1679997307571,1177295925882998,0.0011,0.0493625,-0.0215875
1679997307573,1177295928385075,0.0020625,0.0504625,-0.02365
1679997307576,1177295930886998,-8.25E-4,0.0504625,-0.020624999
1679997307578,1177295933389152,0.0011,0.0504625,-0.0226875
1679997307581,1177295935891229,0.0020625,0.0594,-0.02365
1679997307583,1177295938393166,0.004125,0.054449998,-0.020624999
1679997307589,1177295940895243,0.0031625,0.051425,-0.0185625
1679997307589,1177295943397166,0.0031625,0.054449998,-0.0196625
1679997307591,1177295945899243,0.0020625,0.0534875,-0.0185625
1679997307593,1177295948401147,0.004125,0.0534875,-0.0166375
1679997307596,1177295950903300,0.0031625,0.0504625,-0.01265
1679997307600,1177295953405377,0.0031625,0.051425,-0.009625
1679997307601,1177295955907300,0.00715,0.046475,-0.0116875
1679997307603,1177295958409367,0.004125,0.0383625,-0.01265
1679997307606,1177295960911290,0.004125,0.0364375,-0.009625
1679997307608,1177295963413367,0.0011,0.0284625,-0.0105875
1679997307611,1177295965915290,-8.25E-4,0.024475,-0.0075625
1679997307614,1177295968417444,0.0011,0.023375,-0.0056375
1679997307617,1177295970919502,-8.25E-4,0.018424999,-0.003575
1679997307618,1177295973421425,-0.0048125,0.012375,-0.0056375
1679997307621,1177295975923502,-0.006875,0.007425,-0.0056375
1679997307623,1177295978425425,-0.006875,0.002475,-0.0075625
1679997307628,1177295980927492,-0.0059125,-0.0015125,-0.003575
1679997307630,1177295983429646,-0.0048125,-0.0055,0.0023375
1679997307632,1177295985931569,-0.001925,-0.0075625,0.0023375
1679997307633,1177295988433646,-8.25E-4,-0.014575,0.0023375
1679997307638,1177295990935579,0.0011,-0.0185625,0.0053625
1679997307640,1177295993437656,0.0022,-0.0246125,0.0053625
1679997307642,1177295995939579,0.0031625,-0.0275,0.006325
1679997307643,1177295998441656,0.0031625,-0.030524999,0.0053625
1679997307646,1177296000943810,0.004125,-0.03355,0.0044
1679997307649,1177296003446012,0.0050875,-0.03355,0.001375
1679997307650,1177296005947858,0.0031625,-0.0345125,0.0034375
1679997307653,1177296008449781,0.0061875,-0.041525,0.00935
1679997307656,1177296010951935,0.009075,-0.042625,0.006325
1679997307660,1177296013454007,0.00715,-0.0385,0.007425
1679997307662,1177296015955930,0.004125,-0.0356125,0.007425
1679997307664,1177296018458007,0.0050875,-0.03355,0.006325
1679997307667,1177296020960161,0.0061875,-0.030524999,0.0083875
1679997307669,1177296023461988,0.00715,-0.025575,0.007425
1679997307671,1177296025963911,0.00715,-0.02255,0.006325
1679997307675,1177296028466065,0.009075,-0.019524999,0.0034375
1679997307677,1177296030968142,0.009075,-0.014575,0.0044
1679997307679,1177296033470094,0.0121,-0.009625,0.0034375
1679997307681,1177296035972248,0.015125,-0.0066,0.0023375
1679997307683,1177296038474325,0.015125,-5.5E-4,0.001375
1679997307688,1177296040976248,0.015125,-5.5E-4,-6.875E-4
1679997307689,1177296043478402,0.0160875,0.0044,-6.875E-4
1679997307691,1177296045980469,0.021175,0.0094875,-0.0026125
1679997307693,1177296048482315,0.01815,0.0094875,-0.004675
1679997307696,1177296050984469,0.01815,0.013475,-0.004675
1679997307700,1177296053486392,0.0231,0.0144375,-0.0056375
1679997307701,1177296055988469,0.0251625,0.0114124995,-0.0056375
1679997307703,1177296058490315,0.0231,0.01045,-0.0056375
1679997307709,1177296060992545,0.0231,0.0114124995,-0.0056375
1679997307709,1177296063494622,0.021175,0.01045,-0.004675
1679997307715,1177296065996546,0.0221375,0.01045,-0.003575
1679997307717,1177296068498622,0.0251625,0.007425,-0.00165
1679997307718,1177296071000546,0.0242,0.0044,0.001375
1679997307721,1177296073502622,0.0251625,-0.0026125,0.0023375
1679997307723,1177296076004546,0.0251625,-0.0026125,0.0023375
1679997307724,1177296078506685,0.0242,-0.0075625,0.0023375
1679997307729,1177296081008762,0.021175,-0.0125124995,0.001375
1679997307730,1177296083510685,0.0221375,-0.019524999,0.0034375
1679997307732,1177296086012762,0.0242,-0.020624999,0.006325
1679997307734,1177296088514685,0.0231,-0.0215875,0.006325
1679997307737,1177296091016781,0.020075,-0.0246125,0.0053625
1679997307738,1177296093518935,0.01815,-0.030524999,0.0083875
1679997307741,1177296096020858,0.01815,-0.0275,0.007425
1679997307743,1177296098522935,0.0191125,-0.0265375,0.007425
1679997307748,1177296101024853,0.021175,-0.0246125,0.00935
1679997307750,1177296103526930,0.0191125,-0.019524999,0.0083875
1679997307752,1177296106028853,0.0171875,-0.014575,0.007425
1679997307755,1177296108530901,0.0160875,-0.0075625,0.00935
1679997307757,1177296111033055,0.01815,-0.0045375,0.00935
1679997307759,1177296113534978,0.01815,0.0034375,0.00935
1679997307761,1177296116037055,0.0191125,0.013475,0.0083875
1679997307763,1177296118538978,0.020075,0.0204875,0.0083875
1679997307767,1177296121041046,0.01815,0.0334125,0.007425
1679997307768,1177296123542969,0.0171875,0.0394625,0.006325
1679997307771,1177296126045123,0.020075,0.051425,0.0053625
1679997307773,1177296128547200,0.0191125,0.0605,0.006325
1679997307776,1177296131049123,0.0191125,0.06545,0.006325
1679997307778,1177296133551185,0.0191125,0.0724625,0.0044
1679997307781,1177296136053108,0.0191125,0.07645,0.0053625
1679997307783,1177296138555185,0.020075,0.0864875,0.006325
1679997307788,1177296141057127,0.0191125,0.0944625,0.0053625
1679997307790,1177296143559281,0.020075,0.0944625,0.007425
1679997307792,1177296146061358,0.01815,0.09845,0.012375
1679997307795,1177296148563512,0.0221375,0.1034,0.0133375
1679997307797,1177296151065435,0.0221375,0.104499996,0.0133375
1679997307800,1177296153567310,0.0231,0.102437496,0.0144375
1679997307801,1177296156069387,0.0231,0.104499996,0.0154
1679997307803,1177296158571541,0.021175,0.1054625,0.0213125
1679997307806,1177296161073695,0.0242,0.0944625,0.023375
1679997307808,1177296163575541,0.0231,0.0944625,0.0243375
1679997307811,1177296166077695,0.0231,0.0944625,0.0224125
1679997307813,1177296168579618,0.021175,0.0864875,0.0213125
1679997307816,1177296171081695,0.0221375,0.078375,0.0243375
1679997307818,1177296173583541,0.021175,0.0715,0.0243375
1679997307821,1177296176085758,0.0191125,0.062425,0.0243375
1679997307825,1177296178587834,0.0191125,0.056375,0.0243375
1679997307829,1177296183589681,0.0171875,0.0495,0.023375
1679997307832,1177296184928803,0.0171875,0.0394625,0.023375
1679997307832,1177296186273988,0.0132,0.034375,0.02035
1679997307834,1177296188595834,0.0132,0.0275,0.0213125
1679997307836,1177296191097758,0.010175,0.0174625,0.0213125
1679997307838,1177296193599911,0.010175,0.007425,0.017324999
1679997307841,1177296196101988,0.009075,-0.0026125,0.02035
1679997307843,1177296198603944,0.00715,-0.008525,0.02035
1679997307846,1177296201106021,0.0050875,-0.014575,0.02035
1679997307849,1177296203607944,0.0061875,-0.0215875,0.0163625
1679997307851,1177296206110021,0.0031625,-0.030524999,0.02035
1679997307853,1177296208611944,1.375E-4,-0.031625,0.0213125
1679997307855,1177296211114117,1.375E-4,-0.041525,0.0163625
1679997307858,1177296213616194,0.0011,-0.047575,0.02035
1679997307862,1177296216118117,0.004125,-0.0515625,0.0224125
1679997307865,1177296218620208,-0.00385,-0.053625,0.02035
1679997307867,1177296221122131,-0.0078375,-0.0495,0.0193875
1679997307869,1177296223624208,-0.006875,-0.0545875,0.0243375
1679997307871,1177296226126362,-0.0099,-0.053625,0.023375
1679997307873,1177296228628285,-0.0099,-0.052525,0.0264
1679997307876,1177296231130372,-0.012925,-0.0545875,0.0254375
1679997307878,1177296233632295,-0.011825,-0.0595375,0.0254375
1679997307881,1177296236134449,-0.011825,-0.05555,0.0224125
1679997307884,1177296238636526,-0.0138875,-0.052525,0.0224125
1679997307887,1177296241138434,-0.0158125,-0.053625,0.0243375
1679997307888,1177296243640511,-0.0158125,-0.0495,0.023375
1679997307891,1177296246142434,-0.0158125,-0.052525,0.0224125
1679997307893,1177296248644511,-0.0158125,-0.0506,0.0224125
1679997307896,1177296251146434,-0.01485,-0.0495,0.02035
1679997307901,1177296253648598,-0.0158125,-0.0495,0.0154
1679997307902,1177296256150675,-0.0188375,-0.047575,0.0163625
1679997307904,1177296258652598,-0.0198,-0.0485375,0.0154
1679997307907,1177296261154656,-0.017875,-0.0435875,0.017324999
1679997307909,1177296263656579,-0.0158125,-0.04455,0.0114124995
1679997307911,1177296266158656,-0.017875,-0.0455125,0.00935
1679997307914,1177296268660579,-0.01485,-0.042625,0.0133375
1679997307917,1177296271162733,-0.0169125,-0.041525,0.0103124995
1679997307919,1177296273664838,-0.0169125,-0.041525,0.0103124995
1679997307921,1177296276166761,-0.01485,-0.0435875,0.012375
1679997307924,1177296278668838,-0.0108624995,-0.04455,0.0083875
1679997307927,1177296281170761,-0.011825,-0.0435875,0.007425
1679997307929,1177296283672862,-0.0099,-0.042625,0.0083875
1679997307931,1177296286175016,-0.0088,-0.042625,0.0053625
1679997307933,1177296288676939,-0.0099,-0.041525,0.0034375
1679997307940,1177296291179016,-0.006875,-0.0375375,0.0034375
1679997307940,1177296293680939,-0.0059125,-0.0345125,4.125E-4
1679997307942,1177296296183093,-0.0059125,-0.0356125,-0.004675
1679997307944,1177296298684939,-0.0099,-0.031625,-0.0066
1679997307950,1177296301187016,-0.0088,-0.0286,-0.0105875
1679997307950,1177296303689251,-0.0078375,-0.025575,-0.0116875
1679997307952,1177296306191098,-0.0088,-0.0165,-0.0185625
1679997307954,1177296308693175,-0.0078375,-0.013612499,-0.020624999
1679997307956,1177296311195328,-0.0108624995,-0.0105875,-0.0215875
1679997307958,1177296313697251,-0.0108624995,-0.0026125,-0.026675
1679997307962,1177296316199084,-0.0108624995,4.125E-4,-0.0336875
1679997307966,1177296318701161,-0.012925,0.0044,-0.0336875
1679997307967,1177296321203391,-0.011825,0.0154,-0.036575
1679997307968,1177296323705468,-0.0108624995,0.02145,-0.037675
1679997307971,1177296326207333,-0.012925,0.0264,-0.036575
1679997307975,1177296328709487,-0.0099,0.0303875,-0.0396
1679997307978,1177296331211410,-0.011825,0.0334125,-0.0405625
1679997307979,1177296333713487,-0.012925,0.0394625,-0.0386375
1679997307981,1177296336215626,-0.0108624995,0.0474375,-0.036575
1679997307984,1177296338717549,-0.0108624995,0.051425,-0.034649998
1679997307988,1177296341219626,-0.0099,0.0554125,-0.034649998
1679997307989,1177296343721549,-0.0088,0.0594,-0.034649998
1679997307991,1177296346223626,-0.0048125,0.0605,-0.0295625
1679997307993,1177296348725559,-0.0048125,0.0633875,-0.025575
1679997307996,1177296351227636,-0.00385,0.0633875,-0.02365
1679997308000,1177296353729790,1.375E-4,0.0614625,-0.0226875
1679997308002,1177296356231708,-8.25E-4,0.0633875,-0.0196625
1679997308004,1177296358733785,-0.0048125,0.06545,-0.0196625
1679997308006,1177296361235708,1.375E-4,0.0605,-0.0176
1679997308008,1177296363737785,1.375E-4,0.057475,-0.0176
1679997308012,1177296366239694,-8.25E-4,0.0534875,-0.015675
1679997308016,1177296368741848,-8.25E-4,0.0474375,-0.015675
1679997308017,1177296371243925,-0.00385,0.043449998,-0.014575
1679997308019,1177296373745848,-0.0059125,0.0424875,-0.015675
1679997308021,1177296376247925,-0.0048125,0.0364375,-0.015675
1679997308025,1177296378749828,-0.0048125,0.032449998,-0.015675
1679997308030,1177296381251905,-0.0059125,0.02145,-0.015675
1679997308030,1177296383753828,-0.0059125,0.0144375,-0.0166375
1679997308031,1177296386255982,-0.001925,0.012375,-0.01265
1679997308033,1177296388758059,-0.001925,0.0034375,-0.0116875
1679997308036,1177296391259973,-0.0048125,-0.0045375,-0.0105875
1679997308039,1177296393762050,-0.0048125,-0.008525,-0.01265
1679997308041,1177296396263973,-0.0059125,-0.0125124995,-0.01265
1679997308043,1177296398766050,-0.006875,-0.0165,-0.009625
1679997308047,1177296401268189,-0.0059125,-0.019524999,-0.0086624995
1679997308050,1177296403770112,-8.25E-4,-0.02255,-0.0086624995
1679997308052,1177296406272189,1.375E-4,-0.0295625,-0.0075625
1679997308054,1177296408774343,0.0011,-0.0345125,-0.0066
1679997308057,1177296411276204,1.375E-4,-0.0396,-0.0075625
1679997308058,1177296413778358,-0.001925,-0.041525,-0.0066
1679997308061,1177296416280281,1.375E-4,-0.0455125,-0.0075625
1679997308063,1177296418782358,-0.001925,-0.0485375,-0.0066
1679997308067,1177296421284290,1.375E-4,-0.053625,-0.009625
1679997308069,1177296423786367,1.375E-4,-0.05555,-0.01265
1679997308071,1177296426288290,-0.001925,-0.0545875,-0.0116875
1679997308075,1177296428790444,-0.0059125,-0.0616,-0.014575
1679997308077,1177296431292520,-0.0078375,-0.06655,-0.015675
1679997308078,1177296433794698,-0.0048125,-0.06655,-0.015675
1679997308081,1177296436296544,-0.0048125,-0.0715,-0.0166375
1679997308085,1177296438798468,-0.0099,-0.07755,-0.0176
1679997308089,1177296441300525,-0.0088,-0.0815375,-0.0166375
1679997308091,1177296443802679,-0.006875,-0.082499996,-0.0176
1679997308092,1177296446315987,-0.0088,-0.085525,-0.020624999
1679997308096,1177296448806679,-0.0078375,-0.08855,-0.020624999
1679997308097,1177296451308833,-0.0059125,-0.0875875,-0.0196625
1679997308099,1177296453810766,-0.006875,-0.091575,-0.020624999
1679997308101,1177296456312612,-0.0078375,-0.0875875,-0.0215875
1679997308103,1177296458814766,-0.0088,-0.0875875,-0.0215875
1679997308107,1177296461316843,-0.0078375,-0.091575,-0.0226875
1679997308109,1177296463819030,-0.0078375,-0.08855,-0.025575
1679997308111,1177296466320876,-0.0088,-0.08855,-0.025575
1679997308113,1177296468823030,-0.0099,-0.0836,-0.0246125
1679997308117,1177296471324953,-0.0108624995,-0.07755,-0.026675
1679997308119,1177296473826799,-0.0099,-0.0715,-0.026675
1679997308121,1177296476328948,-0.0078375,-0.0675125,-0.0295625
1679997308125,1177296478831102,-0.0099,-0.0616,-0.0286
1679997308128,1177296481333179,-0.0088,-0.0576125,-0.0295625
1679997308130,1177296483835102,-0.00385,-0.052525,-0.0286
1679997308132,1177296486337203,0.0022,-0.0455125,-0.0276375
1679997308134,1177296488839126,-8.25E-4,-0.0396,-0.0295625
1679997308137,1177296491341203,-8.25E-4,-0.031625,-0.026675
1679997308140,1177296493843126,0.0011,-0.020624999,-0.02365
1679997308141,1177296496345280,0.0022,-0.0185625,-0.0246125
1679997308144,1177296498847348,0.0011,-0.0155375,-0.0246125
1679997308148,1177296501349271,0.0031625,-0.0066,-0.0176
1679997308149,1177296503851348,0.0031625,-0.0055,-0.0166375
1679997308151,1177296506353271,0.004125,0.001375,-0.015675
1679997308153,1177296508855362,0.0022,0.0044,-0.0166375
1679997308156,1177296511357285,0.004125,0.007425,-0.015675
1679997308158,1177296513859439,0.004125,0.01045,-0.0116875
1679997308162,1177296516361516,0.0031625,0.013475,-0.0086624995
1679997308167,1177296518863425,0.0031625,0.013475,-0.0075625
1679997308168,1177296521365502,0.004125,0.013475,-0.004675
1679997308169,1177296523867425,0.0031625,0.0094875,-0.003575
1679997308171,1177296526369502,0.004125,0.0064625,-0.003575
1679997308174,1177296528871656,0.0061875,0.0055,-0.004675
1679997308176,1177296531373574,0.009075,0.002475,-0.0026125
1679997308179,1177296533875651,0.0050875,-0.0026125,-0.003575
1679997308183,1177296536377574,0.0061875,-0.0045375,-0.0026125
1679997308184,1177296538879651,0.0061875,-0.01155,-0.0056375
1679997308187,1177296541381569,0.0050875,-0.0155375,-0.004675
1679997308189,1177296543883646,0.0011,-0.014575,-0.004675
1679997308191,1177296546385799,-0.001925,-0.0165,0.001375
1679997308193,1177296548887953,-0.0099,-0.020624999,0.0034375
1679997308196,1177296551389800,-0.0088,-0.025575,0.006325
1679997308200,1177296553891723,-0.0088,-0.0325875,0.007425
1679997308202,1177296556393876,-0.0088,-0.0375375,0.006325
1679997308207,1177296558895953,-0.0108624995,-0.0485375,0.00935
1679997308209,1177296561397800,-0.006875,-0.053625,0.00935
1679997308210,1177296563900030,-0.0078375,-0.0616,0.0044
1679997308212,1177296566402107,-0.0088,-0.0625625,0.0083875
1679997308214,1177296568903953,-0.0088,-0.0686125,0.0103124995
1679997308217,1177296571405876,-0.0099,-0.075625,0.0103124995
1679997308219,1177296573908030,-0.0088,-0.075625,0.0114124995
1679997308223,1177296576410107,-0.0078375,-0.07755,0.0144375
1679997308225,1177296578912030,-0.006875,-0.085525,0.017324999
1679997308228,1177296581414184,-0.0059125,-0.086625,0.0114124995
1679997308230,1177296583916261,-0.0059125,-0.0836,0.007425
1679997308232,1177296586418179,-0.00385,-0.0785125,0.006325
1679997308233,1177296588920256,1.375E-4,-0.07755,0.007425
1679997308238,1177296591422179,-0.001925,-0.075625,0.0034375
1679997308239,1177296593924256,0.0011,-0.07755,0.0044
1679997308241,1177296596426179,0.0011,-0.07755,0.0053625
1679997308244,1177296598928242,-8.25E-4,-0.075625,0.0083875
1679997308246,1177296601430165,1.375E-4,-0.07755,0.0103124995
1679997308248,1177296603932319,0.0022,-0.07755,0.0144375
1679997308251,1177296606434473,0.0011,-0.0785125,0.0154
1679997308253,1177296608936319,1.375E-4,-0.082499996,0.0163625
1679997308256,1177296611438376,1.375E-4,-0.082499996,0.017324999
1679997308259,1177296613940530,-0.001925,-0.082499996,0.0193875
1679997308261,1177296616442453,-0.001925,-0.0845625,0.0154
1679997308263,1177296618944299,-0.00385,-0.0845625,0.0154
1679997308268,1177296621446458,-8.25E-4,-0.085525,0.0193875
1679997308270,1177296623948612,-8.25E-4,-0.082499996,0.0213125
1679997308271,1177296626450458,-0.00385,-0.0836,0.0213125
1679997308275,1177296628952540,0.0011,-0.0836,0.017324999
1679997308279,1177296631454694,1.375E-4,-0.0815375,0.0213125
1679997308280,1177296633956617,0.0031625,-0.0785125,0.0213125
1679997308282,1177296636458463,0.0022,-0.0765875,0.02035
1679997308285,1177296638960824,-8.25E-4,-0.0705375,0.0224125
1679997308287,1177296641462747,1.375E-4,-0.0675125,0.0193875
1679997308289,1177296643964824,1.375E-4,-0.0605,0.0193875
1679997308291,1177296646466747,0.0022,-0.0545875,0.0144375
1679997308294,1177296648968824,0.0022,-0.0506,0.0154
1679997308297,1177296651470761,0.0061875,-0.0435875,0.0144375
1679997308299,1177296653972838,0.0050875,-0.0356125,0.0114124995
1679997308301,1177296656474992,0.00715,-0.0286,0.0103124995
1679997308305,1177296658976915,0.0061875,-0.019524999,0.00935
1679997308308,1177296661478992,0.0081124995,-0.01155,0.006325
1679997308313,1177296663980915,0.0121,-5.5E-4,0.0053625
1679997308315,1177296666482992,0.015125,0.002475,0.0044
1679997308318,1177296668984915,0.015125,0.0114124995,0.0044
1679997308320,1177296671487068,0.01815,0.0144375,0.0053625
1679997308321,1177296673989145,0.020075,0.023375,0.0023375
1679997308322,1177296676491069,0.021175,0.029424999,4.125E-4
1679997308324,1177296678993145,0.0251625,0.035475,4.125E-4
1679997308327,1177296681495069,0.026124999,0.0424875,-6.875E-4
1679997308329,1177296683997131,0.0242,0.045375,0.001375
1679997308332,1177296686499055,0.0251625,0.0474375,0.0034375
1679997308335,1177296689001208,0.026124999,0.0504625,0.0023375
1679997308337,1177296691503285,0.0270875,0.0534875,0.0023375
1679997308339,1177296694005203,0.0270875,0.054449998,0.001375
1679997308341,1177296696507280,0.0251625,0.054449998,4.125E-4
1679997308345,1177296699009203,0.0242,0.0504625,0.0034375
1679997308348,1177296701511280,0.0221375,0.043449998,0.007425
1679997308351,1177296704013218,0.0221375,0.043449998,0.0083875
1679997308353,1177296706515372,0.021175,0.0394625,0.007425
1679997308355,1177296709017449,0.01815,0.034375,0.007425
1679997308357,1177296711519603,0.0132,0.0303875,0.0103124995
1679997308359,1177296714021449,0.010175,0.024475,0.0103124995
1679997308361,1177296716523372,0.010175,0.0165,0.0103124995
1679997308368,1177296719025449,0.0081124995,0.0064625,0.0103124995
1679997308368,1177296721527680,0.0061875,-5.5E-4,0.00935
1679997308372,1177296724029526,0.0011,-0.009625,0.0114124995
1679997308374,1177296726531690,-0.001925,-0.019524999,0.0114124995
1679997308375,1177296729033767,-0.0059125,-0.0265375,0.0133375
1679997308378,1177296731535690,-0.0078375,-0.031625,0.012375
1679997308379,1177296734037536,-0.0088,-0.0356125,0.012375
1679997308382,1177296736539680,-0.0138875,-0.042625,0.0133375
1679997308385,1177296739041834,-0.0169125,-0.047575,0.0154
1679997308390,1177296741543680,-0.0188375,-0.0466125,0.0163625
1679997308392,1177296744044771,-0.0188375,-0.0506,0.0163625
1679997308392,1177296746545848,-0.0188375,-0.0515625,0.0163625
1679997308395,1177296749049848,-0.0198,-0.0545875,0.0163625
1679997308397,1177296751551694,-0.022824999,-0.0485375,0.0224125
1679997308400,1177296754053848,-0.0279125,-0.047575,0.0243375
1679997308402,1177296756555997,-0.02585,-0.042625,0.023375
1679997308404,1177296759058074,-0.0279125,-0.036575,0.0273625
1679997308408,1177296761559997,-0.02585,-0.036575,0.0273625
1679997308409,1177296764062074,-0.02585,-0.0325875,0.028324999
1679997308411,1177296766563997,-0.0248875,-0.0246125,0.029424999
1679997308416,1177296769066079,-0.023924999,-0.019524999,0.028324999
1679997308420,1177296772030694,-0.022824999,-0.0165,0.028324999
1679997308420,1177296774383002,-0.0248875,-0.01155,0.029424999
1679997308421,1177296776572233,-0.0248875,-0.003575,0.03135
1679997308426,1177296779074180,-0.022824999,0.0044,0.03135
1679997308429,1177296781576334,-0.0218625,0.0064625,0.0323125
1679997308431,1177296786578410,-0.0198,0.01045,0.034375
1679997308433,1177296786717501,-0.0188375,0.0144375,0.03135
1679997308435,1177296789082424,-0.0188375,0.0154,0.0334125
1679997308437,1177296791584348,-0.0188375,0.018424999,0.03135
1679997308439,1177296794086424,-0.0209,0.0165,0.03135
1679997308441,1177296796588348,-0.0209,0.018424999,0.029424999
1679997308444,1177296799090492,-0.017875,0.0193875,0.0243375
1679997308447,1177296801592569,-0.017875,0.0165,0.0243375
1679997308448,1177296804094492,-0.0198,0.0144375,0.0254375
1679997308451,1177296806596569,-0.0209,0.0114124995,0.0243375
1679997308454,1177296809098510,-0.022824999,0.007425,0.0213125
1679997308456,1177296811600587,-0.0218625,0.0064625,0.017324999
1679997308459,1177296814102510,-0.0209,0.0034375,0.0133375
1679997308462,1177296816604664,-0.022824999,-0.0026125,0.012375
1679997308466,1177296819106741,-0.0198,-0.008525,0.0144375
1679997308468,1177296821608664,-0.0188375,-0.009625,0.012375
1679997308469,1177296824110741,-0.0188375,-0.013612499,0.0114124995
1679997308472,1177296826612664,-0.0198,-0.0215875,0.0103124995
1679997308474,1177296829114741,-0.0158125,-0.025575,0.0114124995
1679997308476,1177296831616963,-0.0169125,-0.031625,0.00935
1679997308479,1177296834118809,-0.0169125,-0.0325875,0.0083875
1679997308482,1177296836620886,-0.012925,-0.0345125,0.006325
1679997308485,1177296839122809,-0.0158125,-0.036575,0.0034375
1679997308487,1177296841624886,-0.0158125,-0.0396,0.001375
1679997308489,1177296844126809,-0.0169125,-0.0385,4.125E-4
1679997308491,1177296846628886,-0.0169125,-0.04455,-0.00165
1679997308494,1177296849131117,-0.0158125,-0.041525,-0.004675
1679997308496,1177296851632963,-0.017875,-0.0375375,-0.004675
1679997308500,1177296854135068,-0.0198,-0.0375375,-0.0075625
1679997308501,1177296856636991,-0.0158125,-0.0375375,-0.01265
1679997308505,1177296859139145,-0.0158125,-0.0356125,-0.01265
1679997308507,1177296861640991,-0.022824999,-0.0295625,-0.015675
1679997308509,1177296864143068,-0.0188375,-0.025575,-0.0176
1679997308511,1177296866645309,-0.0158125,-0.0176,-0.0166375
1679997308514,1177296869147386,-0.0169125,-0.01155,-0.0196625
1679997308517,1177296871649232,-0.0218625,-0.0055,-0.0196625
1679997308519,1177296874151155,-0.0198,-0.0026125,-0.0166375
1679997308521,1177296876653315,-0.017875,0.0055,-0.0166375
1679997308524,1177296879155392,-0.0188375,0.0144375,-0.0176
1679997308527,1177296881657546,-0.0158125,0.018424999,-0.0176
1679997308529,1177296884159469,-0.01485,0.0264,-0.0185625
1679997308532,1177296886661546,-0.0169125,0.0303875,-0.0166375
1679997308535,1177296889163469,-0.0158125,0.034375,-0.01265
1679997308539,1177296891665546,-0.01485,0.0385,-0.015675
1679997308541,1177296894167469,-0.0188375,0.0424875,-0.015675
1679997308542,1177296896669560,-0.0169125,0.0424875,-0.014575
1679997308546,1177296899171713,-0.0169125,0.043449998,-0.014575
1679997308548,1177296901673637,-0.0158125,0.0474375,-0.0105875
1679997308551,1177296904175714,-0.0138875,0.046475,-0.0116875
1679997308551,1177296906677637,-0.012925,0.0495,-0.0105875
1679997308555,1177296909179719,-0.0108624995,0.0523875,-0.015675
1679997308557,1177296911681642,-0.012925,0.0484,-0.0105875
1679997308559,1177296914183719,-0.012925,0.0394625,-0.0075625
1679997308561,1177296916685872,-0.011825,0.0394625,-0.0116875
1679997308565,1177296919187786,-0.0108624995,0.0394625,-0.014575
1679997308566,1177296921689863,-0.0099,0.034375,-0.009625
1679997308569,1177296924191786,-0.011825,0.0334125,-0.009625
1679997308571,1177296926693863,-0.0099,0.0284625,-0.01265
1679997308576,1177296929195814,-0.011825,0.0193875,-0.009625
1679997308577,1177296931697968,-0.011825,0.0154,-0.0075625
1679997308579,1177296934200045,-0.0088,0.0094875,-0.0086624995
1679997308582,1177296936701968,-0.0078375,4.125E-4,-0.0075625
1679997308585,1177296939204045,-0.0099,-0.008525,-0.0066
1679997308588,1177296941705977,-0.0099,-0.0105875,-0.004675
1679997308591,1177296944208054,-0.006875,-0.0165,-0.003575
1679997308591,1177296946709977,-0.0048125,-0.0286,-0.00165
1679997308594,1177296949212131,-8.25E-4,-0.030524999,0.0034375
1679997308596,1177296951714180,-0.0059125,-0.036575,0.0053625
1679997308598,1177296954216103,-0.0048125,-0.047575,0.006325
1679997308601,1177296956718180,-0.0059125,-0.0495,0.00935
1679997308605,1177296959220103,-0.0078375,-0.0545875,0.00935
1679997308607,1177296961722137,-0.0078375,-0.063525,0.0114124995
1679997308609,1177296964224291,-0.0099,-0.0686125,0.0133375
1679997308613,1177296966726214,-0.0088,-0.0686125,0.0133375
1679997308616,1177296969228291,-0.0089375,-0.07755,0.012375
1679997308618,1177296971730214,-0.0108624995,-0.0796125,0.0114124995
1679997308621,1177296974232291,-0.011825,-0.082499996,0.017324999
1679997308622,1177296976734445,-0.011825,-0.085525,0.02035
1679997308625,1177296979236368,-0.01485,-0.086625,0.02035
1679997308628,1177296981738445,-0.012925,-0.0875875,0.0224125
1679997308630,1177296984240368,-0.0138875,-0.0875875,0.0243375
1679997308633,1177296986742445,-0.0138875,-0.0906125,0.023375
1679997308635,1177296989244368,-0.0158125,-0.0925375,0.0264
1679997308637,1177296991746522,-0.01485,-0.0875875,0.0254375
1679997308641,1177296994248575,-0.0138875,-0.086625,0.0264
1679997308642,1177296996750498,-0.0108624995,-0.0836,0.0254375
1679997308645,1177296999252575,-0.0099,-0.0785125,0.023375
1679997308647,1177297001754498,-0.0099,-0.0765875,0.0243375
1679997308650,1177297004256560,-0.0108624995,-0.074525,0.0224125
1679997308652,1177297006758483,-0.0078375,-0.0705375,0.0224125
1679997308655,1177297009260637,-0.0078375,-0.06655,0.02035
1679997308657,1177297011762714,-0.0089375,-0.063525,0.0154
1679997308659,1177297014264637,-0.0089375,-0.058575,0.0163625
1679997308661,1177297016766700,-0.0078375,-0.0545875,0.0144375
1679997308666,1177297019268623,-0.006875,-0.0515625,0.0144375
1679997308668,1177297021770777,-0.0078375,-0.0495,0.0103124995
1679997308670,1177297024272854,-0.006875,-0.0435875,0.006325
1679997308671,1177297026774762,-0.0078375,-0.036575,0.0053625
1679997308675,1177297029276915,-0.0048125,-0.03355,0.0044
1679997308676,1177297031778992,-0.00385,-0.0295625,0.0023375
1679997308679,1177297034280839,-0.00385,-0.0286,4.125E-4
1679997308682,1177297036782978,0.0011,-0.025575,4.125E-4
1679997308685,1177297039284902,0.0020625,-0.0215875,4.125E-4
1679997308688,1177297041787055,0.0031625,-0.0185625,-0.00165
1679997308690,1177297044288902,0.0031625,-0.0125124995,-0.00165
1679997308692,1177297046791050,0.004125,-0.0125124995,-0.004675
1679997308695,1177297049293127,0.0031625,-0.009625,0.001375
1679997308697,1177297051795050,0.0061875,-0.0075625,4.125E-4
1679997308699,1177297054297127,0.0061875,0.001375,-6.875E-4
1679997308702,1177297056799050,0.0081124995,0.0044,-0.00165
1679997308706,1177297059301204,0.010175,0.002475,-6.875E-4
1679997308707,1177297061803281,0.009075,0.01045,4.125E-4
1679997308709,1177297064305204,0.0111375,0.013475,-6.875E-4
1679997308711,1177297066807281,0.010175,0.0204875,0.0023375
1679997308715,1177297069309175,0.0111375,0.024475,0.0053625
1679997308717,1177297071811252,0.0111375,0.0314875,-6.875E-4
1679997308719,1177297074313406,0.0121,0.0364375,-0.00165
1679997308722,1177297076815324,0.015125,0.043449998,-6.875E-4
1679997308727,1177297079317401,0.0191125,0.0495,-0.003575
1679997308728,1177297081819324,0.015125,0.054449998,-0.0026125
1679997308730,1177297084321401,0.01815,0.0554125,-0.0056375
1679997308733,1177297086823315,0.020075,0.0633875,-0.0066
1679997308736,1177297089325392,0.021175,0.0694375,-0.003575
1679997308737,1177297091827546,0.021175,0.073425,-0.0056375
1679997308739,1177297094329469,0.021175,0.07645,-0.004675
1679997308741,1177297096831546,0.0191125,0.0804375,-0.004675
1679997308747,1177297099333445,0.0221375,0.0853875,-0.0026125
1679997308748,1177297101835522,0.021175,0.0853875,4.125E-4
1679997308749,1177297104337445,0.0240625,0.089375,0.0034375
1679997308751,1177297106839522,0.026124999,0.095425,0.0044
1679997308755,1177297109341676,0.0240625,0.095425,0.0053625
1679997308758,1177297111843565,0.0240625,0.0924,0.007425
1679997308760,1177297114345642,0.0240625,0.0944625,0.00935
1679997308763,1177297116847565,0.0251625,0.0963875,0.012375
1679997308767,1177297119349719,0.026124999,0.089375,0.012375
1679997308768,1177297121851570,0.026124999,0.0853875,0.0133375
1679997308770,1177297124353724,0.026124999,0.084425,0.017324999
1679997308773,1177297126855801,0.0281875,0.0804375,0.0163625
1679997308776,1177297129357724,0.0270875,0.0724625,0.0163625
1679997308777,1177297131859801,0.0240625,0.06545,0.02035
1679997308779,1177297134361974,0.0221375,0.0594,0.0193875
1679997308783,1177297136863897,0.021175,0.051425,0.02035
1679997308786,1177297139365743,0.020075,0.0424875,0.0193875
1679997308788,1177297141867897,0.0191125,0.0334125,0.0154
1679997308789,1177297144370041,0.0191125,0.0264,0.0144375
1679997308793,1177297146872117,0.01815,0.0165,0.0144375
1679997308796,1177297149373964,0.0191125,0.0055,0.0154
1679997308797,1177297151876194,0.0160875,-0.003575,0.0133375
1679997308801,1177297154377998,0.0160875,-0.0105875,0.0133375
1679997308803,1177297156880074,0.0160875,-0.0176,0.0114124995
1679997308808,1177297159381998,0.0171875,-0.0246125,0.0083875
1679997308809,1177297161884151,0.0191125,-0.031625,0.006325
1679997308810,1177297164385998,0.0221375,-0.0375375,0.006325
1679997308812,1177297166888090,0.0231,-0.0375375,0.0053625
1679997308816,1177297169390320,0.0231,-0.0466125,0.0023375
1679997308817,1177297171892166,0.0231,-0.0545875,0.0023375
1679997308819,1177297174394320,0.0191125,-0.05555,-0.00165
1679997308822,1177297176896411,0.0221375,-0.052525,-0.0026125
1679997308825,1177297179398334,0.0231,-0.0515625,-0.003575
1679997308828,1177297181900180,0.0240625,-0.052525,-0.0066
1679997308830,1177297184402565,0.0270875,-0.052525,-0.0105875
1679997308832,1177297186904498,0.0251625,-0.0545875,-0.014575
1679997308835,1177297189406575,0.026124999,-0.0485375,-0.014575
1679997308838,1177297191908498,0.0270875,-0.04455,-0.014575
1679997308840,1177297194410575,0.0240625,-0.0455125,-0.0166375
1679997308842,1177297196912483,0.0270875,-0.042625,-0.0166375
1679997308845,1177297199414560,0.0251625,-0.0385,-0.0176
1679997308847,1177297201916714,0.0281875,-0.036575,-0.0176
1679997308849,1177297204418637,0.02915,-0.0356125,-0.0185625
1679997308851,1177297206920714,0.02915,-0.031625,-0.0185625
1679997308855,1177297209422647,0.026124999,-0.0275,-0.0176
1679997308857,1177297211924724,0.0251625,-0.0286,-0.0166375
1679997308859,1177297214426647,0.0231,-0.020624999,-0.0185625
1679997308862,1177297216928724,0.0231,-0.0165,-0.0176
1679997308866,1177297219430878,0.0240625,-0.0176,-0.014575
1679997308868,1177297221932801,0.0251625,-0.014575,-0.014575
1679997308869,1177297224434878,0.0231,-0.01155,-0.0116875
1679997308872,1177297226936801,0.0231,-0.0075625,-0.0086624995
1679997308877,1177297229438878,0.026124999,-0.0026125,-0.0086624995
1679997308878,1177297231940801,0.0251625,-0.0045375,-0.0086624995
1679997308880,1177297234442955,0.0231,-5.5E-4,-0.009625
1679997308882,1177297236945032,0.0251625,0.0055,-0.0116875
1679997308886,1177297239446969,0.0240625,0.007425,-0.01265
1679997308888,1177297241949046,0.0270875,0.013475,-0.015675
1679997308890,1177297244450969,0.02915,0.0204875,-0.014575
1679997308892,1177297246953046,0.02915,0.023375,-0.014575
1679997308895,1177297249454969,0.02915,0.023375,-0.015675
1679997308897,1177297251957137,0.0341,0.0303875,-0.0176
1679997308899,1177297254459214,0.0331375,0.0394625,-0.0215875
1679997308902,1177297256961368,0.032175,0.045375,-0.0196625
1679997308906,1177297259463238,0.0331375,0.043449998,-0.0196625
1679997308907,1177297261965161,0.02915,0.0484,-0.020624999
1679997308909,1177297264467238,0.0270875,0.0474375,-0.0196625
1679997308913,1177297266969468,0.0281875,0.051425,-0.0226875
1679997308916,1177297269471320,0.0270875,0.056375,-0.0246125
1679997308919,1177297271973397,0.0281875,0.057475,-0.025575
1679997308921,1177297274475550,0.0281875,0.0605,-0.0276375
1679997308923,1177297276977473,0.0281875,0.0644875,-0.0286
1679997308926,1177297279479320,0.031075,0.06545,-0.031625
1679997308928,1177297281981488,0.02915,0.06545,-0.031625
1679997308931,1177297284483642,0.0281875,0.0644875,-0.031625
1679997308933,1177297286985488,0.02915,0.0664125,-0.0295625
1679997308936,1177297289487565,0.0281875,0.0633875,-0.031625
1679997308938,1177297291989714,0.0281875,0.0644875,-0.0286
1679997308939,1177297294491637,0.026124999,0.062425,-0.026675
1679997308942,1177297296993484,0.0281875,0.062425,-0.025575
1679997308946,1177297299495637,0.0270875,0.0594,-0.026675
1679997308948,1177297301997781,0.0251625,0.0554125,-0.020624999
1679997308951,1177297304499858,0.0231,0.0495,-0.020624999
1679997308953,1177297307001781,0.0231,0.0484,-0.020624999
1679997308956,1177297309503858,0.0231,0.0474375,-0.0185625
1679997308957,1177297312005781,0.0221375,0.0385,-0.014575
1679997308959,1177297314507858,0.0221375,0.0303875,-0.0116875
1679997308962,1177297317010012,0.021175,0.0275,-0.01265
1679997308966,1177297319511935,0.0191125,0.02145,-0.0116875
1679997308967,1177297322014012,0.021175,0.0154,-0.0075625
1679997308969,1177297324515964,0.0221375,0.01045,-0.0075625
1679997308972,1177297327018041,0.0191125,0.002475,-0.0026125
1679997308975,1177297329519964,0.0191125,4.125E-4,-6.875E-4
1679997308977,1177297332022118,0.0191125,-0.0026125,-0.003575
1679997308979,1177297334524209,0.020075,-0.009625,-6.875E-4
1679997308982,1177297337026055,0.0191125,-0.0155375,4.125E-4
1679997308986,1177297339528209,0.0160875,-0.0215875,0.0044
1679997308989,1177297342030147,0.013062499,-0.0275,4.125E-4
1679997308991,1177297344532224,0.0121,-0.0345125,0.006325
1679997308993,1177297347034378,0.0111375,-0.036575,0.0053625
1679997308996,1177297349536301,0.0111375,-0.04455,0.006325
1679997308998,1177297352038378,0.010175,-0.0485375,0.006325
1679997309000,1177297354540286,0.0061875,-0.052525,0.007425
1679997309002,1177297357042363,0.0050875,-0.05555,0.0103124995
1679997309005,1177297359544286,0.0050875,-0.0616,0.00935
1679997309007,1177297362046440,0.0031625,-0.063525,0.0114124995
1679997309009,1177297364548532,-8.25E-4,-0.0616,0.00935
1679997309012,1177297367050455,-0.00385,-0.0616,0.0114124995
1679997309016,1177297369552532,-0.0048125,-0.0605,0.0114124995
1679997309017,1177297372054455,-0.0078375,-0.0595375,0.0114124995
1679997309020,1177297374556532,-0.006875,-0.058575,0.0114124995
1679997309022,1177297377058676,-0.006875,-0.053625,0.012375
1679997309028,1177297379560599,-0.0078375,-0.0485375,0.0103124995
1679997309030,1177297382061632,-0.0078375,-0.04455,0.0103124995
1679997309031,1177297384562671,-0.0059125,-0.0375375,0.0103124995
1679997309032,1177297387066670,-0.006875,-0.0325875,0.00935
1679997309035,1177297389568593,-0.006875,-0.02255,0.0083875
1679997309037,1177297392070670,-0.0078375,-0.0165,0.006325
1679997309041,1177297394572823,-0.0059125,-0.009625,0.006325
1679997309042,1177297397074767,-0.00385,-0.0045375,0.0053625
1679997309045,1177297399576843,-0.006875,0.0034375,0.0034375
1679997309047,1177297402078767,-0.0078375,0.013475,0.0034375
1679997309050,1177297404580843,-0.0059125,0.018424999,0.0023375
1679997309052,1177297407082733,-0.00385,0.0275,0.001375
1679997309056,1177297409584809,-0.001925,0.032449998,-6.875E-4
1679997309057,1177297412086963,-0.00385,0.034375,0.001375
1679997309061,1177297414588886,-0.00385,0.0424875,0.0023375
1679997309065,1177297417090944,-0.001925,0.0474375,4.125E-4
1679997309067,1177297419593098,-0.0059125,0.0484,0.0044
1679997309069,1177297422094944,-0.0059125,0.0523875,0.0023375
1679997309071,1177297424596867,0.0020625,0.0594,0.0044
1679997309073,1177297427099021,1.375E-4,0.056375,0.006325
1679997309076,1177297429601147,0.0020625,0.054449998,0.00935
1679997309077,1177297432102993,0.0020625,0.0594,0.00935
1679997309081,1177297434605070,0.0011,0.056375,0.0103124995
1679997309083,1177297437107224,-0.00385,0.056375,0.012375
1679997309085,1177297439609147,-0.00385,0.057475,0.012375
1679997309087,1177297442110993,-8.25E-4,0.054449998,0.0133375
1679997309089,1177297444613378,-0.0059125,0.0534875,0.0133375
1679997309093,1177297447115301,-0.0059125,0.0495,0.0133375
1679997309095,1177297449617378,-0.0089375,0.0495,0.0133375
1679997309097,1177297452119296,-0.0099,0.0424875,0.012375
1679997309101,1177297454621373,-0.011825,0.0364375,0.0114124995
1679997309103,1177297457123296,-0.0108624995,0.0394625,0.0144375
1679997309107,1177297459625363,-0.01485,0.034375,0.0133375
1679997309108,1177297462127517,-0.017875,0.0303875,0.0144375
1679997309112,1177297464629440,-0.0209,0.0275,0.0133375
1679997309113,1177297467131517,-0.0209,0.0224125,0.0103124995
1679997309116,1177297469633440,-0.0209,0.0193875,0.00935
1679997309117,1177297472135527,-0.0188375,0.013475,0.0114124995
1679997309120,1177297474637450,-0.0188375,0.013475,0.007425
1679997309122,1177297477139604,-0.0188375,0.0114124995,0.006325
1679997309126,1177297479641681,-0.0199375,0.0094875,0.007425
1679997309127,1177297482143609,-0.0218625,0.0094875,0.0044
1679997309129,1177297484645686,-0.0218625,0.002475,0.0053625
1679997309132,1177297487147609,-0.0248875,0.001375,0.006325
1679997309136,1177297489649686,-0.023924999,0.001375,0.0044
1679997309139,1177297492151628,-0.022824999,-0.0015125,-6.875E-4
1679997309140,1177297494653782,-0.022824999,-0.0026125,4.125E-4
1679997309142,1177297497155859,-0.0248875,-0.0056375,-6.875E-4
1679997309146,1177297499657782,-0.02695,-0.0015125,0.0023375
1679997309149,1177297502159859,-0.0279125,-0.0015125,-0.00165
1679997309150,1177297504661772,-0.02695,4.125E-4,-0.0026125
1679997309152,1177297507163849,-0.0279125,0.001375,4.125E-4
1679997309155,1177297509666002,-0.02585,4.125E-4,0.0023375
1679997309157,1177297512167926,-0.022824999,-5.5E-4,0.001375
1679997309159,1177297514670002,-0.022824999,0.001375,0.0023375
1679997309162,1177297517171912,-0.022824999,-0.0015125,0.006325
1679997309165,1177297519673989,-0.0209,0.001375,0.006325
