system_ts_ms, sensor_ts_ns, accX, accY, accZ
1679997304211,1177292565661786,4.6129503,5.7780004,6.9160504
1679997304212,1177292568163709,4.5940504,5.77995,6.9360003
1679997304215,1177292570665786,4.6320004,5.88105,6.94995
1679997304217,1177292573167709,4.5870004,5.7130504,6.9240003
1679997304221,1177292575669863,4.5529504,5.73705,6.9330006
1679997304231,1177292578171940,4.5820503,5.775,7.0000505
1679997304231,1177292580673838,4.59105,5.61705,7.08195
1679997304231,1177292583175915,4.6320004,5.6989503,7.0030503
1679997304232,1177292585677838,4.5820503,5.6200504,6.9259505
1679997304233,1177292588179915,4.6129503,5.622,6.9310503
1679997304236,1177292590681838,4.57695,5.6080503,6.9739504
1679997304237,1177292593184016,4.6270504,5.5789504,6.86595
1679997304242,1177292595686093,4.668,5.61705,6.83295
1679997304242,1177292598188016,4.63005,5.517,6.945
1679997304245,1177292600690170,4.6470003,5.63205,6.7249503
1679997304247,1177292603192016,4.6200004,5.5860004,7.00995
1679997304250,1177292605694078,4.6849504,5.5290003,6.80595
1679997304253,1177292608196001,4.6129503,5.68905,6.8590503
1679997304255,1177292610698386,4.776,5.64405,6.9210005
1679997304262,1177292613200232,4.78305,5.57205,6.9670506
1679997304262,1177292615702155,4.70205,5.6530504,6.8610005
1679997304263,1177292618204309,4.7779503,5.66295,6.7780504
1679997304266,1177292620706386,4.63695,5.6910005,6.8830504
1679997304268,1177292623208232,4.7380505,5.6790004,6.95205
1679997304270,1177292625710391,4.73505,5.7390003,6.9670506
1679997304277,1177292628212544,4.74195,5.7390003,7.0219502
1679997304279,1177292630714467,4.6729503,5.802,6.9360003
1679997304280,1177292633216314,4.6200004,5.742,7.08405
1679997304280,1177292635718467,4.68195,5.8159504,7.1610003
1679997304283,1177292638220530,4.60605,5.67495,7.11495
1679997304285,1177292640722377,4.6249504,5.7319503,7.14195
1679997304287,1177292643224607,4.68195,5.79195,7.0750504
1679997304292,1177292645726684,4.7400002,5.82105,7.0600505
1679997304293,1177292648228626,4.66305,5.73495,7.0750504
1679997304297,1177292650730473,4.6200004,5.78205,6.9690003
1679997304299,1177292653232626,4.596,5.6530504,7.0600505
1679997304300,1177292655734703,4.5820503,5.71995,7.06995
1679997304303,1177292658236626,4.5199504,5.682,7.11
1679997304309,1177292660738780,4.55595,5.7130504,6.95205
1679997304309,1177292663240857,4.5220504,5.74695,7.2109504
1679997304311,1177292665742780,4.4760003,5.727,6.9739504
1679997304313,1177292668244857,4.6750503,5.71995,7.0410004
1679997304315,1177292670746789,4.59105,5.6790004,7.14405
1679997304317,1177292673248866,4.48395,5.70795,7.1320505
1679997304320,1177292675751020,4.6080003,5.6839504,7.0270505
1679997304326,1177292678252943,4.5360003,5.68695,7.0309505
1679997304327,1177292680755016,4.4599504,5.703,7.0870504
1679997304328,1177292683256939,4.5360003,5.73705,7.0030503
1679997304330,1177292685759016,4.5529504,5.715,6.9930005
1679997304334,1177292688260919,4.5199504,5.7319503,7.0069504
1679997304336,1177292690762996,4.56495,5.622,7.04295
1679997304339,1177292693265150,4.5990005,5.6410503,6.9690003
1679997304343,1177292695767073,4.5750003,5.6989503,6.9240003
1679997304343,1177292698269150,4.5199504,5.79195,6.9310503
1679997304346,1177292700771073,4.57905,5.6959505,6.93795
1679997304348,1177292703273150,4.63905,5.6719503,6.9210005
1679997304350,1177292705775073,4.6579504,5.68905,7.005
1679997304352,1177292708277150,4.63005,5.73705,6.885
1679997304355,1177292710779304,4.64895,5.68905,6.9360003
1679997304360,1177292713281222,4.6200004,5.67495,7.00995
1679997304360,1177292715783299,4.6320004,5.7060003,6.912
1679997304363,1177292718285222,4.68195,5.6839504,7.0219502
1679997304365,1177292720787299,4.7569504,5.67,6.9910502
1679997304368,1177292723289222,4.6579504,5.6839504,7.0270505
1679997304372,1177292725791352,4.7260504,5.7109504,7.1509504
1679997304377,1177292728293429,4.75005,5.5999503,6.9619503
1679997304378,1177292730795352,4.7299504,5.71995,7.08195
1679997304379,1177292733297434,4.75395,5.6959505,7.0960503
1679997304380,1177292735799588,4.788,5.6119504,7.15605
1679997304382,1177292738301511,4.75005,5.6839504,7.1850004
1679997304386,1177292740803588,4.761,5.73705,7.182
1679997304388,1177292743305511,4.73295,5.67705,7.2780004
1679997304392,1177292745807588,4.80705,5.682,7.1800504
1679997304393,1177292748309511,4.7730002,5.715,7.1179504
1679997304395,1177292750811588,4.821,5.67,7.221
1679997304397,1177292753313741,4.809,5.73705,7.0960503
1679997304400,1177292755815684,4.8360004,5.6410503,7.3159504
1679997304403,1177292758317760,4.88805,5.71995,7.0669503
1679997304405,1177292760819684,4.87395,5.73705,7.0459504
1679997304412,1177292763321731,4.965,5.754,7.0309505
1679997304413,1177292765823655,4.905,5.703,6.9979506
1679997304414,1177292768325731,4.86705,5.6790004,7.0339503
1679997304416,1177292770827885,4.965,5.61705,7.11
1679997304418,1177292773329808,4.84095,5.6940002,7.05105
1679997304420,1177292775831905,4.90005,5.6410503,7.05105
1679997304426,1177292778333828,4.96995,5.703,7.1010003
1679997304427,1177292780835905,4.9290004,5.67,6.9810004
1679997304428,1177292783337828,4.86,5.68695,7.0669503
1679997304430,1177292785839967,4.98705,5.58795,6.97905
1679997304433,1177292788342121,4.872,5.5090504,7.0000505
1679997304436,1177292790843967,4.932,5.53305,7.0270505
1679997304437,1177292793346044,4.81395,5.4900002,7.1130004
1679997304445,1177292795848198,4.8019505,5.50005,6.95205
1679997304445,1177292798350044,4.88805,5.4229503,7.0150504
1679997304447,1177292800851967,4.8450003,5.517,7.0290003
1679997304449,1177292803354121,4.8310504,5.478,7.0600505
1679997304451,1177292805856285,4.7520003,5.58405,7.0219502
1679997304453,1177292808358131,4.7380505,5.48295,6.9480004
1679997304455,1177292810860208,4.7059503,5.55495,6.8929505
1679997304461,1177292813362362,4.74195,5.55495,6.9739504
1679997304462,1177292815864285,4.7470503,5.5669503,7.00995
1679997304463,1177292818366357,4.7140503,5.55,6.9739504
1679997304466,1177292820868280,4.70895,5.6839504,7.0069504
1679997304468,1177292823370434,4.66305,5.57595,6.9619503
1679997304470,1177292825872511,4.728,5.5909505,7.0909505
1679997304476,1177292828374352,4.6660504,5.6410503,7.1250005
1679997304476,1177292830876506,4.63005,5.6340003,7.0870504
1679997304478,1177292833378429,4.66995,5.5999503,6.94005
1679997304480,1177292835880583,4.63005,5.5690503,6.93795
1679997304485,1177292838382424,4.6540504,5.6269503,6.9240003
1679997304488,1177292840884578,4.6990504,5.58795,7.0530005
1679997304494,1177292843687347,4.6920004,5.5789504,7.005
1679997304495,1177292845888578,4.63695,5.6239505,6.9670506
1679997304495,1177292848390655,4.611,5.5480504,7.0669503
1679997304496,1177292850892560,4.64895,5.6239505,7.11495
1679997304498,1177292853394714,4.6969504,5.622,7.05105
1679997304500,1177292855896791,4.66995,5.598,6.9619503
1679997304503,1177292858398714,4.5990005,5.5960503,7.0219502
1679997304509,1177292860900786,4.5529504,5.60505,7.0069504
1679997304509,1177292863402709,4.6200004,5.6790004,6.93795
1679997304510,1177292865904786,4.65105,5.5909505,6.97905
1679997304513,1177292868406939,4.5270004,5.63595,7.0150504
1679997304515,1177292870908863,4.5700502,5.67,6.9640503
1679997304518,1177292873410930,4.5940504,5.68905,6.9690003
1679997304522,1177292875912853,4.58895,5.6509504,6.9280505
1679997304526,1177292878414930,4.63905,5.6790004,7.0270505
1679997304527,1177292880916853,4.572,5.6340003,6.912
1679997304529,1177292883418925,4.57905,5.5860004,6.9480004
1679997304531,1177292885921078,4.58895,5.6580005,7.0069504
1679997304533,1177292888423001,4.6200004,5.6509504,6.94005
1679997304536,1177292890925078,4.6540504,5.6269503,7.0480504
1679997304538,1177292893427001,4.56495,5.6389503,7.0410004
1679997304542,1177292895929088,4.61805,5.6670003,6.9910502
1679997304543,1177292898431011,4.61805,5.7109504,6.94995
1679997304546,1177292900933088,4.5600004,5.6080503,6.94005
1679997304548,1177292903435242,4.48395,5.5960503,6.945
1679997304550,1177292905937193,4.596,5.57595,6.8539505
1679997304553,1177292908439270,4.55805,5.6080503,6.8089504
1679997304555,1177292910941193,4.63005,5.7390003,6.9760504
1679997304560,1177292913443270,4.63005,5.64795,6.7780504
1679997304561,1177292915945438,4.6009502,5.68695,6.9040504
1679997304563,1177292918447361,4.611,5.7229505,6.9139504
1679997304566,1177292920949438,4.6129503,5.65605,6.80595
1679997304568,1177292923451284,4.6920004,5.682,6.83505
1679997304570,1177292925953438,4.7140503,5.5810504,6.9280505
1679997304576,1177292928455603,4.6579504,5.6239505,6.7939506
1679997304577,1177292930957526,4.7140503,5.74695,6.8179502
1679997304578,1177292933459603,4.6870503,5.73705,6.83505
1679997304580,1177292935961526,4.80495,5.7559505,6.87795
1679997304583,1177292938463622,4.7380505,5.6989503,6.8760004
1679997304587,1177292940965545,4.72305,5.7060003,6.8880005
1679997304588,1177292943467622,4.76595,5.73495,6.8760004
1679997304593,1177292945969776,4.78305,5.7780004,6.9430504
1679997304594,1177292948471699,4.8289504,5.727,6.9280505
1679997304598,1177292950973752,4.7449503,5.68695,6.9090004
1679997304599,1177292953475675,4.79295,5.71995,6.972
1679997304601,1177292955977752,4.7970004,5.73705,6.91905
1679997304603,1177292958479675,4.728,5.754,6.83505
1679997304606,1177292960981757,4.656,5.715,6.8760004
1679997304608,1177292963483911,4.761,5.79195,6.8880005
1679997304610,1177292965985834,4.67805,5.7300005,6.7969503
1679997304613,1177292968487911,4.6969504,5.82105,6.9240003
1679997304616,1177292970989825,4.6320004,5.85405,6.8040004
1679997304618,1177292973491902,4.6660504,5.8950005,6.9480004
1679997304621,1177292975993825,4.63695,5.7109504,7.0000505
1679997304623,1177292978495979,4.6129503,5.7730503,7.00995
1679997304628,1177292980998046,4.6150503,5.7990003,6.9670506
1679997304629,1177292983499969,4.6729503,5.8500004,6.8370004
1679997304631,1177292986002046,4.58895,5.9209504,7.02405
1679997304635,1177292988503935,4.6200004,5.82105,6.9090004
1679997304637,1177292991006012,4.59105,5.9760003,7.0290003
1679997304639,1177292993507935,4.6150503,5.8710003,6.912
1679997304640,1177292996010089,4.53405,5.92395,7.0270505
1679997304643,1177292998512166,4.5409503,6.0079503,6.9810004
1679997304646,1177293001014084,4.5360003,5.9599504,7.0720506
1679997304648,1177293003516161,4.56495,5.91405,6.8970003
1679997304650,1177293006018084,4.60605,5.94105,6.8490005
1679997304653,1177293008520161,4.5820503,5.9689503,6.9330006
1679997304656,1177293011022089,4.66305,5.94105,6.8760004
1679997304658,1177293013524243,4.6420503,5.9089503,6.9210005
1679997304661,1177293016026319,4.59105,6.0100503,6.9600005
1679997304663,1177293018528473,4.6579504,5.9670005,6.9949503
1679997304667,1177293021030324,4.6540504,5.92395,6.9880505
1679997304668,1177293023532248,4.58895,5.8609505,7.0069504
1679997304672,1177293026034324,4.6870503,5.907,7.0750504
1679997304674,1177293028536478,4.656,5.9740505,6.9480004
1679997304676,1177293031038401,4.6660504,5.8380003,7.0309505
1679997304678,1177293033540502,4.6800003,5.8950005,7.0750504
1679997304682,1177293036042656,4.67805,5.919,6.91905
1679997304684,1177293038544502,4.70205,5.9290504,6.9360003
1679997304686,1177293041046425,4.623,5.8879504,6.9330006
1679997304688,1177293043548584,4.60305,6.0340505,6.9210005
1679997304691,1177293046050738,4.7299504,5.83995,6.9600005
1679997304693,1177293048552584,4.6270504,5.9500504,6.9910502
1679997304696,1177293051054661,4.63905,5.9020505,7.08195
1679997304698,1177293053556815,4.57905,5.8999505,6.9859505
1679997304700,1177293056058738,4.5,5.8570504,6.9810004
1679997304703,1177293058560584,4.644,5.8879504,6.9949503
1679997304707,1177293061062969,4.644,5.91405,6.91905
1679997304710,1177293063564901,4.5940504,5.87295,7.02405
1679997304712,1177293066066978,4.5820503,5.8279505,6.9930005
1679997304715,1177293068568824,4.57695,5.98605,7.0000505
1679997304717,1177293071070978,4.5529504,5.91195,7.04295
1679997304719,1177293073572901,4.572,5.95695,6.9619503
1679997304720,1177293076074728,4.656,5.9599504,7.03905
1679997304723,1177293078577113,4.5270004,5.9670005,6.9739504
1679997304726,1177293081079036,4.6990504,5.8969502,6.9880505
1679997304728,1177293083581113,4.524,5.92605,6.93795
1679997304731,1177293086082959,4.61805,5.931,6.873
1679997304733,1177293088585094,4.67805,5.907,7.0750504
1679997304735,1177293091087017,4.6579504,5.9290504,7.0069504
1679997304738,1177293093589094,4.66305,5.9599504,6.8689504
1679997304740,1177293096091248,4.70205,5.91195,7.0189505
1679997304743,1177293098593180,4.7299504,5.91195,6.94005
1679997304748,1177293101095026,4.6270504,5.8330503,7.0189505
1679997304749,1177293103597180,4.704,5.8710003,6.945
1679997304751,1177293106099344,4.7260504,5.814,6.9949503
1679997304753,1177293108601421,4.761,5.8330503,6.9880505
1679997304756,1177293111103267,4.7299504,5.8110003,7.0000505
1679997304758,1177293113605421,4.7400002,5.8450503,7.0939503
1679997304760,1177293116107344,4.7640004,5.7010503,7.0000505
1679997304763,1177293118609214,4.76595,5.7510004,7.00995
1679997304766,1177293121111368,4.8450003,5.74905,7.00995
1679997304768,1177293123613522,4.6990504,5.67495,7.0750504
1679997304770,1177293126115598,4.75005,5.7130504,7.08405
1679997304773,1177293128617532,4.6800003,5.6530504,6.9480004
1679997304776,1177293131119609,4.7299504,5.67,7.11495
1679997304778,1177293133621532,4.71105,5.6460004,7.0480504
1679997304780,1177293136123609,4.6729503,5.68695,6.9979506
1679997304784,1177293138625762,4.66095,5.6530504,7.0960503
1679997304787,1177293141127685,4.66305,5.7730503,7.1629505
1679997304789,1177293143629762,4.635,5.7300005,7.0219502
1679997304791,1177293146131685,4.69005,5.68905,7.0189505
1679997304794,1177293148633762,4.66995,5.6650505,6.94005
1679997304796,1177293151135699,4.6969504,5.78205,7.089
1679997304799,1177293153637776,4.66095,5.74905,7.0309505
1679997304800,1177293156139930,4.6990504,5.6719503,7.0960503
1679997304803,1177293158641853,4.66095,5.67495,7.05495
1679997304805,1177293161143964,4.6320004,5.742,7.0630503
1679997304807,1177293163645887,4.656,5.6959505,7.0939503
1679997304810,1177293166147964,4.6800003,5.6650505,7.01205
1679997304813,1177293168649887,4.7059503,5.7060003,7.0870504
1679997304815,1177293171152041,4.7140503,5.79195,7.0270505
1679997304817,1177293173654132,4.7179503,5.8060503,7.0720506
1679997304821,1177293176156055,4.7449503,5.82105,7.1080503
1679997304825,1177293178658132,4.63005,5.7250504,7.08195
1679997304828,1177293181160045,4.73505,5.8380003,6.9949503
1679997304830,1177293183662122,4.7299504,5.7900004,7.0960503
1679997304832,1177293186164045,4.7400002,5.7900004,7.01205
1679997304834,1177293188666199,4.8289504,5.8110003,7.0579505
1679997304840,1177293191168276,4.75005,5.814,7.0750504
1679997304840,1177293193670209,4.8499503,5.7900004,7.18695
1679997304840,1177293196172286,4.7899504,5.77005,7.0530005
1679997304843,1177293198674209,4.7970004,5.88105,7.1580005
1679997304846,1177293201176286,4.82595,5.75895,7.11
1679997304848,1177293203678209,4.8499503,5.7730503,7.0750504
1679997304850,1177293206180358,4.82595,5.8230004,7.18695
1679997304853,1177293208682435,4.7710505,5.8039503,7.00995
1679997304855,1177293211184358,4.821,5.8570504,7.0650005
1679997304859,1177293213686411,4.8169503,5.907,7.0939503
1679997304861,1177293216188334,4.7710505,5.8950005,7.0650005
1679997304863,1177293218690411,4.80495,5.7660003,7.149
1679997304866,1177293221192565,4.78305,5.75895,7.1629505
1679997304868,1177293223694719,4.80495,5.80905,7.1059504
1679997304870,1177293226196555,4.72305,5.77995,7.0189505
1679997304873,1177293228698478,4.7470503,5.82105,7.209
1679997304876,1177293231200632,4.70895,5.78205,6.984
1679997304878,1177293233702478,4.72305,5.85405,6.90705
1679997304881,1177293236204555,4.80495,5.8609505,7.05495
1679997304883,1177293238706709,4.7899504,5.8690505,6.94995
1679997304887,1177293241208863,4.71105,5.7559505,7.00995
1679997304889,1177293243710709,4.7569504,5.802,7.00995
1679997304890,1177293246212632,4.64895,5.7390003,7.0530005
1679997304893,1177293248714777,4.7299504,5.8450503,6.9859505
1679997304897,1177293251216854,4.63695,5.80905,7.0270505
1679997304900,1177293253718700,4.5700502,5.79405,7.0270505
1679997304901,1177293256220926,4.6129503,5.67705,6.9600005
1679997304903,1177293258723002,4.5100503,5.73705,6.9280505
1679997304907,1177293261224926,4.57695,5.6719503,6.8490005
1679997304908,1177293263727002,4.5529504,5.65605,6.984
1679997304910,1177293266228926,4.57695,5.68695,6.8160005
1679997304913,1177293268730967,4.5409503,5.67495,7.0290003
1679997304916,1177293271233121,4.5220504,5.6389503,6.8040004
1679997304918,1177293273735044,4.5220504,5.58795,6.8040004
1679997304921,1177293276237121,4.59105,5.6599503,6.8160005
1679997304923,1177293278739039,4.4880004,5.67,6.7780504
1679997304926,1177293281241116,4.6470003,5.6580005,6.7939506
1679997304928,1177293283743039,4.584,5.6200504,6.84
1679997304931,1177293286245116,4.6150503,5.73705,6.77295
1679997304935,1177293288747035,4.56495,5.66295,6.83505
1679997304937,1177293291249189,4.5750003,5.7180004,6.7540503
1679997304939,1177293293751035,4.6800003,5.7319503,6.7510505
1679997304941,1177293296253112,4.623,5.77995,6.7990503
1679997304943,1177293298755343,4.63905,5.7010503,6.9210005
1679997304947,1177293301257174,4.64895,5.74905,6.7819505
1679997304948,1177293303759251,4.656,5.8350005,6.8640003
1679997304951,1177293306261405,4.6870503,5.787,6.8370004
1679997304953,1177293308763328,4.6849504,5.787,6.8280005
1679997304956,1177293311265174,4.6729503,5.7300005,6.8830504
1679997304958,1177293313767275,4.7179503,5.74695,6.93795
1679997304960,1177293316269506,4.68195,5.73495,7.0030503
1679997304963,1177293318771583,4.7520003,5.775,6.9259505
1679997304966,1177293321273429,4.56705,5.7730503,6.9259505
1679997304968,1177293323775588,4.6129503,5.74695,7.017
1679997304972,1177293326277511,4.69005,5.7060003,6.95205
1679997304975,1177293328779588,4.656,5.715,6.8230505
1679997304977,1177293331281511,4.69395,5.73705,6.95205
1679997304979,1177293333783650,4.7640004,5.79405,6.8640003
1679997304982,1177293336285727,4.6920004,5.727,6.9040504
1679997304983,1177293338787650,4.74195,5.77995,7.0000505
1679997304987,1177293341289727,4.76595,5.76105,6.8830504
1679997304988,1177293343791650,4.7520003,5.8230004,6.9949503
1679997304991,1177293346293732,4.7470503,5.8039503,6.9280505
1679997304993,1177293348795655,4.75395,5.76105,6.9979506
1679997304996,1177293351297809,4.7850003,5.7780004,6.9160504
1679997304998,1177293353799886,4.668,5.7300005,6.9600005
1679997305001,1177293356301814,4.70205,5.7060003,6.9619503
1679997305004,1177293358803891,4.66305,5.7850504,6.9210005
1679997305006,1177293361305814,4.704,5.742,6.9570003
1679997305010,1177293363807891,4.7449503,5.7730503,6.95205
1679997305011,1177293366310031,4.7970004,5.814,6.95205
1679997305013,1177293368811954,4.809,5.76105,6.90705
1679997305016,1177293371314031,4.7779503,5.66295,6.9040504
1679997305018,1177293373815954,4.7590504,5.7229505,6.86595
1679997305021,1177293376318031,4.7520003,5.6839504,6.9670506
1679997305023,1177293378819954,4.79295,5.67,6.8419504
1679997305027,1177293381322108,4.72095,5.60505,7.0189505
1679997305029,1177293383824184,4.75395,5.7300005,6.97905
1679997305031,1177293386326108,4.79505,5.58795,6.9910502
1679997305033,1177293388828185,4.788,5.74905,6.9090004
1679997305036,1177293391330117,4.7470503,5.60505,6.9760504
1679997305038,1177293393832194,4.7179503,5.68905,6.9139504
1679997305041,1177293396334117,4.8,5.6410503,6.94005
1679997305043,1177293398836270,4.7899504,5.61705,6.97905
1679997305047,1177293401338352,4.86705,5.703,6.9
1679997305049,1177293403840275,4.788,5.6340003,6.9760504
1679997305051,1177293406342352,4.76595,5.5260005,6.8970003
1679997305053,1177293408844275,4.69395,5.55,6.945
1679997305056,1177293411346357,4.73505,5.5669503,6.9640503
1679997305058,1177293413848511,4.84095,5.6719503,6.9600005
1679997305061,1177293416350434,4.7779503,5.6650505,7.00995
1679997305063,1177293418852511,4.70895,5.5909505,7.0189505
1679997305067,1177293421354448,4.7590504,5.7010503,7.017
1679997305069,1177293423856525,4.7689505,5.71995,7.05495
1679997305071,1177293426358448,4.7640004,5.7130504,6.9259505
1679997305073,1177293428860525,4.833,5.63595,6.9330006
1679997305076,1177293431362694,4.821,5.6509504,7.1250005
1679997305078,1177293433864848,4.7730002,5.682,6.9910502
1679997305081,1177293436366694,4.69005,5.6599503,7.0270505
1679997305085,1177293438868612,4.8190503,5.7130504,7.089
1679997305087,1177293441370689,4.848,5.703,6.95205
1679997305089,1177293443872843,4.7970004,5.63205,7.0530005
1679997305091,1177293446374689,4.8240004,5.703,6.972
1679997305093,1177293448876920,4.8450003,5.64795,6.8950505
1679997305096,1177293451378968,4.78305,5.7229505,7.01205
1679997305098,1177293453880814,4.71105,5.68695,7.0360503
1679997305101,1177293456382737,4.776,5.6940002,6.9949503
1679997305103,1177293458884891,4.7689505,5.66295,6.9930005
1679997305107,1177293461386973,4.761,5.6719503,6.8539505
1679997305108,1177293463888896,4.809,5.78205,6.9480004
1679997305111,1177293466390973,4.78095,5.727,7.00995
1679997305113,1177293468892896,4.7260504,5.6599503,6.9550505
1679997305116,1177293471394973,4.78095,5.74905,6.8419504
1679997305118,1177293473896905,4.80495,5.7390003,6.9019504
1679997305122,1177293476399290,4.71105,5.7660003,6.9810004
1679997305125,1177293478901136,4.81395,5.74695,7.0630503
1679997305127,1177293481403059,4.809,5.7900004,6.9690003
1679997305129,1177293483905117,4.7059503,5.85405,6.9859505
1679997305131,1177293486407271,4.7400002,5.79195,7.05495
1679997305133,1177293488909117,4.75395,5.8710003,7.0360503
1679997305136,1177293491411271,4.7569504,5.7660003,6.984
1679997305138,1177293493913425,4.7470503,5.87295,7.0030503
1679997305141,1177293496415338,4.668,5.85195,7.0219502
1679997305143,1177293498917184,4.7970004,5.79195,6.8830504
1679997305147,1177293501419338,4.69395,5.8690505,6.885
1679997305148,1177293503921415,4.7260504,5.80905,6.9910502
1679997305150,1177293506423281,4.788,5.79195,7.017
1679997305153,1177293508925435,4.7640004,5.8230004,7.0789504
1679997305156,1177293511427588,4.7970004,5.787,7.0579505
1679997305159,1177293513929511,4.7059503,5.7630005,7.0650005
1679997305161,1177293516431348,4.65105,5.7780004,6.9619503
1679997305164,1177293518933502,4.72305,5.703,6.94005
1679997305167,1177293521435578,4.7590504,5.68695,6.9330006
1679997305168,1177293523937732,4.7689505,5.7300005,7.0789504
1679997305171,1177293526439578,4.82595,5.8180504,7.005
1679997305173,1177293528941742,4.7470503,5.7180004,7.0459504
1679997305176,1177293531443665,4.71105,5.7109504,6.9259505
1679997305178,1177293533945742,4.6660504,5.7250504,6.94005
1679997305180,1177293536447665,4.809,5.727,6.8929505
1679997305183,1177293538949742,4.6470003,5.7559505,7.0339503
1679997305187,1177293541451920,4.70205,5.7730503,7.01205
1679997305189,1177293543953843,4.761,5.70795,6.9550505
1679997305191,1177293546455920,4.6849504,5.7229505,6.9930005
1679997305193,1177293548957842,4.761,5.74695,6.9360003
1679997305198,1177293551459919,4.8240004,5.775,6.9550505
1679997305199,1177293553961842,4.7520003,5.802,6.8490005
1679997305201,1177293556463919,4.7449503,5.754,6.972
1679997305203,1177293558966073,4.761,5.7010503,6.9739504
1679997305206,1177293561468001,4.716,5.75895,6.94995
1679997305208,1177293563970078,4.6990504,5.68905,7.0309505
1679997305210,1177293566472001,4.6800003,5.7109504,6.80595
1679997305215,1177293568974078,4.6660504,5.7660003,6.7560005
1679997305216,1177293571476001,4.623,5.6650505,6.873
1679997305218,1177293573978155,4.704,5.7660003,6.9240003
1679997305220,1177293576480232,4.5700502,5.6940002,6.8230505
1679997305224,1177293578982150,4.75395,5.79405,6.8419504
1679997305227,1177293581484227,4.66995,5.79405,7.05495
1679997305229,1177293583986150,4.65105,5.826,6.9330006
1679997305232,1177293586488227,4.644,5.787,6.9240003
1679997305236,1177293588990136,4.6200004,5.859,6.97905
1679997305237,1177293591492290,4.644,5.83995,6.8970003
1679997305241,1177293593994367,4.63695,5.8380003,7.0189505
1679997305242,1177293596496290,4.551,5.8609505,6.9330006
1679997305244,1177293598998367,4.64895,5.85195,7.0669503
1679997305246,1177293601500266,4.6849504,5.8350005,6.8929505
1679997305248,1177293604002343,4.65105,5.8230004,6.9430504
1679997305251,1177293606504266,4.66095,5.80905,7.0069504
1679997305254,1177293609006420,4.6870503,5.775,6.94005
1679997305256,1177293611508574,4.7899504,5.8570504,7.00995
1679997305258,1177293614010445,4.67805,5.8279505,6.9760504
1679997305261,1177293616512522,4.74195,5.85195,6.945
1679997305265,1177293619014445,4.6920004,5.7660003,6.9160504
1679997305267,1177293621516536,4.7260504,5.8039503,6.912
1679997305269,1177293624018690,4.73505,5.7660003,6.9240003
1679997305272,1177293626520613,4.72305,5.8380003,6.912
1679997305275,1177293629022767,4.7569504,5.859,6.972
1679997305277,1177293631524613,4.788,5.826,6.9949503
1679997305279,1177293634026685,4.72095,5.742,6.972
1679997305281,1177293636528838,4.728,5.77995,7.05495
1679997305285,1177293639030762,4.7449503,5.76795,6.9859505
1679997305287,1177293641532838,4.761,5.754,6.8950505
1679997305289,1177293644034762,4.7400002,5.703,6.8160005
1679997305291,1177293646536915,4.776,5.7780004,6.9019504
1679997305294,1177293649038992,4.73295,5.847,6.9430504
1679997305296,1177293651540915,4.6800003,5.7780004,6.9619503
1679997305299,1177293654042997,4.72095,5.754,6.9360003
1679997305301,1177293656544920,4.73295,5.814,6.9360003
1679997305305,1177293659046997,4.788,5.8300505,6.94005
1679997305308,1177293661548920,4.6920004,5.727,6.8689504
1679997305311,1177293664050982,4.7449503,5.7660003,7.0000505
1679997305313,1177293666552905,4.7400002,5.6940002,6.93795
1679997305315,1177293669055290,4.69005,5.787,6.9810004
1679997305317,1177293671557136,4.8240004,5.775,6.95205
1679997305319,1177293674059059,4.68195,5.77005,6.9259505
1679997305321,1177293676561127,4.7569504,5.80905,6.8950505
1679997305324,1177293679063050,4.65105,5.8279505,6.8590503
1679997305327,1177293681565127,4.7520003,5.859,6.9430504
1679997305329,1177293684067281,4.656,5.82105,6.7990503
1679997305332,1177293686569204,4.72305,5.775,6.8830504
1679997305334,1177293689071262,4.7400002,5.85195,6.9480004
1679997305336,1177293691573185,4.7400002,5.74905,6.9640503
1679997305339,1177293694075339,4.728,5.727,6.9760504
1679997305341,1177293696577416,4.76595,5.8609505,6.9570003
1679997305345,1177293699079271,4.7899504,5.7250504,6.9019504
1679997305349,1177293701581425,4.716,5.8279505,6.9040504
1679997305350,1177293704083579,4.7520003,5.8230004,7.00995
1679997305352,1177293706585502,4.76595,5.78205,6.8929505
1679997305355,1177293709087348,4.76595,5.742,6.9040504
1679997305356,1177293711589420,4.80705,5.8380003,6.8899503
1679997305358,1177293714091574,4.788,5.80905,6.91905
1679997305361,1177293716593497,4.8169503,5.7850504,6.885
1679997305365,1177293719095574,4.76595,5.7229505,6.9640503
1679997305367,1177293721597733,4.78305,5.742,6.9690003
1679997305368,1177293724099656,4.776,5.8380003,6.8230505
1679997305371,1177293726601502,4.716,5.8350005,7.0339503
1679997305374,1177293729103656,4.78095,5.8660502,6.9259505
1679997305376,1177293731605748,4.75005,5.6790004,6.9600005
1679997305378,1177293734107902,4.704,5.8060503,6.9880505
1679997305381,1177293736609748,4.7140503,5.79195,7.0150504
1679997305387,1177293739111892,4.635,5.754,6.9550505
1679997305389,1177293741612852,4.66995,5.8060503,6.9810004
1679997305389,1177293744113815,4.644,5.8380003,6.9910502
1679997305391,1177293746617815,4.60605,5.8110003,6.9
1679997305395,1177293749119892,4.65105,5.8500004,6.9949503
1679997305397,1177293751622046,4.6200004,5.8690505,6.8610005
1679997305399,1177293754123969,4.563,5.91195,7.0669503
1679997305401,1177293756626046,4.5750003,5.7970505,6.9979506
1679997305404,1177293759127969,4.656,5.80905,7.005
1679997305408,1177293761630041,4.67805,5.847,6.93795
1679997305409,1177293764131964,4.6729503,5.8609505,6.9690003
1679997305411,1177293766634117,4.5700502,5.83995,7.0339503
1679997305415,1177293769136194,4.563,5.9809504,6.97905
1679997305417,1177293771638117,4.60605,5.8159504,6.8640003
1679997305419,1177293774140213,4.63905,5.8180504,6.8950505
1679997305423,1177293776642137,4.6729503,5.8570504,6.9019504
1679997305428,1177293779144213,4.584,5.85195,6.97905
1679997305432,1177293781645154,4.6540504,5.88495,6.77505
1679997305432,1177293784146117,4.6870503,5.8639503,6.885
1679997305432,1177293786650347,4.704,5.8950005,6.90705
1679997305435,1177293789152270,4.6729503,5.76795,6.84705
1679997305437,1177293791654347,4.68195,5.7900004,6.74205
1679997305439,1177293794156270,4.80495,5.82105,6.9210005
1679997305441,1177293796658352,4.7400002,5.9170504,6.885
1679997305445,1177293799160275,4.7260504,5.8330503,6.8230505
1679997305447,1177293801662429,4.7850003,5.8450503,6.7630506
1679997305449,1177293804164506,4.7590504,5.787,6.912
1679997305451,1177293806666429,4.761,5.8639503,6.8569503
1679997305454,1177293809168506,4.7779503,5.8879504,6.7920003
1679997305457,1177293811670429,4.7059503,5.7970505,6.80595
1679997305460,1177293814172506,4.6920004,5.8450503,6.912
1679997305464,1177293816674679,4.761,5.8279505,6.8230505
1679997305465,1177293819176602,4.69395,5.8380003,6.80205
1679997305467,1177293821678756,4.7380505,5.6959505,6.84495
1679997305469,1177293824180602,4.6660504,5.76795,6.8209505
1679997305471,1177293826682679,4.6660504,5.73495,6.8899503
1679997305474,1177293829184838,4.623,5.77005,6.78
1679997305477,1177293831686761,4.64895,5.7439504,6.7579503
1679997305478,1177293834188838,4.728,5.73705,6.77505
1679997305481,1177293836690761,4.6080003,5.77995,6.8610005
1679997305485,1177293839192857,4.65105,5.77995,6.8179502
1679997305487,1177293841694780,4.704,5.76795,6.74595
1679997305488,1177293844196934,4.596,5.754,6.73005
1679997305491,1177293846699011,4.656,5.6599503,6.8179502
1679997305495,1177293849200934,4.63905,5.7510004,6.7990503
1679997305498,1177293851703016,4.6009502,5.8710003,6.6990004
1679997305500,1177293854204939,4.6009502,5.847,6.8160005
1679997305501,1177293856707016,4.6249504,5.83995,6.6510005
1679997305506,1177293859208958,4.6150503,5.8609505,6.675
1679997305507,1177293861711112,4.5750003,5.8330503,6.68205
1679997305509,1177293864213266,4.6129503,5.8180504,6.8250003
1679997305511,1177293866715112,4.56705,5.7300005,6.8539505
1679997305514,1177293869217189,4.5700502,5.7730503,6.7939506
1679997305517,1177293871719334,4.5700502,5.7559505,6.8590503
1679997305518,1177293874221257,4.563,5.76795,6.8710504
1679997305521,1177293876723334,4.5700502,5.7390003,6.912
1679997305524,1177293879225487,4.59105,5.7660003,6.912
1679997305526,1177293881727396,4.6249504,5.8159504,6.84495
1679997305528,1177293884229242,4.64895,5.754,6.873
1679997305532,1177293886731319,4.6579504,5.80905,6.7579503
1679997305536,1177293889233472,4.7970004,5.80905,6.912
1679997305538,1177293891735406,4.72305,5.8570504,6.8569503
1679997305540,1177293894237482,4.80495,5.8300505,6.873
1679997305541,1177293896739636,4.8190503,5.715,6.8179502
1679997305548,1177293899241559,4.9030504,5.7300005,6.768
1679997305550,1177293901743631,4.8310504,5.8279505,6.8610005
1679997305550,1177293904245554,4.8240004,5.802,6.7579503
1679997305551,1177293906747631,4.80705,5.80905,6.9160504
1679997305554,1177293909249554,4.9170003,5.7900004,6.9
1679997305556,1177293911751708,4.85505,5.826,6.9139504
1679997305559,1177293914253766,4.7970004,5.7229505,7.0030503
1679997305561,1177293916755689,4.833,5.8710003,7.0030503
1679997305567,1177293919257766,4.8640504,5.7660003,6.8689504
1679997305567,1177293921759689,4.7970004,5.77005,7.0669503
1679997305569,1177293924261766,4.81395,5.77005,6.8760004
1679997305573,1177293926763919,4.82595,5.754,6.9160504
1679997305576,1177293929265842,4.7899504,5.754,6.9859505
1679997305577,1177293931767919,4.881,5.7730503,6.8539505
1679997305580,1177293934269876,4.8619504,5.7229505,6.91905
1679997305582,1177293936771953,4.8190503,5.73705,6.9910502
1679997305585,1177293939273876,4.7520003,5.7850504,7.0360503
1679997305588,1177293941775953,4.8910503,5.80905,6.912
1679997305589,1177293944278107,4.7380505,5.7900004,7.0410004
1679997305591,1177293946780030,4.8,5.87295,7.0459504
1679997305595,1177293949282107,4.85505,5.8159504,6.86595
1679997305597,1177293951784030,4.7449503,5.77995,6.80595
1679997305599,1177293954286107,4.60605,5.802,6.8830504
1679997305601,1177293956788044,4.6990504,5.7300005,6.8160005
1679997305607,1177293959290121,4.761,5.80905,6.7990503
1679997305607,1177293961792275,4.7470503,5.9170504,7.077
1679997305610,1177293964294198,4.8120003,5.9089503,6.9550505
1679997305612,1177293966796271,4.82595,5.8500004,6.93795
1679997305615,1177293969298194,4.72305,5.8999505,6.852
1679997305616,1177293971800271,4.7640004,5.9620504,6.87795
1679997305618,1177293974302194,4.6660504,5.95695,6.8830504
1679997305621,1177293976804348,4.704,5.92395,7.05495
1679997305625,1177293979306506,4.7590504,5.88495,7.0789504
1679997305627,1177293981808352,4.635,5.9380503,6.8880005
1679997305629,1177293984310429,4.72095,5.9209504,6.912
1679997305632,1177293986812583,4.6920004,5.9329505,6.8830504
1679997305635,1177293989314506,4.69005,5.95305,6.90705
1679997305636,1177293991816343,4.69395,5.9880004,6.9600005
1679997305638,1177293994318497,4.73505,5.9689503,6.8370004
1679997305641,1177293996820651,4.75005,5.91405,6.8929505
1679997305645,1177293999322497,4.7179503,6.0150003,6.8640003
1679997305648,1177294001824564,4.74195,5.95305,6.8419504
1679997305650,1177294004326718,4.66095,5.9020505,6.80595
1679997305652,1177294006828641,4.79505,5.87295,6.8929505
1679997305655,1177294009330718,4.7590504,5.9329505,6.8950505
1679997305657,1177294011832641,4.7260504,5.9020505,6.873
1679997305658,1177294014334794,4.8190503,5.92395,6.8110504
1679997305661,1177294016836866,4.6870503,5.8830004,6.8970003
1679997305665,1177294019338713,4.716,5.9209504,6.885
1679997305667,1177294021840866,4.69395,5.9880004,6.73005
1679997305669,1177294024342780,4.788,6.0199504,6.8040004
1679997305671,1177294026844857,4.761,5.8759503,6.9330006
1679997305675,1177294029346780,4.7569504,5.826,6.8490005
1679997305676,1177294031848857,4.7779503,5.98395,6.9760504
1679997305679,1177294034350781,4.6729503,5.8639503,6.8899503
1679997305681,1177294036853160,4.6800003,5.9599504,7.0669503
1679997305687,1177294039355006,4.6540504,5.9089503,6.945
1679997305688,1177294041856929,4.66995,5.9170504,6.8950505
1679997305690,1177294044423391,4.6969504,5.85195,6.945
1679997305692,1177294046861160,4.59105,5.9430003,6.8179502
1679997305695,1177294049363006,4.6800003,5.99595,6.885
1679997305697,1177294051864929,4.6920004,5.9880004,6.9949503
1679997305699,1177294054367314,4.704,5.931,6.9619503
1679997305701,1177294056869237,4.7710505,5.88495,6.9600005
1679997305705,1177294059371102,4.69395,5.8879504,6.9810004
1679997305708,1177294061873256,4.70895,5.9620504,6.873
1679997305709,1177294064375333,4.7380505,5.95695,6.9880505
1679997305712,1177294066877179,4.75395,5.9479504,6.9019504
1679997305715,1177294069379073,4.70205,6.0199504,6.91905
1679997305716,1177294071881458,4.8169503,5.9050503,6.8880005
1679997305719,1177294074383381,4.80495,5.9740505,6.8809505
1679997305723,1177294076885227,4.776,5.979,6.87795
1679997305726,1177294079387376,4.8520503,5.91405,6.9310503
1679997305728,1177294082051068,4.8019505,5.9740505,7.0270505
1679997305730,1177294084391376,4.80495,5.9620504,6.91905
1679997305732,1177294086893453,4.8190503,5.9380503,6.8590503
1679997305735,1177294089395607,4.7779503,5.8710003,6.94995
1679997305737,1177294091897564,4.78305,5.91405,6.9330006
1679997305739,1177294094399641,4.7850003,5.85405,6.86595
1679997305741,1177294096901564,4.78095,5.7390003,6.9210005
1679997305745,1177294099403607,4.75005,5.94495,6.90705
1679997305747,1177294101905530,4.7970004,5.95305,6.94995
1679997305749,1177294104407684,4.7590504,5.87295,6.912
1679997305751,1177294106909761,4.72305,5.89305,6.9040504
1679997305755,1177294109411684,4.833,5.9479504,6.9139504
1679997305757,1177294111913742,4.73505,5.859,6.9330006
1679997305760,1177294114415665,4.75005,5.99805,6.78
1679997305762,1177294116917742,4.70895,5.88105,6.84
1679997305765,1177294119419896,4.73505,5.9329505,6.9330006
1679997305766,1177294121921828,4.6579504,5.907,6.8280005
1679997305769,1177294124423905,4.809,5.9089503,6.873
1679997305771,1177294126925828,4.7260504,5.8380003,6.7699504
1679997305775,1177294129427905,4.6750503,5.92605,6.8950505
1679997305776,1177294131929828,4.584,5.8159504,6.7900505
1679997305779,1177294134431901,4.5940504,5.84205,6.7819505
1679997305781,1177294136934054,4.66095,5.847,6.8299503
1679997305785,1177294139435978,4.6270504,5.9760003,6.77505
1679997305787,1177294141938054,4.6009502,5.88495,6.7900505
1679997305790,1177294144439978,4.5990005,5.8780503,6.7900505
1679997305792,1177294146942054,4.55595,5.931,6.8539505
1679997305794,1177294149443978,4.539,5.92605,6.7440004
1679997305798,1177294151946034,4.623,5.9170504,6.6720004
1679997305800,1177294154448188,4.512,5.9329505,6.8689504
1679997305801,1177294156950111,4.64895,5.89305,6.8590503
1679997305805,1177294159452188,4.572,5.9599504,6.7990503
1679997305806,1177294161954342,4.5100503,5.907,6.8250003
1679997305809,1177294164456179,4.5030003,6.0199504,6.7560005
1679997305811,1177294166958102,4.66995,6.0220504,6.8250003
1679997305815,1177294169460487,4.6800003,5.9689503,6.8370004
1679997305816,1177294171962333,4.63695,5.964,6.813
1679997305819,1177294174464256,4.5940504,5.991,6.7990503
1679997305821,1177294176966347,4.65105,6.0550504,6.8280005
1679997305826,1177294179468501,4.656,5.9689503,6.7870502
1679997305828,1177294181970347,4.6729503,5.9089503,6.7369504
1679997305829,1177294184472275,4.5820503,6.0150003,6.8419504
1679997305832,1177294186974660,4.65105,5.92395,6.8419504
1679997305836,1177294189476583,4.6990504,5.94495,6.9690003
1679997305838,1177294191978429,4.60305,5.9209504,6.8610005
1679997305840,1177294194480501,4.76595,5.991,6.83295
1679997305842,1177294196982655,4.6729503,6.0700502,6.78
1679997305845,1177294199484578,4.68195,6.024,6.8950505
1679997305847,1177294201986732,4.6729503,6.01695,6.8809505
1679997305849,1177294204488809,4.67805,6.0750003,6.8370004
1679997305851,1177294206990655,4.7590504,6.0150003,6.84495
1679997305855,1177294209492578,4.704,5.99805,6.84
1679997305857,1177294211994732,4.69395,5.964,6.9019504
1679997305859,1177294214496886,4.6969504,6.0049505,6.9090004
1679997305862,1177294216998747,4.7569504,5.98395,6.8640003
1679997305865,1177294219500901,4.8289504,5.964,6.7900505
1679997305867,1177294222002978,4.75395,5.92605,6.9600005
1679997305869,1177294224504824,4.788,5.85405,6.83295
1679997305873,1177294227006742,4.73505,5.8710003,6.8760004
1679997305878,1177294229509127,4.81395,5.9170504,6.9259505
1679997305878,1177294232011050,4.72305,5.8710003,6.9019504
1679997305880,1177294234513127,4.7140503,5.8279505,6.8610005
1679997305882,1177294237015050,4.7730002,5.9170504,6.83295
1679997305885,1177294239517127,4.7779503,5.8690505,6.7870502
1679997305887,1177294242019050,4.8640504,5.91405,6.84705
1679997305889,1177294244521127,4.79505,5.919,6.83505
1679997305891,1177294247023280,4.81395,5.89305,6.7579503
1679997305895,1177294249525213,4.8360004,6.0150003,6.80595
1679997305896,1177294252027289,4.9080005,5.92605,6.8209505
1679997305899,1177294254529213,4.8019505,5.8660502,6.7969503
1679997305901,1177294257031290,4.89795,5.8950005,6.7849503
1679997305905,1177294259533199,4.8450003,5.8180504,6.8590503
1679997305908,1177294262035276,4.8570004,5.82105,6.7660503
1679997305912,1177294264537429,4.821,5.847,6.70095
1679997305913,1177294267039352,4.7640004,5.8300505,6.7900505
1679997305916,1177294269541453,4.85505,5.8780503,6.7180505
1679997305918,1177294272043376,4.7730002,5.8060503,6.73005
1679997305922,1177294274545453,4.8019505,5.85195,6.74205
1679997305923,1177294277047376,4.79505,5.91195,6.603
1679997305925,1177294279549544,4.788,5.85405,6.7320004
1679997305927,1177294282051621,4.8019505,5.89305,6.7099504
1679997305929,1177294284553544,4.73505,5.826,6.6910505
1679997305932,1177294287055621,4.7380505,5.80905,6.7900505
1679997305934,1177294289557544,4.7730002,5.78205,6.7990503
1679997305936,1177294292059621,4.8169503,5.85195,6.74205
1679997305939,1177294294561544,4.7850003,5.8900504,6.7900505
1679997305941,1177294297063698,4.72305,5.8690505,6.708
1679997305945,1177294299565775,4.75005,5.9170504,6.7510505
1679997305949,1177294302067689,4.776,5.80905,6.83505
1679997305951,1177294304569766,4.6969504,5.8450503,6.873
1679997305953,1177294307071689,4.6729503,5.79195,6.80205
1679997305955,1177294309573766,4.6870503,5.787,6.984
1679997305957,1177294312075689,4.6849504,5.907,6.84495
1679997305959,1177294314577833,4.6849504,5.8950005,6.8590503
1679997305961,1177294317079910,4.656,5.9479504,6.8280005
1679997305965,1177294319582064,4.63695,5.92395,6.86595
1679997305967,1177294322083910,4.5870004,5.8570504,6.873
1679997305969,1177294324585833,4.6080003,6.0150003,6.78
1679997305972,1177294327087982,4.60605,5.9689503,6.77505
1679997305974,1177294329590059,4.66305,5.99595,6.87795
1679997305976,1177294332091982,4.72095,5.907,6.9310503
1679997305979,1177294334594136,4.656,6.02895,6.873
1679997305982,1177294337096218,4.66305,5.9689503,6.8899503
1679997305988,1177294339598064,4.6420503,5.9479504,6.9600005
1679997305989,1177294342099131,4.7299504,5.94495,6.9259505
1679997305989,1177294344600208,4.7970004,5.8759503,6.885
1679997305991,1177294347104285,4.7299504,5.9050503,6.9040504
1679997305995,1177294349606131,4.7449503,5.99595,7.1130004
1679997305997,1177294352108285,4.66305,5.88105,6.9480004
1679997305999,1177294354610362,4.7380505,5.979,6.8899503
1679997306002,1177294357112271,4.70895,5.91405,6.9330006
1679997306005,1177294359614348,4.69005,5.8710003,6.8950505
1679997306007,1177294362116502,4.7590504,5.92605,6.9430504
1679997306009,1177294364618425,4.7470503,5.8999505,6.8160005
1679997306011,1177294367120502,4.79295,5.8950005,6.7969503
1679997306015,1177294369622425,4.7590504,5.97195,6.945
1679997306016,1177294372124502,4.7140503,5.9430003,6.8760004
1679997306019,1177294374626425,4.69395,5.9500504,6.93795
1679997306023,1177294377128497,4.7059503,5.9620504,6.8760004
1679997306027,1177294379630650,4.76595,5.964,6.86595
1679997306029,1177294384632573,4.728,5.8710003,6.70305
1679997306031,1177294384737189,4.6729503,5.8180504,6.80595
1679997306033,1177294387136574,4.7470503,5.91405,6.73005
1679997306035,1177294389638616,4.6729503,5.9689503,6.8929505
1679997306037,1177294392140770,4.7299504,5.9170504,6.7819505
1679997306039,1177294394642693,4.72095,5.8710003,6.7560005
1679997306041,1177294397144540,4.7470503,5.9209504,6.7990503
1679997306045,1177294399646708,4.716,5.931,6.7780504
1679997306047,1177294402148785,4.60605,5.89305,6.8370004
1679997306049,1177294404650708,4.69395,5.8690505,6.7219505
1679997306051,1177294407152785,4.6420503,5.8900504,6.7270503
1679997306055,1177294409654939,4.6270504,5.8969502,6.6910505
1679997306057,1177294412156862,4.644,5.8879504,6.8179502
1679997306061,1177294414658939,4.6200004,5.8350005,6.70095
1679997306062,1177294417160862,4.5940504,5.8830004,6.7990503
1679997306066,1177294419662915,4.63905,5.89305,6.6340504
1679997306068,1177294422164838,4.66305,5.8830004,6.70305
1679997306069,1177294424666992,4.6579504,5.8609505,6.71295
1679997306072,1177294427169069,4.6470003,5.91405,6.7630506
1679997306075,1177294429670992,4.66995,5.91195,6.8110504
1679997306077,1177294432173083,4.60305,5.94105,6.7320004
1679997306079,1177294434675006,4.635,5.94495,6.8040004
1679997306083,1177294437177083,4.6270504,5.979,6.7489505
1679997306085,1177294439679237,4.6080003,5.9209504,6.74595
1679997306089,1177294442181165,4.65105,5.9359503,6.83505
1679997306089,1177294444683242,4.70205,6.0550504,6.78
1679997306091,1177294447185165,4.6800003,5.9479504,6.9139504
1679997306094,1177294449687242,4.69395,6.0079503,6.86595
1679997306098,1177294452189155,4.596,6.01695,6.8230505
1679997306100,1177294454691232,4.6270504,6.0049505,6.76095
1679997306102,1177294457193386,4.5940504,5.9479504,6.7920003
1679997306105,1177294459695309,4.60305,5.9620504,6.8490005
1679997306107,1177294462197386,4.63695,5.9479504,6.8250003
1679997306109,1177294464699285,4.63905,5.94495,6.8250003
1679997306111,1177294467201362,4.6150503,5.847,6.7870502
1679997306115,1177294469703285,4.6320004,5.8609505,6.8710504
1679997306117,1177294472205439,4.5870004,5.9430003,6.768
1679997306119,1177294474707531,4.623,5.85405,6.93795
1679997306121,1177294477209454,4.65105,5.9290504,6.9259505
1679997306125,1177294479711531,4.644,5.8969502,6.90705
1679997306127,1177294482213685,4.6800003,5.9760003,6.9210005
1679997306129,1177294484715536,4.70205,5.9050503,6.8209505
1679997306132,1177294487217459,4.7470503,5.9760003,6.8640003
1679997306136,1177294489719843,4.73295,5.9430003,6.7699504
1679997306138,1177294492221690,4.7449503,5.9670005,6.9019504
1679997306140,1177294494723618,4.78305,6.0319505,6.9019504
1679997306142,1177294497225695,4.7179503,5.8159504,6.8970003
1679997306146,1177294499727848,4.75395,6.0390005,6.84705
1679997306147,1177294502229695,4.79505,5.85195,6.91905
1679997306149,1177294504731618,4.74195,5.9430003,6.9240003
1679997306151,1177294507233997,4.7710505,5.931,6.9760504
1679997306155,1177294509735920,4.8,5.88495,6.8209505
1679997306156,1177294512237767,4.728,5.8969502,6.83505
1679997306159,1177294514739920,4.7260504,5.8609505,6.84705
1679997306161,1177294517241992,4.761,5.88105,6.9670506
1679997306165,1177294519743915,4.80495,5.9620504,6.7849503
1679997306167,1177294522246069,4.761,5.88105,6.8160005
1679997306169,1177294524748146,4.7260504,5.85195,6.8299503
1679997306173,1177294527250074,4.7400002,5.92395,6.95205
1679997306176,1177294529752151,4.7850003,5.9430003,6.9310503
1679997306177,1177294532254074,4.8360004,5.9209504,6.8689504
1679997306180,1177294534756151,4.7730002,5.9209504,6.83295
1679997306181,1177294537258074,4.87395,5.87295,6.8689504
1679997306186,1177294539760228,4.7970004,5.814,6.73005
1679997306188,1177294542262305,4.776,5.8060503,6.84495
1679997306189,1177294544764228,4.8690004,5.907,6.9210005
1679997306192,1177294547266305,4.7970004,5.8609505,6.7819505
1679997306195,1177294549768228,4.8570004,5.9329505,6.8880005
1679997306197,1177294552270305,4.87605,5.9500504,6.9019504
1679997306199,1177294554772228,4.8840003,5.964,6.71505
1679997306202,1177294557274382,4.953,5.9170504,6.77505
1679997306205,1177294559776459,4.8910503,5.847,6.9040504
1679997306207,1177294562278416,4.932,5.8950005,6.873
1679997306211,1177294564780493,4.8570004,5.8380003,6.9259505
1679997306212,1177294567282416,4.893,5.9050503,6.9690003
1679997306215,1177294569784570,4.872,5.859,6.9430504
1679997306217,1177294572286627,4.86705,5.91405,6.8370004
1679997306219,1177294574788550,4.872,5.91195,6.9259505
1679997306222,1177294577290627,4.872,5.9620504,6.9670506
1679997306226,1177294579792546,4.8619504,5.99595,6.97905
1679997306229,1177294582294700,4.8520503,5.91405,6.9640503
1679997306230,1177294584796777,4.87605,5.92395,6.972
1679997306232,1177294587298700,4.8520503,5.9329505,6.9949503
1679997306235,1177294589800777,4.8450003,5.931,6.9160504
1679997306237,1177294592302690,4.761,5.92395,6.9690003
1679997306239,1177294594804767,4.9080005,5.91195,6.9760504
1679997306242,1177294597306690,4.8570004,5.8609505,6.9240003
1679997306245,1177294599808844,4.8289504,5.8780503,6.93795
1679997306248,1177294602310926,4.8520503,5.79405,6.7870502
1679997306250,1177294604812849,4.85505,5.8279505,6.9240003
1679997306252,1177294607314926,4.7380505,5.907,6.8689504
1679997306256,1177294609816849,4.788,5.84205,6.8179502
1679997306257,1177294612318926,4.79295,5.80905,6.8610005
1679997306259,1177294614820820,4.7590504,5.9050503,6.8370004
1679997306262,1177294617322974,4.73295,5.8350005,6.9139504
1679997306266,1177294619825051,4.7590504,5.8609505,6.885
1679997306268,1177294622326974,4.72095,5.9500504,6.7099504
1679997306269,1177294624829065,4.7590504,5.8639503,6.7699504
1679997306272,1177294627330988,4.704,5.8900504,6.8209505
1679997306277,1177294629833141,4.72305,5.85195,6.7630506
1679997306277,1177294632335218,4.761,5.8279505,6.7369504
1679997306279,1177294634837141,4.72305,5.7060003,6.76095
1679997306283,1177294637339233,4.66995,5.787,6.6990004
1679997306287,1177294639841387,4.7689505,5.8710003,6.8089504
1679997306288,1177294642343233,4.64895,5.847,6.7849503
1679997306290,1177294644845146,4.70205,6.0340505,6.71505
1679997306292,1177294647347299,4.6729503,5.8969502,6.7390504
1679997306296,1177294649849376,4.67805,5.85195,6.74205
1679997306298,1177294652351530,4.72305,5.8279505,6.7630506
1679997306299,1177294654853453,4.69005,5.8690505,6.7060504
1679997306301,1177294657355525,4.72095,5.859,6.7180505
1679997306306,1177294659857371,4.6800003,5.8500004,6.7990503
1679997306308,1177294662359525,4.623,5.9500504,6.7219505
1679997306309,1177294664861448,4.6800003,5.9670005,6.7369504
1679997306312,1177294667363593,4.644,5.8380003,6.8370004
1679997306315,1177294669865439,4.644,5.8759503,6.8209505
1679997306317,1177294672367593,4.5700502,5.94105,6.912
1679997306320,1177294674869670,4.656,5.931,6.8689504
1679997306324,1177294677371597,4.63905,5.9290504,6.7990503
1679997306326,1177294679873674,4.63005,5.9740505,6.7579503
1679997306328,1177294682375828,4.623,5.8999505,6.7920003
1679997306330,1177294684877751,4.7179503,6.05805,6.8160005
1679997306332,1177294687379828,4.623,5.87295,6.8569503
1679997306335,1177294689881766,4.68195,5.87295,6.8280005
1679997306337,1177294692383843,4.54605,5.9689503,6.7969503
1679997306339,1177294694885766,4.66095,6.0480003,6.78
1679997306341,1177294697387843,4.6009502,5.88105,6.84705
1679997306345,1177294699890007,4.66305,5.92395,6.8569503
1679997306348,1177294702391930,4.656,5.88495,6.83295
1679997306349,1177294704894007,4.73505,5.8159504,6.7660503
1679997306352,1177294707395930,4.623,5.9760003,6.7969503
1679997306356,1177294709897997,4.64895,5.9359503,6.8370004
1679997306358,1177294712399920,4.6660504,5.8950005,6.64305
1679997306361,1177294714902074,4.6150503,5.9020505,6.7849503
1679997306363,1177294717404151,4.623,5.9620504,6.80205
1679997306365,1177294719906074,4.6080003,5.9089503,6.7440004
1679997306368,1177294722408156,4.7260504,5.9380503,6.7369504
1679997306370,1177294724910079,4.635,5.99805,6.8640003
1679997306374,1177294727412156,4.78305,5.94105,6.7969503
1679997306376,1177294729914079,4.7059503,5.91405,6.7870502
1679997306377,1177294732416213,4.7470503,5.8969502,6.73395
1679997306382,1177294734918290,4.70895,5.9929504,6.813
1679997306383,1177294737420213,4.72305,6.0220504,6.7819505
1679997306386,1177294739922290,4.78305,5.9550004,6.86595
1679997306388,1177294742424208,4.788,5.97195,6.7660503
1679997306390,1177294744926362,4.79295,5.92605,6.8950505
1679997306392,1177294747428208,4.809,5.9500504,6.873
1679997306395,1177294749930362,4.7590504,5.98605,6.813
1679997306398,1177294752432520,4.8240004,5.9599504,6.813
1679997306400,1177294754934367,4.8520503,5.95695,6.8640003
1679997306402,1177294757436443,4.872,5.8500004,6.8370004
1679997306405,1177294759938597,4.8570004,5.9599504,6.91905
1679997306407,1177294762440520,4.9120502,5.9290504,6.90705
1679997306409,1177294764942631,4.848,5.8830004,6.885
1679997306412,1177294767444554,4.8499503,5.78205,6.7849503
1679997306415,1177294769946631,4.85505,5.95695,6.813
1679997306417,1177294772448554,4.8310504,5.9089503,6.8179502
1679997306419,1177294774950597,4.9120502,5.98395,6.90705
1679997306422,1177294777452751,4.848,5.8969502,6.9160504
1679997306426,1177294779954674,4.9549503,5.9050503,6.873
1679997306428,1177294782456751,4.87605,5.94105,6.8830504
1679997306430,1177294784958708,4.8790503,5.9290504,6.7939506
1679997306433,1177294787460785,4.84305,5.91195,6.7870502
1679997306437,1177294789962708,4.9549503,5.9359503,6.9240003
1679997306438,1177294792465093,4.86,5.8639503,6.9019504
1679997306441,1177294794966905,4.776,5.9020505,6.8569503
1679997306442,1177294797468828,4.75395,5.814,6.8970003
1679997306445,1177294799970982,4.78305,5.91195,6.8490005
1679997306449,1177294802473059,4.7710505,5.8380003,6.7060504
1679997306450,1177294804974905,4.76595,5.8879504,6.7870502
1679997306453,1177294807476809,4.75005,5.907,6.7489505
1679997306456,1177294809979194,4.7380505,5.8999505,6.84
1679997306458,1177294812481117,4.7470503,5.95695,6.78
1679997306459,1177294814982963,4.69005,5.9209504,6.83295
1679997306461,1177294817485122,4.7520003,6.0199504,6.70095
1679997306466,1177294819987199,4.6849504,5.8690505,6.7540503
1679997306468,1177294822489122,4.66995,5.9089503,6.8689504
1679997306470,1177294824991199,4.66305,5.9760003,6.7320004
1679997306473,1177294827493377,4.7400002,5.8900504,6.8590503
1679997306476,1177294829995300,4.76595,5.8380003,6.768
1679997306478,1177294832497146,4.611,5.88495,6.813
1679997306480,1177294834999300,4.69005,5.8900504,6.7699504
1679997306482,1177294837501377,4.6870503,5.8570504,6.84
1679997306486,1177294840003309,4.6270504,5.87295,6.7900505
1679997306488,1177294842505463,4.584,5.9760003,6.70095
1679997306490,1177294845007540,4.54605,5.94105,6.80205
1679997306492,1177294847509463,4.5940504,5.88495,6.7900505
1679997306495,1177294850011545,4.6660504,5.88105,6.73005
1679997306497,1177294852513468,4.6660504,5.9050503,6.7099504
1679997306500,1177294855015545,4.6870503,5.9170504,6.73005
1679997306502,1177294857517468,4.563,5.8300505,6.77295
1679997306506,1177294860019617,4.65105,5.8830004,6.7579503
1679997306508,1177294862521693,4.668,5.9380503,6.77295
1679997306511,1177294865023617,4.67805,5.9050503,6.87795
1679997306513,1177294867525693,4.6080003,5.9760003,6.8929505
1679997306516,1177294870027617,4.64895,5.8780503,6.76095
1679997306518,1177294872529689,4.7179503,5.8900504,6.6480002
1679997306525,1177294875031842,4.75395,5.9500504,6.74205
1679997306526,1177294877533765,4.69395,6.0030003,6.7920003
1679997306527,1177294880035842,4.623,6.0220504,6.7900505
1679997306528,1177294882537789,4.7730002,5.92605,6.73005
1679997306530,1177294885039866,4.66095,5.92395,6.7699504
1679997306532,1177294887541789,4.70895,5.94495,6.7219505
1679997306535,1177294890043866,4.8019505,5.9380503,6.78
1679997306537,1177294892546025,4.728,5.91405,6.7699504
1679997306539,1177294895047948,4.66995,5.87295,6.7510505
1679997306542,1177294897550025,4.69395,5.8900504,6.7920003
1679997306546,1177294900051948,4.6990504,5.7660003,6.6580505
1679997306551,1177294902554011,4.7400002,5.9050503,6.83295
1679997306552,1177294905055934,4.74195,5.8900504,6.8179502
1679997306553,1177294907558088,4.70205,5.9359503,6.90705
1679997306556,1177294910060165,4.7710505,5.8780503,6.912
1679997306558,1177294912562088,4.7299504,5.8450503,6.7699504
1679997306560,1177294915064251,4.7590504,5.8999505,6.7270503
1679997306562,1177294917566328,4.6990504,5.8380003,6.7369504
1679997306565,1177294920068174,4.64895,5.9089503,6.7320004
1679997306568,1177294922570328,4.6270504,5.8830004,6.8179502
1679997306569,1177294925072482,4.6729503,5.85195,6.8899503
1679997306572,1177294927574405,4.6470003,5.8500004,6.77295
1679997306575,1177294930076482,4.72095,5.9500504,6.8250003
1679997306577,1177294932578405,4.63905,5.79405,6.7390504
1679997306580,1177294935080458,4.6849504,5.859,6.77295
1679997306582,1177294937582381,4.66095,5.8159504,6.7180505
1679997306588,1177294940084535,4.6660504,5.826,6.70305
1679997306589,1177294942586381,4.70895,5.9290504,6.76095
1679997306591,1177294945088482,4.6990504,5.8969502,6.7900505
1679997306593,1177294947590636,4.7449503,5.7660003,6.9360003
1679997306596,1177294950092559,4.7260504,5.92395,6.8370004
1679997306598,1177294952594636,4.7380505,5.9170504,6.8830504
1679997306600,1177294955096790,4.704,5.9290504,6.7390504
1679997306602,1177294957598708,4.76595,5.919,6.8209505
1679997306605,1177294960100785,4.7449503,5.9170504,6.86595
1679997306607,1177294962602631,4.84305,5.9880004,6.8299503
1679997306609,1177294965104785,4.84305,6.0049505,6.8610005
1679997306612,1177294967606742,4.7710505,5.9290504,6.8539505
1679997306615,1177294970108896,4.8570004,5.964,6.8299503
1679997306617,1177294972610973,4.8190503,5.9209504,6.8610005
1679997306620,1177294975112896,4.8310504,5.9599504,6.8929505
1679997306624,1177294977614992,4.8499503,5.92395,6.9
1679997306627,1177294980116915,4.8960004,6.0000005,6.912
1679997306630,1177294982618992,4.8190503,5.9089503,6.9480004
1679997306632,1177294985121156,4.78095,5.919,6.9240003
1679997306633,1177294987623079,4.8570004,5.8879504,6.9040504
1679997306636,1177294990125156,4.84305,5.91405,6.9739504
1679997306637,1177294992627079,4.84095,5.8830004,6.8640003
1679997306640,1177294995129156,4.833,5.9479504,6.912
1679997306642,1177294997631050,4.75005,5.859,6.9480004
1679997306645,1177295000133127,4.79295,5.9170504,6.9139504
1679997306649,1177295002635281,4.84095,5.87295,6.94005
1679997306650,1177295005137204,4.84095,5.8710003,6.94005
1679997306652,1177295007639290,4.7970004,5.89305,6.8040004
1679997306655,1177295010141213,4.70895,5.85405,6.8710504
1679997306657,1177295012643290,4.776,5.9050503,6.8590503
1679997306661,1177295015145213,4.69005,5.85405,6.7969503
1679997306662,1177295017647266,4.72095,5.8830004,6.73005
1679997306666,1177295020149420,4.7059503,5.8999505,6.94995
1679997306668,1177295022651343,4.74195,5.8350005,6.6000004
1679997306670,1177295025153420,4.7449503,5.9500504,6.8539505
1679997306672,1177295027655343,4.6849504,5.9209504,6.74595
1679997306675,1177295030157401,4.7970004,5.91405,6.7900505
1679997306677,1177295032659324,4.72305,5.8999505,6.6990004
1679997306679,1177295035161478,4.66995,5.94105,6.7489505
1679997306682,1177295037663555,4.7640004,5.826,6.7200003
1679997306685,1177295040165468,4.69005,5.91195,6.7560005
1679997306688,1177295042667545,4.65105,5.8969502,6.7510505
1679997306689,1177295045169699,4.7400002,5.9809504,6.80205
1679997306692,1177295047671545,4.716,5.964,6.71505
1679997306695,1177295050173483,4.7569504,5.9809504,6.6940503
1679997306699,1177295052675868,4.72095,5.92395,6.7920003
1679997306700,1177295055177791,4.656,5.979,6.8569503
1679997306702,1177295057679637,4.70205,5.8999505,6.6910505
1679997306707,1177295060181704,4.72305,5.9689503,6.852
1679997306709,1177295062683858,4.72305,5.8950005,6.80205
1679997306710,1177295065185781,4.6660504,5.95305,6.7390504
1679997306717,1177295067687858,4.6750503,5.94105,6.7180505
1679997306717,1177295070190012,4.73295,5.8330503,6.6169505
1679997306718,1177295072691950,4.6750503,5.95695,6.7630506
1679997306720,1177295075194027,4.70895,5.9599504,6.7060504
1679997306722,1177295077695950,4.70205,5.8039503,6.7200003
1679997306725,1177295080198027,4.66095,5.9929504,6.8299503
1679997306727,1177295082699940,4.66095,5.9430003,6.7630506
1679997306729,1177295085202094,4.6420503,5.826,6.7630506
1679997306732,1177295087704171,4.6750503,5.8710003,6.77295
1679997306737,1177295090206094,4.6990504,5.9359503,6.8209505
1679997306739,1177295092708195,4.6750503,5.9929504,6.74595
1679997306740,1177295095210118,4.58895,5.9380503,6.8610005
1679997306742,1177295097712195,4.66305,5.8780503,6.83505
1679997306746,1177295100214118,4.54395,5.8950005,6.852
1679997306748,1177295102716272,4.563,5.9089503,6.80205
1679997306749,1177295105218372,4.6129503,5.8780503,6.73395
1679997306752,1177295107720296,4.5409503,5.8969502,6.8590503
1679997306755,1177295110222372,4.6750503,5.9430003,6.8710504
1679997306757,1177295112724296,4.63695,5.9880004,6.8179502
1679997306760,1177295115226372,4.6200004,5.826,6.8710504
1679997306762,1177295117728540,4.5600004,6.0220504,6.87795
1679997306765,1177295120230463,4.66095,5.9170504,6.8179502
1679997306767,1177295122732540,4.6729503,5.9290504,6.8280005
1679997306770,1177295125234386,4.68195,6.0360003,6.8610005
1679997306774,1177295127736540,4.63695,5.9599504,6.912
1679997306776,1177295130238694,4.6800003,5.9329505,6.8250003
1679997306778,1177295132740617,4.668,5.92395,6.8760004
1679997306781,1177295135242670,4.7140503,5.94105,6.885
1679997306782,1177295137744593,4.78095,5.94495,6.8160005
1679997306786,1177295140246670,4.7470503,5.9209504,6.71505
1679997306790,1177295142748593,4.7710505,5.8279505,6.9139504
1679997306791,1177295145250747,4.7710505,5.9020505,6.7819505
1679997306792,1177295147752824,4.78095,6.0340505,6.852
1679997306795,1177295150254747,4.7970004,5.9430003,6.945
1679997306797,1177295152756824,4.8310504,5.9479504,6.80595
1679997306800,1177295155258747,4.81395,5.9209504,6.8089504
1679997306802,1177295157760819,4.8619504,5.92605,6.77505
1679997306806,1177295160262742,4.80705,5.9929504,6.8110504
1679997306807,1177295162764896,4.8289504,5.9929504,6.84
1679997306811,1177295165266973,4.8450003,5.91405,6.8179502
1679997306813,1177295167768910,4.8190503,5.8969502,6.78
1679997306816,1177295170270987,4.8499503,5.92395,6.77295
1679997306817,1177295172772910,4.9360504,5.8500004,6.8590503
1679997306819,1177295175274987,4.9360504,5.8900504,6.8830504
1679997306822,1177295177777141,4.79505,5.9430003,6.813
1679997306826,1177295180279064,4.9099503,5.94105,6.8040004
1679997306829,1177295182781141,4.8169503,5.9880004,6.8760004
1679997306831,1177295185283064,4.7730002,5.9329505,6.8280005
1679997306832,1177295187785141,4.7470503,5.9670005,6.9310503
1679997306835,1177295190287093,4.90005,6.0270004,6.7939506
1679997306837,1177295192789170,4.7970004,5.9620504,6.8830504
1679997306840,1177295195291324,4.86705,5.9290504,6.8160005
1679997306842,1177295197793247,4.833,6.0220504,6.9210005
1679997306845,1177295200295382,4.83795,6.0199504,6.885
1679997306849,1177295202797228,4.9219503,6.04395,6.7180505
1679997306851,1177295205299305,4.872,6.012,6.852
1679997306852,1177295207801459,4.84095,5.9170504,6.9040504
1679997306855,1177295210303314,4.872,5.9620504,6.8590503
1679997306857,1177295212805468,4.8019505,5.9760003,6.8710504
1679997306860,1177295215307621,4.7449503,5.9290504,6.9619503
1679997306862,1177295217809545,4.833,5.95695,6.9210005
1679997306866,1177295220311362,4.84095,5.91195,6.768
1679997306868,1177295222813516,4.85505,5.88495,6.84705
1679997306870,1177295225315593,4.8360004,5.85195,6.7920003
1679997306872,1177295227817746,4.833,5.8900504,6.8299503
1679997306875,1177295230319593,4.7970004,5.85405,6.8110504
1679997306877,1177295232821741,4.8190503,5.859,6.9240003
1679997306880,1177295235323664,4.75395,5.787,6.813
1679997306883,1177295237825741,4.8,5.7660003,6.73395
1679997306888,1177295240327651,4.84305,5.83995,6.768
1679997306890,1177295242829728,4.78305,5.7900004,6.8590503
1679997306891,1177295245331882,4.7590504,5.8690505,6.7969503
1679997306893,1177295247833805,4.8570004,5.8900504,6.8230505
1679997306896,1177295250335882,4.82595,5.87295,6.70305
1679997306899,1177295252837813,4.893,5.94495,6.74205
1679997306900,1177295255339890,4.7730002,5.91405,6.84495
1679997306903,1177295257841813,4.82595,5.9809504,6.86595
1679997306906,1177295260343890,4.761,5.9500504,6.9210005
1679997306909,1177295262846026,4.7710505,5.8950005,6.7849503
1679997306910,1177295265347949,4.821,5.919,6.7660503
1679997306915,1177295267850026,4.7400002,5.8969502,6.6940503
1679997306917,1177295270351949,4.7710505,5.91195,6.7579503
1679997306918,1177295272854026,4.72095,6.0000005,6.8209505
1679997306920,1177295275355920,4.65105,5.9760003,6.7699504
1679997306926,1177295277858074,4.69395,5.85405,6.7489505
1679997306928,1177295280360151,4.716,5.8639503,6.6550503
1679997306929,1177295283128450,4.6800003,5.8230004,6.74595
1679997306932,1177295285422604,4.75395,5.89305,6.7060504
1679997306934,1177295287866065,4.69395,5.9620504,6.7900505
1679997306936,1177295290368142,4.67805,5.8969502,6.6460505
1679997306939,1177295292870065,4.6800003,5.931,6.7390504
1679997306940,1177295295372228,4.6420503,5.8969502,6.74205
1679997306943,1177295297874305,4.7449503,5.907,6.7099504
1679997306947,1177295300376228,4.73505,5.91405,6.6840005
1679997306948,1177295302878305,4.6870503,5.9050503,6.78
1679997306950,1177295305380459,4.6729503,5.95305,6.7510505
1679997306952,1177295307882387,4.64895,5.7850504,6.7060504
1679997306955,1177295310384464,4.68195,5.9380503,6.7780504
1679997306957,1177295312886387,4.70205,5.8830004,6.5860505
1679997306961,1177295315388450,4.5870004,5.8780503,6.7320004
1679997306963,1177295317890373,4.5990005,5.9209504,6.8179502
1679997306966,1177295320392450,4.61805,5.931,6.7579503
1679997306968,1177295322894604,4.635,5.9620504,6.708
1679997306969,1177295325396527,4.6420503,5.91405,6.8250003
1679997306972,1177295327898608,4.6729503,5.9329505,6.7819505
1679997306975,1177295330400531,4.7059503,5.9359503,6.7780504
1679997306977,1177295332902608,4.78095,5.9500504,6.9310503
1679997306980,1177295335404531,4.73295,5.9880004,6.8539505
1679997306983,1177295337906911,4.761,5.95305,6.84495
1679997306986,1177295340408758,4.6990504,5.97195,6.86595
1679997306988,1177295342910681,4.83795,5.9329505,6.852
1679997306990,1177295345412834,4.8619504,5.9430003,6.7870502
1679997306992,1177295347914911,4.9080005,6.0199504,6.8040004
1679997306995,1177295350416748,4.872,5.8759503,6.9139504
1679997306999,1177295352918901,4.9290004,5.9380503,6.91905
1679997307001,1177295355421055,4.9120502,5.979,6.8950505
1679997307003,1177295357922978,4.95795,5.8780503,6.8689504
1679997307006,1177295360424830,4.92705,5.9670005,6.7699504
1679997307008,1177295362926983,4.9290004,5.8639503,6.8089504
1679997307010,1177295365429060,5.0269504,5.8380003,6.78
1679997307012,1177295367930906,4.9339504,5.88105,6.8569503
1679997307015,1177295370433093,4.9080005,5.8060503,6.7920003
1679997307017,1177295372935247,4.98705,5.9359503,6.74205
1679997307020,1177295375437170,4.90005,5.8060503,6.80205
1679997307022,1177295377939247,4.8840003,5.8780503,6.7320004
1679997307028,1177295380441161,4.88805,5.8660502,6.7560005
1679997307029,1177295382943238,4.87395,5.8350005,6.74595
1679997307032,1177295385445161,4.81395,5.9430003,6.7780504
1679997307033,1177295387947315,4.84305,5.8159504,6.8089504
1679997307037,1177295390449392,4.8450003,5.8609505,6.7180505
1679997307039,1177295392951315,4.848,5.7990003,6.6550503
1679997307040,1177295395453392,4.761,5.8500004,6.61005
1679997307042,1177295397955315,4.78095,5.859,6.5860505
1679997307045,1177295400457392,4.7449503,5.8039503,6.6000004
1679997307048,1177295402959315,4.72305,5.74695,6.64095
1679997307050,1177295405461469,4.6969504,5.71995,6.6649504
1679997307053,1177295407963546,4.6800003,5.74905,6.6720004
1679997307055,1177295410465483,4.64895,5.76105,6.6190505
1679997307057,1177295412967560,4.668,5.67705,6.68205
1679997307060,1177295415469483,4.61805,5.7109504,6.67005
1679997307062,1177295417971560,4.5940504,5.7060003,6.6049504
1679997307066,1177295420473695,4.6800003,5.61705,6.6169505
1679997307068,1177295422975618,4.6129503,5.75895,6.64095
1679997307070,1177295425477695,4.644,5.6580005,6.6840005
1679997307074,1177295427979618,4.70205,5.70795,6.47805
1679997307076,1177295430481699,4.68195,5.6910005,6.68205
1679997307078,1177295432983622,4.6200004,5.7510004,6.591
1679997307080,1177295435485699,4.635,5.6509504,6.6169505
1679997307082,1177295437987853,4.60605,5.715,6.5740504
1679997307085,1177295440489776,4.6009502,5.73705,6.6580505
1679997307087,1177295442991940,4.66095,5.7390003,6.6460505
1679997307090,1177295445493786,4.635,5.8570504,6.6550503
1679997307092,1177295447995863,4.6990504,5.7390003,6.7579503
1679997307095,1177295450498017,4.7179503,5.70795,6.6510005
1679997307097,1177295452999940,4.66305,5.9170504,6.64095
1679997307100,1177295455502031,4.66995,5.9329505,6.6990004
1679997307102,1177295458004184,4.644,5.8879504,6.6120005
1679997307106,1177295460506108,4.61805,5.8500004,6.59805
1679997307108,1177295463008180,4.60605,5.9380503,6.59805
1679997307111,1177295465510027,4.596,5.87295,6.6460505
1679997307113,1177295468012180,4.59105,5.8180504,6.6169505
1679997307115,1177295470514334,4.623,5.8060503,6.6390004
1679997307118,1177295473016247,4.56495,5.826,6.6889505
1679997307120,1177295475518324,4.57905,5.8609505,6.64095
1679997307122,1177295478020247,4.6080003,5.8159504,6.74595
1679997307125,1177295480522324,4.5100503,5.8969502,6.8230505
1679997307127,1177295483024171,4.6249504,5.8969502,6.6649504
1679997307129,1177295485526343,4.6320004,5.94105,6.6940503
1679997307133,1177295488028497,4.6129503,6.0319505,6.675
1679997307135,1177295490530420,4.6320004,5.979,6.6550503
1679997307137,1177295493032266,4.7569504,5.9929504,6.9
1679997307140,1177295495534343,4.75395,6.0049505,6.768
1679997307142,1177295498036497,4.72305,5.92605,6.7249503
1679997307146,1177295500538651,4.6990504,5.9599504,6.8970003
1679997307149,1177295503040497,4.7140503,5.98395,6.80205
1679997307151,1177295505542411,4.79505,5.92605,6.8209505
1679997307153,1177295508044565,4.716,5.9670005,6.7870502
1679997307156,1177295510546642,4.8019505,6.0000005,6.9330006
1679997307158,1177295513048488,4.6969504,5.9740505,6.8370004
1679997307160,1177295515550719,4.8120003,5.9670005,6.852
1679997307162,1177295518052810,4.84095,5.9599504,6.8539505
1679997307165,1177295520554733,4.8240004,6.024,6.885
1679997307167,1177295523056579,4.8120003,5.95305,6.9240003
1679997307169,1177295525558733,4.8450003,5.9689503,6.984
1679997307172,1177295528060800,4.8360004,6.0600004,6.9690003
1679997307175,1177295530562954,4.82595,5.99805,6.9600005
1679997307177,1177295533064877,4.8360004,5.95695,6.9979506
1679997307179,1177295535566954,4.932,6.0049505,6.91905
1679997307182,1177295538068863,4.9510503,6.111,6.9570003
1679997307187,1177295540570940,4.9170003,6.0529504,6.8640003
1679997307189,1177295543072863,4.953,5.9929504,6.9210005
1679997307191,1177295545574940,4.95795,6.0340505,6.912
1679997307193,1177295548077108,5.0010004,6.0600004,6.873
1679997307196,1177295550579031,5.0659504,5.9929504,6.8250003
1679997307198,1177295553081108,4.9750504,5.9929504,6.9139504
1679997307200,1177295555583031,4.95795,6.09105,6.873
1679997307202,1177295558085108,4.96005,5.9359503,6.8299503
1679997307205,1177295560587060,4.96005,5.97195,6.8640003
1679997307207,1177295563089137,4.9360504,5.9500504,6.84
1679997307210,1177295565591291,4.9510503,5.8900504,6.7969503
1679997307212,1177295568093214,4.85505,5.85195,6.8899503
1679997307215,1177295570595306,4.8310504,5.85195,6.84705
1679997307217,1177295573097229,4.809,5.8879504,6.86595
1679997307220,1177295575599306,4.8310504,5.87295,6.84705
1679997307224,1177295578101229,4.848,5.8710003,6.6990004
1679997307228,1177295580603368,4.81395,5.8950005,6.6769505
1679997307230,1177295583105445,4.7730002,5.8780503,6.70305
1679997307231,1177295585607368,4.7140503,5.8710003,6.7060504
1679997307233,1177295588109445,4.67805,5.75895,6.71505
1679997307236,1177295590611383,4.59105,5.85405,6.6940503
1679997307243,1177295593113460,4.716,5.787,6.6510005
1679997307244,1177295595615383,4.67805,5.84205,6.5880003
1679997307245,1177295598117536,4.61805,5.84205,6.6790504
1679997307246,1177295600619613,4.6540504,5.8830004,6.7099504
1679997307247,1177295603121526,4.6320004,5.88495,6.675
1679997307250,1177295605623680,4.6800003,5.92395,6.6840005
1679997307252,1177295608125526,4.584,5.9689503,6.74595
1679997307255,1177295610627603,4.61805,5.979,6.53805
1679997307257,1177295613129733,4.6969504,5.9689503,6.5839505
1679997307261,1177295615631887,4.7520003,5.94495,6.5020504
1679997307263,1177295618133733,4.6969504,6.1009502,6.5929503
1679997307267,1177295620635887,4.6729503,6.0820503,6.6990004
1679997307268,1177295623137781,4.7470503,6.1060505,6.675
1679997307270,1177295625639858,4.728,6.0750003,6.6000004
1679997307273,1177295628141781,4.78305,6.08895,6.5860505
1679997307276,1177295630643935,4.6920004,6.156,6.61005
1679997307277,1177295633146012,4.7260504,6.135,6.7219505
1679997307280,1177295635647940,4.69395,6.1060505,6.68205
1679997307283,1177295638149786,4.69005,6.1969504,6.77295
1679997307286,1177295640651940,4.6920004,6.1200004,6.7489505
1679997307288,1177295643154017,4.69395,6.1320004,6.73395
1679997307290,1177295645655940,4.65105,6.123,6.9040504
1679997307292,1177295648158108,4.656,6.1750503,6.7219505
1679997307295,1177295650660185,4.64895,6.0409503,6.8250003
1679997307299,1177295653162108,4.59105,6.123,6.8179502
1679997307301,1177295655664180,4.6200004,6.0220504,6.7969503
1679997307303,1177295658166103,4.6270504,6.144,6.7660503
1679997307306,1177295660668180,4.69005,6.0990005,6.8209505
1679997307308,1177295663170334,4.5940504,6.0319505,6.7969503
1679997307310,1177295665672257,4.63005,6.0319505,6.80205
1679997307312,1177295668174305,4.6579504,6.19005,6.7249503
1679997307315,1177295670676228,4.656,6.0529504,6.7849503
1679997307318,1177295673178305,4.60605,5.9880004,6.78
1679997307320,1177295675680459,4.644,6.1249504,6.7630506
1679997307323,1177295678182396,4.7059503,6.096,6.74205
1679997307326,1177295680684473,4.70205,6.0649505,6.7870502
1679997307328,1177295683186396,4.7299504,6.111,6.7699504
1679997307330,1177295685688473,4.7260504,6.0480003,6.73005
1679997307333,1177295688190396,4.79505,6.1270504,6.7780504
1679997307337,1177295690692531,4.623,6.084,6.7819505
1679997307343,1177295693194608,4.7299504,6.0000005,6.6670504
1679997307343,1177295695696531,4.6080003,6.09105,6.663
1679997307343,1177295698198608,4.61805,6.1009502,6.6870003
1679997307346,1177295700700526,4.5820503,5.98605,6.6510005
1679997307348,1177295703202603,4.656,6.16095,6.6720004
1679997307350,1177295705704526,4.55805,6.1459503,6.68205
1679997307352,1177295708206680,4.61805,6.0940504,6.6840005
1679997307355,1177295710708756,4.63005,6.0870004,6.6940503
1679997307357,1177295713210680,4.6579504,6.2089505,6.6649504
1679997307360,1177295715712756,4.6270504,6.1540504,6.6580505
1679997307363,1177295718214680,4.58895,6.2179503,6.6480002
1679997307365,1177295720716751,4.64895,6.2760005,6.6769505
1679997307368,1177295723218675,4.524,6.23295,6.696
1679997307370,1177295725721059,4.63005,6.2470503,6.6460505
1679997307374,1177295728222905,4.66995,6.1729503,6.6480002
1679997307377,1177295730724828,4.6849504,6.168,6.7219505
1679997307378,1177295733226905,4.6270504,6.1660504,6.6480002
1679997307380,1177295735729059,4.7380505,6.2299504,6.7200003
1679997307382,1177295738230905,4.6660504,6.216,6.73005
1679997307386,1177295740733064,4.59105,6.2260504,6.7390504
1679997307388,1177295743235218,4.584,6.2179503,6.73005
1679997307390,1177295745737141,4.572,6.2260504,6.80595
1679997307392,1177295748238987,4.6080003,6.2850003,6.73005
1679997307395,1177295750741064,4.5990005,6.16095,6.76095
1679997307397,1177295753243227,4.6080003,6.0990005,6.7369504
1679997307400,1177295755745073,4.5,6.0990005,6.9
1679997307403,1177295758247227,4.4689503,6.1849504,6.7249503
1679997307405,1177295760749381,4.5700502,6.1540504,6.8689504
1679997307408,1177295763251300,4.5940504,6.0529504,6.7560005
1679997307412,1177295765753146,4.57695,6.1320004,6.852
1679997307413,1177295768255300,4.5529504,6.0720005,6.8830504
1679997307416,1177295770757377,4.48605,6.051,6.7099504
1679997307418,1177295773259555,4.467,6.1009502,6.80205
1679997307420,1177295775761478,4.491,6.0079503,6.7939506
1679997307422,1177295778263555,4.5270004,6.1369505,6.8899503
1679997307427,1177295780765478,4.5150003,6.0199504,6.7870502
1679997307428,1177295783267593,4.55595,6.0390005,6.8089504
1679997307430,1177295785769516,4.47405,6.0390005,6.73395
1679997307432,1177295788271593,4.57905,6.1540504,6.83295
1679997307435,1177295790773747,4.55805,6.0940504,6.7939506
1679997307437,1177295793275670,4.5529504,6.0319505,6.885
1679997307440,1177295795777761,4.512,6.0720005,6.768
1679997307442,1177295798279684,4.6150503,6.0319505,6.8110504
1679997307445,1177295800781761,4.63905,6.0720005,6.7180505
1679997307449,1177295803283684,4.6870503,6.0820503,6.7560005
1679997307452,1177295805785728,4.6540504,6.051,6.6910505
1679997307453,1177295808287882,4.64895,6.0870004,6.6720004
1679997307457,1177295810789805,4.6150503,5.9500504,6.73005
1679997307458,1177295813291882,4.78305,6.0150003,6.7099504
1679997307460,1177295815793805,4.73505,5.991,6.76095
1679997307463,1177295818295872,4.7779503,6.0150003,6.74205
1679997307466,1177295820797795,4.833,6.02895,6.6600003
1679997307468,1177295823299949,4.73505,6.0049505,6.7369504
1679997307470,1177295825802025,4.7380505,6.0550504,6.6049504
1679997307475,1177295828303915,4.809,6.08895,6.7540503
1679997307477,1177295830805991,4.7590504,6.0649505,6.7870502
1679997307478,1177295833307915,4.821,6.0750003,6.7510505
1679997307482,1177295835809991,4.79505,6.09105,6.7990503
1679997307483,1177295838311915,4.809,6.111,6.7200003
1679997307488,1177295840814329,4.8790503,6.1060505,6.68205
1679997307490,1177295843316175,4.8499503,6.084,6.63105
1679997307492,1177295845818098,4.73295,6.04605,6.6769505
1679997307494,1177295848320180,4.7689505,6.096,6.7249503
1679997307497,1177295850822334,4.8840003,6.1080003,6.74205
1679997307499,1177295853324180,4.821,6.123,6.8370004
1679997307500,1177295855826103,4.74195,6.20205,6.8280005
1679997307503,1177295858328488,4.80705,6.1729503,6.885
1679997307509,1177295860830315,4.79505,6.135,6.8160005
1679997307510,1177295863332238,4.833,6.144,6.8160005
1679997307511,1177295865834315,4.86,6.2110505,6.71295
1679997307513,1177295868336469,4.7520003,6.111,6.8110504
1679997307516,1177295870838392,4.8570004,6.1129503,6.7660503
1679997307518,1177295873340469,4.90005,6.04395,6.873
1679997307522,1177295875842392,4.848,6.0820503,6.78
1679997307524,1177295878344469,4.8240004,6.063,6.9690003
1679997307528,1177295880846392,4.82595,6.13005,6.7939506
1679997307529,1177295883348560,4.8499503,6.04605,6.8209505
1679997307532,1177295885850637,4.8499503,6.0720005,6.7870502
1679997307533,1177295888352791,4.8520503,6.04395,6.8280005
1679997307536,1177295890854637,4.84095,6.0100503,6.8179502
1679997307538,1177295893356560,4.8289504,6.0990005,6.7990503
1679997307540,1177295895858714,4.809,6.02895,6.8110504
1679997307543,1177295898360791,4.8450003,6.063,6.84705
1679997307547,1177295900862714,4.833,6.0000005,6.7870502
1679997307549,1177295903364786,4.86,6.0220504,6.7440004
1679997307550,1177295905866940,4.81395,5.9880004,6.8370004
1679997307553,1177295908368863,4.8289504,5.9740505,6.7200003
1679997307556,1177295910870709,4.7179503,5.9430003,6.6150002
1679997307558,1177295913372863,4.8120003,5.9050503,6.59595
1679997307563,1177295915874921,4.7590504,5.9430003,6.6670504
1679997307566,1177295918377075,4.74195,5.99595,6.64305
1679997307568,1177295920878921,4.68195,5.9689503,6.64305
1679997307570,1177295923381075,4.72305,5.9670005,6.6169505
1679997307571,1177295925882998,4.6990504,5.847,6.59805
1679997307573,1177295928385075,4.60605,5.73495,6.696
1679997307576,1177295930886998,4.61805,5.88105,6.6580505
1679997307578,1177295933389152,4.6320004,5.8900504,6.7060504
1679997307581,1177295935891229,4.57695,5.92605,6.636
1679997307583,1177295938393166,4.57905,5.9760003,6.5809503
1679997307588,1177295940895243,4.623,5.91195,6.61005
1679997307589,1177295943397166,4.5150003,5.87295,6.67005
1679997307591,1177295945899243,4.464,5.9599504,6.5790005
1679997307593,1177295948401147,4.4929504,5.94105,6.49305
1679997307596,1177295950903300,4.63005,5.95305,6.5209503
1679997307600,1177295953405377,4.53405,5.97195,6.6510005
1679997307601,1177295955907300,4.54395,5.91195,6.6270003
1679997307603,1177295958409367,4.5600004,5.95695,6.56895
1679997307606,1177295960911290,4.43295,6.0199504,6.5119505
1679997307608,1177295963413367,4.596,5.9689503,6.64095
1679997307610,1177295965915290,4.584,5.991,6.6649504
1679997307613,1177295968417444,4.55805,6.0079503,6.73395
1679997307616,1177295970919502,4.479,5.9880004,6.5860505
1679997307618,1177295973421425,4.52895,6.0360003,6.64305
1679997307620,1177295975923502,4.6320004,6.0649505,6.6510005
1679997307623,1177295978425425,4.51695,5.99595,6.6550503
1679997307627,1177295980927492,4.5220504,6.0199504,6.7270503
1679997307630,1177295983429646,4.61805,6.0409503,6.6150002
1679997307632,1177295985931569,4.656,6.0940504,6.76095
1679997307633,1177295988433646,4.6080003,6.0820503,6.73005
1679997307638,1177295990935579,4.584,6.0529504,6.7579503
1679997307639,1177295993437656,4.6540504,6.0750003,6.73395
1679997307641,1177295995939579,4.6540504,6.1320004,6.7900505
1679997307643,1177295998441656,4.61805,6.1390505,6.8179502
1679997307646,1177296000943810,4.73505,6.1969504,6.7990503
1679997307648,1177296003446012,4.6969504,6.2059503,6.76095
1679997307650,1177296005947858,4.7380505,6.228,6.73395
1679997307653,1177296008449781,4.7899504,6.1990504,6.6889505
1679997307656,1177296010951935,4.81395,6.16095,6.6240005
1679997307658,1177296013454012,4.8,6.1270504,6.7099504
1679997307662,1177296015955930,4.84095,6.1009502,6.675
1679997307664,1177296018458007,4.8360004,6.144,6.7180505
1679997307667,1177296020960161,4.72095,6.11805,6.76095
1679997307668,1177296023461988,4.7520003,6.0100503,6.7560005
1679997307671,1177296025963911,4.7140503,6.135,6.6580505
1679997307674,1177296028466065,4.728,6.0049505,6.70305
1679997307677,1177296030968142,4.7299504,6.1080003,6.6169505
1679997307679,1177296033470094,4.63005,6.0199504,6.73395
1679997307681,1177296035972248,4.7640004,6.0480003,6.6940503
1679997307683,1177296038474325,4.70895,6.0700502,6.663
1679997307688,1177296040976248,4.6420503,5.919,6.675
1679997307689,1177296043478402,4.6849504,6.0030003,6.6940503
1679997307691,1177296045980469,4.66095,6.0700502,6.6889505
1679997307693,1177296048482315,4.644,5.9760003,6.6720004
1679997307696,1177296050984469,4.6579504,6.0750003,6.663
1679997307700,1177296053486392,4.5940504,5.9670005,6.64305
1679997307701,1177296055988469,4.5700502,6.0529504,6.6169505
1679997307703,1177296058490315,4.5990005,6.0480003,6.6720004
1679997307708,1177296060992545,4.59105,6.051,6.7180505
1679997307709,1177296063494622,4.5990005,5.964,6.6580505
1679997307713,1177296065996546,4.56495,6.096,6.603
1679997307717,1177296068498622,4.63005,6.1150503,6.6460505
1679997307718,1177296071000546,4.5940504,5.9929504,6.7060504
1679997307721,1177296073502622,4.64895,6.0550504,6.6529503
1679997307722,1177296076004546,4.644,5.9689503,6.6910505
1679997307724,1177296078506685,4.72305,6.0670505,6.7180505
1679997307728,1177296081008762,4.70895,6.04605,6.74595
1679997307729,1177296083510685,4.776,6.1270504,6.8490005
1679997307732,1177296086012762,4.78095,6.10305,6.77295
1679997307733,1177296088514685,4.80705,6.0750003,6.78
1679997307736,1177296091016781,4.75395,6.0529504,6.8280005
1679997307738,1177296093518935,4.7779503,6.063,6.9019504
1679997307740,1177296096020858,4.8690004,6.1270504,6.8539505
1679997307743,1177296098522935,4.8640504,6.1060505,6.80595
1679997307747,1177296101024853,4.90005,6.0150003,6.84495
1679997307750,1177296103526930,4.8289504,6.0600004,6.9019504
1679997307752,1177296106028853,4.8310504,6.0390005,6.8689504
1679997307755,1177296108530901,4.83795,6.1080003,6.8490005
1679997307756,1177296111033055,4.9290004,6.1579504,6.9330006
1679997307759,1177296113534978,4.91505,6.0600004,6.8250003
1679997307761,1177296116037055,4.893,6.096,6.80205
1679997307763,1177296118538978,4.9080005,6.1080003,6.95205
1679997307767,1177296121041046,4.85505,6.0340505,6.8490005
1679997307768,1177296123542969,4.8910503,6.063,6.9210005
1679997307771,1177296126045123,4.8640504,6.0649505,6.945
1679997307773,1177296128547200,4.84095,6.051,6.7969503
1679997307776,1177296131049123,4.8289504,6.0529504,6.7489505
1679997307778,1177296133551185,4.84095,6.0670505,6.8280005
1679997307780,1177296136053108,4.76595,6.0199504,6.7320004
1679997307783,1177296138555185,4.7470503,6.0270004,6.7510505
1679997307788,1177296141057127,4.66995,5.95695,6.7540503
1679997307790,1177296143559281,4.80495,6.012,6.7320004
1679997307792,1177296146061358,4.7179503,6.08895,6.708
1679997307794,1177296148563512,4.6540504,6.1129503,6.6940503
1679997307796,1177296151065435,4.6969504,6.08895,6.6529503
1679997307799,1177296153567310,4.66095,6.0649505,6.6910505
1679997307800,1177296156069387,4.63005,6.096,6.7099504
1679997307803,1177296158571541,4.66095,6.0700502,6.576
1679997307806,1177296161073695,4.6420503,6.0940504,6.5809503
1679997307808,1177296163575541,4.60605,6.1420503,6.6000004
1679997307810,1177296166077695,4.66095,6.19005,6.5190005
1679997307813,1177296168579618,4.6470003,6.1729503,6.73005
1679997307815,1177296171081695,4.6320004,6.1800003,6.6240005
1679997307818,1177296173583541,4.635,6.2779503,6.564
1679997307820,1177296176085758,4.6270504,6.084,6.53805
1679997307825,1177296178587834,4.64895,6.2520003,6.5329504
1679997307828,1177296183589681,4.6470003,6.1200004,6.50505
1679997307831,1177296184928803,4.57695,6.1920004,6.5620503
1679997307831,1177296186273988,4.584,6.2089505,6.5479503
1679997307834,1177296188595834,4.61805,6.16095,6.4729505
1679997307836,1177296191097758,4.5750003,6.2140503,6.5190005
1679997307838,1177296193599911,4.5079503,6.135,6.6150002
1679997307840,1177296196101988,4.52895,6.22305,6.70095
1679997307843,1177296198603944,4.52895,6.1990504,6.6150002
1679997307846,1177296201106021,4.53405,6.1420503,6.6670504
1679997307848,1177296203607944,4.5199504,6.168,6.71505
1679997307850,1177296206110021,4.4760003,6.14895,6.7579503
1679997307853,1177296208611944,4.5940504,6.2299504,6.7849503
1679997307855,1177296211114117,4.5079503,6.2419505,6.7060504
1679997307858,1177296213616194,4.524,6.1390505,6.6990004
1679997307862,1177296216118117,4.44495,6.1369505,6.8230505
1679997307864,1177296218620208,4.5030003,6.123,6.7099504
1679997307867,1177296221122131,4.45695,6.2400002,6.6870003
1679997307869,1177296223624208,4.56705,6.1390505,6.6720004
1679997307871,1177296226126362,4.48395,6.1920004,6.663
1679997307873,1177296228628285,4.53405,6.22095,6.7180505
1679997307876,1177296231130372,4.59105,6.09105,6.708
1679997307878,1177296233632295,4.6009502,6.23295,6.7320004
1679997307881,1177296236134449,4.5100503,6.135,6.7660503
1679997307883,1177296238636526,4.5409503,6.1200004,6.78
1679997307886,1177296241138434,4.5750003,6.1729503,6.7200003
1679997307888,1177296243640511,4.584,6.096,6.708
1679997307891,1177296246142434,4.51695,6.1080003,6.71505
1679997307893,1177296248644511,4.56495,6.051,6.74205
1679997307896,1177296251146434,4.5940504,6.13005,6.7819505
1679997307901,1177296253648598,4.7380505,6.0820503,6.6510005
1679997307902,1177296256150675,4.6270504,6.1270504,6.67005
1679997307904,1177296258652598,4.6920004,6.1150503,6.708
1679997307907,1177296261154656,4.71105,6.19395,6.7390504
1679997307909,1177296263656579,4.69395,6.10305,6.7390504
1679997307911,1177296266158656,4.6920004,6.14895,6.78
1679997307913,1177296268660579,4.656,6.1660504,6.7990503
1679997307916,1177296271162733,4.6750503,6.0649505,6.7990503
1679997307918,1177296273664838,4.67805,6.1540504,6.8089504
1679997307921,1177296276166761,4.84095,6.1729503,6.8179502
1679997307924,1177296278668838,4.7970004,6.1540504,6.9360003
1679997307927,1177296281170761,4.8289504,6.1870503,6.9330006
1679997307929,1177296283672862,4.833,6.1080003,6.8179502
1679997307931,1177296286175016,4.9120502,6.1780505,6.8610005
1679997307933,1177296288676939,4.8840003,6.16305,6.86595
1679997307939,1177296291179016,4.85505,6.16095,6.84705
1679997307940,1177296293680939,4.96005,6.168,6.8640003
1679997307942,1177296296183093,4.9549503,6.0720005,6.71295
1679997307944,1177296298684939,4.9840503,6.16305,6.84495
1679997307949,1177296301187016,4.9440002,6.024,6.852
1679997307950,1177296303689251,5.013,6.0649505,6.7900505
1679997307952,1177296306191098,4.8960004,6.1060505,6.7900505
1679997307954,1177296308693175,4.99095,5.9670005,6.8160005
1679997307956,1177296311195328,4.9120502,6.02895,6.768
1679997307958,1177296313697251,4.8790503,5.9050503,6.7630506
1679997307960,1177296316199084,4.9510503,5.9689503,6.7510505
1679997307966,1177296318701161,4.94805,5.9290504,6.768
1679997307967,1177296321203391,4.905,5.919,6.7270503
1679997307968,1177296323705468,4.82595,5.99595,6.696
1679997307971,1177296326207333,4.8690004,5.8380003,6.7579503
1679997307975,1177296328709487,4.8240004,5.9050503,6.6990004
1679997307977,1177296331211410,4.80495,5.9599504,6.8590503
1679997307979,1177296333713487,4.76595,5.94105,6.6990004
1679997307981,1177296336215626,4.8790503,5.85405,6.6990004
1679997307983,1177296338717549,4.7730002,5.91195,6.67005
1679997307987,1177296341219626,4.7730002,5.9689503,6.636
1679997307988,1177296343721549,4.716,5.8279505,6.7320004
1679997307991,1177296346223626,4.7179503,5.8780503,6.6840005
1679997307993,1177296348725559,4.67805,5.94105,6.6340504
1679997307996,1177296351227636,4.668,6.0199504,6.70305
1679997307999,1177296353729790,4.7449503,5.9329505,6.5620503
1679997308001,1177296356231713,4.623,6.0600004,6.5740504
1679997308003,1177296358733785,4.6870503,5.98605,6.663
1679997308006,1177296361235708,4.6470003,5.98395,6.5790005
1679997308008,1177296363737785,4.66995,5.9880004,6.5070004
1679997308012,1177296366239708,4.68195,5.9620504,6.5400004
1679997308015,1177296368741848,4.668,6.0000005,6.5119505
1679997308017,1177296371243925,4.66305,5.8900504,6.531
1679997308019,1177296373745848,4.67805,5.9740505,6.59595
1679997308021,1177296376247925,4.65105,6.0480003,6.53595
1679997308025,1177296378749828,4.6270504,6.0409503,6.6580505
1679997308030,1177296381251905,4.479,5.9670005,6.531
1679997308030,1177296383753828,4.572,5.9880004,6.6769505
1679997308031,1177296386255982,4.54395,6.1080003,6.5670004
1679997308033,1177296388758059,4.572,6.012,6.5670004
1679997308036,1177296391259973,4.584,6.0319505,6.5809503
1679997308038,1177296393762050,4.5700502,5.991,6.6720004
1679997308041,1177296396263973,4.5480003,6.0750003,6.5449505
1679997308043,1177296398766050,4.55595,5.991,6.6870003
1679997308046,1177296401268189,4.5409503,6.111,6.59595
1679997308050,1177296403770112,4.54605,6.05805,6.543
1679997308052,1177296406272189,4.539,6.0550504,6.5929503
1679997308053,1177296408774343,4.5100503,6.1060505,6.6600003
1679997308057,1177296411276204,4.5079503,6.1009502,6.6169505
1679997308058,1177296413778358,4.5,6.1390505,6.68205
1679997308061,1177296416280281,4.54605,6.07695,6.63105
1679997308063,1177296418782358,4.4599504,6.0409503,6.6990004
1679997308067,1177296421284290,4.53195,6.0750003,6.7320004
1679997308069,1177296423786367,4.4809504,6.144,6.7440004
1679997308071,1177296426288290,4.53195,6.1540504,6.768
1679997308075,1177296428790444,4.464,6.1200004,6.71505
1679997308077,1177296431292520,4.51695,6.04395,6.71295
1679997308078,1177296433794698,4.5079503,6.19395,6.71295
1679997308080,1177296436296544,4.5480003,6.1780505,6.71295
1679997308085,1177296438798468,4.6129503,6.1270504,6.73005
1679997308089,1177296441300525,4.63005,6.084,6.6870003
1679997308091,1177296443802679,4.6200004,6.13005,6.70305
1679997308092,1177296446315987,4.584,6.111,6.8110504
1679997308095,1177296448806679,4.6729503,6.11805,6.7200003
1679997308097,1177296451308833,4.60605,6.04395,6.7180505
1679997308099,1177296453810766,4.58895,6.0480003,6.6990004
1679997308101,1177296456312612,4.704,6.0990005,6.7200003
1679997308103,1177296458814766,4.8,6.1270504,6.6150002
1679997308107,1177296461316843,4.7640004,6.012,6.7270503
1679997308109,1177296463819030,4.78095,6.0480003,6.768
1679997308111,1177296466320876,4.776,5.98605,6.68205
1679997308113,1177296468823030,4.761,6.04605,6.6600003
1679997308117,1177296471324953,4.84095,6.0480003,6.7900505
1679997308119,1177296473826799,4.8120003,6.0550504,6.7489505
1679997308121,1177296476328948,4.8019505,6.084,6.7099504
1679997308125,1177296478831102,4.761,5.9359503,6.7699504
1679997308128,1177296481333179,4.7299504,5.9479504,6.675
1679997308130,1177296483835102,4.6729503,6.0390005,6.71505
1679997308132,1177296486337203,4.7299504,6.0600004,6.7270503
1679997308134,1177296488839126,4.7179503,6.0150003,6.7990503
1679997308136,1177296491341203,4.63695,6.0100503,6.6529503
1679997308140,1177296493843126,4.56705,5.9760003,6.675
1679997308141,1177296496345280,4.67805,5.979,6.7660503
1679997308143,1177296498847348,4.6849504,6.0000005,6.7219505
1679997308147,1177296501349271,4.61805,5.99805,6.5880003
1679997308149,1177296503851348,4.6129503,5.99595,6.6910505
1679997308151,1177296506353271,4.6270504,6.07695,6.7969503
1679997308153,1177296508855362,4.60605,6.0990005,6.7320004
1679997308156,1177296511357285,4.57695,6.10305,6.6550503
1679997308158,1177296513859439,4.60605,5.9809504,6.63105
1679997308162,1177296516361516,4.5600004,6.1390505,6.6510005
1679997308167,1177296518863425,4.572,6.0199504,6.6460505
1679997308168,1177296521365502,4.6009502,6.07905,6.6049504
1679997308169,1177296523867425,4.54395,6.084,6.6940503
1679997308171,1177296526369502,4.61805,6.0940504,6.64095
1679997308173,1177296528871656,4.59105,6.012,6.7219505
1679997308176,1177296531373574,4.55805,6.0820503,6.6600003
1679997308178,1177296533875651,4.6129503,6.0750003,6.5520005
1679997308182,1177296536377574,4.59105,6.1320004,6.6649504
1679997308184,1177296538879651,4.596,6.096,6.6240005
1679997308187,1177296541381569,4.5030003,5.9599504,6.6220503
1679997308189,1177296543883646,4.35405,5.8879504,6.4540505
1679997308191,1177296546385799,4.3710003,5.8879504,6.39405
1679997308193,1177296548887953,4.4479504,6.0409503,6.5209503
1679997308196,1177296551389800,4.53405,5.99595,6.50895
1679997308200,1177296553891723,4.596,6.0199504,6.5160003
1679997308202,1177296556393876,4.6200004,6.0940504,6.59595
1679997308206,1177296558895953,4.623,6.04395,6.6390004
1679997308209,1177296561397800,4.6129503,6.0720005,6.5790005
1679997308210,1177296563900030,4.6320004,6.1009502,6.5070004
1679997308212,1177296566402107,4.6200004,6.0360003,6.5209503
1679997308213,1177296568903953,4.60605,6.19395,6.5719504
1679997308217,1177296571405876,4.6660504,6.1699505,6.531
1679997308219,1177296573908030,4.72305,6.0550504,6.7249503
1679997308223,1177296576410107,4.8,6.20205,6.5620503
1679997308224,1177296578912030,4.7779503,6.2400002,6.52395
1679997308228,1177296581414184,4.79505,6.2179503,6.6990004
1679997308229,1177296583916261,4.7140503,6.2140503,6.68205
1679997308231,1177296586418184,4.7140503,6.1459503,6.5599504
1679997308233,1177296588920256,4.80495,6.2179503,6.6150002
1679997308237,1177296591422179,4.66095,6.18195,6.5809503
1679997308239,1177296593924256,4.6129503,6.1699505,6.6000004
1679997308241,1177296596426179,4.69005,6.084,6.6870003
1679997308243,1177296598928242,4.716,6.16095,6.63105
1679997308246,1177296601430165,4.8169503,6.1750503,6.71505
1679997308248,1177296603932319,4.7470503,6.19005,6.61005
1679997308251,1177296606434473,4.8690004,6.135,6.67005
1679997308253,1177296608936319,4.848,6.11805,6.7270503
1679997308256,1177296611438376,4.8690004,6.1420503,6.5790005
1679997308259,1177296613940530,4.8570004,6.1129503,6.7200003
1679997308261,1177296616442453,4.84305,6.1750503,6.78
1679997308263,1177296618944299,4.82595,6.09105,6.8569503
1679997308267,1177296621446458,4.80495,6.1009502,6.7369504
1679997308269,1177296623948612,4.8310504,6.111,6.8299503
1679997308271,1177296626450458,4.87395,6.04605,6.7579503
1679997308275,1177296628952540,5.0080504,6.09105,6.8250003
1679997308278,1177296631454694,4.833,6.0870004,6.7939506
1679997308280,1177296633956617,4.905,6.051,6.87795
1679997308282,1177296636458463,4.8910503,5.991,6.7390504
1679997308284,1177296638960848,4.9240503,6.0649505,6.7489505
1679997308287,1177296641462747,4.977,6.0480003,6.7819505
1679997308288,1177296643964824,4.9750504,6.05805,6.6889505
1679997308291,1177296646466747,4.9360504,6.09105,6.8280005
1679997308293,1177296648968824,4.90005,6.16305,6.8250003
1679997308297,1177296651470761,4.9120502,6.012,6.7849503
1679997308299,1177296653972838,4.85505,6.0360003,6.83505
1679997308301,1177296656474992,4.9219503,6.04605,6.90705
1679997308304,1177296658976915,4.8190503,5.92605,6.8370004
1679997308307,1177296661478992,4.90005,6.0150003,6.7489505
1679997308312,1177296663980915,4.8840003,5.9479504,6.71505
1679997308315,1177296666482992,4.82595,5.9689503,6.7390504
1679997308317,1177296668984915,4.79295,5.9689503,6.7099504
1679997308319,1177296671487068,4.8310504,6.0199504,6.6840005
1679997308321,1177296673989145,4.7730002,6.0199504,6.7489505
1679997308322,1177296676491069,4.833,5.979,6.62895
1679997308324,1177296678993145,4.716,5.9430003,6.7369504
1679997308327,1177296681495069,4.73295,5.979,6.6169505
1679997308329,1177296683997131,4.788,6.1060505,6.6910505
1679997308331,1177296686499055,4.761,6.0270004,6.6990004
1679997308334,1177296689001208,4.7569504,6.012,6.6550503
1679997308337,1177296691503285,4.776,5.98395,6.5880003
1679997308339,1177296694005208,4.7449503,6.07695,6.67005
1679997308341,1177296696507280,4.6750503,6.07695,6.675
1679997308344,1177296699009203,4.7059503,6.1129503,6.591
1679997308347,1177296701511280,4.6969504,5.9929504,6.6000004
1679997308351,1177296704013218,4.7380505,6.1369505,6.6790504
1679997308353,1177296706515372,4.7179503,5.9929504,6.663
1679997308355,1177296709017449,4.728,6.0670505,6.6940503
1679997308357,1177296711519603,4.6969504,6.0150003,6.73005
1679997308359,1177296714021449,4.6540504,6.10305,6.77295
1679997308361,1177296716523372,4.7299504,6.1080003,6.6940503
1679997308366,1177296719025449,4.6750503,6.0409503,6.56895
1679997308367,1177296721527680,4.6870503,6.1150503,6.7920003
1679997308372,1177296724029526,4.656,6.1009502,6.70305
1679997308373,1177296726531690,4.66995,6.0820503,6.73395
1679997308374,1177296729033767,4.6990504,6.0340505,6.6670504
1679997308377,1177296731535690,4.7260504,6.0720005,6.6720004
1679997308379,1177296734037536,4.8120003,6.08895,6.73395
1679997308381,1177296736539680,4.78305,6.1150503,6.71295
1679997308385,1177296739041834,4.7520003,6.1060505,6.7510505
1679997308390,1177296741543680,4.776,6.04605,6.56895
1679997308392,1177296744044771,4.6920004,6.13005,6.6790504
1679997308392,1177296746545848,4.84305,6.11805,6.6990004
1679997308395,1177296749049848,4.8240004,6.1369505,6.636
1679997308397,1177296751551694,4.86,6.1129503,6.5599504
1679997308399,1177296754053848,4.848,6.144,6.7099504
1679997308401,1177296756556002,4.91505,6.1750503,6.603
1679997308404,1177296759058074,4.833,6.144,6.6150002
1679997308408,1177296761559997,4.9339504,6.0820503,6.5860505
1679997308408,1177296764062074,4.8520503,6.156,6.59805
1679997308411,1177296766563997,4.89795,6.14895,6.591
1679997308416,1177296769066079,4.8499503,6.19395,6.6769505
1679997308419,1177296772030694,4.87395,6.09105,6.5839505
1679997308420,1177296774383002,4.8499503,6.18195,6.6220503
1679997308421,1177296776572233,4.8169503,6.09105,6.4180503
1679997308426,1177296779074180,4.80495,6.1200004,6.5479503
1679997308429,1177296781576334,4.7970004,6.0820503,6.56895
1679997308431,1177296786578410,4.7449503,6.0990005,6.6169505
1679997308432,1177296786717487,4.7590504,5.9929504,6.56895
1679997308435,1177296789082424,4.8120003,6.0550504,6.55695
1679997308437,1177296791584348,4.7779503,5.9740505,6.59595
1679997308439,1177296794086424,4.788,6.0199504,6.5880003
1679997308441,1177296796588348,4.8169503,5.92605,6.5929503
1679997308444,1177296799090492,4.7470503,6.0940504,6.60795
1679997308446,1177296801592569,4.78305,5.9020505,6.4090505
1679997308448,1177296804094492,4.7299504,6.084,6.60795
1679997308451,1177296806596569,4.7400002,5.99595,6.53595
1679997308454,1177296809098510,4.73295,6.111,6.5449505
1679997308456,1177296811600587,4.82595,6.012,6.6910505
1679997308458,1177296814102510,4.72095,6.04605,6.696
1679997308462,1177296816604664,4.716,6.0670505,6.5119505
1679997308466,1177296819106741,4.7140503,6.084,6.7440004
1679997308468,1177296821608664,4.7779503,6.1009502,6.6720004
1679997308469,1177296824110741,4.6540504,6.0870004,6.576
1679997308471,1177296826612664,4.65105,6.1009502,6.62895
1679997308474,1177296829114741,4.8619504,6.1699505,6.6120005
1679997308476,1177296831616963,4.809,6.0750003,6.7060504
1679997308478,1177296834118809,4.8190503,6.16305,6.74595
1679997308482,1177296836620886,4.78305,6.1540504,6.7060504
1679997308485,1177296839122809,4.9080005,6.1270504,6.70305
1679997308487,1177296841624886,4.84095,6.123,6.7969503
1679997308489,1177296844126809,4.86705,6.1060505,6.67005
1679997308491,1177296846628886,4.977,6.024,6.7390504
1679997308494,1177296849131117,4.9630504,5.9929504,6.78
1679997308496,1177296851632963,4.8840003,6.0409503,6.84495
1679997308500,1177296854135068,4.9099503,6.02895,6.74595
1679997308501,1177296856636991,4.8790503,5.98395,6.8040004
1679997308504,1177296859139145,4.91505,6.0079503,6.76095
1679997308507,1177296861640991,5.04195,5.9500504,6.9210005
1679997308509,1177296864143068,4.9170003,6.0079503,6.86595
1679997308511,1177296866645309,4.9099503,6.0529504,6.8230505
1679997308514,1177296869147386,4.88595,6.01695,6.7630506
1679997308517,1177296871649232,4.89795,5.8900504,6.74595
1679997308519,1177296874151155,4.92,5.9929504,6.8490005
1679997308521,1177296876653315,4.8690004,5.9740505,6.7440004
1679997308524,1177296879155392,4.94595,5.99595,6.7699504
1679997308527,1177296881657546,4.8360004,5.91405,6.7699504
1679997308529,1177296884159469,4.90005,6.0079503,6.74205
1679997308531,1177296886661546,4.8640504,5.9670005,6.6840005
1679997308534,1177296889163469,4.8690004,6.0940504,6.71505
1679997308538,1177296891665546,4.8019505,6.0270004,6.675
1679997308540,1177296894167469,4.8619504,5.95695,6.6150002
1679997308542,1177296896669560,4.7569504,6.0270004,6.73395
1679997308545,1177296899171713,4.82595,6.0030003,6.71295
1679997308548,1177296901673637,4.7779503,5.9929504,6.5880003
1679997308551,1177296904175714,4.7400002,6.02895,6.64305
1679997308551,1177296906677637,4.74195,5.9740505,6.543
1679997308554,1177296909179719,4.7710505,6.0030003,6.5520005
1679997308556,1177296911681642,4.7449503,5.9500504,6.5160003
1679997308558,1177296914183719,4.7380505,5.9430003,6.53595
1679997308561,1177296916685872,4.716,6.04605,6.5119505
1679997308565,1177296919187786,4.7179503,6.02895,6.4830003
1679997308566,1177296921689863,4.53195,5.9760003,6.4879503
1679997308568,1177296924191786,4.6729503,5.9599504,6.4900503
1679997308571,1177296926693863,4.704,5.964,6.4470005
1679997308576,1177296929195814,4.6270504,6.0390005,6.49305
1679997308577,1177296931697968,4.6800003,6.04395,6.53595
1679997308579,1177296934200045,4.67805,6.0409503,6.46605
1679997308581,1177296936701968,4.6420503,6.0270004,6.53595
1679997308585,1177296939204045,4.6540504,6.1249504,6.4759502
1679997308587,1177296941705977,4.63695,6.09105,6.4879503
1679997308591,1177296944208054,4.668,6.04605,6.52395
1679997308591,1177296946709977,4.73295,6.0649505,6.5719504
1679997308594,1177296949212131,4.6249504,6.063,6.59805
1679997308596,1177296951714180,4.70895,6.0150003,6.5140505
1679997308598,1177296954216103,4.65105,6.0000005,6.5449505
1679997308601,1177296956718180,4.6579504,6.09105,6.5670004
1679997308604,1177296959220103,4.6200004,6.07695,6.5020504
1679997308607,1177296961722137,4.73505,6.11805,6.543
1679997308609,1177296964224291,4.656,6.0940504,6.47805
1679997308613,1177296966726214,4.7730002,6.0820503,6.5599504
1679997308616,1177296969228291,4.7299504,6.156,6.5670004
1679997308617,1177296971730214,4.7260504,6.1540504,6.6840005
1679997308621,1177296974232291,4.656,6.096,6.5500503
1679997308621,1177296976734445,4.7380505,6.1579504,6.63105
1679997308625,1177296979236368,4.8169503,6.14895,6.7489505
1679997308628,1177296981738445,4.7449503,6.1969504,6.768
1679997308630,1177296984240368,4.7470503,6.1270504,6.7849503
1679997308632,1177296986742445,4.7470503,6.0820503,6.7200003
1679997308635,1177296989244368,4.79295,6.135,6.7990503
1679997308637,1177296991746522,4.75395,6.156,6.7270503
1679997308641,1177296994248575,4.78305,6.111,6.7489505
1679997308642,1177296996750498,4.8240004,6.1129503,6.7270503
1679997308644,1177296999252575,4.8499503,6.13005,6.74205
1679997308647,1177297001754498,4.88595,6.1800003,6.8370004
1679997308650,1177297004256560,4.8169503,6.1200004,6.7390504
1679997308652,1177297006758483,4.881,6.1270504,6.59805
1679997308655,1177297009260637,4.87395,6.1870503,6.8250003
1679997308657,1177297011762714,4.83795,6.1420503,6.7320004
1679997308659,1177297014264637,4.872,6.1369505,6.7699504
1679997308661,1177297016766700,4.8640504,6.0270004,6.73395
1679997308666,1177297019268623,4.97895,6.04605,6.768
1679997308668,1177297021770777,4.9669504,6.0340505,6.7440004
1679997308669,1177297024272854,5.01105,6.0550504,6.7990503
1679997308671,1177297026774762,4.9240503,5.95695,6.84705
1679997308674,1177297029276915,4.8790503,6.0220504,6.76095
1679997308676,1177297031778992,4.96005,6.0220504,6.8640003
1679997308679,1177297034280839,4.8120003,5.9689503,6.8710504
1679997308681,1177297036782978,4.88595,6.012,6.8230505
1679997308685,1177297039284902,4.821,6.012,6.8640003
1679997308688,1177297041787055,4.88595,6.0700502,6.8179502
1679997308689,1177297044288902,4.97205,6.0360003,6.8569503
1679997308692,1177297046791050,4.9360504,6.0319505,6.8590503
1679997308695,1177297049293127,4.9290004,5.9479504,6.7969503
1679997308697,1177297051795050,4.8640504,6.0529504,6.8809505
1679997308699,1177297054297127,4.95795,6.0409503,6.8419504
1679997308702,1177297056799050,4.977,6.0990005,6.8490005
1679997308706,1177297059301204,4.88595,6.0409503,6.73005
1679997308707,1177297061803281,5.058,5.9760003,6.76095
1679997308709,1177297064305204,4.9360504,6.02895,6.7870502
1679997308711,1177297066807281,4.94595,5.99595,6.7990503
1679997308715,1177297069309175,4.92,5.8879504,6.8590503
1679997308717,1177297071811252,5.02005,5.9599504,6.7969503
1679997308719,1177297074313406,5.03205,6.0550504,6.74205
1679997308721,1177297076815329,4.97205,6.024,6.64305
1679997308727,1177297079317401,4.905,6.0409503,6.6889505
1679997308728,1177297081819324,5.00295,5.907,6.7780504
1679997308730,1177297084321401,5.0680504,5.9880004,6.663
1679997308732,1177297086823315,4.9669504,5.9599504,6.6990004
1679997308736,1177297089325392,4.9170003,5.964,6.6270003
1679997308737,1177297091827546,4.9290004,5.91195,6.5880003
1679997308739,1177297094329469,4.905,5.9380503,6.6150002
1679997308741,1177297096831546,4.8019505,5.9670005,6.6220503
1679997308746,1177297099333445,4.7970004,5.9689503,6.56895
1679997308747,1177297101835522,4.81395,6.0340505,6.6190505
1679997308749,1177297104337445,4.8450003,5.9430003,6.5500503
1679997308751,1177297106839522,4.75395,5.95695,6.6529503
1679997308754,1177297109341676,4.704,5.9479504,6.64305
1679997308758,1177297111843565,4.5990005,5.98605,6.5860505
1679997308759,1177297114345642,4.6849504,5.98395,6.5400004
1679997308763,1177297116847565,4.69005,5.9479504,6.46605
1679997308767,1177297119349719,4.66305,5.9380503,6.47805
1679997308768,1177297121851570,4.6080003,5.9359503,6.6000004
1679997308769,1177297124353724,4.6200004,5.92395,6.59805
1679997308773,1177297126855801,4.644,5.9170504,6.4830003
1679997308775,1177297129357724,4.6080003,5.931,6.46395
1679997308777,1177297131859801,4.6249504,5.9170504,6.6120005
1679997308779,1177297134361974,4.563,5.87295,6.5740504
1679997308783,1177297136863897,4.6080003,5.979,6.5280004
1679997308785,1177297139365743,4.6270504,5.9430003,6.5860505
1679997308788,1177297141867897,4.6660504,5.9430003,6.5479503
1679997308789,1177297144370041,4.61805,5.8900504,6.46395
1679997308793,1177297146872117,4.6800003,5.9089503,6.50895
1679997308795,1177297149373964,4.7380505,5.9670005,6.5719504
1679997308797,1177297151876194,4.6320004,5.9689503,6.50895
1679997308800,1177297154377998,4.8120003,6.0940504,6.6870003
1679997308802,1177297156880074,4.75395,5.92605,6.5599504
1679997308808,1177297159381998,4.75395,5.9929504,6.6720004
1679997308808,1177297161884151,4.7730002,5.991,6.5719504
1679997308810,1177297164385998,4.7730002,5.8999505,6.5599504
1679997308811,1177297166888090,4.848,6.0360003,6.55695
1679997308816,1177297169390320,4.809,5.9020505,6.5860505
1679997308817,1177297171892166,4.80495,5.9670005,6.6840005
1679997308819,1177297174394320,4.7590504,5.964,6.663
1679997308821,1177297176896411,4.79295,5.9329505,6.67005
1679997308825,1177297179398334,4.833,5.8759503,6.591
1679997308828,1177297181900180,4.8840003,5.8950005,6.6240005
1679997308830,1177297184402565,4.848,5.8999505,6.71295
1679997308832,1177297186904488,4.7569504,6.0049505,6.7819505
1679997308835,1177297189406575,4.7850003,6.012,6.696
1679997308838,1177297191908498,4.8619504,6.012,6.7320004
1679997308840,1177297194410575,4.84095,5.92395,6.73395
1679997308842,1177297196912483,4.8240004,5.95695,6.6720004
1679997308845,1177297199414560,4.953,5.9670005,6.7320004
1679997308847,1177297201916714,4.833,6.0030003,6.7200003
1679997308849,1177297204418637,4.85505,6.0670505,6.83505
1679997308851,1177297206920714,4.8619504,6.08895,6.8569503
1679997308854,1177297209422647,4.92705,6.1849504,6.8809505
1679997308856,1177297211924724,4.82595,6.0649505,6.8209505
1679997308859,1177297214426647,4.84095,6.10305,6.8160005
1679997308862,1177297216928724,4.8790503,6.09105,6.8970003
1679997308865,1177297219430878,4.9099503,6.156,6.768
1679997308867,1177297221932801,4.96005,6.1780505,6.8689504
1679997308869,1177297224434878,4.9960504,6.135,6.93795
1679997308871,1177297226936801,4.95795,6.1150503,6.8640003
1679997308876,1177297229438878,4.9960504,6.1699505,6.8610005
1679997308878,1177297231940801,4.9750504,6.19395,6.74595
1679997308880,1177297234442955,5.109,6.2110505,6.8179502
1679997308882,1177297236945032,5.02995,6.16305,6.64305
1679997308885,1177297239446969,4.932,6.0720005,6.7560005
1679997308888,1177297241949046,4.953,6.1009502,6.7990503
1679997308889,1177297244450969,4.932,6.1729503,6.7099504
1679997308892,1177297246953046,4.8960004,6.1009502,6.80205
1679997308895,1177297249454969,4.9890003,6.0750003,6.708
1679997308897,1177297251957137,4.92705,6.05805,6.7200003
1679997308899,1177297254459214,4.89795,6.04605,6.6889505
1679997308901,1177297256961368,4.893,6.1459503,6.6169505
1679997308906,1177297259463238,4.89795,6.123,6.6580505
1679997308907,1177297261965161,4.9510503,6.01695,6.6510005
1679997308909,1177297264467238,4.872,6.02895,6.5740504
1679997308913,1177297266969468,4.84305,6.04605,6.6049504
1679997308916,1177297269471315,4.833,5.9479504,6.6340504
1679997308917,1177297271973397,4.7779503,5.9760003,6.6270003
1679997308920,1177297274475550,4.6969504,6.0049505,6.636
1679997308923,1177297276977473,4.78305,6.0199504,6.64095
1679997308926,1177297279479320,4.704,6.024,6.5809503
1679997308928,1177297281981488,4.6320004,5.98395,6.5550003
1679997308931,1177297284483642,4.7140503,5.98605,6.6460505
1679997308933,1177297286985488,4.63695,6.0720005,6.5280004
1679997308936,1177297289487565,4.57695,6.04395,6.49695
1679997308937,1177297291989714,4.5940504,6.19005,6.5520005
1679997308939,1177297294491637,4.55595,6.144,6.5740504
1679997308941,1177297296993484,4.56495,6.09105,6.5329504
1679997308945,1177297299495637,4.50495,6.1129503,6.5500503
1679997308947,1177297301997781,4.5100503,6.19395,6.3780003
1679997308951,1177297304499858,4.512,6.156,6.3900003
1679997308952,1177297307001781,4.53195,6.2040005,6.4999504
1679997308955,1177297309503858,4.4880004,6.1969504,6.3439503
1679997308957,1177297312005781,4.5529504,6.18195,6.5400004
1679997308959,1177297314507858,4.4809504,6.1420503,6.4489503
1679997308961,1177297317010012,4.4380503,6.2110505,6.4540505
1679997308966,1177297319511935,4.44495,6.2400002,6.4830003
1679997308967,1177297322014012,4.4599504,6.2419505,6.4830003
1679997308969,1177297324515964,4.51695,6.2419505,6.5479503
1679997308971,1177297327018041,4.55595,6.261,6.531
1679997308974,1177297329519964,4.5820503,6.2299504,6.64305
1679997308976,1177297332022118,4.6320004,6.2400002,6.6340504
1679997308979,1177297334524209,4.5529504,6.1699505,6.5880003
1679997308981,1177297337026055,4.5529504,6.18195,6.5839505
1679997308985,1177297339528209,4.66995,6.2110505,6.6150002
1679997308989,1177297342030132,4.69395,6.23295,6.6769505
1679997308990,1177297344532224,4.6579504,6.261,6.59595
1679997308992,1177297347034378,4.6969504,6.168,6.7099504
1679997308995,1177297349536301,4.7260504,6.14895,6.5740504
1679997308997,1177297352038378,4.788,6.2059503,6.663
1679997308999,1177297354540286,4.7179503,6.2689505,6.5860505
1679997309001,1177297357042363,4.761,6.1459503,6.71295
1679997309005,1177297359544286,4.8640504,6.1969504,6.8089504
1679997309007,1177297362046440,4.7970004,6.156,6.74205
1679997309009,1177297364548517,4.8240004,6.1249504,6.67005
1679997309011,1177297367050455,4.89795,6.144,6.873
1679997309015,1177297369552532,4.8690004,6.1990504,6.7249503
1679997309017,1177297372054455,4.761,6.15105,6.675
1679997309019,1177297374556532,4.9170003,6.123,6.6910505
1679997309022,1177297377058676,4.8910503,6.1060505,6.64305
1679997309027,1177297379560599,4.8310504,6.08895,6.7510505
1679997309030,1177297382061632,4.84095,6.1459503,6.7219505
1679997309030,1177297384562671,4.8690004,6.1459503,6.7369504
1679997309032,1177297387066670,4.96995,6.0990005,6.70095
1679997309035,1177297389568593,4.97895,6.0319505,6.80595
1679997309037,1177297392070670,4.94805,6.0270004,6.7200003
1679997309040,1177297394572823,4.94805,6.0720005,6.6529503
1679997309041,1177297397074767,4.905,6.1200004,6.6769505
1679997309045,1177297399576843,4.8619504,6.0199504,6.7489505
1679997309047,1177297402078767,4.8570004,6.08895,6.74205
1679997309049,1177297404580843,4.8910503,6.135,6.62895
1679997309052,1177297407082733,4.84305,6.2419505,6.6910505
1679997309055,1177297409584809,4.8960004,6.1200004,6.7200003
1679997309057,1177297412086963,4.776,6.111,6.5790005
1679997309060,1177297414588886,4.8790503,6.1080003,6.696
1679997309064,1177297417090944,4.80495,6.0820503,6.5740504
1679997309067,1177297419593098,4.7569504,6.2059503,6.7320004
1679997309069,1177297422094944,4.7899504,6.18195,6.6720004
1679997309071,1177297424596867,4.82595,6.1750503,6.6889505
1679997309073,1177297427099021,4.7779503,6.2140503,6.6240005
1679997309075,1177297429601147,4.7520003,6.1969504,6.71295
1679997309077,1177297432102993,4.668,6.1870503,6.6240005
1679997309080,1177297434605070,4.75395,6.1540504,6.6940503
1679997309083,1177297437107224,4.7449503,6.18195,6.5670004
1679997309085,1177297439609147,4.6470003,6.2260504,6.5599504
1679997309087,1177297442110993,4.72305,6.1750503,6.6769505
1679997309089,1177297444613378,4.65105,6.2470503,6.5809503
1679997309093,1177297447115301,4.716,6.20205,6.56895
1679997309095,1177297449617378,4.67805,6.1459503,6.64095
1679997309097,1177297452119296,4.623,6.1849504,6.591
1679997309101,1177297454621373,4.72305,6.1849504,6.7579503
1679997309103,1177297457123296,4.75395,6.1969504,6.6120005
1679997309106,1177297459625363,4.74195,6.16095,6.64305
1679997309108,1177297462127517,4.7779503,6.10305,6.6769505
1679997309112,1177297464629440,4.66305,6.14895,6.6390004
1679997309113,1177297467131517,4.73505,6.09105,6.6600003
1679997309115,1177297469633440,4.66095,6.0390005,6.7440004
1679997309117,1177297472135527,4.7689505,6.0319505,6.6460505
1679997309119,1177297474637450,4.7590504,6.0340505,6.6529503
1679997309122,1177297477139604,4.74195,6.0199504,6.6460505
1679997309125,1177297479641681,4.716,6.012,6.591
1679997309127,1177297482143609,4.7449503,6.02895,6.70095
1679997309129,1177297484645686,4.8619504,6.01695,6.59595
1679997309132,1177297487147609,4.8360004,5.9929504,6.7099504
1679997309135,1177297489649686,4.7730002,6.0049505,6.6000004
1679997309138,1177297492151628,4.83795,5.9550004,6.5839505
1679997309140,1177297494653782,4.905,5.9359503,6.5280004
1679997309142,1177297497155859,4.8240004,5.9689503,6.5880003
1679997309146,1177297499657782,4.7970004,5.9500504,6.63105
1679997309149,1177297502159859,4.78305,5.95305,6.64305
1679997309150,1177297504661772,4.7590504,5.9760003,6.6220503
1679997309152,1177297507163849,4.8640504,6.0199504,6.53805
1679997309155,1177297509666002,4.7260504,5.9689503,6.5070004
1679997309157,1177297512167926,4.7710505,6.0390005,6.53805
1679997309159,1177297514670002,4.70205,6.0199504,6.5449505
1679997309162,1177297517171912,4.79505,5.91405,6.5500503
1679997309165,1177297519673989,4.7730002,5.8969502,6.64095
1679997309167,1177297522176142,4.7899504,5.97195,6.5500503
1679997309169,1177297524678065,4.776,5.9929504,6.6550503
1679997309172,1177297527180142,4.7899504,6.0319505,6.543
1679997309176,1177297529682065,4.776,6.0220504,6.564
1679997309178,1177297532184142,4.8520503,6.05805,6.5880003
1679997309180,1177297534686031,4.76595,6.012,6.6150002
1679997309183,1177297537188185,4.75395,6.0700502,6.5809503
1679997309186,1177297539690262,4.833,6.09105,6.6649504
1679997309188,1177297542192185,4.7730002,5.9329505,6.6049504
1679997309190,1177297544694262,4.7520003,6.096,6.6220503
1679997309192,1177297547196214,4.79295,6.02895,6.708
1679997309195,1177297549698368,4.7569504,6.144,6.7060504
1679997309197,1177297552200214,4.72095,6.04395,6.61005
1679997309199,1177297554702368,4.7850003,6.1200004,6.6390004
1679997309201,1177297557204522,4.7400002,6.1129503,6.7900505
1679997309205,1177297559706368,4.75395,6.1129503,6.6510005
1679997309207,1177297562208445,4.7449503,6.1129503,6.6910505
1679997309209,1177297564710368,4.78305,6.1369505,6.64305
1679997309213,1177297567212493,4.75005,6.0340505,6.71295
1679997309223,1177297569714339,4.87395,6.1249504,6.71295
1679997309223,1177297572216493,4.7850003,6.09105,6.7180505
1679997309223,1177297574718647,4.80705,6.1320004,6.6649504
1679997309223,1177297577220724,4.8019505,6.04605,6.76095
1679997309226,1177297579722613,4.83795,6.1870503,6.8179502
1679997309228,1177297582224767,4.8360004,6.111,6.7780504
1679997309229,1177297584726690,4.86705,6.0750003,6.7249503
1679997309232,1177297587228844,4.85505,6.1369505,6.6390004
1679997309235,1177297589730695,4.9080005,6.16305,6.6270003
1679997309236,1177297592232849,4.94805,6.1729503,6.7390504
1679997309239,1177297594734926,4.91505,6.0940504,6.6870003
1679997309241,1177297597236849,4.85505,6.0360003,6.663
1679997309245,1177297599738926,4.9360504,6.1060505,6.6649504
1679997309247,1177297602240849,4.93905,6.0820503,6.6550503
1679997309250,1177297604743003,4.953,6.1009502,6.59805
1679997309252,1177297607245080,4.953,6.1540504,6.7320004
1679997309255,1177297609746988,4.84095,6.1270504,6.55695
1679997309257,1177297612249065,4.94595,6.0750003,6.6340504
1679997309260,1177297614750988,5.0010004,6.1369505,6.6550503
1679997309262,1177297617253065,4.7520003,6.1200004,6.6529503
1679997309266,1177297619755214,4.86,6.02895,6.7320004
1679997309268,1177297622257137,4.79295,6.08895,6.5599504
1679997309269,1177297624759214,4.821,6.0649505,6.5599504
1679997309272,1177297627261137,4.8120003,6.08895,6.603
1679997309275,1177297629763214,4.7899504,6.0670505,6.6529503
1679997309277,1177297632265157,4.7569504,6.1660504,6.63105
1679997309279,1177297634767234,4.7590504,6.1080003,6.4420505
1679997309281,1177297637269387,4.72305,6.1390505,6.6150002
1679997309285,1177297639771310,4.761,6.1249504,6.636
1679997309289,1177297642273387,4.6849504,6.1249504,6.5839505
1679997309291,1177297644775311,4.6920004,6.1699505,6.4570503
1679997309292,1177297647277387,4.7380505,6.1060505,6.531
1679997309295,1177297649779311,4.668,6.05805,6.5140505
1679997309297,1177297652281387,4.635,6.1870503,6.5479503
1679997309299,1177297654783603,4.656,6.1320004,6.4729505
1679997309302,1177297657285449,4.6270504,6.0700502,6.53595
1679997309305,1177297659787526,4.623,6.13005,6.56895
1679997309308,1177297662289449,4.623,6.02895,6.5449505
1679997309309,1177297664791521,4.61805,6.04395,6.4830003
1679997309312,1177297667293444,4.55595,6.123,6.5449505
1679997309316,1177297669795598,4.5870004,6.0870004,6.5479503
1679997309317,1177297672297752,4.55805,6.07695,6.5119505
1679997309319,1177297674799598,4.59105,6.18195,6.5880003
1679997309322,1177297677301670,4.47405,6.1150503,6.5070004
1679997309327,1177297679803824,4.53195,6.1200004,6.6550503
1679997309329,1177297682305747,4.57695,6.063,6.42495
1679997309331,1177297684807603,4.5940504,6.1129503,6.5670004
1679997309333,1177297687309988,4.551,6.07905,6.4830003
1679997309335,1177297689811911,4.4599504,6.09105,6.5479503
1679997309337,1177297692313988,4.551,6.0480003,6.49305
1679997309339,1177297694815834,4.53195,6.1420503,6.6480002
1679997309341,1177297697318007,4.5360003,6.1750503,6.62895
1679997309346,1177297699819930,4.5480003,6.0270004,6.6390004
1679997309349,1177297702322007,4.5030003,6.0480003,6.6169505
1679997309350,1177297704823930,4.54605,6.0990005,6.5329504
1679997309352,1177297707326026,4.596,6.08895,6.5929503
1679997309355,1177297709827949,4.57905,6.13005,6.6550503
1679997309357,1177297712330103,4.524,6.10305,6.61005
1679997309359,1177297714832180,4.63905,6.1270504,6.6120005
1679997309363,1177297717334089,4.668,6.1249504,6.7320004
1679997309366,1177297719836243,4.6729503,6.18195,6.64305
1679997309368,1177297722338320,4.6729503,6.15105,6.5880003
1679997309370,1177297724840166,4.7590504,6.1369505,6.708
1679997309372,1177297727342320,4.8169503,6.07695,6.7320004
1679997309375,1177297729844479,4.7710505,6.1129503,6.708
1679997309377,1177297732346325,4.833,6.1080003,6.71295
1679997309379,1177297734848248,4.872,6.0409503,6.74595
1679997309382,1177297737350402,4.95795,6.1060505,6.663
1679997309386,1177297739852488,4.9240503,6.02895,6.7270503
1679997309387,1177297742354411,5.0149503,6.04395,6.768
1679997309389,1177297744856488,4.9939504,6.024,6.68205
1679997309391,1177297747358641,5.01105,6.1459503,6.885
1679997309395,1177297749860556,5.013,6.04605,6.7489505
1679997309397,1177297752362632,5.04405,6.0360003,6.6940503
1679997309401,1177297754864556,5.04405,6.0049505,6.76095
1679997309402,1177297757366632,5.1109505,6.0360003,6.8089504
1679997309406,1177297759868570,5.0539503,5.9050503,6.78
1679997309407,1177297762370646,4.9669504,6.0049505,6.7060504
1679997309409,1177297764872800,4.99095,5.98395,6.6510005
1679997309411,1177297767374723,5.0730004,5.99805,6.6670504
1679997309414,1177297769876800,4.96995,5.94495,6.708
