system_ts_ms, sensor_ts_ns, gyrX, gyrY, gyrZ
1679997265509,1177253859280784,-0.679525,-0.280775,-0.352
1679997265509,1177253861783014,-0.6554625,-0.36574998,-0.370975
1679997265510,1177253864285091,-0.613525,-0.440825,-0.3751
1679997265511,1177253866787019,-0.5665,-0.50985,-0.3669875
1679997265514,1177253869289096,-0.508475,-0.57475,-0.3480125
1679997265516,1177253871791019,-0.4565,-0.6378625,-0.326975
1679997265525,1177253874293096,-0.4024625,-0.7088125,-0.3070375
1679997265525,1177253876795028,-0.34553748,-0.7937875,-0.2761
1679997265525,1177253879297182,-0.2875125,-0.88385,-0.2470875
1679997265527,1177253881799259,-0.23155,-0.9777625,-0.21807499
1679997265529,1177253884301182,-0.173525,-1.0748374,-0.185075
1679997265531,1177253886803259,-0.112475,-1.160775,-0.152075
1679997265535,1177253889305197,-0.0495,-1.23585,-0.1150875
1679997265536,1177253891807274,0.0094875,-1.292775,-0.075075
1679997265539,1177253894309197,0.068475,-1.3407625,-0.033
1679997265541,1177253896811351,0.1285625,-1.386825,0.007975
1679997265545,1177253899313437,0.189475,-1.42285,0.0479875
1679997265547,1177253901815360,0.2585,-1.446775,0.086899996
1679997265548,1177253904317437,0.3254625,-1.4477375,0.1159125
1679997265552,1177253906819668,0.3975125,-1.4277999,0.139975
1679997265555,1177253909321514,0.4574625,-1.38875,0.1579875
1679997265556,1177253911823601,0.5135625,-1.320825,0.168025
1679997265559,1177253914325755,0.5575625,-1.24575,0.1689875
1679997265562,1177253916827678,0.6105,-1.16875,0.1689875
1679997265566,1177253919329755,0.657525,-1.08185,0.16293749
1679997265570,1177253921831716,0.7005625,-1.0008625,0.14795
1679997265570,1177253924333870,0.739475,-0.913825,0.1309
1679997265571,1177253926835947,0.783475,-0.8248625,0.111925
1679997265574,1177253929337870,0.8265125,-0.7448375,0.0829125
1679997265576,1177253931839947,0.860475,-0.6667375,0.055
1679997265579,1177253934341870,0.8974625,-0.5957875,0.0199375
1679997265581,1177253936843947,0.9295,-0.53185,-0.0210375
1679997265586,1177253939346101,0.9585125,-0.467775,-0.061049998
1679997265587,1177253941848048,0.9755625,-0.4178625,-0.102025
1679997265589,1177253944350125,0.9895875,-0.3708375,-0.143
1679997265591,1177253946852048,0.998525,-0.3207875,-0.1830125
1679997265595,1177253949354125,0.99549997,-0.275825,-0.2160125
1679997265596,1177253951856048,0.987525,-0.2248125,-0.253
1679997265599,1177253954358202,0.9755625,-0.176825,-0.2880625
1679997265603,1177253956860278,0.9585125,-0.1337875,-0.3180375
1679997265605,1177253959362432,0.9304625,-0.10285,-0.3449875
1679997265607,1177253961864355,0.8974625,-0.0757625,-0.374
1679997265608,1177253964366427,0.8644625,-0.0518375,-0.3999875
1679997265611,1177253966868350,0.8204625,-0.038775,-0.4191
1679997265615,1177253969370427,0.772475,-0.038775,-0.43505
1679997265616,1177253971872581,0.7214625,-0.0418,-0.44701248
1679997265620,1177253974374500,0.6675625,-0.0518375,-0.4610375
1679997265621,1177253976876577,0.613525,-0.0658625,-0.473
1679997265626,1177253979378500,0.563475,-0.08085,-0.4851
1679997265627,1177253981880577,0.5165875,-0.0968,-0.4940375
1679997265629,1177253984382490,0.4714875,-0.1148125,-0.5020125
1679997265631,1177253986884567,0.426525,-0.1387375,-0.5160375
1679997265636,1177253989386721,0.3834875,-0.1648625,-0.526075
1679997265637,1177253991888644,0.3394875,-0.2028125,-0.535975
1679997265640,1177253994390721,0.29755,-0.24585,-0.5511
1679997265642,1177253996892644,0.25547498,-0.291775,-0.5630625
1679997265645,1177253999394798,0.2154625,-0.3427875,-0.575025
1679997265646,1177254001896875,0.18053749,-0.390775,-0.592075
1679997265649,1177254004398721,0.1475375,-0.4467375,-0.6070625
1679997265653,1177254006900932,0.1084875,-0.5038,-0.619025
1679997265655,1177254009403009,0.0724625,-0.566775,-0.623975
1679997265656,1177254011904932,0.0394625,-0.62273747,-0.62205
1679997265659,1177254014407009,0.0105875,-0.67485,-0.6150375
1679997265661,1177254016908946,-0.0144375,-0.7148625,-0.60101247
1679997265666,1177254019411023,-0.0394625,-0.7478625,-0.586025
1679997265670,1177254021913177,-0.0664125,-0.77275,-0.568975
1679997265670,1177254024415100,-0.090475,-0.77275,-0.548075
1679997265671,1177254026917177,-0.1115125,-0.75185,-0.5319875
1679997265676,1177254029419100,-0.13145,-0.698775,-0.51301247
1679997265677,1177254031921177,-0.1494625,-0.5938625,-0.4989875
1679997265679,1177254034423100,-0.162525,-0.4448125,-0.4890875
1679997265681,1177254036925177,-0.1775125,-0.27981248,-0.49101248
1679997265687,1177254039427408,-0.20047499,-0.1307625,-0.4989875
1679997265687,1177254041929484,-0.2325125,-0.0078375,-0.517
1679997265689,1177254044431331,-0.2644125,0.082225,-0.54202497
1679997265691,1177254046933484,-0.2875125,0.13213749,-0.5759875
1679997265694,1177254049435403,-0.29645,0.1332375,-0.625075
1679997265696,1177254051937479,-0.2924625,0.100237496,-0.6730625
1679997265699,1177254054439403,-0.2814625,0.0471625,-0.7299875
1679997265703,1177254056941556,-0.2594625,-0.0108624995,-0.7880125
1679997265705,1177254059443643,-0.22453749,-0.058849998,-0.8460375
1679997265707,1177254061945566,-0.1794375,-0.082775,-0.905025
1679997265709,1177254064447643,-0.1335125,-0.082775,-0.9640125
1679997265711,1177254066949566,-0.0884125,-0.058849998,-1.0140625
1679997265716,1177254069451643,-0.0345125,-0.0198,-1.067
1679997265721,1177254071953797,0.01155,0.0221375,-1.1121
1679997265721,1177254074455720,0.0515625,0.06215,-1.1490875
1679997265722,1177254076957797,0.0875875,0.0881375,-1.180025
1679997265725,1177254079459951,0.1115125,0.1051875,-1.2001
1679997265727,1177254081961768,0.1335125,0.122237496,-1.2120625
1679997265729,1177254084463691,0.1425875,0.13213749,-1.217975
1679997265731,1177254086965845,0.1535875,0.1332375,-1.213025
1679997265736,1177254089467922,0.15853749,0.14025,-1.1980375
1679997265737,1177254091969845,0.15853749,0.16225,-1.17205
1679997265739,1177254094471936,0.15455,0.18425,-1.1430374
1679997265741,1177254096973859,0.151525,0.20019999,-1.10605
1679997265746,1177254099476244,0.1445125,0.24915,-1.065075
1679997265747,1177254101978105,0.13255,0.33715,-1.01805
1679997265749,1177254104480028,0.11055,0.4082375,-0.964975
1679997265753,1177254106982182,0.0785125,0.4272125,-0.913
1679997265756,1177254109484028,0.0375375,0.4131875,-0.8630875
1679997265757,1177254111986105,-0.0165,0.35915,-0.82005
1679997265759,1177254114488264,-0.0834625,0.291225,-0.7821
1679997265761,1177254116990418,-0.1544125,0.2222,-0.75405
1679997265765,1177254119492341,-0.227425,0.1632125,-0.7330125
1679997265766,1177254121994418,-0.304425,0.120175,-0.7189875
1679997265772,1177254124496341,-0.3804625,0.0881375,-0.71802497
1679997265772,1177254126998418,-0.4574625,0.0642125,-0.7299875
1679997265774,1177254129500341,-0.530475,0.0501875,-0.7530875
1679997265776,1177254132002495,-0.6054125,0.052249998,-0.790075
1679997265779,1177254134504552,-0.67141247,0.06325,-0.84205
1679997265781,1177254137006475,-0.734525,0.0642125,-0.902
1679997265787,1177254139508552,-0.7865,0.07315,-0.957
1679997265788,1177254142010475,-0.8265125,0.0902,-1.00705
1679997265790,1177254144512547,-0.855525,0.1211375,-1.0570999
1679997265792,1177254147014700,-0.8745,0.16225,-1.0990375
1679997265795,1177254149516624,-0.87848747,0.20515,-1.1380875
1679997265796,1177254152018777,-0.8724375,0.2531375,-1.1760375
1679997265799,1177254154520854,-0.8534625,0.2992,-1.208075
1679997265804,1177254157022721,-0.8265125,0.3251875,-1.243
1679997265805,1177254159524874,-0.7935125,0.3422375,-1.2750375
1679997265806,1177254162026797,-0.7495125,0.3471875,-1.3019875
1679997265809,1177254164528874,-0.695475,0.33825,-1.3250875
1679997265811,1177254167031027,-0.640475,0.3172125,-1.345025
1679997265815,1177254169532950,-0.5784625,0.2952125,-1.360975
1679997265817,1177254172035027,-0.5115,0.2671625,-1.3740375
1679997265821,1177254174536950,-0.4445375,0.230175,-1.389025
1679997265821,1177254177039048,-0.371525,0.1782,-1.4009875
1679997265826,1177254179540971,-0.293425,0.122237496,-1.4090999
1679997265829,1177254182043125,-0.211475,0.05115,-1.419
1679997265831,1177254184545202,-0.128425,-0.0268125,-1.426975
1679997265832,1177254187047120,-0.0444125,-0.1167375,-1.4339875
1679997265836,1177254189549197,0.0394625,-0.220825,-1.4350874
1679997265837,1177254192051120,0.1265,-0.3287625,-1.4360499
1679997265839,1177254194553274,0.2165625,-0.4398625,-1.4350874
1679997265842,1177254197055120,0.3034625,-0.555775,-1.4290375
1679997265845,1177254199557519,0.3925625,-0.6727875,-1.422025
1679997265847,1177254202059442,0.4805625,-0.7898,-1.41405
1679997265849,1177254204561288,0.5655375,-0.9068125,-1.3981
1679997265853,1177254207063442,0.6535375,-1.01475,-1.3850375
1679997265855,1177254209565529,0.7415375,-1.1188375,-1.3679875
1679997265856,1177254212067452,0.8245875,-1.2148125,-1.3470875
1679997265860,1177254214569606,0.9114875,-1.3047374,-1.3211
1679997265862,1177254217071683,0.9945375,-1.3817375,-1.29305
1679997265870,1177254219573596,1.0745625,-1.4518625,-1.265
1679997265870,1177254222075673,1.15555,-1.507825,-1.2370875
1679997265870,1177254224632673,1.2365375,-1.5478375,-1.2029876
1679997265872,1177254227079673,1.3105125,-1.5637875,-1.1730125
1679997265876,1177254229581596,1.3825625,-1.5618625,-1.1400125
1679997265876,1177254232083980,1.454475,-1.54385,-1.1039875
1679997265879,1177254234585817,1.5244625,-1.501775,-1.0681
1679997265881,1177254237087740,1.586475,-1.4378375,-1.0280875
1679997265888,1177254239589894,1.6385875,-1.3267375,-0.98408747
1679997265889,1177254242091975,1.6495875,-1.12585,-0.9310125
1679997265890,1177254244593822,1.6154875,-0.8138625,-0.8630875
1679997265892,1177254247095975,1.58455,-0.5698,-0.7880125
1679997265895,1177254249598129,1.5885375,-0.4637875,-0.7090875
1679997265896,1177254252100052,1.6055875,-0.3837625,-0.6260375
1679997265899,1177254254602158,1.6055875,-0.2688125,-0.5401
1679997265903,1177254257104081,1.477575,-0.0158125,-0.46805
1679997265906,1177254259606158,1.2255375,0.27115,-0.43505
1679997265908,1177254262108071,1.020525,0.3832125,-0.396
1679997265909,1177254264610225,0.85153747,0.4291375,-0.306075
1679997265912,1177254267112302,0.657525,0.48221248,-0.207075
1679997265915,1177254269614225,0.42955,0.516175,-0.122099996
1679997265917,1177254272116302,0.1665125,0.516175,-0.062975
1679997265919,1177254274618201,-0.1155,0.48221248,-0.039049998
1679997265922,1177254277120355,-0.4024625,0.423225,-0.025024999
1679997265926,1177254279622432,-0.6824125,0.3411375,-0.018975
1679997265927,1177254282124355,-0.9494375,0.241175,-0.0149875
1679997265929,1177254284626418,-1.2045,0.1192125,-0.0149875
1679997265932,1177254287128341,-1.4414124,-0.0067375,-0.0180125
1679997265935,1177254289630418,-1.668425,-0.12979999,-0.0290125
1679997265936,1177254292132649,-1.8745375,-0.2407625,-0.042075
1679997265941,1177254294634726,-2.064425,-0.3348125,-0.0561
1679997265942,1177254297136572,-2.230525,-0.4178625,-0.0671
1679997265946,1177254299638726,-2.3744874,-0.4918375,-0.0730125
1679997265947,1177254302140649,-2.5025,-0.5438125,-0.061049998
1679997265949,1177254304642726,-2.6184125,-0.57585,-0.025024999
1679997265952,1177254307144668,-2.714525,-0.621775,0.0149875
1679997265955,1177254309646822,-2.7934499,-0.6648125,0.0609125
1679997265957,1177254312148899,-2.85945,-0.7088125,0.1029875
1679997265960,1177254314650822,-2.9214625,-0.742775,0.1309
1679997265962,1177254317152913,-2.9715126,-0.7748125,0.1489125
1679997265965,1177254319654836,-3.005475,-0.79983747,0.154
1679997265967,1177254322156913,-3.032425,-0.82774997,0.14093749
1679997265969,1177254324659067,-3.0474124,-0.8597875,0.1139875
1679997265972,1177254327160990,-3.0504375,-0.8897625,0.073975
1679997265975,1177254329663058,-3.0515375,-0.9128625,0.0229625
1679997265978,1177254332165211,-3.0375125,-0.9208375,-0.042075
1679997265980,1177254334667058,-3.010425,-0.9068125,-0.11
1679997265981,1177254337168981,-2.978525,-0.8628125,-0.183975
1679997265986,1177254339671149,-2.9424999,-0.792825,-0.2580875
1679997265988,1177254342173302,-2.8945124,-0.726825,-0.3320625
1679997265989,1177254344675149,-2.8334625,-0.66275,-0.407
1679997265992,1177254347177302,-2.7674625,-0.59785,-0.480975
1679997265995,1177254349679373,-2.6934874,-0.53185,-0.5490375
1679997265996,1177254352181296,-2.6104374,-0.46873748,-0.6100875
1679997265999,1177254354683373,-2.516525,-0.4197875,-0.6730625
1679997266001,1177254357185296,-2.4184875,-0.37675,-0.73205
1679997266005,1177254359687446,-2.3104124,-0.330825,-0.7821
1679997266007,1177254362189523,-2.202475,-0.27775,-0.8320125
1679997266009,1177254364691446,-2.0845,-0.2278375,-0.878075
1679997266012,1177254367193523,-1.9595125,-0.1758625,-0.9169875
1679997266016,1177254369695426,-1.8294375,-0.12485,-0.95205
1679997266018,1177254372197503,-1.6924875,-0.0708125,-0.98408747
1679997266020,1177254374699657,-1.5544375,-0.0097624995,-1.010075
1679997266022,1177254377201580,-1.4214749,0.071225,-1.0220375
1679997266026,1177254379703726,-1.2874125,0.17325,-1.0220375
1679997266028,1177254382205572,-1.1534874,0.280225,-1.0159875
1679997266030,1177254384707649,-1.0264375,0.3722125,-1.001
1679997266032,1177254387209803,-0.909425,0.4412375,-0.9810625
1679997266035,1177254389711726,-0.8094625,0.48221248,-0.957
1679997266037,1177254392213816,-0.712525,0.48221248,-0.93005
1679997266040,1177254394715970,-0.6205375,0.4422,-0.902
1679997266043,1177254397217893,-0.5454625,0.3722125,-0.8729875
1679997266045,1177254399719970,-0.4794625,0.2671625,-0.839025
1679997266046,1177254402221893,-0.4195125,0.1461625,-0.810975
1679997266049,1177254404723970,-0.3664375,0.021175,-0.7860875
1679997266053,1177254407225893,-0.3235375,-0.1007875,-0.759
1679997266056,1177254409728047,-0.2805,-0.2267375,-0.737
1679997266057,1177254412230115,-0.24447499,-0.34375,-0.711975
1679997266060,1177254414732038,-0.20845,-0.4488,-0.68901247
1679997266062,1177254417234115,-0.1775125,-0.5487625,-0.6749875
1679997266066,1177254419736269,-0.1434125,-0.6488625,-0.667975
1679997266067,1177254422238106,-0.10945,-0.7348,-0.663025
1679997266070,1177254424740260,-0.0785125,-0.8118,-0.6650875
1679997266072,1177254427242413,-0.046475,-0.8707875,-0.66605
1679997266076,1177254429744260,-0.0155375,-0.9238625,-0.66605
1679997266077,1177254432246413,0.0165,-0.96085,-0.674025
1679997266080,1177254434748342,0.0424875,-0.9777625,-0.682
1679997266082,1177254437250418,0.0715,-0.979825,-0.68901247
1679997266086,1177254439752342,0.1005125,-0.9538375,-0.6980875
1679997266087,1177254442254495,0.123475,-0.913825,-0.700975
1679997266091,1177254444756572,0.1494625,-0.85882497,-0.7110125
1679997266093,1177254447258495,0.1705,-0.797775,-0.7189875
1679997266095,1177254449760572,0.1885125,-0.7258625,-0.724075
1679997266097,1177254452262495,0.20253749,-0.6428125,-0.726
1679997266099,1177254454764572,0.2135375,-0.55275,-0.73205
1679997266102,1177254457266726,0.2165625,-0.4598,-0.735075
1679997266106,1177254459768649,0.2135375,-0.36781248,-0.7299875
1679997266108,1177254462270726,0.2074875,-0.280775,-0.715
1679997266109,1177254464772649,0.1964875,-0.2068,-0.7060625
1679997266112,1177254467274744,0.1835625,-0.1447875,-0.693
1679997266115,1177254469776898,0.168575,-0.0848375,-0.68805
1679997266117,1177254472278821,0.1744875,-0.036849998,-0.693
1679997266120,1177254474780898,0.184525,-0.0188375,-0.704
1679997266122,1177254477282816,0.173525,-0.0198,-0.71802497
1679997266126,1177254479784893,0.1445125,-0.0198,-0.7330125
1679997266130,1177254482286816,0.107525,-0.0188375,-0.7451125
1679997266138,1177254484788970,0.058575,-0.01375,-0.751025
1679997266138,1177254487291124,0.0055,-0.0097624995,-0.7550125
1679997266138,1177254489792957,-0.0455125,-0.00385,-0.751025
1679997266139,1177254492295111,-0.0974875,0.0042625,-0.7470375
1679997266139,1177254494797188,-0.1464375,0.015262499,-0.7381
1679997266142,1177254497299034,-0.195525,0.0232375,-0.73205
1679997266146,1177254499801183,-0.239525,0.0312125,-0.7299875
1679997266147,1177254502303337,-0.2784375,0.0342375,-0.726
1679997266149,1177254504805260,-0.31845,0.0342375,-0.724075
1679997266152,1177254507307337,-0.3554375,0.0441375,-0.715
1679997266155,1177254509809260,-0.392425,0.0592625,-0.700975
1679997266156,1177254512311337,-0.4244625,0.0702625,-0.6840625
1679997266160,1177254514813260,-0.4624125,0.0812625,-0.652025
1679997266162,1177254517315337,-0.49445,0.0862125,-0.6150375
1679997266166,1177254519817485,-0.519475,0.0801625,-0.5759875
1679997266168,1177254522319408,-0.5435375,0.06325,-0.5319875
1679997266169,1177254524821485,-0.558525,0.03025,-0.4921125
1679997266172,1177254527323408,-0.56045,-0.02475,-0.4670875
1679997266178,1177254529825490,-0.5564625,-0.0867625,-0.44605
1679997266178,1177254532327413,-0.5405125,-0.1387375,-0.4250125
1679997266179,1177254534829797,-0.5124625,-0.1838375,-0.40205
1679997266182,1177254537331643,-0.4714875,-0.21779999,-0.38005
1679997266186,1177254539833811,-0.4244625,-0.2437875,-0.36107498
1679997266187,1177254542335734,-0.3724875,-0.2688125,-0.350075
1679997266189,1177254544837581,-0.3125375,-0.286825,-0.339075
1679997266192,1177254547339658,-0.239525,-0.3067625,-0.3320625
1679997266195,1177254549841811,-0.162525,-0.3207875,-0.3370125
1679997266197,1177254552343970,-0.0774125,-0.3348125,-0.348975
1679997266199,1177254554845893,0.019524999,-0.3378375,-0.36905
1679997266203,1177254557347970,0.1164625,-0.3378375,-0.3900875
1679997266206,1177254559849893,0.2135375,-0.3268375,-0.40507498
1679997266207,1177254562351965,0.3125375,-0.3018125,-0.41799998
1679997266211,1177254564853888,0.4115375,-0.2748625,-0.42405
1679997266212,1177254567356042,0.509575,-0.2468125,-0.4301
1679997266215,1177254569858119,0.613525,-0.2267375,-0.4390375
1679997266217,1177254572360042,0.7145875,-0.1967625,-0.4521
1679997266220,1177254574862105,0.8124875,-0.1648625,-0.4580125
1679997266222,1177254577364028,0.9125875,-0.1387375,-0.4631
1679997266228,1177254579866105,1.0085624,-0.1208625,-0.46805
1679997266229,1177254582368244,1.1015126,-0.110825,-0.473
1679997266230,1177254584870167,1.1925375,-0.104775,-0.4769875
1679997266232,1177254587372321,1.273525,-0.10285,-0.487025
1679997266235,1177254589874398,1.3465375,-0.1038125,-0.4970625
1679997266237,1177254592376244,1.4144624,-0.1038125,-0.502975
1679997266241,1177254594878398,1.47455,-0.104775,-0.5071
1679997266244,1177254597380321,1.5255625,-0.0988625,-0.5099875
1679997266245,1177254599882398,1.57355,-0.0867625,-0.51205
1679997266247,1177254602384552,1.6215374,-0.08085,-0.504075
1679997266249,1177254604886475,1.6575625,-0.0748,-0.4879875
1679997266254,1177254607388542,1.685475,-0.0628375,-0.4720375
1679997266255,1177254609890465,1.7095375,-0.0598125,-0.447975
1679997266257,1177254612392542,1.7265875,-0.047849998,-0.410025
1679997266263,1177254614894465,1.7345625,-0.02475,-0.3650625
1679997266263,1177254617396610,1.730575,0.010175,-0.308
1679997266266,1177254619898687,1.7135249,0.049225,-0.2360875
1679997266269,1177254622400610,1.6894625,0.08415,-0.152075
1679997266270,1177254624902687,1.65055,0.111237496,-0.061049998
1679997266272,1177254627404610,1.5995375,0.1302125,0.0369875
1679997266278,1177254629906764,1.5445375,0.15125,0.1348875
1679997266279,1177254632408610,1.4794999,0.1791625,0.232925
1679997266280,1177254634910994,1.4075875,0.2102375,0.32999998
1679997266282,1177254637412917,1.3294874,0.247225,0.425975
1679997266285,1177254639914984,1.246575,0.285175,0.51301247
1679997266288,1177254642416907,1.119525,0.28215,0.5729625
1679997266289,1177254644918984,0.954525,0.2462625,0.606925
1679997266292,1177254647421138,0.77055,0.2182125,0.6359375
1679997266296,1177254649923061,0.5715875,0.186175,0.652025
1679997266297,1177254652425138,0.3565375,0.159225,0.65999997
1679997266300,1177254654927061,0.1304875,0.14025,0.65999997
1679997266302,1177254657429138,-0.10945,0.1211375,0.656975
1679997266306,1177254659931061,-0.3474625,0.1122,0.649
1679997266307,1177254662433215,-0.591525,0.11715,0.6359375
1679997266310,1177254664935292,-0.833525,0.14025,0.6169625
1679997266312,1177254667437215,-1.0694749,0.1791625,0.5929
1679997266316,1177254669939306,-1.2695374,0.26015,0.5418875
1679997266319,1177254672441229,-1.44045,0.31515,0.4569125
1679997266320,1177254674943306,-1.613425,0.2982375,0.3859625
1679997266322,1177254677445460,-1.7615125,0.2882,0.3389375
1679997266327,1177254679947383,-1.8684875,0.30415,0.2959
1679997266328,1177254682449533,-1.9564875,0.3111625,0.2429625
1679997266329,1177254684951379,-2.0274374,0.29315,0.1788875
1679997266333,1177254687453533,-2.0805125,0.2561625,0.1189375
1679997266335,1177254689955610,-2.1184626,0.20625,0.0559625
1679997266337,1177254692457538,-2.1324875,0.14025,-0.0149875
1679997266339,1177254694959692,-2.1344125,0.06215,-0.078099996
1679997266343,1177254697461769,-2.1184626,-0.0308,-0.1340625
1679997266346,1177254699963692,-2.0915124,-0.1307625,-0.1909875
1679997266348,1177254702465755,-2.0464125,-0.2407625,-0.245025
1679997266350,1177254704967678,-1.9925125,-0.346775,-0.2941125
1679997266353,1177254707469755,-1.9234875,-0.4497625,-0.3421
1679997266355,1177254709971678,-1.8544625,-0.5578375,-0.383075
1679997266358,1177254712473817,-1.7774625,-0.654775,-0.4200625
1679997266360,1177254714975894,-1.6894625,-0.731775,-0.4610375
1679997266362,1177254717477817,-1.6005,-0.7937875,-0.4921125
1679997266365,1177254719979894,-1.504525,-0.83875,-0.5190625
1679997266367,1177254722481817,-1.4084125,-0.8628125,-0.5490375
1679997266370,1177254724983904,-1.3094125,-0.86075,-0.5820375
1679997266372,1177254727486057,-1.206425,-0.8248625,-0.614075
1679997266376,1177254729988211,-1.0984875,-0.7797625,-0.647075
1679997266377,1177254732490057,-0.9884875,-0.74181247,-0.685025
1679997266380,1177254734992216,-0.8815125,-0.69575,-0.7220125
1679997266382,1177254737494139,-0.7715125,-0.62975,-0.7720625
1679997266386,1177254739996216,-0.6604125,-0.54175,-0.825
1679997266388,1177254742498139,-0.5534375,-0.44275,-0.876975
1679997266391,1177254745000322,-0.4445375,-0.33673748,-0.927025
1679997266393,1177254747502399,-0.337425,-0.2308625,-0.975975
1679997266395,1177254750004322,-0.23045,-0.126775,-1.0140625
1679997266397,1177254752506399,-0.13653749,-0.0207625,-1.0461
1679997266400,1177254755008322,-0.043449998,0.076175,-1.0709875
1679997266403,1177254757510418,0.0375375,0.1601875,-1.078
1679997266405,1177254760012341,0.1115125,0.2332,-1.076075
1679997266406,1177254762514495,0.1744875,0.2872375,-1.0599875
1679997266410,1177254765016572,0.2255,0.3282125,-1.030975
1679997266412,1177254767518495,0.26455,0.3722125,-0.986975
1679997266415,1177254770020572,0.29755,0.4112625,-0.9279875
1679997266417,1177254772522495,0.3135,0.450175,-0.858
1679997266419,1177254775024572,0.3174875,0.4962375,-0.7880125
1679997266422,1177254777526831,0.310475,0.5341875,-0.7110125
1679997266429,1177254780028677,0.29947498,0.5751625,-0.623975
1679997266429,1177254782530831,0.27555,0.6111875,-0.5319875
1679997266431,1177254785032908,0.25355,0.6472125,-0.4411
1679997266433,1177254787534831,0.22247499,0.6732,-0.350075
1679997266435,1177254790036908,0.18755,0.7062,-0.256025
1679997266437,1177254792538831,0.1494625,0.747175,-0.1689875
1679997266440,1177254795040985,0.1084875,0.786225,-0.088
1679997266443,1177254797543062,0.0675125,0.82115,-0.013062499
1679997266445,1177254800044990,0.024475,0.8482375,0.04895
1679997266448,1177254802547067,-0.0204875,0.86913747,0.1199
1679997266449,1177254805048990,-0.0664125,0.8941625,0.1859
1679997266454,1177254807551057,-0.1115125,0.9152,0.2519
1679997266457,1177254810053211,-0.1475375,0.9411875,0.311025
1679997266459,1177254812555134,-0.183425,0.9601625,0.3609375
1679997266460,1177254815057211,-0.2145,0.96525,0.4049375
1679997266462,1177254817559134,-0.2475,0.96525,0.441925
1679997266467,1177254820061225,-0.2765125,0.9491625,0.4769875
1679997266469,1177254822563378,-0.305525,0.9252375,0.51094997
1679997266471,1177254825065302,-0.3284875,0.8911375,0.53295
1679997266473,1177254827567378,-0.34553748,0.8471375,0.5489
1679997266476,1177254830069537,-0.3575,0.8031375,0.5599
1679997266477,1177254832571384,-0.3634125,0.7572125,0.562925
1679997266480,1177254835073307,-0.3694625,0.7071625,0.564025
1679997266483,1177254837575460,-0.365475,0.6582125,0.5669125
1679997266485,1177254840077513,-0.3645125,0.6081625,0.562925
1679997266487,1177254842579436,-0.3614875,0.5671875,0.564025
1679997266489,1177254845081590,-0.3575,0.5311625,0.5669125
1679997266493,1177254847583436,-0.3474625,0.4981625,0.5709
1679997266495,1177254850085580,-0.34045,0.4731375,0.5790125
1679997266497,1177254852587657,-0.3394875,0.434225,0.584925
1679997266501,1177254855089811,-0.34045,0.395175,0.586025
1679997266504,1177254857591734,-0.3394875,0.3612125,0.58795
1679997266507,1177254860093817,-0.3364625,0.3342625,0.5919375
1679997266511,1177254862595740,-0.3355,0.3081375,0.5949625
1679997266511,1177254865097817,-0.3364625,0.2952125,0.5949625
1679997266513,1177254867599740,-0.3304125,0.29315,0.5999125
1679997266516,1177254870101827,-0.3224375,0.2921875,0.59894997
1679997266517,1177254872603981,-0.315425,0.2952125,0.601975
1679997266520,1177254875105904,-0.310475,0.2971375,0.6039
1679997266522,1177254877607981,-0.3114375,0.3031875,0.605
1679997266527,1177254880109932,-0.3095125,0.3102,0.6109125
1679997266527,1177254882612009,-0.304425,0.31625,0.6249375
1679997266530,1177254885113932,-0.304425,0.324225,0.6359375
1679997266532,1177254887616086,-0.305525,0.3251875,0.652025
1679997266535,1177254890118240,-0.2954875,0.307175,0.652025
1679997266537,1177254892620303,-0.24653749,0.2371875,0.595925
1679997266542,1177254895122149,-0.1324125,0.1012,0.4499
1679997266544,1177254897624303,-4.125E-4,-0.0298375,0.26895
1679997266546,1177254900126226,0.113575,-0.115775,0.1299375
1679997266548,1177254902628303,0.234575,-0.1777875,0.0259875
1679997266550,1177254905130457,0.3584625,-0.22385,-0.058025
1679997266552,1177254907632380,0.464475,-0.24475,-0.120037496
1679997266555,1177254910134457,0.5545375,-0.2508,-0.1560625
1679997266557,1177254912636380,0.6334625,-0.2358125,-0.157025
1679997266560,1177254915138438,0.6945125,-0.20185,-0.119075
1679997266563,1177254917640361,0.7415375,-0.1618375,-0.0671
1679997266566,1177254920142515,0.7775625,-0.1227875,0.0059125
1679997266567,1177254922644591,0.800525,-0.088825,0.084975
1679997266570,1177254925146524,0.806575,-0.077825,0.154
1679997266572,1177254927648601,0.8014875,-0.0867625,0.2239875
1679997266575,1177254930150754,0.7805875,-0.1098625,0.28393748
1679997266579,1177254932652601,0.7495125,-0.14575,0.337975
1679997266581,1177254935154529,0.7115625,-0.1747625,0.3920125
1679997266583,1177254937656913,0.6736125,-0.19373749,0.441925
1679997266587,1177254940158836,0.62755,-0.214775,0.480975
1679997266587,1177254942660682,0.5845125,-0.23375,0.507925
1679997266591,1177254945162817,0.570625,-0.1827375,0.452925
1679997266593,1177254947664894,0.5566,-0.1857625,0.308
1679997266596,1177254950166817,0.509575,-0.26785,0.221925
1679997266597,1177254952668894,0.4555375,-0.3278,0.154
1679997266601,1177254955171048,0.4195125,-0.3348125,0.077
1679997266603,1177254957672995,0.3916,-0.2847625,0.023924999
1679997266605,1177254960175072,0.3696,-0.187825,-0.011
1679997266607,1177254962676995,0.36355,-0.077825,-0.044
1679997266610,1177254965179072,0.3675375,0.055275,-0.07205
1679997266612,1177254967680985,0.382525,0.19525,-0.0961125
1679997266617,1177254970183139,0.39655,0.3202375,-0.124025
1679997266618,1177254972685216,0.4065875,0.4351875,-0.1661
1679997266620,1177254975187139,0.4145625,0.53625,-0.2101
1679997266623,1177254977689288,0.42061248,0.626175,-0.2470875
1679997266627,1177254980191134,0.42061248,0.7082625,-0.27101249
1679997266628,1177254982693211,0.4175875,0.7902125,-0.284075
1679997266630,1177254985195365,0.4115375,0.86817497,-0.2850375
1679997266632,1177254987697519,0.4005375,0.9482,-0.2740375
1679997266635,1177254990199423,0.3955875,1.0181875,-0.253
1679997266637,1177254992701500,0.38555,1.083225,-0.22605
1679997266640,1177254995203423,0.3755125,1.13025,-0.1940125
1679997266644,1177254997705495,0.3625875,1.1642125,-0.1551
1679997266645,1177255000207418,0.3425125,1.187175,-0.1029875
1679997266649,1177255002709495,0.3265625,1.204225,-0.0460625
1679997266650,1177255005211649,0.30855,1.1972125,0.0119624995
1679997266654,1177255007713582,0.28655,1.16325,0.0620125
1679997266656,1177255010215659,0.25753748,1.11815,0.1029875
1679997266657,1177255012717582,0.223575,1.055175,0.1329625
1679997266660,1177255015219659,0.1885125,0.96525,0.1469875
1679997266663,1177255017721812,0.151525,0.8721625,0.15895
1679997266667,1177255020223736,0.108625,0.770275,0.16995
1679997266668,1177255022725812,0.0655875,0.67925,0.1769625
1679997266670,1177255025227736,0.0275,0.5971625,0.1830125
1679997266672,1177255027729813,-0.0055,0.51919997,0.1830125
1679997266676,1177255030231946,-0.029424999,0.43821248,0.176
1679997266678,1177255032733869,-0.045375,0.36025,0.1659625
1679997266680,1177255035235946,-0.056375,0.297275,0.16995
1679997266685,1177255037737869,-0.0633875,0.258225,0.1788875
1679997266686,1177255040240027,-0.067375,0.2352625,0.194975
1679997266688,1177255042741873,-0.067375,0.220275,0.2160125
1679997266691,1177255045244027,-0.0584375,0.2102375,0.2380125
1679997266693,1177255047746181,-0.046475,0.198275,0.2600125
1679997266696,1177255050248258,-0.0303875,0.181225,0.27995
1679997266697,1177255052750177,-0.0083875,0.1582625,0.29095
1679997266700,1177255055252254,0.0215875,0.1271875,0.2949375
1679997266703,1177255057754177,0.0545875,0.109175,0.2979625
1679997266706,1177255060256254,0.0935,0.098175,0.2899875
1679997266708,1177255062758181,0.1395625,0.0902,0.275
1679997266710,1177255065260335,0.1915375,0.087175,0.2509375
1679997266712,1177255067762412,0.251625,0.08525,0.21395
1679997266716,1177255070264335,0.30855,0.08415,0.16995
1679997266718,1177255072766412,0.3625875,0.089237496,0.122925
1679997266720,1177255075268350,0.4125,0.0972125,0.0759
1679997266722,1177255077770427,0.4565,0.1051875,0.022
1679997266727,1177255080272658,0.49555,0.110275,-0.039049998
1679997266729,1177255082774513,0.525525,0.1051875,-0.1111
1679997266731,1177255085276667,0.553575,0.104225,-0.176
1679997266733,1177255087778744,0.575575,0.110275,-0.23705
1679997266735,1177255090280590,0.5966125,0.1232,-0.2899875
1679997266737,1177255092782744,0.60555,0.148225,-0.3339875
1679997266740,1177255095284629,0.6116,0.170225,-0.3650625
1679997266743,1177255097786783,0.6175125,0.18727499,-0.388025
1679997266747,1177255100288860,0.6285125,0.203225,-0.41305
1679997266748,1177255102790783,0.635525,0.208175,-0.43505
1679997266750,1177255105292850,0.6505125,0.18425,-0.4500375
1679997266755,1177255107794773,0.6725125,0.154275,-0.44907498
1679997266761,1177255110296850,0.740575,0.12925,-0.4329875
1679997266761,1177255112798773,0.800525,0.122237496,-0.3889875
1679997266761,1177255115300927,0.8575875,0.109175,-0.328075
1679997266762,1177255117803008,0.9175375,0.082225,-0.2880625
1679997266766,1177255120304932,0.9785875,0.04015,-0.264
1679997266768,1177255122807009,1.0385375,-0.016775,-0.242
1679997266769,1177255125309162,1.0965625,-0.0848375,-0.2080375
1679997266772,1177255127811080,1.1466125,-0.13475,-0.1780625
1679997266775,1177255130313157,1.2035375,-0.1948375,-0.1590875
1679997266777,1177255132815311,1.257575,-0.2608375,-0.1441
1679997266780,1177255135317229,1.3076249,-0.3177625,-0.135025
1679997266782,1177255137819075,1.3575375,-0.36574998,-0.135025
1679997266786,1177255140321229,1.394525,-0.390775,-0.1359875
1679997266788,1177255142823306,1.416525,-0.3837625,-0.1260875
1679997266790,1177255145325234,1.4366,-0.346775,-0.109037496
1679997266792,1177255147827388,1.450625,-0.2767875,-0.086075
1679997266795,1177255150329465,1.4685,-0.19085,-0.0620125
1679997266798,1177255152831388,1.4815625,-0.093775,-0.0350625
1679997266800,1177255155333465,1.4975125,2.75E-4,-0.0081124995
1679997266804,1177255157835388,1.5206125,0.088275,0.0309375
1679997266806,1177255160337465,1.5646125,0.17325,0.0669625
1679997266808,1177255162839619,1.58455,0.28325,0.121
1679997266810,1177255165341773,1.58455,0.43614998,0.20295
1679997266813,1177255167843605,1.560625,0.6521625,0.3119875
1679997266815,1177255170345528,1.505625,0.9332125,0.447975
1679997266817,1177255172847682,1.422575,1.2692626,0.616
1679997266819,1177255175349759,1.3305875,1.5981625,0.80396247
1679997266822,1177255177851619,1.22155,1.8632625,1.0258875
1679997266826,1177255180353850,1.0696125,2.06525,1.2749
1679997266828,1177255182855927,0.9285375,2.2141626,1.5318875
1679997266830,1177255185357850,0.8245875,2.370225,1.767975
1679997266832,1177255187859937,0.7305375,2.52615,1.9650124
1679997266835,1177255190361860,0.6666,2.573175,2.1069124
1679997266837,1177255192863937,0.850575,2.1582,2.1038876
1679997266841,1177255195365855,0.922625,1.539175,1.9949875
1679997266843,1177255197868009,0.8595125,1.26115,1.9009374
1679997266846,1177255200370086,0.7555625,1.254275,1.9039625
1679997266847,1177255202872009,0.5655375,1.33925,1.9388875
1679997266849,1177255205374086,0.366575,1.4092375,1.9870125
1679997266853,1177255207876234,0.2376,1.430275,2.0200124
1679997266855,1177255210378158,0.1175625,1.3772,2.0389874
1679997266858,1177255212880234,-0.0704,1.248225,2.0420125
1679997266860,1177255215382158,-0.2734875,1.1152625,2.0359626
1679997266863,1177255217884211,-0.4984375,1.0342749,2.0310125
1679997266866,1177255220386134,-0.6903875,0.912175,1.9058875
1679997266868,1177255222888287,-0.7783875,0.60225,1.5989875
1679997266870,1177255225390364,-0.9134125,0.324225,1.2799875
1679997266873,1177255227892268,-1.0564125,0.044275,1.0349625
1679997266875,1177255230394345,-1.1754875,-0.1777875,0.83393747
1679997266879,1177255232896499,-1.2724249,-0.3257375,0.634975
1679997266880,1177255235398345,-1.327425,-0.4488,0.425975
1679997266882,1177255237900268,-1.3464,-0.54285,0.2459875
1679997266885,1177255240402638,-1.3574,-0.58575,0.1079375
1679997266888,1177255242904561,-1.360425,-0.6067875,0.0059125
1679997266890,1177255245406638,-1.35245,-0.6177875,-0.0589875
1679997266893,1177255247908561,-1.338425,-0.6337375,-0.122099996
1679997266896,1177255250410609,-1.3094125,-0.64075,-0.185075
1679997266898,1177255252912532,-1.283425,-0.637725,-0.234025
1679997266900,1177255255414609,-1.2513875,-0.621775,-0.27101249
1679997266903,1177255257916763,-1.2183875,-0.605825,-0.2981
1679997266906,1177255260418710,-1.184425,-0.6138,-0.3271125
1679997266907,1177255262920787,-1.1484,-0.632775,-0.3510375
1679997266910,1177255265422710,-1.1174625,-0.6667375,-0.3730375
1679997266913,1177255267924787,-1.0835,-0.7128,-0.3999875
1679997266917,1177255270426710,-1.0544875,-0.76175,-0.4261125
1679997266919,1177255272928864,-1.024375,-0.8078125,-0.4530625
1679997266921,1177255275430941,-0.9994875,-0.84975,-0.4720375
1679997266923,1177255277932864,-0.975425,-0.879725,-0.4830375
1679997266926,1177255280435018,-0.9604375,-0.9007625,-0.4890875
1679997266928,1177255282936845,-0.942425,-0.913825,-0.49005
1679997266930,1177255285438922,-0.9244125,-0.90475,-0.4701125
1679997266932,1177255287941076,-0.9213875,-0.85676247,-0.432025
1679997266935,1177255290443230,-0.9323875,-0.77385,-0.3870625
1679997266937,1177255292945153,-0.9274375,-0.698775,-0.352
1679997266940,1177255295447225,-0.915475,-0.6617875,-0.3180375
1679997266943,1177255297949148,-0.9024125,-0.65174997,-0.286
1679997266946,1177255300451225,-0.8864625,-0.643775,-0.25905
1679997266947,1177255302953148,-0.8724375,-0.62479997,-0.2281125
1679997266950,1177255305455220,-0.854425,-0.5897375,-0.1991
1679997266954,1177255307957373,-0.838475,-0.5517875,-0.1670625
1679997266956,1177255310459297,-0.81949997,-0.522775,-0.141075
1679997266958,1177255312961368,-0.8034125,-0.4937625,-0.121
1679997266960,1177255315463292,-0.78842497,-0.46475,-0.0961125
1679997266963,1177255317965369,-0.771375,-0.43175,-0.0730125
1679997266965,1177255320467292,-0.7544625,-0.4008125,-0.0540375
1679997266968,1177255322969436,-0.7453875,-0.368775,-0.039049998
1679997266970,1177255325471590,-0.738375,-0.341825,-0.0290125
1679997266974,1177255327973667,-0.733425,-0.324775,-0.0191125
1679997266975,1177255330475513,-0.728475,-0.308825,-0.0081124995
1679997266978,1177255332977667,-0.727375,-0.3037375,-0.0039875
1679997266980,1177255335479599,-0.728475,-0.30085,-0.003025
1679997266983,1177255337981676,-0.733425,-0.3037375,0.0028875
1679997266989,1177255340483830,-0.7354875,-0.3158375,0.0059125
1679997266993,1177255342985705,-0.7414,-0.3348125,0.0089375
1679997266993,1177255345487782,-0.755425,-0.36685,0.0209
1679997266995,1177255347989705,-0.7684875,-0.4008125,0.0319
1679997266996,1177255350491782,-0.7844375,-0.418825,0.0419375
1679997266998,1177255352993705,-0.794475,-0.4357375,0.0479875
1679997267000,1177255355495782,-0.8034125,-0.451825,0.0559625
1679997267003,1177255357997922,-0.81345,-0.46585,0.064899996
1679997267007,1177255360499845,-0.8234875,-0.47575,0.0719125
1679997267008,1177255363001922,-0.8344875,-0.472725,0.073975
1679997267010,1177255365503845,-0.8404,-0.467775,0.0669625
1679997267013,1177255368005942,-0.84947497,-0.46475,0.05995
1679997267016,1177255370507865,-0.860475,-0.4588375,0.05995
1679997267018,1177255373010250,-0.8674875,-0.4467375,0.0559625
1679997267020,1177255375512173,-0.87945,-0.44275,0.04895
1679997267023,1177255378014019,-0.89045,-0.4307875,0.0449625
1679997267027,1177255380516173,-0.8914125,-0.4148375,0.0389125
1679997267030,1177255383018250,-0.8954,-0.406725,0.029975
1679997267031,1177255385520173,-0.898425,-0.4038375,0.0209
1679997267033,1177255388022279,-0.90145,-0.3818375,0.0229625
1679997267037,1177255390524433,-0.925375,-0.3378375,0.044
1679997267038,1177255393026356,-0.9515,-0.308825,0.0719125
1679997267040,1177255395528433,-0.96745,-0.2908125,0.089925
1679997267043,1177255398030356,-0.97845,-0.2838,0.106975
1679997267046,1177255400532505,-0.981475,-0.291775,0.1109625
1679997267048,1177255403034581,-0.9744625,-0.3278,0.1049125
1679997267050,1177255405536505,-0.959475,-0.3708375,0.09295
1679997267053,1177255408038581,-0.93747497,-0.401775,0.086899996
1679997267057,1177255410540467,-0.9084625,-0.4197875,0.0859375
1679997267058,1177255413042544,-0.8773875,-0.439725,0.0779625
1679997267060,1177255415544467,-0.8404,-0.4598,0.0669625
1679997267063,1177255418046620,-0.793375,-0.47575,0.051975
1679997267069,1177255420548716,-0.7453875,-0.4937625,0.0358875
1679997267070,1177255423050639,-0.695475,-0.5038,0.02695
1679997267071,1177255425552716,-0.645425,-0.5108125,0.0199375
1679997267073,1177255428054870,-0.596475,-0.5148,0.0248875
1679997267077,1177255430556716,-0.5424375,-0.506825,0.040975
1679997267078,1177255433058961,-0.4874375,-0.4918375,0.0578875
1679997267080,1177255435561038,-0.437525,-0.46873748,0.073975
1679997267083,1177255438062961,-0.3694625,-0.44385,0.1170125
1679997267086,1177255440565038,-0.25547498,-0.4797375,0.188925
1679997267088,1177255443066961,-0.1145375,-0.5297875,0.2509375
1679997267090,1177255445569043,0.0165,-0.5468375,0.2869625
1679997267093,1177255448070966,0.146575,-0.5218125,0.311025
1679997267096,1177255450573120,0.272525,-0.4698375,0.32395
1679997267098,1177255453075197,0.3865125,-0.4027375,0.3370125
1679997267100,1177255455577125,0.48455,-0.3168,0.3669875
1679997267104,1177255458079202,0.574475,-0.2327875,0.3889875
1679997267107,1177255460581125,0.6444625,-0.14575,0.414975
1679997267109,1177255463083202,0.684475,-0.0507375,0.4439875
1679997267111,1177255465585361,0.7085375,0.0372625,0.469975
1679997267113,1177255468087284,0.7134875,0.122237496,0.496925
1679997267116,1177255470589361,0.6985,0.1821875,0.529925
1679997267118,1177255473091515,0.6785625,0.22013749,0.55
1679997267121,1177255475593438,0.6645375,0.2371875,0.5570125
1679997267124,1177255478095298,0.635525,0.2182125,0.54202497
1679997267125,1177255480597452,0.5894625,0.1802625,0.529925
1679997267128,1177255483099606,0.525525,0.142175,0.52195
1679997267130,1177255485601683,0.4494875,0.098175,0.5119125
1679997267132,1177255488103616,0.36355,0.0532125,0.4899125
1679997267136,1177255490605693,0.2655125,0.016224999,0.447975
1679997267137,1177255493107616,0.157575,-0.005775,0.4019125
1679997267141,1177255495609693,0.0345125,-0.00385,0.34595
1679997267144,1177255498111620,-0.1005125,0.038225,0.2899875
1679997267147,1177255500613774,-0.2325125,0.0682,0.2179375
1679997267148,1177255503115850,-0.3694625,0.08525,0.1249875
1679997267150,1177255505617774,-0.52745,0.15413749,0.0259875
1679997267152,1177255508119851,-0.6835125,0.22825,-0.0840125
1679997267155,1177255510621789,-0.8155125,0.280225,-0.187
1679997267157,1177255513123866,-0.921525,0.3081375,-0.2520375
1679997267160,1177255515626019,-0.99343747,0.31515,-0.2761
1679997267163,1177255518127942,-1.0324875,0.2992,-0.275
1679997267165,1177255520630052,-1.0454125,0.2662,-0.262075
1679997267168,1177255523132206,-1.0385375,0.21615,-0.2470875
1679997267170,1177255525634052,-1.008425,0.16115,-0.229075
1679997267173,1177255528136206,-0.9625,0.1131625,-0.216975
1679997267177,1177255530638125,-0.9035125,0.09625,-0.2101
1679997267180,1177255533140279,-0.8295375,0.10725,-0.2190375
1679997267181,1177255535642356,-0.7464875,0.153175,-0.2270125
1679997267183,1177255538144279,-0.6615125,0.2311375,-0.238975
1679997267186,1177255540646356,-0.5754375,0.3172125,-0.264
1679997267188,1177255543148279,-0.486475,0.4082375,-0.295075
1679997267190,1177255545650356,-0.3994375,0.49225,-0.3229875
1679997267193,1177255548152279,-0.3194125,0.5671875,-0.34705
1679997267195,1177255550654433,-0.24447499,0.6301625,-0.35901248
1679997267197,1177255553156500,-0.1775125,0.6842,-0.3641
1679997267200,1177255555658423,-0.1194875,0.7272375,-0.3559875
1679997267203,1177255558160500,-0.0715,0.75625,-0.3421
1679997267205,1177255560662423,-0.0265375,0.7701375,-0.3320625
1679997267207,1177255563164563,0.0064625,0.7742625,-0.3100625
1679997267210,1177255565666640,0.035475,0.76725,-0.289025
1679997267213,1177255568168563,0.052525,0.7522625,-0.27005
1679997267217,1177255570670717,0.0644875,0.7382375,-0.24805
1679997267218,1177255573172818,0.0815375,0.7022125,-0.2360875
1679997267220,1177255575674741,0.085525,0.6622,-0.22605
1679997267223,1177255578176818,0.080575,0.6312625,-0.22
1679997267226,1177255580678741,0.069575,0.5971625,-0.21807499
1679997267228,1177255583180818,0.0614625,0.5611375,-0.22
1679997267230,1177255585682779,0.0495,0.5262125,-0.2250875
1679997267232,1177255588184933,0.0435875,0.4932125,-0.2211
1679997267235,1177255590687010,0.06655,0.4492125,-0.2019875
1679997267237,1177255593188933,0.0705375,0.43614998,-0.20405
1679997267240,1177255595691097,0.0595375,0.45925,-0.1970375
1679997267243,1177255598193173,0.0515625,0.4731375,-0.20405
1679997267246,1177255600695097,0.0345125,0.48125,-0.2030875
1679997267247,1177255603197173,0.0284625,0.4841375,-0.187
1679997267250,1177255605699087,0.036575,0.4852375,-0.161975
1679997267254,1177255608201164,0.0515625,0.478225,-0.1249875
1679997267257,1177255610703317,0.0715,0.478225,-0.095975
1679997267259,1177255613205240,0.0875875,0.4852375,-0.075075
1679997267260,1177255615707317,0.102575,0.49225,-0.0600875
1679997267263,1177255618209240,0.1155,0.49225,-0.0460625
1679997267266,1177255620711317,0.1274625,0.4901875,-0.02805
1679997267268,1177255623213240,0.135575,0.4841375,-0.013062499
1679997267270,1177255625715394,0.1485,0.478225,0.0059125
1679997267273,1177255628217562,0.16555,0.4621375,0.023924999
1679997267275,1177255630719639,0.18755,0.4332625,0.03795
1679997267278,1177255633221485,0.2105125,0.40713748,0.0479875
1679997267281,1177255635723630,0.233475,0.3801875,0.0609125
1679997267283,1177255638225553,0.25547498,0.36025,0.069025
1679997267285,1177255640727399,0.2745875,0.357225,0.080025
1679997267288,1177255643229784,0.2905375,0.3532375,0.0939125
1679997267293,1177255645731712,0.3025,0.3551625,0.1079375
1679997267293,1177255648233789,0.30855,0.3741375,0.1309
1679997267296,1177255650735712,0.3075875,0.3972375,0.168025
1679997267298,1177255653237789,0.3025,0.4092,0.201025
1679997267300,1177255655739712,0.3034625,0.401225,0.227975
1679997267303,1177255658241798,0.305525,0.3762,0.24695
1679997267306,1177255660743952,0.3135,0.33715,0.25795
1679997267308,1177255663245875,0.3144625,0.2982375,0.275
1679997267311,1177255665747952,0.310475,0.263175,0.3009875
1679997267313,1177255668249885,0.30153748,0.230175,0.326975
1679997267316,1177255670751962,0.2905375,0.203225,0.35694999
1679997267318,1177255673253885,0.2734875,0.1852125,0.392975
1679997267320,1177255675756039,0.25355,0.1672,0.43395
1679997267323,1177255678258188,0.2325125,0.1472625,0.4679125
1679997267327,1177255680760034,0.2044625,0.1271875,0.4959625
1679997267329,1177255683262188,0.1775125,0.0991375,0.51301247
1679997267332,1177255685764265,0.1485,0.0672375,0.53295
1679997267333,1177255688266097,0.1175625,0.0361625,0.540925
1679997267337,1177255690768020,0.085525,-0.0067375,0.5259375
1679997267338,1177255693270404,0.057475,-0.0537625,0.496925
1679997267341,1177255695772328,0.0275,-0.0848375,0.469975
1679997267343,1177255698274404,0.0015125,-0.0968,0.454025
1679997267346,1177255700776351,-0.0314875,-0.11385,0.4409625
1679997267348,1177255703278428,-0.0605,-0.137775,0.4169
1679997267351,1177255705780351,-0.082499996,-0.1648625,0.3729
1679997267354,1177255708282443,-0.106425,-0.1848,0.326975
1679997267355,1177255710784596,-0.1324125,-0.192775,0.293975
1679997267358,1177255713286519,-0.1654125,-0.2028125,0.27101249
1679997267360,1177255715788596,-0.1874125,-0.2077625,0.265925
1679997267363,1177255718290519,-0.2105125,-0.20185,0.26895
1679997267367,1177255720792615,-0.2294875,-0.19373749,0.2629
1679997267368,1177255723294538,-0.2484625,-0.1808125,0.2519
1679997267370,1177255725796923,-0.26345,-0.16885,0.2399375
1679997267373,1177255728298769,-0.277475,-0.14685,0.223025
1679997267376,1177255730800702,-0.2905375,-0.11385,0.198
1679997267378,1177255733302856,-0.304425,-0.0848375,0.1769625
1679997267384,1177255735804702,-0.316525,-0.0537625,0.1500125
1679997267384,1177255738306856,-0.32945,-0.0287375,0.121
1679997267386,1177255740808928,-0.3355,-0.00275,0.0969375
1679997267388,1177255743311082,-0.34141248,0.0232375,0.073975
1679997267390,1177255745813005,-0.3444375,0.05115,0.04895
1679997267393,1177255748315082,-0.3425125,0.071225,0.0309375
1679997267395,1177255750817005,-0.3465,0.0922625,0.01595
1679997267397,1177255753319072,-0.3554375,0.1192125,0.0059125
1679997267400,1177255755820995,-0.359425,0.13915,-0.0050875
1679997267404,1177255758323149,-0.3634125,0.1491875,-0.020075
1679997267406,1177255760825226,-0.3634125,0.1472625,-0.0350625
1679997267408,1177255763327149,-0.359425,0.120175,-0.0430375
1679997267410,1177255765829226,-0.35145,0.087175,-0.051975
1679997267413,1177255768331149,-0.34141248,0.049225,-0.055
1679997267415,1177255770833303,-0.337425,0.01815,-0.058025
1679997267418,1177255773335380,-0.3254625,-0.0198,-0.0650375
1679997267420,1177255775837303,-0.3135,-0.0628375,-0.0671
1679997267423,1177255778339380,-0.3025,-0.0928125,-0.0570625
1679997267427,1177255780841303,-0.2894375,-0.110825,-0.0430375
1679997267428,1177255783343380,-0.277475,-0.115775,-0.0240625
1679997267431,1177255785845606,-0.2784375,-0.1227875,-0.0070125
1679997267435,1177255788347682,-0.2805,-0.1208625,0.0099
1679997267436,1177255790849529,-0.288475,-0.1288375,0.02695
1679997267438,1177255793351682,-0.29645,-0.1428625,0.047025
1679997267441,1177255795853573,-0.3064875,-0.1637625,0.064899996
1679997267443,1177255798355419,-0.31845,-0.1967625,0.073975
1679997267446,1177255800857573,-0.3355,-0.23375,0.0829125
1679997267448,1177255803359726,-0.348425,-0.2657875,0.0969375
1679997267450,1177255805861803,-0.3614875,-0.2877875,0.111925
1679997267453,1177255808363721,-0.3774375,-0.3037375,0.1249875
1679997267456,1177255810865798,-0.393525,-0.31185,0.128975
1679997267458,1177255813367721,-0.398475,-0.302775,0.1269125
1679997267460,1177255815869798,-0.403425,-0.2828375,0.1299375
1679997267463,1177255818371961,-0.3975125,-0.2547875,0.1419
1679997267466,1177255820873884,-0.3755125,-0.23773749,0.155925
1679997267469,1177255823375961,-0.34347498,-0.2138125,0.1610125
1679997267471,1177255825878115,-0.310475,-0.1648625,0.155925
1679997267474,1177255828379937,-0.272525,-0.1007875,0.1659625
1679997267475,1177255830881860,-0.2294875,-0.0317625,0.21395
1679997267481,1177255833383937,-0.18645,0.0281875,0.2629
1679997267481,1177255835886168,-0.13653749,0.076175,0.311025
1679997267486,1177255838388000,-0.0715,0.1252625,0.352
1679997267488,1177255840890154,0.0075625,0.1651375,0.41195
1679997267489,1177255843392231,0.0974875,0.1962125,0.5009125
1679997267491,1177255845894154,0.184525,0.2292125,0.573925
1679997267494,1177255848396226,0.2685375,0.27513748,0.617925
1679997267496,1177255850898149,0.3625875,0.31625,0.6609625
1679997267497,1177255853400303,0.4635125,0.33825,0.704
1679997267501,1177255855902380,0.553575,0.3832125,0.777975
1679997267503,1177255858404303,0.624525,0.4632375,0.887975
1679997267507,1177255860906395,0.6655,0.5812125,0.97789997
1679997267511,1177255863408318,0.7214625,0.67925,0.8779375
1679997267511,1177255865910395,0.8014875,0.7522625,0.8479625
1679997267514,1177255868412549,0.8305,0.874225,0.9889
1679997267518,1177255870914471,0.8655625,0.94325,1.08295
1679997267520,1177255873416548,0.8965,1.0052625,1.156925
1679997267522,1177255875918471,0.9205625,1.0811625,1.211925
1679997267526,1177255878420548,0.9524625,1.1471624,1.239975
1679997267527,1177255880922702,0.982575,1.2252625,1.254
1679997267529,1177255883424605,1.0065,1.3332,1.2469875
1679997267532,1177255885926682,1.0385375,1.3432375,1.2469875
1679997267533,1177255888428835,1.0654875,1.30625,1.24795
1679997267537,1177255890930759,1.0855625,1.2571625,1.2469875
1679997267538,1177255893432835,1.1265374,1.1611875,1.2489125
1679997267540,1177255895934764,1.1845624,1.0401875,1.2379125
1679997267544,1177255898436841,1.24355,0.9042,1.2249875
1679997267547,1177255900938764,1.2854875,0.7522625,1.20395
1679997267548,1177255903440917,1.3145,0.60225,1.1829125
1679997267550,1177255905942980,1.34255,0.450175,1.1609125
1679997267554,1177255908444903,1.3514875,0.2872375,1.125025
1679997267556,1177255910946980,1.3465375,0.1342,1.081025
1679997267558,1177255913448903,1.3294874,-0.0218625,1.0399125
1679997267560,1177255915950980,1.29855,-0.1918125,1.0049875
1679997267563,1177255918453134,1.257575,-0.3507625,0.9669
1679997267565,1177255920955288,1.213575,-0.506825,0.9329375
1679997267568,1177255923457134,1.1724625,-0.6598625,0.9139625
1679997267570,1177255925959057,1.125575,-0.76876247,0.891
1679997267573,1177255928461235,1.0715375,-0.86075,0.8540125
1679997267576,1177255930963312,1.0104874,-0.91781247,0.803
1679997267578,1177255933465158,0.948475,-0.9667625,0.7569375
1679997267580,1177255935967384,0.888525,-1.0198375,0.705925
1679997267584,1177255938469461,0.8295375,-1.061775,0.649
1679997267586,1177255940971384,0.7775625,-1.09285,0.5680125
1679997267589,1177255943473461,0.7354875,-1.1097625,0.4569125
1679997267593,1177255945975369,0.7205,-1.1287374,0.3108875
1679997267593,1177255948477446,0.6886,-1.1418,0.1599125
1679997267596,1177255950979600,0.6315375,-1.171775,0.051975
1679997267598,1177255953481446,0.5405125,-1.1418,-0.0561
1679997267600,1177255955983600,0.43559998,-1.045825,-0.20405
1679997267603,1177255958485533,0.3295875,-0.9257875,-0.341
1679997267606,1177255960987379,0.2305875,-0.8017625,-0.4549875
1679997267608,1177255963489764,0.1315875,-0.65285,-0.5759875
1679997267611,1177255965991687,0.0405625,-0.47575,-0.7000125
1679997267613,1177255968493812,-0.0284625,-0.2767875,-0.7781125
1679997267616,1177255970995735,-0.0715,-0.066825,-0.8130375
1679997267618,1177255973497812,-0.0974875,0.1491875,-0.8509875
1679997267620,1177255975999735,-0.112475,0.36025,-0.8881125
1679997267623,1177255978501903,-0.10945,0.55825,-0.900075
1679997267627,1177255981003980,-0.0994125,0.7071625,-0.8850875
1679997267630,1177255983505903,-0.0664125,0.8061625,-0.850025
1679997267632,1177255986007980,-0.0224125,0.8641875,-0.78705
1679997267633,1177255988509903,0.0235125,0.896225,-0.7110125
1679997267636,1177255991011980,0.0595375,0.92716247,-0.6290625
1679997267638,1177255993513903,0.0925375,0.968275,-0.54202497
1679997267640,1177255996016057,0.1145375,1.0162625,-0.4560875
1679997267643,1177255998518210,0.1225125,1.0712625,-0.38005
1679997267645,1177256001020081,0.1304875,1.1132,-0.297
1679997267648,1177256003522234,0.135575,1.155275,-0.2101
1679997267651,1177256006024311,0.1304875,1.19515,-0.1450625
1679997267653,1177256008526234,0.12155,1.2381876,-0.11605
1679997267655,1177256011028326,0.1255375,1.2692626,-0.124025
1679997267658,1177256013530480,0.13255,1.2992375,-0.152075
1679997267660,1177256016032403,0.140525,1.32715,-0.198
1679997267665,1177256018534465,0.151525,1.35025,-0.256025
1679997267668,1177256021036388,0.1615625,1.385175,-0.3210625
1679997267669,1177256023538465,0.17655,1.41515,-0.396
1679997267672,1177256026040388,0.1995125,1.4312375,-0.4720375
1679997267673,1177256028542542,0.22247499,1.4542,-0.5410625
1679997267676,1177256031044634,0.2486,1.463275,-0.6070625
1679997267678,1177256033546557,0.2695,1.4661624,-0.6749875
1679997267681,1177256036048711,0.288475,1.4722124,-0.7360375
1679997267683,1177256038550557,0.3025,1.4752375,-0.790075
1679997267685,1177256041052600,0.316525,1.4752375,-0.8490625
1679997267690,1177256043554754,0.327525,1.4872,-0.916025
1679997267691,1177256046056908,0.3315125,1.4981999,-0.9860125
1679997267694,1177256048558754,0.327525,1.5192375,-1.0610875
1679997267696,1177256051060903,0.327525,1.5422,-1.133
1679997267699,1177256053562826,0.3205125,1.5712125,-1.2010624
1679997267701,1177256056064903,0.316525,1.6042125,-1.268025
1679997267706,1177256058566821,0.3265625,1.6042125,-1.33705
1679997267710,1177256061068975,0.34155,1.6011875,-1.4119875
1679997267711,1177256063571052,0.36355,1.6091624,-1.4920125
1679997267712,1177256066072975,0.3865125,1.6182375,-1.5769875
1679997267714,1177256068575052,0.4125,1.6231875,-1.6731
1679997267716,1177256071076966,0.4466,1.6311625,-1.7681125
1679997267718,1177256073579043,0.4835875,1.6302,-1.8561125
1679997267720,1177256076080966,0.519475,1.6011875,-1.9190875
1679997267723,1177256078583120,0.5545375,1.5321625,-1.9640499
1679997267726,1177256081085201,0.574475,1.407175,-1.9930625
1679997267728,1177256083587124,0.5465625,1.1801625,-2.0169876
1679997267731,1177256086089201,0.4824875,0.89925,-2.0400875
1679997267733,1177256088591124,0.4125,0.6111875,-2.066075
1679997267735,1177256091093201,0.3465,0.341275,-2.09
1679997267738,1177256093595327,0.277475,0.100237496,-2.1159875
1679997267743,1177256096097250,0.2085875,-0.1007875,-2.1351
1679997267745,1177256098599403,0.134475,-0.2657875,-2.143075
1679997267751,1177256101101494,0.0325875,-0.352825,-2.0871124
1679997267752,1177256103603417,-0.1434125,-0.252725,-1.8821
1679997267752,1177256106105494,-0.442475,0.0501875,-1.43
1679997267753,1177256108607417,-0.783475,0.35227498,-0.8130375
1679997267757,1177256111109571,-1.0214875,0.3982,-0.308
1679997267758,1177256113611648,-1.1174625,0.2652375,-0.0050875
1679997267761,1177256116113566,-1.1605,0.1252625,0.1909875
1679997267764,1177256118615643,-1.1644875,0.033275,0.293975
1679997267766,1177256121117566,-1.124475,-0.0177375,0.3059375
1679997267769,1177256123619643,-1.0575125,-0.0457875,0.2649625
1679997267770,1177256126121561,-0.9524625,-0.05775,0.1879625
1679997267774,1177256128623715,-0.800525,-0.1087625,0.0779625
1679997267777,1177256131125792,-0.635525,-0.13475,-0.058025
1679997267782,1177256133627701,-0.5295125,-0.0017875,-0.17105
1679997267783,1177256136129778,-0.47547498,0.1992375,-0.2391125
1679997267783,1177256138631932,-0.43945,0.3672625,-0.2831125
1679997267786,1177256141133855,-0.398475,0.4632375,-0.31405
1679997267788,1177256143635932,-0.3564,0.478225,-0.3370125
1679997267791,1177256146137855,-0.3245,0.43614998,-0.3700125
1679997267793,1177256148639932,-0.3025,0.3542,-0.3971
1679997267795,1177256151141855,-0.2894375,0.26015,-0.416075
1679997267798,1177256153643932,-0.277475,0.15125,-0.44907498
1679997267800,1177256156146163,-0.25547498,0.01925,-0.4879875
1679997267803,1177256158647980,-0.227425,-0.1078,-0.53405
1679997267806,1177256161150134,-0.1984125,-0.2217875,-0.597025
1679997267808,1177256163652211,-0.1544125,-0.33385,-0.6611
1679997267811,1177256166154134,-0.08745,-0.4417875,-0.7280625
1679997267813,1177256168656182,-4.125E-4,-0.53075,-0.792
1679997267817,1177256171158336,0.0974875,-0.604725,-0.86405
1679997267819,1177256173660259,0.2035,-0.65285,-0.9389875
1679997267821,1177256176162336,0.3235375,-0.6758125,-1.0030625
1679997267824,1177256178664254,0.4576,-0.671825,-1.0489875
1679997267827,1177256181166331,0.6116,-0.648725,-1.1050875
1679997267829,1177256183668254,0.773575,-0.60775,-1.1710875
1679997267831,1177256186170331,0.9505375,-0.550825,-1.2280124
1679997267833,1177256188672485,1.135475,-0.4808375,-1.263075
1679997267836,1177256191174437,1.3215125,-0.4027375,-1.2720125
1679997267839,1177256193676514,1.49655,-0.3097875,-1.2401125
1679997267841,1177256196178437,1.6495875,-0.2077625,-1.1589875
1679997267843,1177256198680490,1.7645375,-0.159775,-1.037025
1679997267846,1177256201182413,1.8244874,-0.1838375,-0.9180875
1679997267848,1177256203684566,1.83755,-0.2657875,-0.8160625
1679997267851,1177256206186643,1.8024875,-0.39985,-0.7420875
1679997267855,1177256208688585,1.7325,-0.5597625,-0.693
1679997267860,1177256211190739,1.6445,-0.7348,-0.6590375
1679997267861,1177256213692816,1.526525,-0.912725,-0.6370375
1679997267861,1177256216194662,1.399475,-1.0718125,-0.6171
1679997267863,1177256218696816,1.2805375,-1.210825,-0.5979875
1679997267868,1177256221198965,1.1534874,-1.3278375,-0.5841
1679997267869,1177256223700888,1.0225875,-1.402775,-0.5740625
1679997267873,1177256226202965,0.8976,-1.4537874,-0.570075
1679997267873,1177256228704888,0.784575,-1.490775,-0.5850625
1679997267877,1177256231206965,0.6815875,-1.5148375,-0.608025
1679997267878,1177256233708883,0.5985375,-1.5197875,-0.6290625
1679997267881,1177256236210960,0.525525,-1.4867874,-0.6501
1679997267883,1177256238713114,0.464475,-1.418725,-0.6639875
1679997267886,1177256241215037,0.4195125,-1.3487375,-0.66605
1679997267888,1177256243717114,0.3916,-1.3028125,-0.663025
1679997267893,1177256246219037,0.3735875,-1.2747625,-0.65505
1679997267894,1177256248721114,0.3595625,-1.27985,-0.6510625
1679997267897,1177256251223037,0.3485625,-1.3107874,-0.6461125
1679997267898,1177256253725114,0.3375625,-1.341725,-0.638
1679997267902,1177256256227264,0.322575,-1.363725,-0.6290625
1679997267904,1177256258729418,0.29755,-1.3517625,-0.6180625
1679997267907,1177256261231341,0.272525,-1.309825,-0.60307497
1679997267908,1177256263733191,0.2486,-1.259775,-0.5960625
1679997267911,1177256266235345,0.2215125,-1.2207249,-0.605
1679997267913,1177256268737422,0.1975875,-1.20285,-0.62205
1679997267917,1177256271239576,0.1695375,-1.1708125,-0.6370375
1679997267918,1177256273741499,0.135575,-1.127775,-0.6351125
1679997267921,1177256276243557,0.0955625,-1.089825,-0.6180625
1679997267923,1177256278745480,0.058575,-1.08185,-0.58905
1679997267926,1177256281247557,0.0235125,-1.088725,-0.5621
1679997267929,1177256283749485,-0.018424999,-1.0868,-0.537075
1679997267931,1177256286251562,-0.0605,-1.05875,-0.5160375
1679997267933,1177256288753716,-0.08745,-1.011725,-0.49307498
1679997267936,1177256291255639,-0.1005125,-0.9587875,-0.476025
1679997267939,1177256293757716,-0.096525,-0.901725,-0.4741
1679997267940,1177256296259644,-0.073425,-0.8338,-0.487025
1679997267943,1177256298761721,-0.0455125,-0.764775,-0.5000875
1679997267947,1177256301263644,-0.0154,-0.687775,-0.4961
1679997267948,1177256303765797,0.0094875,-0.5988125,-0.4800125
1679997267952,1177256306267859,0.0325875,-0.50875,-0.460075
1679997267953,1177256308770013,0.0565125,-0.42473748,-0.438075
1679997267955,1177256311271859,0.0875875,-0.33673748,-0.4219875
1679997267959,1177256313774013,0.1166,-0.2388375,-0.4081
1679997267961,1177256316275946,0.140525,-0.1518,-0.38005
1679997267963,1177256318778023,0.157575,-0.0677875,-0.355025
1679997267967,1177256321280177,0.1835625,0.0312125,-0.3430625
1679997267969,1177256323782023,0.2074875,0.1342,-0.3491125
1679997267970,1177256326283975,0.2275625,0.203225,-0.3570875
1679997267973,1177256328786129,0.24447499,0.2671625,-0.3449875
1679997267975,1177256331288206,0.25753748,0.3141875,-0.333025
1679997267978,1177256333790360,0.2706,0.3221625,-0.3370125
1679997267980,1177256336292283,0.2855875,0.3392125,-0.3320625
1679997267983,1177256338794369,0.3025,0.36519998,-0.3240875
1679997267987,1177256341296292,0.322575,0.379225,-0.31405
1679997267988,1177256343798369,0.355575,0.39627498,-0.29205
1679997267991,1177256346300292,0.3905,0.4162125,-0.264
1679997267993,1177256348802446,0.4195125,0.43821248,-0.2380125
1679997267996,1177256351304523,0.443575,0.46915,-0.22
1679997267999,1177256353806446,0.46254998,0.5121875,-0.201025
1679997268001,1177256356308494,0.4785,0.5512375,-0.1951125
1679997268006,1177256358810417,0.48455,0.60115,-0.1940125
1679997268014,1177256361312494,0.481525,0.6411625,-0.19305
1679997268014,1177256363814417,0.4785,0.65615,-0.1940125
1679997268014,1177256366316571,0.47355,0.648175,-0.2080375
1679997268014,1177256368818672,0.459525,0.616275,-0.1951125
1679997268016,1177256371320595,0.4305125,0.5872625,-0.1720125
1679997268018,1177256373822749,0.4085125,0.55027497,-0.1441
1679997268021,1177256376324826,0.3845875,0.4901875,-0.11
1679997268023,1177256378826672,0.3586,0.429275,-0.078099996
1679997268027,1177256381328903,0.34759998,0.346225,-0.0451
1679997268028,1177256383830980,0.3485625,0.2652375,-0.0290125
1679997268031,1177256386332903,0.360525,0.198275,-0.025024999
1679997268033,1177256388834996,0.38555,0.1381875,-0.022
1679997268035,1177256391336919,0.4136,0.1032625,-0.022
1679997268038,1177256393838996,0.4415125,0.0812625,-0.0240625
1679997268041,1177256396340919,0.4855125,0.0611875,-0.0259875
1679997268045,1177256398843067,0.531575,0.054175,-0.020075
1679997268046,1177256401345144,0.5825875,0.05115,-0.0
1679997268048,1177256403847067,0.6325,0.0372625,0.0389125
1679997268051,1177256406349144,0.685575,0.038225,0.095975
1679997268054,1177256408851067,0.7326,0.032175,0.1720125
1679997268057,1177256411353158,0.773575,0.015262499,0.2629
1679997268058,1177256413855312,0.7995625,-0.0188375,0.3639625
1679997268061,1177256416357235,0.822525,-0.077825,0.45993748
1679997268063,1177256418859312,0.844525,-0.15785,0.5509625
1679997268069,1177256421361442,0.871475,-0.2407625,0.639925
1679997268069,1177256423863365,0.915475,-0.351725,0.7019375
1679997268072,1177256426365211,0.9636,-0.484825,0.737
1679997268074,1177256428867365,1.0175,-0.6177875,0.7398875
1679997268077,1177256431369519,1.07855,-0.7387875,0.7129375
1679997268080,1177256433871582,1.1424875,-0.8328375,0.6609625
1679997268083,1177256436373505,1.2095875,-0.90585,0.5889125
1679997268086,1177256438875582,1.2775126,-0.9538375,0.507925
1679997268087,1177256441377505,1.3435125,-0.9838125,0.429
1679997268089,1177256443879582,1.4075875,-0.9887625,0.359975
1679997268091,1177256446381509,1.4614875,-0.98285,0.3009875
1679997268093,1177256448883663,1.5085125,-0.9648375,0.2600125
1679997268096,1177256451385740,1.5466,-0.929775,0.232925
1679997268098,1177256453887663,1.5725875,-0.89375,0.2189
1679997268101,1177256456389745,1.5835875,-0.85676247,0.2099625
1679997268103,1177256458891668,1.5805625,-0.814825,0.2099625
1679997268106,1177256461393745,1.5644749,-0.7788,0.22
1679997268108,1177256463895899,1.542475,-0.73974997,0.22495
1679997268110,1177256466397822,1.5195125,-0.693825,0.22893749
1679997268113,1177256468899957,1.5035625,-0.659725,0.2270125
1679997268117,1177256471402034,1.49655,-0.60775,0.2160125
1679997268119,1177256473903880,1.4944875,-0.5297875,0.2270125
1679997268121,1177256476406029,1.4955875,-0.4197875,0.2558875
1679997268125,1177256478907952,1.5005375,-0.2908125,0.2869625
1679997268127,1177256481410106,1.5054874,-0.1527625,0.320925
1679997268128,1177256483912183,1.50755,-0.0198,0.353925
1679997268132,1177256486414082,1.532575,0.09515,0.3839
1679997268133,1177256488916159,1.570525,0.20019999,0.4360125
1679997268136,1177256491418082,1.6335,0.319275,0.485925
1679997268138,1177256493920159,1.7045875,0.4202,0.5240125
1679997268141,1177256496422082,1.7765,0.506275,0.5619625
1679997268143,1177256498924230,1.8464875,0.5952375,0.6089875
1679997268147,1177256501426307,1.922525,0.67925,0.6719625
1679997268148,1177256503928230,2.0095625,0.6972625,0.7299875
1679997268151,1177256506430307,2.1626,0.61325,0.7759125
1679997268155,1177256508932457,2.2215874,0.6612375,0.8479625
1679997268157,1177256511434380,2.274525,0.847275,0.9469625
1679997268160,1177256513936457,2.3496,1.06425,1.0478874
1679997268161,1177256516438380,2.4475,1.2472625,1.118975
1679997268163,1177256518940457,2.5064874,1.3572625,1.15995
1679997268165,1177256521442394,2.4926,1.4251875,1.178925
1679997268168,1177256523944779,2.4985125,1.5431625,1.2128875
1679997268172,1177256526446625,2.4985125,1.5901875,1.2289749
1679997268173,1177256528948548,2.456575,1.4642375,1.2269125
1679997268177,1177256531450697,2.3865874,1.287275,1.206975
1679997268178,1177256533952774,2.3285625,1.110175,1.156925
1679997268181,1177256536454620,2.2785125,0.9741875,1.0258875
1679997268183,1177256538956774,2.2314875,0.84425,0.8669375
1679997268186,1177256541458914,2.1874876,0.67925,0.7189875
1679997268188,1177256543960837,2.1296,0.51315,0.55
1679997268193,1177256546462914,2.0695126,0.39325,0.33495
1679997268195,1177256548964837,1.9965,0.22825,0.0939125
1679997268196,1177256551466914,1.9454875,-0.036849998,-0.179025
1679997268198,1177256553968846,1.8935125,-0.36781248,-0.4961
1679997268201,1177256556470923,1.8464875,-0.671825,-0.814
1679997268204,1177256558973077,1.7765,-0.9218,-1.1011
1679997268206,1177256561475000,1.7065125,-1.143725,-1.3541
1679997268209,1177256563977077,1.6655375,-1.3377374,-1.587025
1679997268211,1177256566479000,1.6456,-1.4647875,-1.79905
1679997268215,1177256568981077,1.6335,-1.5698375,-1.9839875
1679997268218,1177256571483000,1.6165875,-1.705825,-2.1461
1679997268219,1177256573985164,1.5725875,-1.8877375,-2.2820876
1679997268221,1177256576487241,1.5026,-2.0747375,-2.4040499
1679997268225,1177256578989395,1.4265625,-2.2207625,-2.4941125
1679997268227,1177256581491318,1.3355374,-2.33475,-2.5491126
1679997268231,1177256583993159,1.2425874,-2.386725,-2.5510375
1679997268232,1177256586495313,1.152525,-2.376825,-2.49205
1679997268235,1177256588997390,1.05655,-2.3188,-2.3920875
1679997268237,1177256591499543,0.9625,-2.222825,-2.247025
1679997268238,1177256594001466,0.87848747,-2.106775,-2.079
1679997268241,1177256596503567,0.7986,-1.9998,-1.9060249
1679997268245,1177256599005490,0.7244875,-1.925825,-1.7320875
1679997268246,1177256601507567,0.663575,-1.8998375,-1.5549875
1679997268248,1177256604009490,0.618475,-1.859825,-1.3789876
1679997268251,1177256606511577,0.6006,-1.74185,-1.1961125
1679997268254,1177256609013731,0.624525,-1.5607625,-1.045
1679997268256,1177256611515654,0.6565625,-1.3908125,-0.9180875
1679997268258,1177256614017731,0.6815875,-1.2387375,-0.8111125
1679997268261,1177256616519649,0.70248747,-1.08075,-0.7519875
1679997268264,1177256619021726,0.7165125,-0.97075,-0.7440125
1679997268268,1177256621523649,0.7106,-0.9477875,-0.77907497
1679997268270,1177256624025803,0.7035875,-0.97185,-0.856075
1679997268272,1177256626527952,0.707575,-1.0077375,-0.95205
1679997268274,1177256629030029,0.7225625,-1.0687875,-1.0800625
1679997268279,1177256631531875,0.7354875,-1.16985,-1.2120625
1679997268279,1177256634034029,0.7475875,-1.2777874,-1.3000625
1679997268281,1177256636535952,0.7605125,-1.3508,-1.301025
1679997268284,1177256639038024,0.7805875,-1.3597375,-1.186075
1679997268286,1177256641540178,0.8135875,-1.28975,-0.9761125
1679997268288,1177256644042101,0.8625375,-1.1628375,-0.715
1679997268291,1177256646544178,0.9315625,-1.0538,-0.4481125
1679997268294,1177256649046120,0.9966,-1.00485,-0.185075
1679997268296,1177256651548197,1.0525625,-1.0278125,0.0829125
1679997268298,1177256654050120,1.1045375,-1.07085,0.3548875
1679997268301,1177256656552274,1.1506,-1.09285,0.6249375
1679997268306,1177256659054361,1.190475,-1.094775,0.8870125
1679997268308,1177256661556284,1.213575,-1.09175,1.1400125
1679997268311,1177256664058361,1.2205875,-1.0858375,1.3789876
1679997268312,1177256666560284,1.2194875,-1.077725,1.613975
1679997268314,1177256669062361,1.196525,-1.077725,1.8440125
1679997268316,1177256671564264,1.141525,-1.055725,2.0449
1679997268320,1177256674066418,1.0605375,-1.006775,2.1918874
1679997268321,1177256676568572,0.9636,-0.96085,2.262975
1679997268324,1177256679070418,0.84755,-0.9068125,2.2609124
1679997268327,1177256681572505,0.7165125,-0.8328375,2.1759374
1679997268328,1177256684074659,0.575575,-0.7437375,2.0048876
1679997268332,1177256686576582,0.426525,-0.62273747,1.7699
1679997268335,1177256689078659,0.283525,-0.4797375,1.5030125
1679997268336,1177256691580812,0.1595,-0.3378375,1.2159125
1679997268342,1177256694082716,0.06655,-0.2327875,0.9169875
1679997268344,1177256696584793,0.0094875,-0.1827375,0.6109125
1679997268346,1177256699086640,-0.013475,-0.1698125,0.320925
1679997268348,1177256701588793,0.0015125,-0.17875,0.0639375
1679997268350,1177256704090947,0.0455125,-0.2217875,-0.14905
1679997268351,1177256706592875,0.118525,-0.30085,-0.3161125
1679997268353,1177256709094722,0.2055625,-0.38775,-0.4390375
1679997268356,1177256711596875,0.2915,-0.46873748,-0.5270375
1679997268359,1177256714098952,0.371525,-0.5328125,-0.581075
1679997268361,1177256716600865,0.4365625,-0.566775,-0.6089875
1679997268364,1177256719103019,0.4855125,-0.571725,-0.6171
1679997268366,1177256721605096,0.5126,-0.5487625,-0.6040375
1679997268369,1177256724107019,0.525525,-0.506825,-0.572
1679997268371,1177256726609086,0.5236,-0.439725,-0.526075
1679997268376,1177256729111009,0.5154875,-0.351725,-0.4690125
1679997268376,1177256731613086,0.4915625,-0.2578125,-0.3980625
1679997268380,1177256734115240,0.464475,-0.148775,-0.319
1679997268381,1177256736617178,0.44055,-0.0418,-0.2330625
1679997268385,1177256739119255,0.4164875,0.0562375,-0.1441
1679997268387,1177256741621178,0.3975125,0.15125,-0.058025
1679997268389,1177256744123255,0.3925625,0.2231625,0.022
1679997268391,1177256746625178,0.4065875,0.26427498,0.09295
1679997268396,1177256749127250,0.4365625,0.2542375,0.1549625
1679997268396,1177256751629404,0.4796,0.20927499,0.20693749
1679997268399,1177256754131558,0.525525,0.1252625,0.24695
1679997268402,1177256756633404,0.5845125,0.0031625,0.2619375
1679997268404,1177256759135577,0.635525,-0.14685,0.2589125
1679997268406,1177256761637500,0.685575,-0.302775,0.2399375
1679997268408,1177256764139577,0.72655,-0.450725,0.2179375
1679997268412,1177256766641731,0.756525,-0.5847875,0.1898875
1679997268415,1177256769143649,0.7766,-0.7228375,0.16293749
1679997268419,1177256771645726,0.7855375,-0.8707875,0.1299375
1679997268420,1177256774147649,0.7825125,-1.00485,0.099
1679997268421,1177256776649726,0.7684875,-1.1308,0.0688875
1679997268424,1177256779151649,0.751575,-1.253725,0.029975
1679997268427,1177256781653731,0.734525,-1.3597375,-0.00605
1679997268429,1177256784155885,0.7205,-1.4477375,-0.0479875
1679997268431,1177256786657808,0.7115625,-1.5598,-0.0900625
1679997268436,1177256789159871,0.7106,-1.6597625,-0.1420375
1679997268436,1177256791661794,0.72655,-1.7217749,-0.21807499
1679997268439,1177256794163871,0.734525,-1.7727875,-0.2910875
1679997268441,1177256796665794,0.7145875,-1.842775,-0.3510375
1679997268445,1177256799167871,0.685575,-1.93985,-0.4041125
1679997268446,1177256801670024,0.6705875,-2.0178125,-0.451
1679997268449,1177256804171948,0.6556,-2.0417376,-0.5020125
1679997268452,1177256806674024,0.6375875,-2.0318375,-0.553025
1679997268456,1177256809176178,0.624525,-1.9888,-0.6061
1679997268457,1177256811678120,0.60555,-1.9347625,-0.6611
1679997268459,1177256814180197,0.59455,-1.89475,-0.713075
1679997268461,1177256816682351,0.5995,-1.831775,-0.759
1679997268465,1177256819184274,0.6006,-1.759725,-0.7959875
1679997268467,1177256821686351,0.5924875,-1.7177875,-0.817025
1679997268471,1177256824188274,0.58959997,-1.666775,-0.8240375
1679997268472,1177256826690351,0.597575,-1.6028374,-0.8240375
1679997268475,1177256829192274,0.5985375,-1.5228125,-0.8130375
1679997268476,1177256831694351,0.597575,-1.4378375,-0.792
1679997268479,1177256834196524,0.607475,-1.35685,-0.7629875
1679997268483,1177256836698447,0.6175125,-1.2408,-0.7360375
1679997268486,1177256839200524,0.607475,-1.0828125,-0.7060625
1679997268487,1177256841702447,0.58547497,-0.901725,-0.682
1679997268489,1177256844204534,0.5484875,-0.720775,-0.6571125
1679997268494,1177256846706457,0.5115,-0.5438125,-0.649
1679997268495,1177256849208534,0.4785,-0.36574998,-0.649
1679997268497,1177256851710688,0.454575,-0.20075,-0.6529875
1679997268500,1177256854212601,0.4384875,-0.0317625,-0.6510625
1679997268502,1177256856714755,0.43147498,0.1442375,-0.649
1679997268507,1177256859216832,0.420475,0.297275,-0.638
1679997268508,1177256861718678,0.4125,0.42515,-0.6281
1679997268510,1177256864220832,0.404525,0.53515,-0.6120125
1679997268511,1177256866722996,0.4035625,0.6252125,-0.5960625
1679997268515,1177256869224919,0.4115375,0.70125,-0.5770875
1679997268516,1177256871726996,0.4235,0.758175,-0.55605
1679997268520,1177256874228919,0.448525,0.8052,-0.5350125
1679997268521,1177256876731010,0.4695625,0.83916247,-0.509025
1679997268524,1177256879232933,0.4835875,0.8482375,-0.4860625
1679997268526,1177256881735087,0.49555,0.83215,-0.460075
1679997268530,1177256884237164,0.49555,0.8012125,-0.4411
1679997268532,1177256886739097,0.487575,0.7651875,-0.4329875
1679997268535,1177256889241174,0.4785,0.73425,-0.4250125
1679997268536,1177256891743097,0.4665375,0.7132125,-0.427075
1679997268539,1177256894245250,0.443575,0.70125,-0.4439875
1679997268541,1177256896747327,0.4255625,0.687225,-0.46805
1679997268546,1177256899249256,0.409475,0.682275,-0.4921125
1679997268547,1177256901751332,0.3955875,0.693275,-0.5160375
1679997268549,1177256904253256,0.38555,0.703175,-0.55
1679997268551,1177256906755332,0.3755125,0.703175,-0.5850625
1679997268555,1177256909257256,0.371525,0.68915,-0.6210875
1679997268557,1177256911759404,0.36355,0.66522497,-0.6560125
1679997268560,1177256914261481,0.354475,0.6521625,-0.685025
1679997268562,1177256916763404,0.34155,0.649275,-0.7090875
1679997268565,1177256919265481,0.33055,0.6622,-0.735075
1679997268569,1177256921767635,0.3174875,0.6912125,-0.762025
1679997268570,1177256924269481,0.305525,0.7401625,-0.7970875
1679997268571,1177256926771712,0.2985125,0.808225,-0.83709997
1679997268575,1177256929273789,0.3095125,0.8861875,-0.883025
1679997268576,1177256931775712,0.3375625,0.97515,-0.9279875
1679997268579,1177256934277543,0.382525,1.056275,-0.9730875
1679997268581,1177256936779697,0.448525,1.1312125,-1.0190125
1679997268586,1177256939281774,0.5245625,1.1972125,-1.0630125
1679997268589,1177256941783683,0.613525,1.253175,-1.1011
1679997268589,1177256944285837,0.7055125,1.3072125,-1.1369874
1679997268593,1177256946787914,0.80355,1.3652375,-1.1730125
1679997268595,1177256949289837,0.9015875,1.4251875,-1.213025
1679997268597,1177256951791914,1.0025125,1.4881625,-1.250975
1679997268601,1177256954293846,1.1005499,1.5522375,-1.2909875
1679997268601,1177256956795923,1.202575,1.6192,-1.327975
1679997268607,1177256959297846,1.29855,1.6732374,-1.3651
1679997268607,1177256961800000,1.3855875,1.72315,-1.400025
1679997268609,1177256964302077,1.4724874,1.7642624,-1.4339875
1679997268611,1177256966804019,1.5525125,1.803175,-1.4641
1679997268615,1177256969306096,1.631575,1.8261375,-1.4920125
1679997268616,1177256971808019,1.7105,1.83315,-1.514975
1679997268619,1177256974310096,1.7884625,1.8242124,-1.53505
1679997268622,1177256976812270,1.8625749,1.787225,-1.5530624
1679997268628,1177256979314424,1.939575,1.7312624,-1.562
1679997268628,1177256981816270,2.0125875,1.6652625,-1.558975
1679997268631,1177256984318193,2.07955,1.5892249,-1.5450875
1679997268635,1177256986820347,2.147475,1.4991624,-1.5301
1679997268636,1177256989322424,2.2075624,1.40415,-1.514975
1679997268636,1177256991824270,2.2714999,1.297175,-1.499025
1679997268638,1177256994326424,2.3384626,1.1661375,-1.4810125
1679997268642,1177256996828581,2.4074874,1.0371625,-1.4570875
1679997268645,1177256999330428,2.4715624,0.90021247,-1.4260125
1679997268647,1177257001832581,2.5394876,0.7602375,-1.3960375
1679997268649,1177257004334505,2.6024625,0.62315,-1.360975
1679997268651,1177257006836581,2.6574626,0.4962375,-1.32605
1679997268654,1177257009338486,2.7084749,0.3782625,-1.283975
1679997268656,1177257011840639,2.75055,0.2371875,-1.2370875
1679997268660,1177257014342716,2.7784624,0.0801625,-1.1919875
1679997268661,1177257016844639,2.7955124,-0.0757625,-1.1430374
1679997268666,1177257019346707,2.8015625,-0.2217875,-1.0819875
1679997268667,1177257021848630,2.802525,-0.352825,-1.0170875
1679997268669,1177257024350707,2.7894626,-0.47575,-0.9471
1679997268673,1177257026852861,2.7725499,-0.599775,-0.883025
1679997268677,1177257029354764,2.7395499,-0.6978125,-0.821975
1679997268677,1177257031856841,2.6945875,-0.7767375,-0.7660125
1679997268682,1177257034358764,2.643575,-0.8468625,-0.729025
1679997268682,1177257036860841,2.59655,-0.9117625,-0.7079875
1679997268685,1177257039362750,2.5614874,-0.94985,-0.7161
1679997268687,1177257041864827,2.5364625,-0.97185,-0.7409875
1679997268689,1177257044367058,2.4935625,-1.039775,-0.757075
1679997268691,1177257046868904,2.4294875,-1.14675,-0.768075
1679997268695,1177257049370981,2.367475,-1.2538625,-0.7849875
1679997268696,1177257051872918,2.307525,-1.3437876,-0.812075
1679997268699,1177257054375072,2.2394624,-1.4168,-0.854975
1679997268701,1177257056876918,2.1775875,-1.5008125,-0.9040625
1679997268706,1177257059379072,2.142525,-1.6627874,-0.9670375
1679997268707,1177257061881226,2.1305625,-1.8148625,-1.043075
1679997268709,1177257064383303,2.1085625,-1.892825,-1.1180125
1679997268711,1177257066885149,2.087525,-1.9317375,-1.1900625
1679997268714,1177257069387072,2.048475,-1.91675,-1.265
1679997268718,1177257071889236,2.0004876,-1.8858125,-1.3459874
1679997268719,1177257074391390,1.9534625,-1.86285,-1.4339875
1679997268721,1177257076893236,1.9155124,-1.8277875,-1.5250125
1679997268724,1177257079395313,1.8745375,-1.7458375,-1.6110874
1679997268727,1177257081897467,1.8255875,-1.6457375,-1.68905
1679997268728,1177257084399365,1.774575,-1.562825,-1.763025
1679997268731,1177257086901442,1.7235625,-1.5118124,-1.824075
1679997268734,1177257089403596,1.685475,-1.485825,-1.8690375
1679997268736,1177257091905519,1.663475,-1.47675,-1.9060249
1679997268738,1177257094407591,1.658525,-1.4947625,-1.925
1679997268741,1177257096909514,1.6605875,-1.534775,-1.93105
1679997268746,1177257099411591,1.6735125,-1.57575,-1.9210125
1679997268747,1177257101913514,1.6885,-1.6028374,-1.9080875
1679997268749,1177257104415658,1.7065125,-1.622775,-1.8821
1679997268751,1177257106917734,1.7224625,-1.628825,-1.84305
1679997268756,1177257109419658,1.735525,-1.5998125,-1.7980875
1679997268757,1177257111921734,1.7425375,-1.534775,-1.736075
1679997268760,1177257114423678,1.741575,-1.4697375,-1.6680125
1679997268761,1177257116925754,1.7315375,-1.4078625,-1.587025
1679997268764,1177257119427908,1.7215,-1.3418624,-1.4971
1679997268766,1177257121929831,1.7065125,-1.2758625,-1.3981
1679997268769,1177257124431908,1.6825875,-1.2288375,-1.2940125
1679997268772,1177257126933821,1.6605875,-1.1968,-1.1891
1679997268775,1177257129435975,1.6445,-1.171775,-1.087075
1679997268776,1177257131938052,1.6295125,-1.1658624,-0.9780375
1679997268779,1177257134439898,1.61755,-1.1768625,-0.8630875
1679997268781,1177257136942129,1.6075125,-1.210825,-0.74909997
1679997268785,1177257139444206,1.5885375,-1.2428625,-0.6340125
1679997268787,1177257141946129,1.56255,-1.2607375,-0.5220875
1679997268789,1177257144448206,1.52955,-1.2738,-0.4170375
1679997268793,1177257146950110,1.48555,-1.29085,-0.326975
1679997268796,1177257149452187,1.444575,-1.33375,-0.2490125
1679997268797,1177257151954110,1.39755,-1.391775,-0.17105
1679997268799,1177257154456264,1.35355,-1.45585,-0.10505
1679997268801,1177257156958341,1.3105125,-1.5277625,-0.051975
1679997268805,1177257159460264,1.2835625,-1.6218125,-0.013062499
1679997268806,1177257161962341,1.2744875,-1.7458375,0.0099
1679997268809,1177257164464264,1.2854875,-1.8678,0.0259875
1679997268812,1177257166966341,1.29855,-1.9457625,0.040975
1679997268815,1177257169468480,1.3135375,-2.024825,0.0499125
1679997268819,1177257171970403,1.3245375,-2.1107626,0.0499125
1679997268819,1177257174472480,1.344475,-2.1847374,0.044
1679997268821,1177257176974403,1.36455,-2.2658625,0.0309375
1679997268827,1177257179476557,1.39755,-2.332825,0.0059125
1679997268827,1177257181978403,1.4295875,-2.359775,-0.029975
1679997268832,1177257184480557,1.4575,-2.3518,-0.08305
1679997268833,1177257186982711,1.493525,-2.3618374,-0.152075
1679997268835,1177257189484788,1.5395875,-2.3527625,-0.2321
1679997268837,1177257191986721,1.592525,-2.31385,-0.322025
1679997268839,1177257194488798,1.6435375,-2.2797499,-0.41799998
1679997268841,1177257196990721,1.6985375,-2.2418,-0.5209875
1679997268845,1177257199492798,1.7545,-2.2097626,-0.63002497
1679997268846,1177257201994750,1.8145875,-2.1888626,-0.7420875
1679997268849,1177257204496904,1.87055,-2.1987624,-0.8600625
1679997268851,1177257206998980,1.92555,-2.2308,-0.9730875
1679997268855,1177257209500904,1.9754624,-2.2797499,-1.085975
1679997268856,1177257212002980,2.0295,-2.3337874,-1.1870375
1679997268859,1177257214504928,2.076525,-2.387825,-1.279025
1679997268862,1177257217007004,2.1104875,-2.43485,-1.37005
1679997268866,1177257219509158,2.1415625,-2.4618,-1.4810125
1679997268868,1177257222011071,2.159575,-2.5037374,-1.6110874
1679997268870,1177257224513148,2.1605375,-2.5947626,-1.714075
1679997268872,1177257227015302,2.158475,-2.695825,-1.7760875
1679997268875,1177257229517148,2.148575,-2.7737875,-1.8149999
1679997268877,1177257232019071,2.14555,-2.84075,-1.833975
1679997268880,1177257234521206,2.1275375,-2.8697624,-1.840025
1679997268882,1177257237023360,2.0805125,-2.8678374,-1.8409874
1679997268885,1177257239525206,2.010525,-2.8968499,-1.8420875
1679997268889,1177257242027336,1.93655,-2.9437375,-1.8470374
1679997268889,1177257244529413,1.85955,-2.9877374,-1.8610625
1679997268893,1177257247031336,1.7774625,-3.0298126,-1.8750875
1679997268895,1177257249533413,1.6885,-3.0548375,-1.8770125
1679997268897,1177257252035567,1.581525,-3.0438375,-1.8770125
1679997268901,1177257254537505,1.4595625,-2.9827874,-1.866975
1679997268902,1177257257039582,1.3264625,-2.89575,-1.8460749
1679997268909,1177257259541505,1.174525,-2.8177874,-1.8200874
1679997268910,1177257262043582,1.009525,-2.7548125,-1.7870874
1679997268911,1177257264545736,0.844525,-2.69775,-1.7419875
1679997268912,1177257267047659,0.67553747,-2.6368375,-1.692075
1679997268915,1177257269549736,0.503525,-2.5608,-1.6350125
1679997268916,1177257272051659,0.31955,-2.47885,-1.562
1679997268919,1177257274553736,0.124575,-2.4028125,-1.4810125
1679997268922,1177257277055649,-0.073425,-2.3518,-1.3981
1679997268925,1177257279557803,-0.271425,-2.315775,-1.3190374
1679997268927,1177257282059880,-0.470525,-2.23575,-1.235025
1679997268929,1177257284561803,-0.6725125,-2.150775,-1.1600875
1679997268932,1177257287063861,-0.8564875,-2.0898626,-1.0990375
1679997268935,1177257289566015,-1.0264375,-2.02785,-1.0520124
1679997268936,1177257292067861,-1.1694375,-1.9658375,-1.0241
1679997268939,1177257294569784,-1.27545,-1.89585,-1.0280875
1679997268943,1177257297072187,-1.3534125,-1.82875,-1.037025
1679997268946,1177257299574111,-1.404425,-1.7578,-1.0570999
1679997268947,1177257302076187,-1.4414124,-1.6927625,-1.078
1679997268950,1177257304578111,-1.449525,-1.6567374,-1.09505
1679997268952,1177257307080187,-1.44045,-1.6237375,-1.1180125
1679997268955,1177257309582107,-1.4254625,-1.5768499,-1.1270875
1679997268956,1177257312084183,-1.4004375,-1.5478375,-1.12805
1679997268960,1177257314586337,-1.355475,-1.5467374,-1.120075
1679997268961,1177257317088260,-1.2805375,-1.562825,-1.114025
1679997268965,1177257319590361,-1.1834625,-1.6047624,-1.1011
1679997268968,1177257322092284,-1.0825375,-1.650825,-1.0819875
1679997268969,1177257324594361,-0.9725375,-1.7048625,-1.0570999
1679997268973,1177257327096284,-0.8674875,-1.7578,-1.0280875
1679997268975,1177257329598447,-0.772475,-1.7947875,-1.0030625
1679997268977,1177257332100524,-0.690525,-1.7917625,-0.999075
1679997268980,1177257334602447,-0.629475,-1.7697625,-1.0110375
1679997268982,1177257337104524,-0.5724125,-1.6828625,-1.04005
1679997268986,1177257339606471,-0.5225,-1.567775,-1.0840499
1679997268987,1177257342108548,-0.49445,-1.46685,-1.1290125
1679997268989,1177257344610702,-0.4794625,-1.3877875,-1.177
1679997268992,1177257347112856,-0.464475,-1.3308625,-1.235025
1679997268995,1177257349614668,-0.4384875,-1.30185,-1.2920874
1679997268996,1177257352116822,-0.3994375,-1.2868625,-1.3349875
1679997268999,1177257354618745,-0.35145,-1.2848,-1.3770624
1679997269001,1177257357120822,-0.2985125,-1.30075,-1.4130875
1679997269005,1177257359622745,-0.2365,-1.3487375,-1.4430625
1679997269007,1177257362124899,-0.15853749,-1.41185,-1.45805
1679997269009,1177257364626976,-0.0724625,-1.474825,-1.4620374
1679997269012,1177257367128899,0.0174625,-1.55375,-1.4751
1679997269015,1177257369630976,0.1145375,-1.6597625,-1.4779875
1679997269018,1177257372132885,0.2135375,-1.76275,-1.472075
1679997269020,1177257374634962,0.30855,-1.837825,-1.448975
1679997269022,1177257377136885,0.4015,-1.87275,-1.428075
1679997269026,1177257379639044,0.481525,-1.8937875,-1.4040124
1679997269028,1177257382141121,0.5385875,-1.9047875,-1.3600125
1679997269030,1177257384643044,0.5715875,-1.9017625,-1.3000625
1679997269031,1177257387145121,0.586575,-1.8708249,-1.243
1679997269034,1177257389647044,0.5924875,-1.8107375,-1.1980375
1679997269036,1177257392149116,0.580525,-1.738825,-1.1561
1679997269039,1177257394651270,0.552475,-1.6438125,-1.10605
1679997269041,1177257397153193,0.5225,-1.50975,-1.0489875
1679997269045,1177257399655270,0.4904625,-1.3517625,-0.988075
1679997269047,1177257402157423,0.4574625,-1.1958375,-0.91905
1679997269050,1177257404659347,0.432575,-1.0327625,-0.843975
1679997269052,1177257407161193,0.409475,-0.88673747,-0.766975
1679997269056,1177257409663347,0.3914625,-0.76285,-0.7000125
1679997269058,1177257412165495,0.3815625,-0.6678375,-0.641025
1679997269060,1177257414667572,0.3694625,-0.605825,-0.5841
1679997269062,1177257417169495,0.3595625,-0.566775,-0.5300625
1679997269065,1177257419671572,0.3575,-0.5368,-0.4720375
1679997269068,1177257422173479,0.36355,-0.5278625,-0.4109875
1679997269069,1177257424675556,0.3685,-0.53473747,-0.34705
1679997269072,1177257427177479,0.3755125,-0.5487625,-0.2880625
1679997269078,1177257429679633,0.3834875,-0.5627875,-0.2410375
1679997269078,1177257432181710,0.3865125,-0.5957875,-0.205975
1679997269079,1177257434683633,0.382525,-0.632775,-0.183975
1679997269082,1177257437185710,0.371525,-0.67375,-0.1771
1679997269085,1177257439687864,0.3535125,-0.720775,-0.1731125
1679997269088,1177257442189787,0.3256,-0.764775,-0.1771
1679997269089,1177257444691879,0.2915,-0.8017625,-0.18205
1679997269094,1177257447193802,0.234575,-0.8338,-0.185075
1679997269096,1177257449695879,0.167475,-0.857725,-0.1860375
1679997269098,1177257452197802,0.0895125,-0.8897625,-0.1890625
1679997269099,1177257454699912,0.0176,-0.9197375,-0.190025
1679997269102,1177257457202066,-0.0594,-0.92675,-0.1881
1679997269105,1177257459703989,-0.1265,-0.9208375,-0.2000625
1679997269107,1177257462206066,-0.1925,-0.90475,-0.2030875
1679997269109,1177257464707989,-0.27445,-0.857725,-0.1940125
1679997269112,1177257467210047,-0.3575,-0.8267875,-0.1920875
1679997269116,1177257469711970,-0.4244625,-0.836825,-0.1890625
1679997269117,1177257472214355,-0.480425,-0.8558,-0.198
1679997269120,1177257474716186,-0.5064125,-0.9007625,-0.2239875
1679997269122,1177257477218109,-0.5104,-0.9438,-0.242
1679997269125,1177257479720263,-0.5284125,-0.9697875,-0.2569875
1679997269127,1177257482222340,-0.5284125,-0.98285,-0.275
1679997269131,1177257484724239,-0.5234625,-0.990825,-0.2820125
1679997269132,1177257487226316,-0.5344625,-0.9978375,-0.275
1679997269135,1177257489728470,-0.5394125,-1.01475,-0.27307498
1679997269137,1177257492230393,-0.502425,-1.01585,-0.2770625
1679997269140,1177257494732470,-0.469425,-0.9878,-0.2910875
1679997269142,1177257497234369,-0.43147498,-0.97075,-0.297
1679997269145,1177257499736446,-0.4184125,-0.962775,-0.2899875
1679997269147,1177257502238369,-0.3964125,-0.92785,-0.2930125
1679997269149,1177257504740446,-0.3634125,-0.847825,-0.2981
1679997269152,1177257507242566,-0.34141248,-0.76285,-0.3020875
1679997269155,1177257509744490,-0.3304125,-0.7088125,-0.3130875
1679997269157,1177257512246567,-0.3194125,-0.659725,-0.3320625
1679997269159,1177257514748490,-0.2894375,-0.610775,-0.3449875
1679997269162,1177257517250615,-0.26345,-0.5817625,-0.3531
1679997269165,1177257519752768,-0.2545125,-0.5768125,-0.36905
1679997269168,1177257522254691,-0.2365,-0.55275,-0.40301248
1679997269169,1177257524756768,-0.216425,-0.49981248,-0.438075
1679997269172,1177257527258922,-0.2094125,-0.439725,-0.4690125
1679997269175,1177257529760845,-0.2044625,-0.3727625,-0.5000875
1679997269176,1177257532262922,-0.1984125,-0.308825,-0.520025
1679997269180,1177257534764845,-0.2094125,-0.2718375,-0.5490375
1679997269182,1177257537266922,-0.2124375,-0.24475,-0.5820375
1679997269185,1177257539769090,-0.1995125,-0.198825,-0.6100875
1679997269187,1177257542271013,-0.1824625,-0.165825,-0.6260375
1679997269189,1177257544773090,-0.167475,-0.1637625,-0.6340125
1679997269191,1177257547275013,-0.15345,-0.19085,-0.6309875
1679997269195,1177257549777076,-0.124437496,-0.2297625,-0.614075
1679997269197,1177257552278999,-0.0864875,-0.302775,-0.5869875
1679997269199,1177257554781076,-0.0314875,-0.39875,-0.5600375
1679997269201,1177257557283230,0.0275,-0.50875,-0.5361125
1679997269206,1177257559785133,0.0864875,-0.61985,-0.504075
1679997269208,1177257562287210,0.15853749,-0.824725,-0.4670875
1679997269210,1177257564789133,0.2514875,-1.0687875,-0.427075
1679997269212,1177257567291210,0.3135,-1.20285,-0.4010875
1679997269215,1177257569793133,0.3535125,-1.25785,-0.3900875
1679997269217,1177257572295297,0.3724875,-1.2728375,-0.3840375
1679997269221,1177257574797374,0.3806,-1.259775,-0.3889875
1679997269224,1177257577299528,0.37454998,-1.2258124,-0.394075
1679997269228,1177257579801374,0.3645125,-1.16985,-0.394075
1679997269228,1177257582303528,0.3405875,-1.1188375,-0.3821125
1679997269230,1177257584805451,0.300575,-1.0638375,-0.36905
1679997269232,1177257587307528,0.2486,-1.01585,-0.355025
1679997269235,1177257589809682,0.1915375,-0.97075,-0.3271125
1679997269237,1177257592311630,0.134475,-0.9197375,-0.300025
1679997269239,1177257594813707,0.080575,-0.847825,-0.27005
1679997269245,1177257597315630,0.0275,-0.7858125,-0.2360875
1679997269246,1177257599817707,-0.0254375,-0.7247625,-0.2110625
1679997269248,1177257602319640,-0.0834625,-0.643775,-0.1881
1679997269250,1177257604821794,-0.1434125,-0.53185,-0.1640375
1679997269252,1177257607323871,-0.2124375,-0.4197875,-0.1340625
1679997269256,1177257609825794,-0.283525,-0.341825,-0.102025
1679997269264,1177257612327871,-0.349525,-0.29273748,-0.0540375
1679997269264,1177257614829784,-0.414425,-0.269775,-0.0020625
1679997269264,1177257617331861,-0.4624125,-0.2688125,0.051975
1679997269266,1177257619833784,-0.4934875,-0.2908125,0.0999625
1679997269268,1177257622335937,-0.502425,-0.33385,0.155925
1679997269269,1177257624837995,-0.4954125,-0.407825,0.2118875
1679997269272,1177257627339918,-0.4954125,-0.50875,0.276925
1679997269275,1177257629841995,-0.4984375,-0.5918,0.353925
1679997269277,1177257632344149,-0.4855125,-0.6348375,0.4208875
1679997269281,1177257634846091,-0.458425,-0.6447375,0.4690125
1679997269283,1177257637348245,-0.4274875,-0.6067875,0.5119125
1679997269286,1177257639850322,-0.3975125,-0.5438125,0.5539875
1679997269287,1177257642352168,-0.3685,-0.5077875,0.5790125
1679997269290,1177257644854322,-0.3224375,-0.51975,0.6089875
1679997269291,1177257647356264,-0.2624875,-0.571725,0.65793747
1679997269294,1177257649858341,-0.1794375,-0.6477625,0.7330125
1679997269296,1177257652360495,-0.08745,-0.758725,0.8210125
1679997269299,1177257654862418,0.0165,-0.8597875,0.9029625
1679997269302,1177257657364510,0.118525,-0.94875,0.97295
1679997269306,1177257659866433,0.2184875,-1.0107625,1.0300125
1679997269307,1177257662368510,0.3095125,-1.0428,1.0759375
1679997269310,1177257664870433,0.34347498,-1.155825,1.10495
1679997269312,1177257667372587,0.3735875,-1.19185,1.1649
1679997269318,1177257669874664,0.4026,-1.23475,1.232
1679997269319,1177257672376587,0.4164875,-1.30075,1.276
1679997269321,1177257674878664,0.415525,-1.31285,1.3129874
1679997269323,1177257677380606,0.4026,-1.23585,1.338975
1679997269325,1177257679882683,0.393525,-1.1378125,1.3820125
1679997269328,1177257682384837,0.3795,-1.0168124,1.4339875
1679997269329,1177257684886760,0.355575,-0.8787625,1.47895
1679997269331,1177257687388914,0.3425125,-0.7717875,1.5079625
1679997269335,1177257689890731,0.34347498,-0.6917625,1.5409625
1679997269337,1177257692392885,0.34155,-0.64075,1.5978875
1679997269340,1177257694894962,0.34347498,-0.6287875,1.6559125
1679997269341,1177257697396885,0.34553748,-0.6568375,1.694
1679997269345,1177257699899039,0.3155625,-0.7547375,1.7039
1679997269347,1177257702401116,0.2825625,-0.8757375,1.734975
1679997269349,1177257704903039,0.2435125,-1.022725,1.7839249
1679997269352,1177257707405116,0.206525,-1.171775,1.8330125
1679997269356,1177257709907029,0.179575,-1.29085,1.877975
1679997269358,1177257712409106,0.1665125,-1.374725,1.91895
1679997269360,1177257714911259,0.1606,-1.3987875,1.9608874
1679997269362,1177257717413182,0.1485,-1.352725,1.9828875
1679997269365,1177257719915259,0.1084875,-1.199825,1.9729875
1679997269367,1177257722417182,0.057475,-1.0077375,1.9639125
1679997269369,1177257724919259,0.0235125,-0.896775,1.969
1679997269372,1177257727421182,-0.002475,-0.901725,1.9839875
1679997269375,1177257729923259,-0.0345125,-0.9428375,1.987975
1679997269377,1177257732425432,-0.0944625,-0.9477875,1.970925
1679997269380,1177257734927586,-0.14739999,-0.9728125,1.954975
1679997269382,1177257737429432,-0.18645,-1.02685,1.925
1679997269386,1177257739931355,-0.2124375,-1.1207625,1.8789375
1679997269387,1177257742433514,-0.2314125,-1.2387375,1.8319125
1679997269389,1177257744935591,-0.2454375,-1.3657875,1.7738875
1679997269396,1177257747437514,-0.2585,-1.485825,1.705
1679997269396,1177257749939668,-0.2695,-1.59775,1.640925
1679997269398,1177257752441745,-0.2915,-1.6948249,1.5800124
1679997269401,1177257754943668,-0.3205125,-1.765775,1.5208875
1679997269402,1177257757445745,-0.3535125,-1.831775,1.4719375
1679997269405,1177257759947668,-0.3865125,-1.8827875,1.4399
1679997269407,1177257762449745,-0.4224,-1.9228,1.4150125
1679997269409,1177257764951899,-0.448525,-1.9438375,1.386
1679997269412,1177257767453822,-0.469425,-1.95085,1.3459874
1679997269415,1177257769955899,-0.4954125,-2.007775,1.2409375
1679997269417,1177257772457822,-0.5204375,-2.057825,1.1369874
1679997269420,1177257774959880,-0.5335,-2.090825,1.063975
1679997269422,1177257777461803,-0.563475,-2.166725,1.012
1679997269427,1177257779963880,-0.59345,-2.23685,0.9708875
1679997269428,1177257782466111,-0.61448747,-2.260775,0.9420125
1679997269431,1177257784967971,-0.6414375,-2.2567875,0.9229
1679997269433,1177257787470048,-0.6644,-2.2078376,0.8999375
1679997269437,1177257789972202,-0.67045,-2.112825,0.8669375
1679997269438,1177257792474125,-0.6664625,-1.996775,0.8239
1679997269440,1177257794975971,-0.6584875,-1.869725,0.77
1679997269441,1177257797478125,-0.6395125,-1.7568375,0.7110125
1679997269444,1177257799980279,-0.6114625,-1.655775,0.6450125
1679997269446,1177257802482356,-0.580525,-1.5708,0.579975
1679997269449,1177257804984279,-0.5515125,-1.4788125,0.5209875
1679997269452,1177257807486332,-0.5204375,-1.3938375,0.4690125
1679997269454,1177257809988485,-0.4844125,-1.3068,0.429
1679997269456,1177257812490408,-0.4514125,-1.2117875,0.397925
1679997269460,1177257814992485,-0.4104375,-1.121725,0.3839
1679997269462,1177257817494408,-0.3685,-1.044725,0.3920125
1679997269466,1177257819996485,-0.3205125,-0.967725,0.4129125
1679997269471,1177257822498408,-0.2695,-0.89375,0.447975
1679997269471,1177257825000562,-0.2255,-0.8408125,0.4939
1679997269473,1177257827502620,-0.19139999,-0.824725,0.551925
1679997269475,1177257830004543,-0.1705,-0.8237625,0.6029375
1679997269477,1177257832506620,-0.1654125,-0.8338,0.6469375
1679997269479,1177257835008543,-0.1705,-0.841775,0.67595
1679997269482,1177257837510620,-0.1764125,-0.8448,0.6879125
1679997269485,1177257840012543,-0.17847499,-0.847825,0.6958875
1679997269487,1177257842514697,-0.17847499,-0.8457625,0.7000125
1679997269489,1177257845016774,-0.1804,-0.82885,0.7029
1679997269493,1177257847518928,-0.17847499,-0.79475,0.705925
1679997269495,1177257850020856,-0.17545,-0.7638125,0.722975
1679997269497,1177257852522702,-0.1714625,-0.7327375,0.7409875
1679997269499,1177257855024856,-0.1574375,-0.7088125,0.749925
1679997269502,1177257857526933,-0.1434125,-0.69685,0.755975
1679997269507,1177257860029120,-0.1384625,-0.6908,0.760925
1679997269509,1177257862531043,-0.1265,-0.6777375,0.7550125
1679997269511,1177257865033120,-0.10945,-0.659725,0.7398875
1679997269513,1177257867535043,-0.0974875,-0.6257625,0.7189875
1679997269516,1177257870037135,-0.082499996,-0.56485,0.6909375
1679997269518,1177257872539058,-0.063525,-0.5038,0.671
1679997269519,1177257875041212,-0.0345125,-0.45581248,0.649
1679997269522,1177257877543289,0.0015125,-0.4057625,0.628925
1679997269527,1177257880045241,0.0495,-0.3537875,0.6188875
1679997269527,1177257882547318,0.0895125,-0.3048375,0.6109125
1679997269529,1177257885049241,0.1285625,-0.2578125,0.60101247
1679997269532,1177257887551395,0.1665125,-0.219725,0.5839625
1679997269535,1177257890053245,0.1925,-0.1967625,0.56595
1679997269537,1177257892555399,0.2105125,-0.175725,0.5449125
1679997269539,1177257895057553,0.2184875,-0.1508375,0.5179625
1679997269543,1177257897559630,0.2184875,-0.11385,0.491975
1679997269546,1177257900061553,0.189475,-0.095837496,0.436975
1679997269548,1177257902563630,0.1414875,-0.0928125,0.37193748
1679997269550,1177257905065553,0.0605,-0.131725,0.22
1679997269552,1177257907567630,-0.1775125,-0.307725,-0.0369875
1679997269555,1177257910069783,-0.3114375,-0.38775,-0.22
1679997269557,1177257912571721,-0.4184125,-0.6688,-0.4191
1679997269562,1177257915073798,-0.602525,-0.879725,-0.792
1679997269562,1177257917575721,-0.833525,-0.649825,-1.2200375
1679997269565,1177257920077798,-1.042525,-0.1607375,-1.4821125
1679997269568,1177257922579735,-1.1864874,0.280225,-1.6520625
1679997269571,1177257925081889,-1.3325125,0.57722497,-1.8409874
1679997269572,1177257927584043,-1.40745,0.9722625,-2.044075
1679997269577,1177257930085889,-1.3684,1.3952125,-2.2130625
1679997269578,1177257932588043,-1.2225125,1.660175,-2.321
1679997269583,1177257935090090,-1.0104874,1.69015,-2.387
1679997269583,1177257937591936,-0.7605125,1.507275,-2.431
1679997269588,1177257940094090,-0.48839998,1.176175,-2.473075
1679997269588,1177257942596244,-0.2204125,0.7192625,-2.5009875
1679997269590,1177257945098167,0.0246125,0.24419999,-2.5150125
1679997269593,1177257947600268,0.2195875,-0.17875,-2.5381124
1679997269596,1177257950102191,0.3705625,-0.462825,-2.5510375
1679997269597,1177257952604268,0.4835875,-0.528825,-2.5210624
1679997269600,1177257955106191,0.5526125,-0.4368375,-2.453
1679997269602,1177257957608331,0.5786,-0.29479998,-2.352075
1679997269606,1177257960110408,0.55055,-0.1527625,-2.2270875
1679997269607,1177257962612331,0.4885375,-0.011825,-2.0670376
1679997269610,1177257965114408,0.3986125,0.09625,-1.8781124
1679997269612,1177257967616331,0.2985125,0.1342,-1.659075
1679997269620,1177257970118408,0.2135375,0.109175,-1.400025
1679997269621,1177257972620331,0.1695375,0.0471625,-1.0901
1679997269622,1177257975122716,0.1505625,-0.03575,-0.7390625
1679997269622,1177257977624576,0.1395625,-0.1518,-0.3650625
1679997269627,1177257980126499,0.1425875,-0.2877875,-0.0011
1679997269629,1177257982628653,0.1695375,-0.4038375,0.3119875
1679997269630,1177257985130499,0.2195875,-0.46475,0.524975
1679997269634,1177257987632581,0.272525,-0.4778125,0.638
1679997269637,1177257990134735,0.3106125,-0.46475,0.667975
1679997269638,1177257992636889,0.33261248,-0.439725,0.6298875
1679997269640,1177257995138812,0.3436125,-0.4087875,0.5429875
1679997269642,1177257997640889,0.3465,-0.38775,0.4239125
1679997269645,1177258000142735,0.3405875,-0.384725,0.3069
1679997269647,1177258002644965,0.333575,-0.384725,0.22
1679997269651,1177258005147042,0.3106125,-0.36781248,0.1788875
1679997269654,1177258007648980,0.2776125,-0.340725,0.176
1679997269658,1177258010151057,0.2475,-0.3067625,0.1969
1679997269660,1177258012652980,0.2255,-0.280775,0.22495
1679997269661,1177258015155057,0.2226125,-0.2707375,0.2509375
1679997269662,1177258017656980,0.239525,-0.2938375,0.264
1679997269667,1177258020159114,0.2624875,-0.3287625,0.2729375
1679997269668,1177258022661191,0.2875125,-0.362725,0.2739
1679997269669,1177258025163114,0.3146,-0.38073748,0.265925
1679997269672,1177258027665191,0.338525,-0.395725,0.2479125
1679997269675,1177258030167114,0.3565375,-0.4038375,0.2239875
1679997269677,1177258032669177,0.366575,-0.40974998,0.205975
1679997269680,1177258035171408,0.3696,-0.418825,0.19195
1679997269683,1177258037673254,0.3625875,-0.4197875,0.18493749
1679997269686,1177258040175331,0.3465,-0.407825,0.1709125
1679997269687,1177258042677456,0.322575,-0.3928375,0.15895
1679997269690,1177258045179379,0.2954875,-0.3708375,0.1469875
1679997269694,1177258047681225,0.2685375,-0.3617625,0.1238875
1679997269696,1177258050183379,0.2486,-0.3458125,0.0979
1679997269697,1177258052685533,0.2404875,-0.3097875,0.0719125
1679997269700,1177258055187610,0.2404875,-0.2838,0.0400125
1679997269702,1177258057689533,0.2415875,-0.26785,0.0119624995
1679997269706,1177258060191610,0.24255,-0.2657875,-0.0039875
1679997269707,1177258062693533,0.239525,-0.29479998,-0.0100375
1679997269710,1177258065195615,0.22659999,-0.341825,-0.0191125
1679997269713,1177258067697769,0.2035,-0.3837625,-0.02805
1679997269715,1177258070199692,0.18053749,-0.4197875,-0.033
1679997269719,1177258072701759,0.157575,-0.4527875,-0.042075
1679997269723,1177258075203682,0.1395625,-0.46585,-0.0521125
1679997269724,1177258077705759,0.1346125,-0.47079998,-0.066
1679997269726,1177258080207682,0.1346125,-0.47575,-0.078099996
1679997269727,1177258082709836,0.140525,-0.483725,-0.086075
1679997269731,1177258085211976,0.1445125,-0.500775,-0.091025
1679997269733,1177258087713822,0.1535875,-0.527725,-0.0900625
1679997269737,1177258090215976,0.1645875,-0.566775,-0.0730125
1679997269738,1177258092718053,0.18259999,-0.6138,-0.050049998
1679997269740,1177258095219899,0.20253749,-0.6788375,-0.0270875
1679997269742,1177258097722062,0.2226125,-0.7568,-0.01705
1679997269746,1177258100223985,0.2495625,-0.8438375,-0.003025
1679997269748,1177258102726138,0.272525,-0.9257875,0.012925
1679997269751,1177258105228215,0.283525,-0.9988,0.0259875
1679997269752,1177258107730163,0.28861248,-1.055725,0.0400125
1679997269755,1177258110232240,0.2926,-1.0957375,0.0559625
1679997269757,1177258112734163,0.2915,-1.122825,0.0719125
1679997269761,1177258115236240,0.2926,-1.1397375,0.084975
1679997269762,1177258117738385,0.289575,-1.1528,0.0999625
1679997269765,1177258120240308,0.2855875,-1.143725,0.1219625
1679997269768,1177258122742462,0.2715625,-1.089825,0.14093749
1679997269770,1177258125244308,0.2525875,-1.0297375,0.1579875
1679997269772,1177258127746385,0.2336125,-0.9857375,0.176
1679997269777,1177258130248543,0.217525,-0.956725,0.1969
1679997269777,1177258132750466,0.20253749,-0.9288125,0.2160125
1679997269780,1177258135252543,0.179575,-0.891825,0.2319625
1679997269782,1177258137754697,0.1606,-0.83875,0.242
1679997269786,1177258140256635,0.1555125,-0.7657375,0.2509375
1679997269790,1177258142758712,0.1485,-0.676775,0.2539625
1679997269790,1177258145260635,0.1445125,-0.5787375,0.2558875
1679997269794,1177258147762712,0.1475375,-0.4857875,0.25795
1679997269796,1177258150264635,0.1505625,-0.3867875,0.2558875
1679997269797,1177258152766789,0.1606,-0.2908125,0.2448875
1679997269801,1177258155268866,0.1854875,-0.24475,0.238975
1679997269802,1177258157770789,0.2275625,-0.2407625,0.24695
1679997269808,1177258160272856,0.2985125,-0.2487375,0.264
1679997269809,1177258162774779,0.4125,-0.2608375,0.2949375
1679997269810,1177258165276856,0.5885,-0.24475,0.1959375
1679997269812,1177258167779010,0.745525,-0.2327875,-0.07205
1679997269817,1177258170280933,0.850575,-0.3397625,-0.2820125
1679997269818,1177258172783010,0.8955375,-0.53473747,-0.3900875
1679997269820,1177258175284933,0.9224875,-0.72985,-0.4250125
1679997269823,1177258177787010,0.93953747,-0.923725,-0.4151125
1679997269826,1177258180289164,0.9376125,-1.12585,-0.3779875
1679997269828,1177258182791087,0.9425625,-1.319725,-0.3350875
1679997269830,1177258185293164,0.9645625,-1.512775,-0.29205
1679997269832,1177258187795087,1.0036125,-1.704725,-0.262075
1679997269835,1177258190297164,1.0445875,-1.8998375,-0.2410375
1679997269838,1177258192799116,1.0935374,-2.08175,-0.2321
1679997269840,1177258195301270,1.1435875,-2.2268126,-0.2380125
1679997269844,1177258197803347,1.1906124,-2.331725,-0.2541
1679997269846,1177258200305270,1.229525,-2.39085,-0.2679875
1679997269848,1177258202807361,1.2615625,-2.414775,-0.267025
1679997269850,1177258205309284,1.2744875,-2.419725,-0.2470875
1679997269853,1177258207811361,1.2606,-2.430725,-0.207075
1679997269855,1177258210313284,1.218525,-2.4498374,-0.1420375
1679997269857,1177258212815437,1.1506,-2.48985,-0.069025
1679997269860,1177258215317529,1.0654875,-2.529725,0.0028875
1679997269862,1177258217819683,0.987525,-2.5587375,0.0699875
1679997269867,1177258220321529,0.9315625,-2.5608,0.1159125
1679997269868,1177258222823453,0.8955375,-2.4957626,0.1170125
1679997269870,1177258225325582,0.877525,-2.3887875,0.0829125
1679997269872,1177258227827736,0.850575,-2.26985,0.03795
1679997269875,1177258230329582,0.8045125,-2.1467874,-0.0070125
1679997269877,1177258232831736,0.7574875,-2.01575,-0.0540375
1679997269883,1177258235333808,0.7115625,-1.86285,-0.102025
1679997269887,1177258237835731,0.6545,-1.6627874,-0.1450625
1679997269888,1177258240337808,0.5955125,-1.418725,-0.187
1679997269888,1177258242839731,0.5325375,-1.1628375,-0.2220625
1679997269890,1177258245341885,0.46461248,-0.912725,-0.253
1679997269892,1177258247843976,0.399575,-0.6898375,-0.278025
1679997269895,1177258250345899,0.34759998,-0.49774998,-0.2981
1679997269897,1177258252847976,0.3135,-0.3397625,-0.3229875
1679997269900,1177258255349899,0.289575,-0.214775,-0.3430625
1679997269903,1177258257851962,0.2844875,-0.12773749,-0.3531
1679997269906,1177258260353885,0.2855875,-0.06875,-0.3641
1679997269908,1177258262856039,0.2915,-0.032725,-0.36905
1679997269909,1177258265358116,0.3125375,-0.0177375,-0.3680875
1679997269912,1177258267860039,0.35255,-0.0067375,-0.3641
1679997269916,1177258270362121,0.4015,-0.0127875,-0.36107498
1679997269921,1177258272864044,0.4576,-0.049775,-0.36107498
1679997269921,1177258275366198,0.4995375,-0.1258125,-0.372075
1679997269924,1177258277868250,0.5126,-0.225775,-0.383075
1679997269927,1177258280370173,0.4945875,-0.33275,-0.3920125
1679997269928,1177258282872327,0.459525,-0.40974998,-0.3980625
1679997269930,1177258285374404,0.41854998,-0.440825,-0.3889875
1679997269932,1177258287876250,0.3735875,-0.42473748,-0.374
1679997269935,1177258290378418,0.322575,-0.3587375,-0.355025
1679997269937,1177258292880341,0.2715625,-0.263725,-0.3311
1679997269940,1177258295382495,0.2135375,-0.1478125,-0.3051125
1679997269944,1177258297884572,0.151525,-0.036849998,-0.2740375
1679997269946,1177258300386485,0.0836,0.0501875,-0.2410375
1679997269948,1177258302888562,0.01155,0.1122,-0.2110625
1679997269949,1177258305390485,-0.0534875,0.165275,-0.185075
1679997269952,1177258307892562,-0.1084875,0.2151875,-0.1621125
1679997269957,1177258310394686,-0.15345,0.26427498,-0.1420375
1679997269958,1177258312896609,-0.1904375,0.307175,-0.120037496
1679997269960,1177258315398686,-0.2244,0.3361875,-0.102025
1679997269963,1177258317900610,-0.2435125,0.3661625,-0.0851125
1679997269965,1177258320402686,-0.25245,0.39214998,-0.0589875
1679997269968,1177258322904601,-0.2585,0.43725,-0.033
1679997269971,1177258325406677,-0.260425,0.49225,-0.0
1679997269974,1177258327908831,-0.2613875,0.5561875,0.0319
1679997269975,1177258330410754,-0.2585,0.6202625,0.0730125
1679997269977,1177258332912908,-0.25547498,0.693275,0.1199
1679997269980,1177258335414773,-0.2454375,0.7792125,0.1639
1679997269983,1177258337916850,-0.238425,0.8721625,0.2160125
1679997269989,1177258340419023,-0.238425,0.96525,0.2619375
1679997269990,1177258342920946,-0.24145,1.0401875,0.2949375
1679997269990,1177258345423023,-0.2404875,1.089275,0.3199625
1679997269995,1177258347925177,-0.2475,1.1122375,0.348975
1679997269997,1177258350427100,-0.2585,1.1262625,0.375925
1679997269998,1177258352929177,-0.2765125,1.14125,0.4129125
1679997270001,1177258355431100,-0.2985125,1.143175,0.4549875
1679997270002,1177258357933177,-0.3084125,1.14015,0.485925
1679997270005,1177258360435331,-0.288475,1.13025,0.506
1679997270008,1177258362937254,-0.2454375,1.14015,0.5198875
1679997270010,1177258365439326,-0.1953875,1.1572,0.5179625
1679997270012,1177258367941172,-0.1485,1.16325,0.50888747
1679997270015,1177258370443326,-0.1104125,1.13025,0.485925
1679997270018,1177258372945480,-0.0924,1.06315,0.4580125
1679997270021,1177258375447403,-0.0944625,0.98725,0.44
1679997270022,1177258377949480,-0.0935,0.9191875,0.4239125
1679997270026,1177258380451403,-0.0884125,0.890175,0.4169
1679997270028,1177258382953480,-0.0614625,0.885225,0.4169
1679997270033,1177258385455379,-0.0394625,0.874225,0.4279
1679997270034,1177258387957533,-0.02145,0.857175,0.44
1679997270037,1177258390459610,-0.0044,0.836275,0.447975
1679997270038,1177258392961533,0.0235125,0.81427497,0.45595
1679997270040,1177258395463610,0.05555,0.7932375,0.458975
1679997270043,1177258397965557,0.1065625,0.758175,0.451
1679997270045,1177258400467634,0.1716,0.73425,0.458975
1679997270047,1177258402969557,0.2355375,0.720225,0.463925
1679997270050,1177258405471711,0.2915,0.67815,0.4519625
1679997270052,1177258407973788,0.3465,0.5962,0.4299625
1679997270055,1177258410475696,0.3834875,0.4992625,0.41799998
1679997270057,1177258412977773,0.4054875,0.4112625,0.4049375
1679997270060,1177258415479696,0.42955,0.3471875,0.3969625
1679997270063,1177258417981764,0.4565,0.2982375,0.397925
1679997270070,1177258420483917,0.4785,0.27225,0.3939375
1679997270071,1177258422986071,0.492525,0.22715,0.3799125
1679997270074,1177258425487936,0.49555,0.1791625,0.374
1679997270075,1177258427990090,0.487575,0.143275,0.3639625
1679997270077,1177258430492013,0.4756125,0.110275,0.3529625
1679997270077,1177258432994090,0.4686,0.089237496,0.342925
1679997270080,1177258435496013,0.4635125,0.08525,0.337975
1679997270083,1177258437998167,0.4525125,0.0792,0.33495
1679997270085,1177258440500210,0.4384875,0.06325,0.331925
1679997270088,1177258443002133,0.4136,0.033275,0.32999998
1679997270089,1177258445504210,0.3834875,-0.005775,0.3309625
1679997270093,1177258448006133,0.349525,-0.0418,0.32999998
1679997270095,1177258450508225,0.3205125,-0.066825,0.320925
1679997270098,1177258453010148,0.2954875,-0.0928125,0.31295
1679997270100,1177258455512302,0.2706,-0.1038125,0.3040125
1679997270103,1177258458014379,0.2514875,-0.10285,0.298925
1679997270107,1177258460516273,0.233475,-0.0867625,0.298925
1679997270109,1177258463018350,0.2135375,-0.054725,0.2979625
1679997270111,1177258465520273,0.1915375,-0.0188375,0.2949375
1679997270112,1177258468022350,0.1755875,0.0092124995,0.2899875
1679997270115,1177258470524504,0.1606,0.0262625,0.286
1679997270117,1177258473026677,0.1505625,0.0342375,0.2849
1679997270120,1177258475528523,0.1475375,0.0391875,0.2759625
1679997270123,1177258478030446,0.151525,0.04015,0.2619375
1679997270126,1177258480532523,0.1535875,0.0422125,0.24695
1679997270127,1177258483034446,0.1414875,0.038225,0.22893749
1679997270130,1177258485536542,0.1255375,0.0352,0.2129875
1679997270133,1177258488038773,0.1084875,0.0452375,0.205975
1679997270135,1177258490540850,0.0946,0.066275,0.2050125
1679997270137,1177258493042696,0.0875875,0.09625,0.1969
1679997270140,1177258495544860,0.0955625,0.131175,0.1879625
1679997270144,1177258498046783,0.1115125,0.1662375,0.177925
1679997270147,1177258500548860,0.1255375,0.1802625,0.1639
1679997270149,1177258503050783,0.13255,0.1931875,0.1529
1679997270151,1177258505552918,0.135575,0.20515,0.139975
1679997270153,1177258508054995,0.140525,0.21615,0.121
1679997270157,1177258510556918,0.1425875,0.219175,0.1049125
1679997270158,1177258513058995,0.140525,0.2222,0.09295
1679997270161,1177258515560918,0.1414875,0.21725,0.0908875
1679997270163,1177258518062995,0.1414875,0.203225,0.0859375
1679997270165,1177258520565148,0.13859999,0.1782,0.0798875
1679997270167,1177258523067072,0.134475,0.1442375,0.0699875
1679997270170,1177258525569148,0.1285625,0.1232,0.0609125
1679997270172,1177258528071072,0.118525,0.1161875,0.0479875
1679997270175,1177258530573148,0.1095875,0.109175,0.0309375
1679997270177,1177258533075072,0.1035375,0.104225,0.0209
1679997270181,1177258535577138,0.1005125,0.100237496,0.0070125
1679997270183,1177258538079369,0.0974875,0.1032625,-0.00605
1679997270187,1177258540581215,0.0935,0.1032625,-0.0160875
1679997270188,1177258543083292,0.0836,0.1122,-0.0259875
1679997270190,1177258545585446,0.074525,0.1142625,-0.0320375
1679997270193,1177258548087355,0.06655,0.1131625,-0.033
1679997270196,1177258550589201,0.0616,0.11825,-0.0270875
1679997270198,1177258553091586,0.0545875,0.1252625,-0.0259875
1679997270200,1177258555593432,0.0545875,0.120175,-0.02805
1679997270203,1177258558095379,0.058575,0.1192125,-0.0240625
1679997270205,1177258560597456,0.0595375,0.1192125,-0.020075
1679997270208,1177258563099379,0.069575,0.1161875,-0.020075
1679997270210,1177258565601533,0.0845625,0.121275,-0.022
1679997270213,1177258568103687,0.09955,0.1342,-0.020075
1679997270215,1177258570605514,0.107525,0.1381875,-0.0180125
1679997270219,1177258573107591,0.1035375,0.14025,-0.0160875
1679997270220,1177258575609745,0.0864875,0.1362625,-0.009075
1679997270223,1177258578111668,0.057475,0.1452,-0.003025
1679997270227,1177258580613749,0.0314875,0.1632125,9.625E-4
1679997270228,1177258583115903,0.008525,0.17215,0.00495
1679997270230,1177258585617826,-0.013475,0.18315,0.0149875
1679997270233,1177258588119903,-0.0345125,0.1992375,0.0209
1679997270235,1177258590621831,-0.046475,0.20625,0.0149875
1679997270237,1177258593123908,-0.0554125,0.21615,0.0209
1679997270240,1177258595625831,-0.051425,0.2261875,0.0309375
1679997270242,1177258598127985,-0.0565125,0.22825,0.0319
1679997270246,1177258600630067,-0.0664125,0.23127499,0.0279125
1679997270247,1177258603131990,-0.0774125,0.2261875,0.01595
1679997270250,1177258605634067,-0.0884125,0.2222,0.0070125
1679997270252,1177258608135990,-0.090475,0.2222,0.0099
1679997270257,1177258610638067,-0.0935,0.2231625,0.0089375
1679997270258,1177258613139990,-0.091437496,0.2212375,0.012925
1679997270260,1177258615642144,-0.08745,0.2182125,0.0199375
1679997270262,1177258618144221,-0.079475,0.2102375,0.023924999
1679997270266,1177258620646144,-0.0675125,0.2022625,0.0290125
1679997270268,1177258623148236,-0.063525,0.18315,0.0369875
1679997270270,1177258625650389,-0.0724625,0.154275,0.0209
1679997270273,1177258628152236,-0.079475,0.1271875,0.001925
1679997270275,1177258630654466,-0.0884125,0.120175,-0.0
1679997270278,1177258633156553,-0.0935,0.131175,0.0059125
1679997270280,1177258635658476,-0.0974875,0.1342,0.0099
1679997270283,1177258638160553,-0.102437496,0.1332375,0.012925
1679997270286,1177258640662476,-0.106425,0.11715,0.018975
1679997270288,1177258643164548,-0.1054625,0.0941875,0.0248875
1679997270290,1177258645666471,-0.0994125,0.0812625,0.0229625
1679997270294,1177258648168625,-0.102437496,0.0672375,0.0089375
1679997270297,1177258650670702,-0.1084875,0.066275,-0.0
1679997270299,1177258653172610,-0.124437496,0.077275,-0.0
1679997270301,1177258655674687,-0.1414875,0.08525,-0.0011
1679997270306,1177258658176610,-0.1485,0.098175,-0.003025
1679997270307,1177258660678687,-0.1464375,0.099275,-0.0100375
1679997270308,1177258663180841,-0.145475,0.0941875,-0.0121
1679997270310,1177258665682750,-0.139425,0.087175,-0.01705
1679997270313,1177258668184827,-0.1265,0.089237496,-0.01705
1679997270315,1177258670686750,-0.12045,0.0941875,-0.0180125
1679997270318,1177258673188904,-0.113437496,0.09625,-0.009075
1679997270320,1177258675690755,-0.1084875,0.0941875,-0.0
1679997270323,1177258678192909,-0.1144,0.0972125,0.001925
1679997270327,1177258680695063,-0.1194875,0.1012,0.0039875
1679997270328,1177258683197140,-0.1254,0.1032625,0.0099
1679997270333,1177258685698971,-0.1254,0.110275,0.0099
1679997270334,1177258688201125,-0.12045,0.10725,0.0070125
1679997270336,1177258690703048,-0.102437496,0.104225,0.0039875
1679997270338,1177258693205125,-0.0814,0.111237496,0.001925
1679997270340,1177258695707048,-0.0644875,0.1161875,0.0059125
1679997270345,1177258698209178,-0.0554125,0.126225,0.012925
1679997270347,1177258700711255,-0.062425,0.143275,0.0149875
1679997270348,1177258703213178,-0.0724625,0.1351625,0.0119624995
1679997270351,1177258705715255,-0.07645,0.120175,0.0070125
1679997270353,1177258708217178,-0.0644875,0.122237496,0.0099
1679997270356,1177258710719255,-0.0584375,0.12925,0.0138875
1679997270358,1177258713221409,-0.0484,0.121275,0.0099
1679997270361,1177258715723332,-0.0424875,0.121275,0.012925
1679997270363,1177258718225486,-0.041525,0.132275,0.0199375
1679997270365,1177258720727562,-0.029424999,0.12925,0.01595
1679997270371,1177258723229409,-0.0165,0.110275,0.011
1679997270371,1177258725731562,0.0045375,0.098175,0.011
1679997270372,1177258728233486,0.01155,0.082225,0.007975
1679997270375,1177258730735639,0.0094875,0.0702625,9.625E-4
1679997270378,1177258733237716,0.003575,0.066275,-0.0050875
1679997270380,1177258735739639,-4.125E-4,0.06325,-0.0081124995
1679997270383,1177258738241716,0.002475,0.06215,-0.0121
1679997270386,1177258740743880,0.0055,0.060225,-0.020075
1679997270388,1177258743245803,0.0105875,0.0592625,-0.0210375
1679997270390,1177258745747880,0.0185625,0.0572,-0.0160875
1679997270393,1177258748249803,0.035475,0.0562375,-0.0180125
1679997270395,1177258750751880,0.063525,0.054175,-0.0210375
1679997270397,1177258753253803,0.0845625,0.038225,-0.022
1679997270400,1177258755755880,0.090475,0.0202125,-0.0240625
1679997270403,1177258758258034,0.0925375,-8.25E-4,-0.0210375
1679997270407,1177258760759957,0.09955,-0.0067375,-0.0149875
1679997270408,1177258763262048,0.102575,-0.0067375,-0.011
1679997270410,1177258765763971,0.1115125,-0.01375,-0.011
1679997270413,1177258768266048,0.1276,-0.0268125,-0.00605
1679997270416,1177258770767971,0.1475375,-0.0347875,-0.0039875
1679997270417,1177258773270125,0.1606,-0.044825,-0.0050875
1679997270420,1177258775772192,0.16555,-0.0647625,-0.0070125
1679997270423,1177258778274115,0.157575,-0.09075,-0.0070125
1679997270427,1177258780776192,0.135575,-0.099825,-0.0160875
1679997270428,1177258783278346,0.101475,-0.095837496,-0.022
1679997270433,1177258785780188,0.0715,-0.0858,-0.0259875
1679997270434,1177258788282342,0.0515625,-0.0708125,-0.02805
1679997270435,1177258790784496,0.036575,-0.05775,-0.0301125
1679997270438,1177258793286419,0.0275,-0.0488125,-0.0341
1679997270441,1177258795788496,0.0165,-0.0507375,-0.0320375
1679997270444,1177258798290409,0.0105875,-0.0427625,-0.0301125
1679997270446,1177258800792486,0.0015125,-0.033825,-0.0320375
1679997270449,1177258803294409,-0.0125124995,-0.021724999,-0.0290125
1679997270450,1177258805796486,-0.0254375,-0.005775,-0.0270875
1679997270453,1177258808298640,-0.0314875,0.011275,-0.0301125
1679997270457,1177258810800573,-0.040425,0.0312125,-0.033
1679997270458,1177258813302650,-0.046475,0.0471625,-0.0320375
1679997270460,1177258815804573,-0.0534875,0.0682,-0.0240625
1679997270463,1177258818306650,-0.0605,0.0782375,-0.0149875
1679997270466,1177258820808573,-0.0675125,0.0902,-0.0081124995
1679997270468,1177258823310727,-0.0664125,0.099275,9.625E-4
1679997270470,1177258825812803,-0.0554125,0.099275,0.0028875
1679997270473,1177258828314727,-0.041525,0.09625,0.007975
1679997270476,1177258830816880,-0.0254375,0.0862125,0.0099
1679997270478,1177258833318731,-0.0114124995,0.0812625,0.0169125
1679997270482,1177258835820884,-0.0094875,0.077275,0.0229625
1679997270484,1177258838322961,-0.0064625,0.0752125,0.0259875
1679997270487,1177258840825115,-0.0015125,0.06325,0.02695
1679997270489,1177258843327058,0.0045375,0.0501875,0.02695
