system_ts_ms, sensor_ts_ns, accX, accY, accZ
1679997265509,1177253859280784,0.18795002,4.22805,8.64795
1679997265509,1177253861783014,-0.15705001,4.089,8.919001
1679997265510,1177253864285091,-0.42495003,3.9379501,9.252001
1679997265511,1177253866787014,-0.684,3.72795,9.438001
1679997265514,1177253869289096,-0.79200006,3.6319501,9.53205
1679997265516,1177253871791019,-1.029,3.6079502,9.59595
1679997265524,1177253874293096,-1.24395,3.45405,9.490951
1679997265525,1177253876795019,-1.39995,3.38505,9.358951
1679997265525,1177253879297182,-1.4650501,3.3439503,9.352051
1679997265527,1177253881799259,-1.6320001,3.28395,9.38595
1679997265529,1177253884301182,-1.70595,3.2629502,9.42195
1679997265531,1177253886803259,-1.7590501,3.2629502,9.316051
1679997265535,1177253889305197,-1.7569501,3.31995,9.505051
1679997265536,1177253891807274,-1.9290001,3.3229501,9.538951
1679997265538,1177253894309197,-1.9699501,3.2410502,9.517051
1679997265541,1177253896811351,-1.8360001,3.2250001,9.678
1679997265545,1177253899313437,-1.7040001,3.41895,9.97305
1679997265547,1177253901815360,-1.46895,3.4980001,10.332001
1679997265548,1177253904317437,-1.04805,3.6390002,10.61205
1679997265552,1177253906819668,-0.483,3.8260503,10.906951
1679997265554,1177253909321514,-0.040050004,3.9600003,11.092951
1679997265556,1177253911823601,0.37995002,4.05105,11.08905
1679997265559,1177253914325755,0.86295,4.20195,11.251051
1679997265562,1177253916827678,1.2019501,4.2979503,11.464951
1679997265566,1177253919329755,1.55505,4.50105,11.52
1679997265570,1177253921831716,1.8589501,4.61595,11.689951
1679997265570,1177253924333870,2.3500502,4.755,11.57205
1679997265571,1177253926835947,2.56995,4.9350004,11.637
1679997265574,1177253929337870,2.742,4.9900503,11.635051
1679997265576,1177253931839947,2.913,5.1139503,11.653951
1679997265579,1177253934341870,2.9479501,5.02995,11.424001
1679997265581,1177253936843947,3.006,5.0230503,11.188951
1679997265586,1177253939346101,2.9869502,4.9009504,10.9140005
1679997265587,1177253941848048,2.8170002,4.98495,10.64805
1679997265589,1177253944350125,2.69895,4.7689505,10.269
1679997265591,1177253946852048,2.529,4.7569504,9.9529505
1679997265594,1177253949354125,2.39805,4.73295,9.606001
1679997265596,1177253951856048,2.22795,4.7140503,9.24195
1679997265598,1177253954358202,2.01195,4.6399503,8.83695
1679997265603,1177253956860278,1.9069501,4.63005,8.49495
1679997265605,1177253959362432,1.6650001,4.6069503,8.163
1679997265607,1177253961864355,1.33395,4.60395,7.7980504
1679997265608,1177253964366427,1.167,4.635,7.5420003
1679997265611,1177253966868350,0.975,4.69005,7.28805
1679997265614,1177253969370427,0.82305,4.638,7.1059504
1679997265616,1177253971872581,0.73395,4.695,6.8710504
1679997265620,1177253974374504,0.72705,4.6980004,6.7900505
1679997265621,1177253976876577,0.59505004,4.75995,6.9330006
1679997265626,1177253979378500,0.49905002,4.743,6.9480004
1679997265627,1177253981880577,0.52605003,4.6930504,6.7540503
1679997265629,1177253984382490,0.55905,4.7910004,6.7200003
1679997265631,1177253986884567,0.52305,4.8030005,6.6510005
1679997265636,1177253989386721,0.33405003,4.7239504,6.7099504
1679997265637,1177253991888644,0.31500003,4.635,6.6510005
1679997265640,1177253994390721,0.30495003,4.623,6.77505
1679997265641,1177253996892644,0.28095,4.66905,6.78
1679997265644,1177253999394798,0.26505002,4.80495,6.9949503
1679997265646,1177254001896875,0.33405003,4.5990005,7.0630503
1679997265649,1177254004398721,0.25695002,4.551,7.2660003
1679997265653,1177254006900932,0.16905001,4.4700003,7.2420006
1679997265654,1177254009403009,0.08505,4.314,7.4100003
1679997265656,1177254011904932,0.018000001,4.2400503,7.5540004
1679997265659,1177254014407009,0.018000001,4.1350503,7.5919504
1679997265661,1177254016908946,-0.20700002,3.9910502,7.7430005
1679997265665,1177254019411023,-0.10695001,3.7870502,7.7380505
1679997265670,1177254021913177,-0.11895001,3.7729502,7.7809505
1679997265670,1177254024415100,0.006,3.73005,8.035951
1679997265671,1177254026917177,0.22200002,3.8040001,8.29395
1679997265674,1177254029419100,0.624,4.02705,8.67405
1679997265677,1177254031921177,1.15005,4.09305,8.847
1679997265679,1177254034423100,1.8280501,4.32105,8.847
1679997265681,1177254036925177,2.196,4.386,8.67
1679997265687,1177254039427408,2.565,4.566,8.413051
1679997265687,1177254041929484,2.7229502,4.69995,8.49495
1679997265688,1177254044431331,3.01605,4.76205,8.65305
1679997265691,1177254046933484,3.08295,4.9080005,8.775001
1679997265694,1177254049435403,3.0660002,4.97805,9.040951
1679997265696,1177254051937479,3.1420503,5.004,9.340051
1679997265698,1177254054439403,3.14505,5.06895,9.522
1679997265703,1177254056941556,3.15405,4.99905,9.667951
1679997265705,1177254059443643,3.1690502,5.04195,9.99405
1679997265707,1177254061945566,3.0589502,4.8840003,10.2619505
1679997265709,1177254064447643,2.9890501,4.77705,10.243051
1679997265711,1177254066949566,2.8860002,4.5150003,10.432051
1679997265716,1177254069451643,2.6779501,4.3120503,10.19505
1679997265721,1177254071953797,2.53695,4.017,10.03005
1679997265721,1177254074455720,2.295,3.7399502,9.843
1679997265722,1177254076957797,2.02605,3.5020502,9.514951
1679997265724,1177254079459951,1.7010001,3.2250001,9.276
1679997265727,1177254081961768,1.45905,2.9869502,9.14595
1679997265728,1177254084463691,1.18605,2.74305,8.884951
1679997265731,1177254086965845,0.80100006,2.664,8.751
1679997265736,1177254089467922,0.62595004,2.496,8.571
1679997265737,1177254091969845,0.351,2.4439502,8.50395
1679997265738,1177254094471936,0.23295002,2.463,8.2890005
1679997265741,1177254096973859,-0.423,2.39805,7.8169503
1679997265745,1177254099476244,-1.1200501,2.535,7.491
1679997265747,1177254101978105,-1.51995,2.6790001,6.9310503
1679997265749,1177254104480028,-1.5700501,2.79795,6.50895
1679997265753,1177254106982182,-1.6060501,2.841,6.2100005
1679997265755,1177254109484028,-1.4140501,2.844,5.8170004
1679997265757,1177254111986105,-1.31595,3.01095,5.53905
1679997265759,1177254114488264,-0.98595005,3.078,5.3569503
1679997265761,1177254116990418,-0.50100005,3.2220001,5.29005
1679997265764,1177254119492341,-0.079950005,3.28005,5.19
1679997265766,1177254121994418,0.32205,3.42105,5.1940503
1679997265771,1177254124496341,0.9889501,3.5070002,5.427
1679997265772,1177254126998418,1.5280501,3.7510502,5.7520504
1679997265774,1177254129500341,1.9710001,3.7200003,5.9110503
1679997265776,1177254132002495,2.38995,3.5809503,6.1309505
1679997265779,1177254134504572,2.601,3.5500503,6.46395
1679997265781,1177254137006475,2.5819502,3.5500503,6.78
1679997265787,1177254139508552,2.4100502,3.49005,7.2040505
1679997265788,1177254142010475,2.11305,3.5410502,7.7500505
1679997265790,1177254144512547,2.058,3.522,8.04195
1679997265792,1177254147014700,1.9090501,3.5500503,8.3890505
1679997265794,1177254149516624,1.8229501,3.34695,8.718
1679997265796,1177254152018777,1.7869501,3.4069502,8.976001
1679997265799,1177254154520854,1.7320501,3.1740003,9.361951
1679997265804,1177254157022721,1.5790501,3.1380002,9.561001
1679997265805,1177254159524874,1.521,2.937,9.61305
1679997265806,1177254162026797,1.3609501,2.83905,9.70905
1679997265808,1177254164528874,1.32,2.736,9.594001
1679997265811,1177254167031027,1.30305,2.607,9.5130005
1679997265815,1177254169532950,1.059,2.42505,9.53205
1679997265817,1177254172035027,1.0489501,2.262,9.502951
1679997265820,1177254174536950,1.008,2.1040502,9.4480505
1679997265821,1177254177039048,1.0030501,1.9960501,9.486
1679997265825,1177254179540971,0.92700005,1.86705,9.508051
1679997265829,1177254182043125,0.72705,1.89495,9.346951
1679997265831,1177254184545202,0.74100006,1.78005,9.429001
1679997265832,1177254187047120,0.66195005,1.713,9.40005
1679997265836,1177254189549197,0.71295005,1.8090001,9.252001
1679997265837,1177254192051120,0.65295005,1.6870501,9.276
1679997265839,1177254194553274,0.64305,1.812,9.261001
1679997265841,1177254197055120,0.648,1.8379501,9.252001
1679997265845,1177254199557519,0.624,1.81605,9.165
1679997265846,1177254202059442,0.68595004,1.7539501,9.1369505
1679997265848,1177254204561288,0.62595004,1.9410001,9.0379505
1679997265852,1177254207063442,0.70095,1.8709501,9.085951
1679997265855,1177254209565529,0.67695004,1.8070501,9.108001
1679997265856,1177254212067452,0.75600004,1.8400501,9.31095
1679997265860,1177254214569606,0.79905003,1.8090001,9.295051
1679997265862,1177254217071683,0.88500005,1.86195,9.460051
1679997265869,1177254219573596,1.0680001,1.8790501,9.394951
1679997265870,1177254222075673,1.1020501,1.9339501,9.61305
1679997265870,1177254224632673,1.0540501,2.2020001,9.7570505
1679997265872,1177254227079673,1.09905,2.4409502,9.891001
1679997265874,1177254229581596,1.1710501,2.568,10.032001
1679997265876,1177254232083980,1.15005,2.7,10.143001
1679997265879,1177254234585817,1.2409501,2.70495,10.35795
1679997265881,1177254237087740,1.3729501,3.1690502,10.441951
1679997265888,1177254239589894,1.7010001,3.32505,10.689
1679997265889,1177254242091975,1.79595,3.5100002,10.60995
1679997265890,1177254244593822,1.69305,3.6390002,9.891001
1679997265891,1177254247095975,1.2910501,3.5839503,9.66405
1679997265895,1177254249598129,0.88995004,3.6529503,9.622951
1679997265896,1177254252100052,0.55905,3.6390002,9.27105
1679997265899,1177254254602158,0.78705,3.8040001,7.182
1679997265903,1177254257104081,1.41795,3.8140502,5.2110004
1679997265906,1177254259606158,0.69105005,3.1579502,4.74405
1679997265908,1177254262108071,-0.063,2.90805,4.5
1679997265909,1177254264610225,-0.06795,2.8150501,3.8509502
1679997265911,1177254267112302,0.051000003,2.9520001,2.84505
1679997265915,1177254269614225,0.35295,3.10695,1.794
1679997265916,1177254272116302,0.39405003,3.2320502,0.72300005
1679997265919,1177254274618201,0.25005,3.1339502,0.13395001
1679997265922,1177254277120355,-0.016050002,2.94195,0.064050004
1679997265925,1177254279622432,0.0010500001,2.772,0.31800002
1679997265927,1177254282124355,0.28095,2.8630502,0.69195
1679997265929,1177254284626432,0.53805,3.0670502,1.233
1679997265931,1177254287128341,1.06605,3.4309502,1.9300501
1679997265935,1177254289630418,1.3939501,3.8230503,2.9839501
1679997265936,1177254292132649,1.6840501,4.1989503,4.026
1679997265940,1177254294634726,1.9980001,4.70505,5.07495
1679997265942,1177254297136572,2.0299501,4.77705,5.86005
1679997265945,1177254299638726,1.2220501,5.3710504,6.5790005
1679997265947,1177254302140649,0.9799501,5.5090504,7.31895
1679997265949,1177254304642726,0.43695003,5.7060003,7.90605
1679997265952,1177254307144668,0.32700002,5.54505,8.18595
1679997265955,1177254309646822,0.59505004,5.394,8.63805
1679997265957,1177254312148899,0.906,5.385,9.085951
1679997265959,1177254314650822,1.50705,5.1720004,9.462001
1679997265962,1177254317152913,2.08905,5.11905,9.735001
1679997265965,1177254319654836,2.52195,5.0500503,10.06095
1679997265967,1177254322156913,2.87895,4.9440002,10.435051
1679997265969,1177254324659067,3.3240001,5.0880003,10.771951
1679997265972,1177254327160990,3.8389502,5.0020504,10.906951
1679997265975,1177254329663058,4.12395,4.93905,11.23005
1679997265978,1177254332165211,4.0800004,4.92495,11.623051
1679997265980,1177254334667058,4.00005,4.9420505,11.692051
1679997265981,1177254337168981,3.8869503,4.83405,11.88405
1679997265986,1177254339671149,3.7050002,4.6399503,12.255
1679997265988,1177254342173302,3.5419502,4.566,12.54195
1679997265989,1177254344675149,3.4320002,4.3170004,12.880051
1679997265992,1177254347177302,3.28095,4.2109504,13.078951
1679997265994,1177254349679373,2.97495,3.8710501,13.2300005
1679997265996,1177254352181296,2.8980002,3.663,13.48095
1679997265999,1177254354683373,2.7859502,3.55695,13.663051
1679997266001,1177254357185296,2.59605,3.3949502,13.837951
1679997266004,1177254359687446,2.4859502,3.2290502,14.137051
1679997266006,1177254362189523,2.3070002,3.246,14.31
1679997266009,1177254364691446,2.09805,3.1380002,14.446051
1679997266011,1177254367193523,1.81605,3.03795,14.638051
1679997266016,1177254369695426,1.5090001,2.94,14.755051
1679997266017,1177254372197503,1.23105,2.877,14.66205
1679997266020,1177254374699657,0.768,2.904,14.66205
1679997266021,1177254377201580,0.31500003,2.70195,14.467951
1679997266026,1177254379703734,0.06795,2.667,14.125051
1679997266028,1177254382205572,-0.252,2.6110501,13.728001
1679997266029,1177254384707649,-0.47100002,2.5519502,13.146001
1679997266032,1177254387209803,-0.61395,2.5440001,12.661951
1679997266035,1177254389711726,-0.82695,2.45595,12.118051
1679997266037,1177254392213816,-0.93795,2.4439502,11.7300005
1679997266039,1177254394715970,-1.098,2.25195,11.400001
1679997266043,1177254397217893,-1.1340001,2.1079502,11.136001
1679997266045,1177254399719970,-1.11705,2.013,10.950001
1679997266046,1177254402221893,-1.23195,1.9980001,10.64295
1679997266049,1177254404723970,-1.1719501,1.8430501,10.5379505
1679997266053,1177254407225893,-1.2559501,1.812,10.264951
1679997266056,1177254409728047,-1.2250501,1.67505,10.248
1679997266057,1177254412230115,-1.2250501,1.50705,10.285951
1679997266060,1177254414732038,-1.0330501,1.44,10.36305
1679997266061,1177254417234115,-0.966,1.50705,10.293
1679997266066,1177254419736269,-0.95895004,1.43505,10.49505
1679997266067,1177254422238115,-0.91095006,1.5670501,10.75605
1679997266069,1177254424740260,-0.78405005,1.58595,10.75605
1679997266071,1177254427242413,-0.73605,1.7490001,11.12895
1679997266075,1177254429744260,-0.66,1.9600501,11.29695
1679997266077,1177254432246413,-0.68895006,1.9939501,11.500951
1679997266079,1177254434748342,-0.58995,2.226,11.769001
1679997266082,1177254437250418,-0.48705003,2.15205,12.03495
1679997266085,1177254439752342,-0.32895002,2.2470002,12.1060505
1679997266087,1177254442254495,-0.28395,2.2690501,12.183001
1679997266091,1177254444756572,-0.31500003,2.2669501,12.247951
1679997266092,1177254447258495,-0.22200002,2.3119502,12.135
1679997266095,1177254449760572,-0.26895002,2.38905,12.18105
1679997266097,1177254452262495,-0.33900002,2.4130502,12.085051
1679997266099,1177254454764572,-0.432,2.604,11.854951
1679997266102,1177254457266726,-0.52095,2.5399501,11.689951
1679997266106,1177254459768649,-0.68895006,2.59905,11.377951
1679997266107,1177254462270726,-0.79200006,2.6140501,11.158051
1679997266109,1177254464772649,-0.69105005,2.6449502,10.879951
1679997266112,1177254467274726,-0.59505004,3.2029502,10.887
1679997266114,1177254469776898,-0.29295,3.7110002,11.09805
1679997266117,1177254472278821,0.063,3.3439503,10.737
1679997266120,1177254474780898,0.17805001,2.8560002,10.128
1679997266122,1177254477282816,0.11100001,2.8249502,9.702001
1679997266126,1177254479784893,-0.19995001,2.8219502,9.616051
1679997266128,1177254482286816,-0.51405,2.841,9.3
1679997266138,1177254484788970,-0.66,2.9539502,9.177
1679997266138,1177254487291124,-0.86100006,2.9590502,8.93295
1679997266138,1177254489792957,-1.00995,2.9869502,8.895
1679997266139,1177254492295111,-0.99000007,2.901,8.866051
1679997266139,1177254494797188,-0.95400006,2.8129501,8.859
1679997266142,1177254497299034,-0.78900003,2.7139502,8.872951
1679997266145,1177254499801183,-0.72705,2.5399501,8.93805
1679997266147,1177254502303337,-0.84195006,2.6550002,9.06
1679997266149,1177254504805260,-0.95205003,2.604,9.108001
1679997266152,1177254507307337,-1.098,2.60205,9.052951
1679997266155,1177254509809260,-1.1839501,2.631,9.153001
1679997266156,1177254512311337,-1.2559501,2.6590502,9.14595
1679997266160,1177254514813260,-1.31805,2.67105,9.04605
1679997266162,1177254517315337,-1.33305,2.8129501,8.94705
1679997266166,1177254519817485,-1.1410501,2.9160001,9.015
1679997266168,1177254522319408,-0.75795,2.87505,9.028951
1679997266169,1177254524821485,-0.49695003,3.01395,9.249001
1679997266172,1177254527323408,-0.32505003,3.2580001,9.501
1679997266175,1177254529825490,-0.25500003,3.5839503,9.73995
1679997266178,1177254532327413,-0.26895002,3.9430501,10.059
1679997266179,1177254534829797,-0.09900001,4.19205,10.20495
1679997266181,1177254537331643,0.07305,4.458,10.420051
1679997266186,1177254539833811,0.31005,4.755,10.77
1679997266187,1177254542335734,0.60705,5.0160003,10.99995
1679997266189,1177254544837581,0.96795005,5.289,11.27505
1679997266192,1177254547339658,1.31295,5.60505,11.40495
1679997266195,1177254549841811,1.794,5.9170504,11.58705
1679997266196,1177254552343970,2.08905,6.111,11.7640505
1679997266199,1177254554845893,2.115,6.0720005,11.865001
1679997266203,1177254557347970,1.9950001,6.0199504,11.90505
1679997266206,1177254559849893,1.866,5.98605,11.91495
1679997266207,1177254562351965,1.69305,5.907,11.968051
1679997266211,1177254564853888,1.8180001,5.7060003,12.1380005
1679997266212,1177254567356042,1.7149501,5.64795,12.04695
1679997266215,1177254569858119,1.6000501,5.54295,11.950951
1679997266217,1177254572360042,1.368,5.41095,11.865001
1679997266219,1177254574862105,1.3579501,5.23605,11.742001
1679997266222,1177254577364028,1.2070501,5.03805,11.467051
1679997266227,1177254579866105,1.2049501,4.848,11.3209505
1679997266228,1177254582368244,1.1230501,4.49205,11.148001
1679997266230,1177254584870167,1.07595,4.281,10.909051
1679997266232,1177254587372321,1.0200001,4.20195,10.69305
1679997266235,1177254589874398,0.88500005,4.02495,10.356001
1679997266237,1177254592376244,0.79200006,3.8230503,10.189951
1679997266240,1177254594878398,0.65295005,3.5119503,9.94095
1679997266244,1177254597380321,0.42495003,3.21,9.814051
1679997266245,1177254599882398,0.33405003,2.877,9.628051
1679997266247,1177254602384552,0.09195001,2.56605,9.508051
1679997266249,1177254604886475,-0.07095,2.2350001,9.337951
1679997266252,1177254607388542,-0.35805002,1.86195,9.07905
1679997266255,1177254609890465,-0.54495,1.5270001,8.81295
1679997266257,1177254612392542,-0.89505005,1.16505,8.587951
1679997266262,1177254614894465,-1.1869501,0.79800004,8.349
1679997266263,1177254617396610,-1.5409501,0.41805002,7.965
1679997266266,1177254619898687,-1.90005,0.19305001,7.5610504
1679997266269,1177254622400610,-2.11395,-0.043950003,7.3069506
1679997266270,1177254624902687,-2.2480502,-0.10095,7.017
1679997266272,1177254627404610,-2.286,-0.19500001,6.9160504
1679997266278,1177254629906764,-2.2690501,-0.048,6.8569503
1679997266279,1177254632408610,-2.14695,-0.063,6.7440004
1679997266280,1177254634910994,-2.046,0.08805001,6.6940503
1679997266282,1177254637412917,-1.9480501,0.24405001,6.7579503
1679997266285,1177254639914984,-1.4650501,0.99495006,5.16795
1679997266287,1177254642416907,-1.2040501,1.0639501,4.644
1679997266289,1177254644918984,-0.86595005,1.24395,4.1449504
1679997266292,1177254647421138,-0.57795,1.24395,3.5659502
1679997266295,1177254649923061,-0.30795002,1.43505,3.2260501
1679997266297,1177254652425138,-0.058950003,1.6819501,2.9479501
1679997266300,1177254654927061,0.066,1.8190501,2.838
1679997266302,1177254657429138,0.26895002,2.12295,2.9959502
1679997266305,1177254659931061,0.46095002,2.214,2.9620502
1679997266307,1177254662433215,0.55005,2.46495,3.0340502
1679997266309,1177254664935292,0.65505004,2.5489502,3.2350502
1679997266312,1177254667437215,1.45605,3.56205,5.82
1679997266316,1177254669939306,1.8199501,3.68895,4.4500504
1679997266319,1177254672441229,1.9620001,3.4470003,4.36095
1679997266320,1177254674943306,1.66005,3.5310001,5.7450004
1679997266322,1177254677445460,1.7410501,3.45405,6.5599504
1679997266327,1177254679947383,2.01705,3.5380502,7.1730003
1679997266327,1177254682449533,1.8180001,3.66,7.4100003
1679997266329,1177254684951379,1.6890001,3.5770502,7.7160006
1679997266332,1177254687453533,1.6720501,3.6409502,7.9680004
1679997266335,1177254689955610,1.84395,3.5140502,8.23095
1679997266337,1177254692457538,1.4989501,3.4759502,8.32995
1679997266339,1177254694959692,1.3920001,3.55695,8.63595
1679997266343,1177254697461769,1.45905,3.318,9.012
1679997266345,1177254699963692,1.3050001,3.15,9.42195
1679997266347,1177254702465755,1.19505,3.1020002,9.831
1679997266350,1177254704967678,0.87495005,3.0880501,10.224001
1679997266353,1177254707469755,0.648,3.0310502,10.65495
1679997266355,1177254709971678,0.669,3.00195,10.915951
1679997266357,1177254712473832,0.39195,2.8890002,11.368951
1679997266360,1177254714975894,0.28905,2.76705,11.493001
1679997266362,1177254717477817,0.32205,2.5180502,11.944051
1679997266365,1177254719979894,0.48705003,2.4100502,12.147
1679997266367,1177254722481817,0.60195005,2.4100502,12.669001
1679997266370,1177254724983904,0.57105005,2.36205,12.796051
1679997266372,1177254727486057,0.80100006,2.358,13.066951
1679997266375,1177254729988211,0.84405005,2.4100502,13.342051
1679997266377,1177254732490057,1.07295,2.4490502,13.5720005
1679997266380,1177254734992216,1.26705,2.4850502,13.884001
1679997266382,1177254737494139,1.4320501,2.50395,14.317051
1679997266386,1177254739996216,1.365,2.4820502,14.439001
1679997266388,1177254742498139,1.4899501,2.496,14.69505
1679997266391,1177254745000322,1.45905,2.5560002,14.767051
1679997266393,1177254747502399,1.1590501,2.5470002,14.724001
1679997266395,1177254750004322,0.88005006,2.607,14.655001
1679997266397,1177254752506399,0.45900002,2.5900502,14.545051
1679997266400,1177254755008322,0.25500003,2.5519502,14.24295
1679997266402,1177254757510418,-0.11895001,2.52495,13.87905
1679997266405,1177254760012341,-0.36795002,2.49195,13.552951
1679997266406,1177254762514495,-0.67395,2.35305,13.177051
1679997266410,1177254765016572,-1.005,2.154,12.729001
1679997266411,1177254767518495,-1.1719501,1.917,12.420001
1679997266414,1177254770020572,-1.35,1.7659501,12.075001
1679997266417,1177254772522495,-1.6180501,1.5000001,11.788051
1679997266419,1177254775024572,-1.7899501,1.3039501,11.38605
1679997266422,1177254777526831,-2.07495,1.23405,11.179951
1679997266426,1177254780028677,-2.3080502,1.20105,10.96905
1679997266429,1177254782530831,-2.28795,1.2100501,10.863001
1679997266431,1177254785032908,-2.403,1.107,10.689
1679997266433,1177254787534831,-2.32905,1.12905,10.498951
1679997266435,1177254790036908,-2.22105,1.0189501,10.404
1679997266437,1177254792538831,-2.0299501,1.014,10.36995
1679997266439,1177254795040985,-1.8840001,0.94200003,10.341001
1679997266442,1177254797543062,-1.7880001,0.89895004,10.224001
1679997266445,1177254800044990,-1.7500501,0.97605,9.958051
1679997266448,1177254802547067,-1.644,0.966,9.946051
1679997266449,1177254805048990,-1.51995,0.94005007,9.90495
1679997266453,1177254807551067,-1.5439501,1.0309501,9.9529505
1679997266457,1177254810053211,-1.1839501,1.0030501,9.805051
1679997266459,1177254812555134,-1.0890001,1.05495,9.59895
1679997266460,1177254815057211,-0.89505005,1.014,9.4459505
1679997266462,1177254817559134,-0.83895004,0.9799501,9.25905
1679997266467,1177254820061225,-0.72705,1.098,9.199051
1679997266469,1177254822563378,-0.64995,1.095,9.120001
1679997266471,1177254825065302,-0.384,1.131,9.10305
1679997266472,1177254827567378,-0.35295,1.24605,9.1369505
1679997266476,1177254830069537,-0.246,1.24605,9.196951
1679997266476,1177254832571384,-0.16905001,1.2079501,9.201
1679997266480,1177254835073307,-0.09900001,1.194,9.249001
1679997266482,1177254837575460,-0.13095,1.1190001,9.31095
1679997266485,1177254840077513,-0.13995,1.074,9.192
1679997266487,1177254842579436,-0.21705002,1.1050501,9.319051
1679997266489,1177254845081590,-0.16605,1.0309501,9.153001
1679997266493,1177254847583436,-0.06105,0.92295,9.208051
1679997266495,1177254850085580,0.01305,1.107,8.943001
1679997266497,1177254852587657,0.11895001,1.08105,8.9740505
1679997266501,1177254855089811,0.26505002,0.99495006,9.09795
1679997266504,1177254857591734,0.35295,1.12395,9.07905
1679997266507,1177254860093817,0.41295,1.18605,8.976001
1679997266511,1177254862595740,0.52095,1.1190001,9.148951
1679997266511,1177254865097817,0.60195005,1.2580501,9.40995
1679997266513,1177254867599740,0.63795,1.1700001,9.670951
1679997266515,1177254870101817,0.61395,1.1530501,9.58905
1679997266517,1177254872603981,0.669,1.07595,9.642
1679997266520,1177254875105904,0.51900005,1.098,9.618
1679997266522,1177254877607981,0.44700003,0.90900004,9.73305
1679997266526,1177254880109904,0.34095,0.84405005,9.61095
1679997266527,1177254882612009,0.32205,0.87000006,9.73995
1679997266529,1177254885113932,0.14505,0.89205,9.74505
1679997266532,1177254887616086,0.54495,1.38495,9.89295
1679997266535,1177254890118240,2.46705,3.7870502,10.50195
1679997266537,1177254892620303,4.395,5.67495,11.055
1679997266541,1177254895122149,4.90005,5.7559505,11.383051
1679997266544,1177254897624303,4.407,4.6399503,11.007001
1679997266546,1177254900126226,3.969,4.2709503,11.223001
1679997266548,1177254902628303,3.624,4.2109504,11.4529505
1679997266549,1177254905130457,2.9629502,3.8880002,11.27295
1679997266552,1177254907632380,2.091,3.4660501,11.2900505
1679997266555,1177254910134457,1.179,2.877,11.12205
1679997266557,1177254912636380,0.48705003,2.30205,10.84395
1679997266560,1177254915138438,-0.01995,1.9860001,10.573951
1679997266562,1177254917640361,-0.43005002,1.66305,10.435051
1679997266565,1177254920142515,-0.51000005,1.51005,10.258051
1679997266567,1177254922644591,-0.53505003,1.4830501,9.879001
1679997266569,1177254925146515,-0.45405003,1.2870001,9.699
1679997266572,1177254927648601,-0.44700003,1.5840001,9.51
1679997266575,1177254930150754,-0.31305,1.419,9.0720005
1679997266579,1177254932652601,-0.36495003,1.39995,9.048
1679997266580,1177254935154529,-0.23595001,1.71105,9.0720005
1679997266582,1177254937656913,0.03195,1.9579501,9.04605
1679997266586,1177254940158836,-0.025050001,2.0389502,8.931001
1679997266587,1177254942660682,2.35905,3.3079503,11.035951
1679997266591,1177254945162836,2.2800002,3.49305,8.775001
1679997266592,1177254947664894,2.05995,2.667,7.9300504
1679997266595,1177254950166817,2.7949502,2.08905,8.598001
1679997266597,1177254952668894,2.769,2.01705,9.189
1679997266600,1177254955171048,2.12205,1.8280501,9.634951
1679997266602,1177254957672995,2.127,2.283,10.078051
1679997266605,1177254960175072,1.9189501,2.1679502,10.473001
1679997266607,1177254962676995,1.9210501,2.52495,10.84395
1679997266610,1177254965179072,1.8970501,2.844,11.136001
1679997266612,1177254967680985,2.01195,2.841,11.2560005
1679997266616,1177254970183139,2.2060502,3.01095,11.29695
1679997266618,1177254972685216,1.96395,2.8200002,11.043
1679997266620,1177254975187139,1.84695,2.8960502,10.9810505
1679997266622,1177254977689288,1.6360501,2.6880002,10.923
1679997266626,1177254980191134,1.2240001,2.559,10.75605
1679997266628,1177254982693211,0.82305,2.6880002,10.686001
1679997266629,1177254985195365,0.34800002,2.76705,10.602
1679997266632,1177254987697519,-0.15,2.937,10.37205
1679997266635,1177254990199423,-0.384,3.117,10.159051
1679997266637,1177254992701500,-0.78405005,2.94705,9.964951
1679997266640,1177254995203423,-1.0189501,3.05205,9.8550005
1679997266644,1177254997705495,-1.383,3.0040503,9.655951
1679997266645,1177255000207418,-1.6009501,3.0040503,9.61995
1679997266648,1177255002709495,-1.7860501,2.94,9.393001
1679997266650,1177255005211649,-1.8649501,2.8939502,9.325951
1679997266653,1177255007713582,-1.812,2.76495,9.096001
1679997266656,1177255010215659,-1.67295,2.94,8.863951
1679997266657,1177255012717582,-1.58895,2.904,8.607
1679997266660,1177255015219659,-1.50495,2.772,8.278951
1679997266662,1177255017721812,-1.3930501,2.64,8.3869505
1679997266666,1177255020223736,-1.3780501,2.5519502,8.20695
1679997266668,1177255022725812,-1.3930501,2.5759501,8.302951
1679997266669,1177255025227736,-1.2900001,2.50095,8.325001
1679997266672,1177255027729813,-1.1580001,2.664,8.52795
1679997266676,1177255030231946,-1.12395,2.47005,8.764951
1679997266677,1177255032733869,-1.17495,2.47305,8.93505
1679997266680,1177255035235946,-1.215,2.2740002,8.988001
1679997266684,1177255037737869,-1.3759501,2.2740002,9.288
1679997266686,1177255040240023,-1.4310001,2.154,9.484051
1679997266688,1177255042741873,-1.3660501,2.17995,9.498
1679997266691,1177255045244027,-1.2559501,2.1079502,9.666
1679997266693,1177255047746181,-1.041,2.025,9.637051
1679997266696,1177255050248258,-0.71295005,2.085,9.606001
1679997266697,1177255052750177,-0.55905,2.223,9.8550005
1679997266700,1177255055252254,-0.40095,2.38395,9.879001
1679997266702,1177255057754177,0.06795,2.595,10.15005
1679997266706,1177255060256254,0.19500001,2.77905,10.264951
1679997266708,1177255062758181,0.60495,2.94405,10.321951
1679997266710,1177255065260335,0.79605,3.07605,10.552051
1679997266712,1177255067762412,0.71295005,3.32505,10.62405
1679997266715,1177255070264335,1.0030501,3.3709502,10.50195
1679997266718,1177255072766412,1.107,3.41895,10.55895
1679997266720,1177255075268350,1.2790501,3.5140502,10.486951
1679997266722,1177255077770427,1.5090001,3.6649501,10.167001
1679997266727,1177255080272658,1.4080501,3.7060502,10.059
1679997266729,1177255082774513,1.404,3.7510502,10.00395
1679997266730,1177255085276667,1.1880001,3.9739501,9.90495
1679997266732,1177255087778744,0.90795004,4.05795,9.87195
1679997266735,1177255090280590,0.71295005,3.9570003,9.793051
1679997266737,1177255092782744,0.648,3.83505,9.529051
1679997266740,1177255095284629,0.231,4.056,9.59595
1679997266743,1177255097786783,0.23295002,3.9739501,9.616051
1679997266746,1177255100288860,0.08295,3.8419502,9.625051
1679997266748,1177255102790783,-0.11895001,3.6390002,9.585
1679997266750,1177255105292860,-0.68100005,3.4810503,9.658951
1679997266752,1177255107794773,-1.2970501,4.092,11.187
1679997266761,1177255110296850,-1.9939501,3.1720502,10.998
1679997266761,1177255112798773,-2.4130502,2.7120001,10.962001
1679997266761,1177255115300927,-1.51005,3.8760002,10.405951
1679997266762,1177255117803008,-1.4929501,3.3319502,10.123051
1679997266766,1177255120304932,-1.4449501,3.00705,10.30095
1679997266768,1177255122807009,-1.40505,2.6830502,9.766951
1679997266769,1177255125309162,-1.2610501,2.5560002,9.59895
1679997266772,1177255127811080,-0.9979501,2.59905,9.91005
1679997266775,1177255130313157,-0.85395,2.49405,9.786
1679997266777,1177255132815311,-0.59505004,2.56605,9.754951
1679997266780,1177255135317234,-0.26700002,2.70195,9.51
1679997266782,1177255137819075,-0.20205002,2.7,9.622951
1679997266786,1177255140321229,0.025050001,2.5780501,9.57705
1679997266788,1177255142823306,-0.058950003,2.6230502,9.86505
1679997266790,1177255145325229,0.20205002,2.8890002,9.819
1679997266792,1177255147827388,0.22605,2.9230502,9.91005
1679997266795,1177255150329465,0.41595003,3.0190501,10.2619505
1679997266798,1177255152831388,0.36795002,3.00705,10.224001
1679997266800,1177255155333465,-0.11400001,2.56095,10.273951
1679997266804,1177255157835388,0.087000005,2.5759501,10.629001
1679997266806,1177255160337465,-0.60195005,2.358,10.143001
1679997266808,1177255162839619,-1.146,2.085,10.677
1679997266809,1177255165341773,-1.55295,1.8330001,10.066051
1679997266813,1177255167843605,-2.061,1.6459501,9.963
1679997266814,1177255170345528,-2.35305,0.88905007,9.870001
1679997266817,1177255172847682,-2.83695,0.74295,10.090051
1679997266819,1177255175349759,-3.8070002,-0.786,9.529051
1679997266822,1177255177851619,-4.30305,-1.5090001,9.07905
1679997266826,1177255180353850,-4.30305,-1.5520501,9.481951
1679997266828,1177255182855927,-4.21605,-1.179,10.432051
1679997266830,1177255185357850,-3.9510002,-0.71400005,10.465951
1679997266832,1177255187859937,-3.1960502,0.22500001,10.281
1679997266835,1177255190361860,0.15705001,4.02495,15.076051
1679997266837,1177255192863937,2.805,5.7970505,8.854051
1679997266841,1177255195365855,-0.43995002,2.1679502,7.18905
1679997266843,1177255197868009,-1.9560001,0.92505,6.0139503
1679997266845,1177255200370086,-2.526,1.4280001,4.47795
1679997266847,1177255202872009,-2.46105,1.9720501,5.058
1679997266849,1177255205374086,-2.193,2.8960502,6.2100005
1679997266852,1177255207876234,-2.01,3.426,5.1150002
1679997266855,1177255210378158,-1.66305,3.38295,3.7380002
1679997266858,1177255212880234,-1.6030501,3.41895,3.8170502
1679997266860,1177255215382158,-1.08405,4.3000503,2.9170501
1679997266862,1177255217884211,3.2959502,8.812051,4.47405
1679997266866,1177255220386134,5.8969502,7.8570004,4.3180504
1679997266868,1177255222888287,5.4700503,5.63205,2.874
1679997266870,1177255225390364,4.611,5.1859503,2.70795
1679997266872,1177255227892287,3.8470502,5.6790004,3.075
1679997266875,1177255230394345,3.5020502,6.558,3.6420002
1679997266879,1177255232896499,3.37995,7.03695,4.5259504
1679997266880,1177255235398345,2.6509502,7.2390003,5.18205
1679997266882,1177255237900268,1.7010001,7.2790504,5.56995
1679997266885,1177255240402638,0.873,6.918,5.98005
1679997266888,1177255242904561,0.36795002,6.58995,6.636
1679997266890,1177255245406638,0.507,6.2260504,7.14195
1679997266893,1177255247908561,0.59295005,6.0820503,7.66095
1679997266895,1177255250410609,0.41595003,5.826,7.9890003
1679997266898,1177255252912532,0.36795002,5.7060003,8.32695
1679997266900,1177255255414609,0.43695003,5.2120504,8.658
1679997266902,1177255257916763,0.483,4.9080005,8.727
1679997266906,1177255260418710,0.32505003,4.458,8.967
1679997266907,1177255262920787,0.44400004,4.056,9.172951
1679997266910,1177255265422710,0.40395,3.7440002,9.35505
1679997266912,1177255267924787,0.53505003,3.519,9.405001
1679997266916,1177255270426710,0.41805002,3.1600502,9.28995
1679997266919,1177255272928864,0.37695003,2.8579502,9.44295
1679997266920,1177255275430941,0.22605,2.7529502,9.594001
1679997266923,1177255277932864,0.087000005,2.6899502,9.658951
1679997266926,1177255280435018,-0.042000003,2.30205,9.73095
1679997266927,1177255282936845,-0.32505003,1.90005,9.637051
1679997266930,1177255285438922,-0.68595004,1.70895,9.622951
1679997266932,1177255287941076,-0.68100005,1.84695,9.726001
1679997266935,1177255290443230,-0.66705,2.05605,9.74295
1679997266937,1177255292945153,-0.51405,2.0029502,9.88605
1679997266940,1177255295447225,-0.657,2.061,9.769051
1679997266942,1177255297949148,-0.49500003,1.8550501,9.778951
1679997266946,1177255300451225,-0.55005,1.8070501,9.9199505
1679997266947,1177255302953148,-0.63600004,1.6819501,9.99405
1679997266950,1177255305455220,-0.52095,1.6180501,9.9529505
1679997266954,1177255307957373,-0.29805002,1.7590501,9.858001
1679997266956,1177255310459297,-0.24105,1.7490001,9.90795
1679997266958,1177255312961368,-0.26505002,1.6459501,9.988951
1679997266960,1177255315463292,-0.17400001,1.6180501,9.955951
1679997266963,1177255317965369,-0.19305001,1.6870501,9.955951
1679997266965,1177255320467292,-0.042000003,1.8379501,9.81
1679997266968,1177255322969436,0.03705,1.9410001,9.66405
1679997266970,1177255325471590,0.016050002,2.02005,9.63195
1679997266974,1177255327973667,-0.17400001,2.3380501,9.52005
1679997266975,1177255330475513,-0.08295,2.59695,9.54405
1679997266977,1177255332977667,-0.22905001,2.74095,9.382951
1679997266980,1177255335479599,-0.29295,2.8609502,9.472051
1679997266983,1177255337981676,-0.34095,2.9920502,9.505051
1679997266986,1177255340483830,-0.31305,3.2770503,9.417001
1679997266993,1177255342985705,-0.588,3.3589501,9.345
1679997266993,1177255345487782,-0.63105005,3.39,9.307051
1679997266994,1177255347989705,-0.59295005,3.5689502,9.438001
1679997266996,1177255350491782,-0.61395,3.6319501,9.53205
1679997266998,1177255352993705,-0.564,3.5650501,9.45495
1679997267000,1177255355495782,-0.58995,3.62895,9.55095
1679997267002,1177255357997922,-0.54195005,3.5020502,9.526951
1679997267006,1177255360499845,-0.57600003,3.52605,9.66405
1679997267008,1177255363001922,-0.43995002,3.4429502,9.582001
1679997267010,1177255365503845,-0.40395,3.1260002,9.56505
1679997267012,1177255368005922,-0.47805002,3.07605,9.549001
1679997267016,1177255370507865,-0.384,2.973,9.498
1679997267018,1177255373010250,-0.372,2.8630502,9.496051
1679997267020,1177255375512173,-0.42000002,2.8170002,9.538951
1679997267023,1177255378014019,-0.33195,2.7910502,9.490951
1679997267026,1177255380516173,-0.32895002,2.7,9.44295
1679997267030,1177255383018250,-0.36495003,2.6809502,9.4140005
1679997267031,1177255385520173,-0.80805004,2.1730502,9.30195
1679997267033,1177255388022279,-0.9979501,1.9939501,9.141001
1679997267036,1177255390524433,-1.0309501,1.9650002,9.132
1679997267038,1177255393026356,-1.014,1.90005,9.27795
1679997267040,1177255395528433,-0.88005006,1.761,9.429001
1679997267043,1177255398030356,-0.6,1.9219501,9.462001
1679997267045,1177255400532505,-0.47805002,1.9030501,9.634951
1679997267048,1177255403034581,-0.372,1.86195,9.642
1679997267050,1177255405536505,-0.53295004,1.9600501,9.867001
1679997267052,1177255408038581,-0.56595004,1.95,10.035001
1679997267056,1177255410540467,-0.504,2.08695,9.982051
1679997267058,1177255413042544,-0.35805002,1.9600501,10.03005
1679997267060,1177255415544467,-0.31995,2.0770502,10.23795
1679997267063,1177255418046620,-0.27195,2.1060002,10.284
1679997267068,1177255420548716,-0.29295,2.18295,10.37205
1679997267069,1177255423050639,-0.37005,2.08005,10.33395
1679997267071,1177255425552716,-0.51405,2.1319501,10.66695
1679997267073,1177255428054870,-0.57405,1.95,10.818001
1679997267076,1177255430556716,-0.48000002,1.9099501,11.092951
1679997267078,1177255433058961,-0.28395,1.8859501,11.433001
1679997267080,1177255435561038,-1.04505,1.3560001,11.70705
1679997267083,1177255438062961,-0.98805004,1.5120001,12.592951
1679997267086,1177255440565038,-0.66495,1.5340501,13.231951
1679997267088,1177255443066961,-0.171,1.6849501,13.351951
1679997267090,1177255445569043,0.21705002,1.7710501,13.102951
1679997267093,1177255448070966,0.48000002,2.046,12.99495
1679997267095,1177255450573120,0.432,2.18505,12.733951
1679997267097,1177255453075197,-0.09,1.8090001,12.423
1679997267100,1177255455577125,0.35295,2.15895,12.351001
1679997267104,1177255458079202,0.14505,2.1010501,11.829
1679997267107,1177255460581125,0.252,2.2759502,11.3539505
1679997267109,1177255463083202,0.25500003,2.3740501,10.97805
1679997267111,1177255465585361,0.23805001,2.4130502,10.600051
1679997267113,1177255468087284,0.087000005,2.4510002,10.224001
1679997267115,1177255470589361,0.32895002,2.844,10.035001
1679997267118,1177255473091515,0.528,3.0619502,9.891001
1679997267120,1177255475593438,0.70305,3.07605,9.537001
1679997267123,1177255478095298,0.38895002,2.8819501,8.907001
1679997267125,1177255480597452,0.26700002,2.592,8.48505
1679997267127,1177255483099606,0.31005,2.4460502,8.061001
1679997267130,1177255485601683,0.70500004,2.63805,7.8460503
1679997267132,1177255488103606,0.99195004,2.32395,7.4029503
1679997267135,1177255490605693,1.2600001,2.4870002,7.3879504
1679997267137,1177255493107616,1.2409501,2.7220502,7.2109504
1679997267141,1177255495609693,1.09905,2.91105,7.1610003
1679997267143,1177255498111620,1.7869501,3.6649501,7.45095
1679997267146,1177255500613774,1.4419501,3.2250001,7.24695
1679997267148,1177255503115850,1.9590001,3.8500502,7.3669505
1679997267150,1177255505617774,2.1649501,4.458,7.7640004
1679997267152,1177255508119851,1.9039501,4.5990005,8.112
1679997267155,1177255510621789,1.0030501,4.3240504,8.80095
1679997267157,1177255513123866,0.26700002,4.149,9.585
1679997267160,1177255515626019,-0.16605,4.044,10.104
1679997267162,1177255518127942,-0.40605003,4.00995,10.64805
1679997267165,1177255520630052,-0.32700002,3.89805,11.067
1679997267168,1177255523132206,-0.30105,3.9480002,11.29905
1679997267169,1177255525634052,-0.03195,3.8590503,11.41005
1679997267172,1177255528136206,0.46095002,3.7159503,11.95995
1679997267176,1177255530638125,0.80805004,3.4140003,12.384001
1679997267179,1177255533140279,1.18605,3.186,12.765
1679997267181,1177255535642356,1.6810501,2.98305,13.074
1679997267183,1177255538144279,1.9660501,2.772,13.239
1679997267186,1177255540646356,2.01,2.6790001,13.186951
1679997267187,1177255543148279,2.0299501,2.6230502,13.078951
1679997267190,1177255545650356,1.6360501,2.4460502,12.870001
1679997267193,1177255548152279,1.18605,2.23095,12.573001
1679997267195,1177255550654433,0.78705,2.05095,12.34605
1679997267197,1177255553156500,0.34605002,1.89495,11.866951
1679997267200,1177255555658423,0.03195,1.797,11.436001
1679997267203,1177255558160500,-0.252,1.383,11.27805
1679997267205,1177255560662423,-0.411,1.0669501,10.94505
1679997267207,1177255563164563,-0.47805002,0.82695,10.714951
1679997267210,1177255565666640,-0.504,0.624,10.429951
1679997267212,1177255568168563,-0.57405,0.60195005,10.30305
1679997267216,1177255570670717,-0.34800002,0.68595004,10.119
1679997267218,1177255573172818,-0.40395,0.777,9.92895
1679997267220,1177255575674741,-0.37500003,0.87495005,9.649051
1679997267222,1177255578176818,-0.27705002,0.97095007,9.405001
1679997267226,1177255580678741,-0.31695002,1.04295,9.42405
1679997267228,1177255583180818,-0.35595003,1.488,9.273001
1679997267230,1177255585682779,-0.41595003,1.23405,9.361951
1679997267232,1177255588184933,-0.28605002,1.67295,10.144951
1679997267235,1177255590687010,-0.837,1.6650001,9.77595
1679997267237,1177255593188933,-0.58605003,1.8330001,9.618
1679997267240,1177255595691097,-0.59295005,1.8690001,9.402
1679997267243,1177255598193173,-0.75795,1.8880501,9.345
1679997267245,1177255600695097,-0.95205003,1.9770001,9.66405
1679997267247,1177255603197173,-1.218,1.93095,9.89595
1679997267250,1177255605699087,-1.419,1.728,10.047001
1679997267253,1177255608201164,-1.36395,1.62705,10.083
1679997267256,1177255610703317,-1.251,1.6290001,10.111051
1679997267259,1177255613205240,-1.0500001,1.69395,10.056001
1679997267260,1177255615707317,-1.12905,1.8070501,10.104
1679997267263,1177255618209240,-1.3620001,1.84695,9.9199505
1679997267266,1177255620711317,-1.4140501,1.9939501,9.858001
1679997267268,1177255623213240,-1.4569501,2.022,10.132951
1679997267270,1177255625715394,-1.40505,2.118,10.24995
1679997267273,1177255628217562,-1.4070001,2.262,10.38
1679997267275,1177255630719639,-1.36395,2.19195,10.5070505
1679997267278,1177255633221485,-1.3110001,2.154,10.432051
1679997267280,1177255635723639,-1.33305,2.1780002,10.39395
1679997267283,1177255638225553,-1.383,2.2350001,10.308001
1679997267285,1177255640727399,-1.524,2.2690501,10.15005
1679997267288,1177255643229784,-1.7710501,2.20005,10.08705
1679997267292,1177255645731712,-2.3050501,2.23095,9.70905
1679997267293,1177255648233789,-2.4420002,2.02905,9.658951
1679997267296,1177255650735712,-2.4469502,1.95,9.762
1679997267298,1177255653237789,-2.265,1.7899501,9.702001
1679997267300,1177255655739712,-2.07495,1.74195,9.618
1679997267303,1177255658241798,-1.7230501,1.6290001,9.570001
1679997267306,1177255660743952,-1.7659501,1.4860501,9.5460005
1679997267308,1177255663245875,-1.74705,1.32105,9.41205
1679997267310,1177255665747952,-1.6990501,1.3609501,9.192
1679997267313,1177255668249885,-1.62495,1.33305,9.199051
1679997267315,1177255670751962,-1.7020501,1.39005,9.055051
1679997267318,1177255673253885,-1.6540501,1.524,8.799001
1679997267320,1177255675756039,-1.5769501,1.536,8.6980505
1679997267323,1177255678258188,-1.314,1.7710501,8.581051
1679997267327,1177255680760034,-1.07895,1.7560501,8.524051
1679997267329,1177255683262188,-1.0720501,1.9480501,8.24295
1679997267332,1177255685764265,-0.92805004,1.9909501,8.182051
1679997267333,1177255688266097,-0.28605002,2.49405,8.28195
1679997267336,1177255690768020,-0.12795001,2.56605,8.149051
1679997267337,1177255693270404,-0.35805002,2.67405,8.083051
1679997267341,1177255695772328,-0.53295004,2.69295,8.03295
1679997267342,1177255698274404,-0.37995002,2.496,8.236051
1679997267346,1177255700776351,-0.010950001,2.8150501,8.466001
1679997267348,1177255703278428,0.55905,3.10695,8.3869505
1679997267350,1177255705780351,0.57600003,3.1219501,8.3869505
1679997267353,1177255708282443,0.528,2.94,8.48805
1679997267355,1177255710784596,0.25695002,2.9179502,8.706
1679997267358,1177255713286519,0.058950003,2.8920002,8.928
1679997267360,1177255715788596,0.09,2.8990502,9.30405
1679997267363,1177255718290519,0.41595003,2.877,9.364051
1679997267367,1177255720792615,0.74100006,2.8200002,9.457951
1679997267368,1177255723294538,0.79200006,2.8150501,9.63195
1679997267370,1177255725796923,0.86595005,2.8150501,9.63
1679997267373,1177255728298769,1.03005,2.86995,9.558001
1679997267375,1177255730800702,0.9289501,2.9490001,9.54405
1679997267377,1177255733302856,0.97005004,2.87295,9.654
1679997267384,1177255735804702,0.90405005,2.7580502,9.61305
1679997267384,1177255738306856,0.717,2.676,9.582001
1679997267386,1177255740808928,0.54495,2.4390001,9.501
1679997267388,1177255743311082,0.36,2.39805,9.457951
1679997267390,1177255745813005,0.24795002,2.2740002,9.32295
1679997267393,1177255748315082,0.171,2.2470002,9.156
1679997267395,1177255750817005,0.09705,2.0989501,9.28005
1679997267397,1177255753319072,-0.0010500001,1.7320501,9.156
1679997267400,1177255755820995,0.10395,1.7209501,9.040951
1679997267404,1177255758323149,-0.11100001,1.5289501,8.95905
1679997267406,1177255760825226,-0.36,1.4260501,8.892
1679997267408,1177255763327149,-0.43995002,1.11705,8.907001
1679997267410,1177255765829226,-0.58995,1.0189501,8.8279505
1679997267413,1177255768331149,-0.38205,1.014,8.751
1679997267415,1177255770833303,-0.33195,0.77400005,8.868
1679997267417,1177255773335380,-0.51405,0.70995003,8.93505
1679997267420,1177255775837303,-0.62895006,0.73095006,9.261001
1679997267423,1177255778339380,-0.79395,0.76500005,9.153001
1679997267427,1177255780841303,-0.79905003,0.90900004,9.26805
1679997267428,1177255783343380,-0.82500005,1.098,9.441
1679997267430,1177255785845606,-0.897,1.368,9.526951
1679997267434,1177255788347682,-0.88995004,1.5960001,9.498
1679997267435,1177255790849529,-1.2079501,1.6650001,9.43395
1679997267438,1177255793351682,-1.20105,1.8499501,9.538951
1679997267441,1177255795853573,-1.011,1.98405,9.61095
1679997267443,1177255798355419,-1.16505,1.9050001,9.858001
1679997267445,1177255800857573,-1.12905,1.7350501,10.135051
1679997267447,1177255803359726,-0.99000007,1.4119501,10.428
1679997267450,1177255805861803,-0.84900004,1.2889501,10.902
1679997267453,1177255808363721,-0.432,1.3590001,11.13195
1679997267455,1177255810865798,-0.51000005,1.194,11.352
1679997267458,1177255813367721,-0.54195005,0.74295,11.529
1679997267460,1177255815869798,-0.28395,0.36405003,11.874001
1679997267463,1177255818371952,-0.41595003,-0.04095,12.291
1679997267466,1177255820873884,-0.39405003,-0.25905,12.406051
1679997267469,1177255823375961,-0.26505002,-0.20895001,12.298051
1679997267471,1177255825878115,-0.49695003,-0.38895002,12.33405
1679997267473,1177255828379937,-1.302,-0.786,12.33195
1679997267475,1177255830881860,-1.5169501,-0.90300006,12.348001
1679997267480,1177255833383937,-1.6849501,-0.786,12.265051
1679997267481,1177255835886168,-1.1560501,-0.40005,12.151951
1679997267484,1177255838388000,-2.214,-1.03005,12.50895
1679997267488,1177255840890154,-2.9640002,-1.5600001,12.67395
1679997267489,1177255843392231,-2.07495,-1.107,12.556951
1679997267491,1177255845894154,-1.8600001,-1.0500001,12.50205
1679997267494,1177255848396226,-1.881,-1.1050501,12.604951
1679997267496,1177255850898149,-2.1709502,-1.644,12.633
1679997267497,1177255853400303,-3.1890001,-2.42205,12.691051
1679997267501,1177255855902380,-3.25395,-2.3400002,12.427051
1679997267503,1177255858404303,-4.11795,-3.69405,12.208951
1679997267507,1177255860906395,6.0259504,3.6340501,12.7890005
1679997267510,1177255863408318,-3.6460502,-1.46595,13.191001
1679997267511,1177255865910395,-3.2629502,-1.9020001,12.98295
1679997267514,1177255868412549,-3.4810503,-2.01705,12.904051
1679997267517,1177255870914471,-2.9160001,-1.7080501,12.826951
1679997267519,1177255873416548,-2.7480001,-1.4950501,12.889951
1679997267522,1177255875918471,-1.8190501,-1.179,12.83205
1679997267526,1177255878420548,-1.99995,-1.43505,12.954
1679997267527,1177255880922702,-0.92295,-0.81705004,12.81795
1679997267529,1177255883424605,-1.3780501,-0.41205,12.163951
1679997267532,1177255885926682,-1.5480001,0.15300001,12.35805
1679997267533,1177255888428835,-1.4290501,0.80100006,11.704051
1679997267536,1177255890930759,-1.67295,0.94695,11.589001
1679997267538,1177255893432835,-1.2390001,1.215,11.5990505
1679997267540,1177255895934764,-1.51995,1.3470001,11.196
1679997267543,1177255898436841,-0.873,1.6800001,10.70505
1679997267547,1177255900938764,-0.83895004,1.67295,10.21695
1679997267548,1177255903440917,-0.34395,1.6560001,9.964951
1679997267550,1177255905942994,0.31305,1.89795,9.29205
1679997267554,1177255908444903,0.89205,2.2350001,8.9740505
1679997267556,1177255910946980,0.83895004,2.0700002,8.533051
1679997267558,1177255913448903,0.91695005,1.9620001,8.073
1679997267560,1177255915950980,1.2720001,2.3359501,7.7760005
1679997267562,1177255918453134,0.82005006,2.5470002,7.623
1679997267565,1177255920955288,0.74100006,2.5560002,7.66095
1679997267567,1177255923457134,0.86595005,2.9640002,7.2690005
1679997267570,1177255925959057,1.6810501,3.8470502,7.0150504
1679997267573,1177255928461235,1.81305,4.1659503,6.95205
1679997267576,1177255930963312,1.7770501,4.1800504,6.63105
1679997267578,1177255933465158,1.7320501,4.341,6.46395
1679997267580,1177255935967389,2.184,4.9750504,5.98005
1679997267584,1177255938469461,2.8530002,5.754,6.0810003
1679997267586,1177255940971384,3.0870001,5.94105,5.90595
1679997267588,1177255943473461,4.0609503,6.7210503,6.25995
1679997267592,1177255945975369,4.3110003,7.1860504,5.4960003
1679997267593,1177255948477446,3.21,7.0639505,4.82595
1679997267596,1177255950979600,3.79605,7.72695,4.45905
1679997267598,1177255953481446,4.66305,8.212951,4.428
1679997267600,1177255955983600,3.6139503,7.7149506,4.4160004
1679997267603,1177255958485533,3.41805,7.6390505,4.5550504
1679997267606,1177255960987379,3.1039503,7.38,4.82595
1679997267608,1177255963489764,3.315,7.1860504,5.151
1679997267610,1177255965991687,2.3809502,6.3310504,6.1140003
1679997267613,1177255968493764,2.01705,5.98605,6.9430504
1679997267616,1177255970995735,2.46705,6.3090005,7.6129503
1679997267618,1177255973497812,2.151,6.1060505,8.30595
1679997267620,1177255975999735,1.81095,5.9359503,8.62905
1679997267623,1177255978501903,1.605,5.60505,8.866051
1679997267627,1177255981003980,1.15695,5.1790504,9.0
1679997267630,1177255983505903,0.67395,4.6260004,9.085951
1679997267631,1177255986007980,0.45600003,4.1010003,9.22305
1679997267633,1177255988509903,0.31995,3.45,9.151051
1679997267636,1177255991011980,0.15,2.5519502,9.11505
1679997267638,1177255993513903,0.303,1.9579501,9.168
1679997267640,1177255996016057,0.78405005,1.488,9.14595
1679997267643,1177255998518210,0.69795,1.03995,9.25905
1679997267645,1177256001020081,1.10895,0.79095006,9.25605
1679997267648,1177256003522234,1.9620001,0.53505003,9.27105
1679997267651,1177256006024311,2.97705,0.50895,9.35505
1679997267653,1177256008526234,3.8419502,0.64500004,9.57495
1679997267655,1177256011028326,4.362,0.76500005,9.5130005
1679997267658,1177256013530480,4.7590504,0.70305,9.66405
1679997267660,1177256016032403,5.1540003,0.95400006,9.76395
1679997267664,1177256018534465,5.0680504,0.99195004,9.766951
1679997267668,1177256021036388,4.92,1.2030001,9.826051
1679997267669,1177256023538465,4.63005,1.3249501,9.75195
1679997267671,1177256026040388,4.098,1.5790501,9.759001
1679997267673,1177256028542542,3.657,1.713,9.58005
1679997267676,1177256031044634,3.01605,1.8589501,9.3
1679997267678,1177256033546557,2.223,2.09205,9.196951
1679997267680,1177256036048711,1.7010001,2.18505,9.1390505
1679997267683,1177256038550557,1.2049501,2.286,8.99295
1679997267685,1177256041052600,0.74805003,2.5560002,8.93505
1679997267689,1177256043554754,0.52095,2.60205,8.842051
1679997267691,1177256046056908,0.25995,2.631,8.679001
1679997267693,1177256048558754,0.042000003,2.5489502,8.524051
1679997267695,1177256051060903,-0.126,1.881,8.502001
1679997267698,1177256053562826,-0.04695,1.8090001,8.60505
1679997267701,1177256056064903,0.42705002,2.25705,9.06705
1679997267705,1177256058566821,0.82995003,2.5129502,9.38805
1679997267710,1177256061068975,1.2409501,2.8939502,9.606001
1679997267710,1177256063571052,1.5469501,3.31995,10.06095
1679997267712,1177256066072975,1.76505,3.5479503,10.2960005
1679997267714,1177256068575052,1.7890501,3.7399502,10.70505
1679997267716,1177256071076966,1.7410501,3.9139502,10.887
1679997267718,1177256073579043,1.107,3.2010002,10.653001
1679997267720,1177256076080966,1.35105,2.79795,10.305
1679997267723,1177256078583120,1.6650001,2.2690501,9.738001
1679997267726,1177256081085201,1.7029501,2.36205,8.49495
1679997267728,1177256083587124,1.34595,2.50605,7.9870505
1679997267731,1177256086089201,0.9889501,2.5159502,8.06595
1679997267733,1177256088591124,0.79605,2.69295,8.122951
1679997267735,1177256091093201,0.20700002,2.6209502,8.286
1679997267738,1177256093595327,-0.09900001,2.5540502,8.599951
1679997267742,1177256096097250,-0.94995004,2.47305,8.63805
1679997267744,1177256098599403,-4.044,2.43405,7.314
1679997267748,1177256101101480,-11.590951,2.082,3.9079502
1679997267751,1177256103603417,-23.299952,1.6680001,-1.815
1679997267751,1177256106105494,-27.826952,2.973,-5.826
1679997267753,1177256108607417,-22.20795,4.3330503,-3.8100002
1679997267756,1177256111109571,-16.596,5.4900002,-0.072000004
1679997267758,1177256113611648,-13.710001,5.6599503,1.9900501
1679997267761,1177256116113566,-9.418051,4.62795,4.4760003
1679997267764,1177256118615643,-5.7900004,3.4830003,6.3900003
1679997267765,1177256121117566,-2.9950502,2.5200002,8.65995
1679997267769,1177256123619643,-1.419,1.55295,10.440001
1679997267770,1177256126121561,-0.291,1.146,11.5990505
1679997267774,1177256128623715,-0.34800002,1.194,11.958
1679997267776,1177256131125792,-1.113,1.182,11.983951
1679997267782,1177256133627701,-1.692,1.23,11.956051
1679997267782,1177256136129778,-2.15895,1.3560001,12.291
1679997267783,1177256138631932,-2.42505,1.47405,12.363001
1679997267786,1177256141133855,-2.39595,1.9530001,12.262051
1679997267788,1177256143635932,-2.08995,2.47305,12.030001
1679997267790,1177256146137855,-2.265,2.59905,11.175
1679997267793,1177256148639932,-2.286,2.8609502,10.36305
1679997267795,1177256151141855,-2.0320501,2.97795,9.927
1679997267798,1177256153643932,-1.8169501,3.0229502,9.69705
1679997267800,1177256156146163,-1.4140501,2.7550502,9.781051
1679997267803,1177256158647980,-0.90900004,2.35995,10.152
1679997267806,1177256161150134,-0.70305,1.881,11.194051
1679997267808,1177256163652211,-0.43500003,1.4929501,12.162001
1679997267811,1177256166154134,-0.411,0.882,13.038001
1679997267813,1177256168656182,-0.17400001,0.85605,13.984051
1679997267817,1177256171158336,-0.19500001,0.53295004,14.7960005
1679997267819,1177256173660259,-0.64305,-0.40005,15.39
1679997267821,1177256176162336,-0.90705,-0.76905006,16.07505
1679997267823,1177256178664254,-0.588,-0.63795,16.62795
1679997267827,1177256181166331,-0.45900002,-0.65205,17.257952
1679997267829,1177256183668254,-0.744,-0.80295,17.823
1679997267831,1177256186170331,-1.35195,-0.88905007,18.23295
1679997267833,1177256188672485,-2.5879502,-0.702,18.094051
1679997267835,1177256191174437,-4.3120503,-0.77205,17.68005
1679997267838,1177256193676514,-5.8669505,-0.666,16.746
1679997267840,1177256196178437,-6.4680004,-1.06605,14.41005
1679997267843,1177256198680514,-6.1369505,-0.27795002,11.55105
1679997267845,1177256201182413,-4.947,0.66,9.024
1679997267848,1177256203684566,-3.7230003,1.536,6.6270003
1679997267851,1177256206186643,-2.6140501,2.358,4.9500003
1679997267855,1177256208688585,-1.7160001,3.2650502,3.42705
1679997267860,1177256211190739,-1.7160001,4.0669503,2.562
1679997267861,1177256213692816,-1.6060501,5.157,2.19105
1679997267861,1177256216194662,-2.14995,5.52405,2.05005
1679997267863,1177256218696816,-2.16195,6.6160502,2.1700501
1679997267867,1177256221198965,-2.5729501,7.1359506,2.18595
1679997267868,1177256223700888,-2.535,7.6579504,2.6560502
1679997267872,1177256226202965,-2.16405,7.9669504,3.04905
1679997267873,1177256228704888,-2.38695,8.158051,3.6450002
1679997267877,1177256231206965,-2.6089501,8.0449505,4.596
1679997267878,1177256233708883,-2.6209502,7.84005,5.96295
1679997267881,1177256236210960,-2.8900502,7.1959505,7.05495
1679997267883,1177256238713114,-3.2370002,6.333,8.37705
1679997267886,1177256241215037,-3.3660002,5.2990503,9.07005
1679997267888,1177256243717114,-3.4399502,4.446,9.505051
1679997267893,1177256246219037,-3.321,3.5340002,9.63195
1679997267894,1177256248721114,-3.0930002,2.7259502,9.72795
1679997267897,1177256251223037,-2.80095,2.0989501,9.76395
1679997267898,1177256253725114,-2.4510002,1.7370001,9.799951
1679997267901,1177256256227264,-2.3100002,1.6339501,9.946051
1679997267903,1177256258729418,-2.01,1.71105,9.92895
1679997267907,1177256261231341,-1.3090501,1.728,9.90495
1679997267908,1177256263733187,-0.58305,1.9549501,9.783
1679997267911,1177256266235345,-0.25995,1.98405,9.666
1679997267913,1177256268737422,-0.24795002,2.322,9.30405
1679997267915,1177256271239576,-0.45105,2.4100502,9.193951
1679997267918,1177256273741499,-0.753,2.262,9.049951
1679997267920,1177256276243557,-1.05495,1.9579501,8.743951
1679997267923,1177256278745480,-0.90705,1.8379501,8.574
1679997267926,1177256281247557,-0.95895004,1.6849501,8.607
1679997267929,1177256283749485,-1.077,1.5600001,8.89995
1679997267931,1177256286251562,-1.35405,1.4260501,9.498
1679997267933,1177256288753716,-1.24905,1.28205,10.083
1679997267935,1177256291255639,-0.98805004,1.131,10.85595
1679997267938,1177256293757716,-0.83895004,0.813,11.34
1679997267940,1177256296259644,-1.0020001,0.37695003,11.479051
1679997267943,1177256298761721,-1.2250501,0.34395,11.26095
1679997267947,1177256301263644,-1.20105,0.261,11.127001
1679997267948,1177256303765797,-1.11,0.22500001,10.86795
1679997267951,1177256306267859,-1.5270001,0.27,10.765051
1679997267953,1177256308770013,-1.5840001,0.81795,10.696051
1679997267955,1177256311271859,-1.8210001,0.60195005,10.576051
1679997267958,1177256313774013,-2.40105,0.36795002,10.332001
1679997267960,1177256316275946,-2.2380002,0.51000005,10.107
1679997267963,1177256318778023,-1.8649501,0.45600003,10.20495
1679997267967,1177256321280177,-1.44105,0.91605,9.943951
1679997267969,1177256323782023,-1.43595,0.76995003,9.561001
1679997267970,1177256326283975,-1.70595,1.026,9.5130005
1679997267973,1177256328786129,-1.33305,0.78900003,9.036
1679997267975,1177256331288206,-1.67295,0.94905007,8.99295
1679997267978,1177256333790360,-2.085,1.1149501,9.204
1679997267980,1177256336292283,-2.01705,1.0690501,9.168
1679997267983,1177256338794369,-2.40105,1.23405,9.307051
1679997267987,1177256341296292,-2.427,1.31295,9.39105
1679997267988,1177256343798369,-2.43495,1.608,9.4140005
1679997267991,1177256346300292,-2.29305,1.78005,9.27795
1679997267993,1177256348802446,-2.118,1.8550501,9.288
1679997267996,1177256351304523,-1.6710001,1.9410001,9.09795
1679997267999,1177256353806446,-1.1149501,1.95,9.024
1679997268000,1177256356308523,-1.215,1.8930001,9.0720005
1679997268005,1177256358810417,-0.91095006,2.2429502,8.64795
1679997268014,1177256361312494,-1.23705,2.4750001,8.62905
1679997268014,1177256363814417,-0.80805004,2.69805,7.9920006
1679997268014,1177256366316571,-1.6390501,1.46895,7.93695
1679997268014,1177256368818672,-1.3930501,3.10695,7.7089505
1679997268016,1177256371320595,-2.217,2.9230502,7.80705
1679997268018,1177256373822749,-1.764,2.8510501,7.90605
1679997268021,1177256376324826,-2.046,3.0349503,8.03295
1679997268023,1177256378826672,-2.118,2.463,8.257951
1679997268027,1177256381328903,-1.2390001,2.77005,8.887951
1679997268028,1177256383830980,-1.39995,2.53695,9.496051
1679997268031,1177256386332903,-1.2229501,2.23305,9.798
1679997268033,1177256388834996,-1.26795,1.404,10.36305
1679997268035,1177256391336919,-1.14795,1.8690001,10.6050005
1679997268038,1177256393838996,-1.59405,1.23405,10.65495
1679997268041,1177256396340919,-1.5000001,0.97305006,10.80405
1679997268044,1177256398843067,-2.43495,1.098,10.927951
1679997268046,1177256401345144,-2.74095,1.1719501,10.854
1679997268048,1177256403847067,-3.3330002,0.9799501,11.017051
1679997268051,1177256406349144,-3.89805,0.95205003,10.79895
1679997268054,1177256408851067,-4.09905,0.624,10.102051
1679997268057,1177256411353158,-4.386,0.83400005,9.774
1679997268058,1177256413855312,-3.9529502,0.261,9.361951
1679997268061,1177256416357235,-4.341,0.15300001,9.36705
1679997268063,1177256418859312,-4.0810504,0.85800004,9.795
1679997268068,1177256421361442,-3.3040502,0.94695,9.858001
1679997268069,1177256423863365,-2.3749502,0.69795,10.07505
1679997268071,1177256426365211,-1.1580001,0.85395,10.20195
1679997268074,1177256428867365,-0.55695003,0.86505,10.353001
1679997268077,1177256431369519,0.13995,1.20105,10.759951
1679997268080,1177256433871582,0.78900003,1.6530001,11.086051
1679997268082,1177256436373505,0.91005003,1.8229501,11.10105
1679997268085,1177256438875582,1.0180501,1.74405,11.0119505
1679997268087,1177256441377505,0.80805004,2.1709502,10.82295
1679997268089,1177256443879582,0.492,2.226,10.365001
1679997268091,1177256446381509,-0.079950005,2.1319501,10.044001
1679997268093,1177256448883663,-0.63600004,2.1319501,9.4459505
1679997268096,1177256451385740,-0.54195005,2.2380002,8.677051
1679997268098,1177256453887663,-0.89895004,2.3380501,8.137051
1679997268101,1177256456389740,-1.04505,2.463,7.4479504
1679997268103,1177256458891668,-1.04505,2.4439502,7.15395
1679997268106,1177256461393745,-0.61200005,2.9590502,6.59595
1679997268108,1177256463895899,-0.70095,2.49195,6.6000004
1679997268110,1177256466397822,-0.34800002,2.832,6.56895
1679997268113,1177256468899957,-0.94695,2.4510002,7.0579505
1679997268117,1177256471402034,-1.16505,2.1060002,7.3069506
1679997268119,1177256473903880,-1.6849501,2.19195,7.5610504
1679997268121,1177256476406029,-1.3110001,2.16105,8.0449505
1679997268124,1177256478907952,-1.3620001,1.9530001,8.265
1679997268127,1177256481410106,-1.3399501,1.7040001,8.490001
1679997268128,1177256483912183,-1.524,1.572,8.904
1679997268132,1177256486414106,-1.24395,1.8000001,9.496051
1679997268133,1177256488916159,-1.4239501,2.1760502,9.963
1679997268136,1177256491418082,-0.85395,2.2470002,10.45905
1679997268138,1177256493920159,-0.73200005,2.67405,10.293
1679997268141,1177256496422082,-1.4170501,3.2989502,10.66005
1679997268143,1177256498924230,-2.07795,3.153,10.686001
1679997268147,1177256501426307,-1.4290501,3.0190501,10.549951
1679997268148,1177256503928230,-1.1389501,2.59695,11.685
1679997268151,1177256506430307,-2.94705,2.7190502,9.043051
1679997268155,1177256508932457,-3.48795,2.67405,11.805
1679997268157,1177256511434380,-2.73405,3.3040502,11.457001
1679997268160,1177256513936457,-2.35095,4.563,10.923
1679997268161,1177256516438380,-1.0020001,4.2829504,9.15795
1679997268163,1177256518940457,-0.92805004,4.15605,8.134951
1679997268165,1177256521442394,-1.3470001,4.1850004,10.06095
1679997268168,1177256523944779,-0.624,4.6519504,5.4870005
1679997268171,1177256526446625,-0.279,4.68795,3.3289502
1679997268173,1177256528948548,-0.22605,4.9900503,3.2659502
1679997268177,1177256531450697,0.657,5.8759503,4.8040504
1679997268178,1177256533952774,4.893,8.094001,4.8300004
1679997268181,1177256536454620,3.7699502,6.9490504,5.163
1679997268183,1177256538956774,4.3039503,7.3489504,5.05305
1679997268186,1177256541458914,4.41405,7.1310005,4.8640504
1679997268188,1177256543960837,5.41095,8.17695,6.2050505
1679997268192,1177256546462914,5.3029504,6.98505,5.616
1679997268194,1177256548964837,6.53595,8.54895,5.32095
1679997268196,1177256551466914,7.0849504,8.898001,5.6350503
1679997268198,1177256553968846,5.76,7.38,5.1199503
1679997268201,1177256556470923,4.63005,7.60305,4.84005
1679997268204,1177256558973077,3.4080002,7.3609505,5.92995
1679997268206,1177256561475000,2.328,6.89895,7.53
1679997268209,1177256563977077,1.6789501,6.834,8.907001
1679997268211,1177256566479000,0.98205006,6.939,9.462001
1679997268214,1177256568981077,0.010950001,6.9610505,8.743951
1679997268217,1177256571483000,-0.58995,7.524,7.6369505
1679997268219,1177256573985164,-1.23,7.7970004,7.3830004
1679997268221,1177256576487241,-1.36905,7.833,7.3690505
1679997268224,1177256578989395,-2.42295,8.115001,6.95205
1679997268227,1177256581491318,-3.594,7.2289505,7.8840003
1679997268230,1177256583993159,-4.82205,7.3729506,8.134951
1679997268232,1177256586495313,-5.4739504,6.9970503,8.4210005
1679997268234,1177256588997390,-6.3889503,7.4370003,8.442
1679997268237,1177256591499543,-6.42,7.4730005,8.101951
1679997268238,1177256594001466,-5.874,8.154,7.5820503
1679997268241,1177256596503567,-5.8000503,7.9020004,7.0270505
1679997268244,1177256599005490,-4.5919504,7.8690004,6.5670004
1679997268246,1177256601507567,-5.36595,7.6789503,7.3039503
1679997268248,1177256604009490,-5.6200504,7.9429502,8.82495
1679997268251,1177256606511577,-3.663,8.42205,9.441
1679997268254,1177256609013731,-2.5470002,8.51505,8.707951
1679997268256,1177256611515654,-2.05905,9.78495,8.002951
1679997268258,1177256614017731,-0.432,10.869,8.181001
1679997268261,1177256616519649,0.41295,12.535951,6.696
1679997268264,1177256619021726,1.1880001,14.436001,5.142
1679997268268,1177256621523649,1.19505,15.786001,4.866
1679997268270,1177256624025803,1.6699501,17.511002,5.4870005
1679997268272,1177256626527952,2.55795,19.71195,6.057
1679997268274,1177256629030029,1.6810501,19.855951,5.8360505
1679997268278,1177256631531875,-0.10395,19.546951,6.0090003
1679997268279,1177256634034029,-3.213,17.085001,6.8040004
1679997268281,1177256636535952,-5.87895,14.242051,7.9440002
1679997268283,1177256639038024,-7.7230506,11.7630005,9.11505
1679997268286,1177256641540178,-7.7830505,10.9150505,9.68505
1679997268288,1177256644042101,-7.227,10.563001,10.38405
1679997268291,1177256646544178,-6.4560003,10.51305,9.26595
1679997268294,1177256649046120,-6.6280503,10.074,8.48505
1679997268296,1177256651548197,-6.3790503,10.10505,8.63595
1679997268298,1177256654050120,-6.2760005,10.045951,8.718
1679997268301,1177256656552274,-5.946,10.045951,8.545051
1679997268305,1177256659054361,-5.67495,9.94305,8.089951
1679997268308,1177256661556284,-5.09805,9.922951,8.125951
1679997268310,1177256664058361,-5.412,9.68595,8.598001
1679997268312,1177256666560284,-4.9729505,9.195001,8.00895
1679997268314,1177256669062361,-4.9009504,7.5400505,6.9670506
1679997268316,1177256671564264,-2.86995,7.1620502,6.1519504
1679997268320,1177256674066418,-1.35195,5.802,5.4199505
1679997268321,1177256676568572,0.67905,4.4479504,4.75395
1679997268324,1177256679070418,3.3049502,3.5050502,4.06605
1679997268326,1177256681572495,5.7190504,2.7259502,3.7170002
1679997268328,1177256684074659,7.0270505,1.8190501,3.5850003
1679997268331,1177256686576582,7.5109506,1.0519501,3.6040502
1679997268334,1177256689078659,7.7430005,0.86805004,3.9079502
1679997268336,1177256691580812,7.7719502,0.98295003,4.677
1679997268340,1177256694082716,7.4340005,1.28505,5.4240003
1679997268344,1177256696584793,6.90495,1.644,6.21705
1679997268346,1177256699086640,6.22695,2.2810502,6.9880505
1679997268347,1177256701588793,5.046,2.94705,7.7640004
1679997268349,1177256704090947,3.9540002,3.7710001,8.313001
1679997268351,1177256706592875,3.2959502,4.434,8.752951
1679997268353,1177256709094722,2.9509501,5.1720004,8.872951
1679997268356,1177256711596875,2.53395,5.8279505,8.799001
1679997268359,1177256714098952,2.3140502,6.42,8.65005
1679997268361,1177256716600865,1.8229501,6.8959503,8.227051
1679997268364,1177256719103019,1.53495,7.1860504,7.9849505
1679997268366,1177256721605096,0.97695005,7.452,7.5850506
1679997268369,1177256724107019,0.71295005,7.7460003,7.2970505
1679997268371,1177256726609086,0.20505,7.7539506,6.9619503
1679997268374,1177256729111009,-0.28395,7.6069503,6.60795
1679997268376,1177256731613086,-0.86295,7.392,6.5599504
1679997268380,1177256734115240,-1.40505,7.1670003,6.5520005
1679997268381,1177256736617178,-1.8190501,6.91305,6.576
1679997268385,1177256739119255,-2.214,6.7879505,6.7270503
1679997268387,1177256741621178,-2.49195,6.405,6.94995
1679997268389,1177256744123255,-2.77905,6.2520003,7.55595
1679997268391,1177256746625178,-3.1000502,5.8330503,7.9890003
1679997268395,1177256749127250,-3.321,5.5210505,8.286
1679997268396,1177256751629404,-3.081,5.2270503,8.442
1679997268399,1177256754131558,-2.76495,4.9729505,8.254951
1679997268401,1177256756633404,-2.4079502,4.9350004,8.155951
1679997268404,1177256759135577,-2.334,4.57305,8.097
1679997268406,1177256761637500,-2.25,4.4890504,8.15205
1679997268408,1177256764139577,-2.42505,4.3429503,7.8600006
1679997268411,1177256766641731,-2.298,4.329,7.5220504
1679997268414,1177256769143654,-2.2999501,4.254,7.1370006
1679997268418,1177256771645726,-2.47305,4.0960503,7.0290003
1679997268420,1177256774147649,-2.41995,4.254,6.8899503
1679997268421,1177256776649726,-2.21895,4.3890004,6.8250003
1679997268424,1177256779151649,-1.9290001,4.45305,7.089
1679997268427,1177256781653731,-1.845,4.506,7.1730003
1679997268429,1177256784155885,-1.3930501,4.61595,7.1730003
1679997268431,1177256786657808,-0.89895004,5.0740504,7.5919504
1679997268435,1177256789159885,-0.087000005,5.4139504,8.62905
1679997268436,1177256791661794,-0.109050006,5.42595,7.96995
1679997268439,1177256794163871,-0.23400001,5.3629503,6.6600003
1679997268441,1177256796665794,-0.32700002,5.22405,6.0690002
1679997268444,1177256799167871,-0.17805001,5.2720504,6.49695
1679997268446,1177256801670024,0.030000001,5.3509502,6.675
1679997268449,1177256804171948,0.44895002,5.5290003,6.7390504
1679997268451,1177256806674024,0.70305,5.7180004,7.01205
1679997268456,1177256809176178,1.1020501,5.7109504,6.6340504
1679997268457,1177256811678120,0.97695005,5.99805,6.87795
1679997268459,1177256814180197,1.2,6.0409503,7.0579505
1679997268461,1177256816682351,1.1520001,5.98395,6.6990004
1679997268465,1177256819184274,1.0680001,5.9740505,6.45195
1679997268467,1177256821686351,1.15695,6.051,6.64095
1679997268470,1177256824188274,1.14495,6.0270004,6.5929503
1679997268472,1177256826690351,1.07805,6.2640004,6.4900503
1679997268474,1177256829192274,1.09695,6.46005,6.6390004
1679997268476,1177256831694351,0.88305,6.7260003,6.945
1679997268479,1177256834196524,0.87105006,6.97305,6.9210005
1679997268482,1177256836698447,0.79395,7.248,6.6529503
1679997268486,1177256839200524,1.0849501,7.59105,6.2239504
1679997268487,1177256841702447,1.404,7.82805,5.9230504
1679997268489,1177256844204534,1.7490001,7.90395,5.97795
1679997268494,1177256846706457,1.9879501,7.9429502,6.2029505
1679997268495,1177256849208534,1.9620001,8.0119505,6.564
1679997268497,1177256851710688,1.8180001,7.8640504,6.83505
1679997268500,1177256854212601,1.674,7.5430503,7.11
1679997268502,1177256856714755,1.593,7.3630505,6.7660503
1679997268507,1177256859216832,1.401,6.8959503,6.5860505
1679997268508,1177256861718678,1.2739501,6.76905,6.63105
1679997268509,1177256864220832,1.16205,6.79995,6.6910505
1679997268511,1177256866722996,1.07295,6.7210503,6.74595
1679997268514,1177256869224919,0.76005006,6.7909503,7.0189505
1679997268516,1177256871726996,0.633,6.8959503,7.08405
1679997268520,1177256874228919,0.64305,6.94605,7.0189505
1679997268521,1177256876731010,0.51405,6.9970503,6.73005
1679997268524,1177256879232933,0.53805,6.9030004,6.3490505
1679997268526,1177256881735087,0.53805,6.84105,6.1000504
1679997268530,1177256884237164,0.52305,6.5659504,5.9749503
1679997268531,1177256886739097,0.44895002,6.6160502,6.045
1679997268535,1177256889241174,0.648,6.62295,6.2080503
1679997268536,1177256891743097,0.48495004,6.5779505,6.21495
1679997268539,1177256894245250,0.51600003,6.669,6.30105
1679997268541,1177256896747327,0.40800002,6.762,6.5839505
1679997268545,1177256899249256,0.39195,6.7980003,6.873
1679997268547,1177256901751332,0.36495003,6.9580503,7.1970005
1679997268549,1177256904253256,0.52095,7.1119504,7.1580005
1679997268551,1177256906755332,0.55905,7.4160004,6.8370004
1679997268555,1177256909257256,0.59805006,7.4539504,6.768
1679997268557,1177256911759404,0.648,7.557,6.7660503
1679997268559,1177256914261481,0.70305,7.59495,6.6580505
1679997268561,1177256916763404,0.648,7.62195,6.4350004
1679997268565,1177256919265481,0.85905004,7.5739503,6.2719502
1679997268568,1177256921767635,1.2360001,7.5600004,6.3180003
1679997268569,1177256924269481,1.4080501,7.4659505,6.3510003
1679997268571,1177256926771712,1.5979501,7.45695,6.5839505
1679997268575,1177256929273789,1.8040501,7.62405,6.97905
1679997268576,1177256931775712,1.72905,7.7800503,7.1800504
1679997268579,1177256934277543,1.6530001,7.8949504,7.5820503
1679997268581,1177256936779697,1.3249501,8.101951,7.8169503
1679997268585,1177256939281774,1.092,8.25195,8.04
1679997268588,1177256941783697,0.96300006,8.521951,8.071051
1679997268589,1177256944285837,1.04205,8.57295,8.167951
1679997268592,1177256946787914,0.99705005,8.70405,8.16705
1679997268594,1177256949289837,1.0540501,8.628,8.101951
1679997268597,1177256951791914,1.11405,8.67105,8.215051
1679997268600,1177256954293846,1.116,8.568001,8.21895
1679997268601,1177256956795923,1.2409501,8.503051,8.142
1679997268606,1177256959297846,1.2550501,8.359051,8.04195
1679997268607,1177256961800000,1.11405,8.137051,8.052
1679997268609,1177256964302077,1.06605,8.188951,8.092051
1679997268611,1177256966804019,1.0180501,8.280001,8.101951
1679997268615,1177256969306096,0.99405,8.295,8.19495
1679997268616,1177256971808019,0.95295006,8.2879505,8.46405
1679997268619,1177256974310096,0.73905003,8.44305,8.266951
1679997268622,1177256976812270,0.43905002,8.451,8.233951
1679997268627,1177256979314424,0.13305001,8.3550005,8.158951
1679997268628,1177256981816270,-0.018000001,8.44305,8.253
1679997268629,1177256984318193,-0.279,8.488951,8.052
1679997268635,1177256986820347,-0.078,8.53905,7.8840003
1679997268636,1177256989322424,-0.18300001,8.54595,8.221951
1679997268636,1177256991824270,-0.21405001,8.532001,8.298
1679997268638,1177256994326424,-0.38700002,8.40495,8.3890505
1679997268642,1177256996828581,-0.57105005,8.37405,8.37705
1679997268645,1177256999330428,-0.57795,8.44305,8.394
1679997268646,1177257001832581,-0.74595004,8.36205,8.3890505
1679997268649,1177257004334505,-1.182,8.20905,8.48295
1679997268651,1177257006836581,-1.28295,8.16495,8.298
1679997268654,1177257009338486,-1.371,8.302051,7.69995
1679997268656,1177257011840639,-1.70595,8.27295,7.2640505
1679997268660,1177257014342716,-2.046,8.13195,6.8830504
1679997268661,1177257016844639,-2.3700001,8.026951,6.40605
1679997268666,1177257019346707,-2.6449502,7.87095,6.2430005
1679997268667,1177257021848630,-2.6860502,7.794,5.8360505
1679997268668,1177257024350707,-2.5210502,7.6309505,5.43405
1679997268672,1177257026852861,-2.2669501,7.4880004,5.1780005
1679997268677,1177257029354764,-1.8930001,7.5790505,5.0340004
1679997268677,1177257031856841,-1.12695,7.4779506,4.96005
1679997268681,1177257034358764,-0.75105006,7.4950504,4.833
1679997268682,1177257036860841,0.84405005,7.8570004,6.77505
1679997268685,1177257039362764,1.16205,7.41795,6.67005
1679997268687,1177257041864827,0.64995,6.89895,5.235
1679997268689,1177257044367058,0.31305,6.69495,4.842
1679997268691,1177257046868904,0.55905,6.7840505,4.8019505
1679997268695,1177257049370981,0.72195005,6.8220005,4.75605
1679997268696,1177257051872918,0.88695,6.8550005,4.701
1679997268699,1177257054375072,0.97305006,6.6660004,4.56495
1679997268701,1177257056876918,1.1400001,6.6540003,4.3230004
1679997268705,1177257059379072,1.36995,6.7519503,4.84695
1679997268707,1177257061881226,0.99405,6.58995,4.90005
1679997268709,1177257064383303,0.98205006,6.6900005,4.7920504
1679997268711,1177257066885149,1.0030501,6.8869505,4.7130003
1679997268714,1177257069387072,0.98505,6.91305,4.44
1679997268717,1177257071889236,1.21695,6.9940505,4.263
1679997268719,1177257074391390,1.2550501,7.143,4.51905
1679997268721,1177257076893236,0.96105003,7.2310505,4.4380503
1679997268724,1177257079395313,0.73200005,7.1569505,4.25595
1679997268726,1177257081897467,0.78000003,7.3339505,3.96795
1679997268728,1177257084399365,-0.246,7.39905,3.86805
1679997268731,1177257086901442,-0.30105,7.5880504,3.9709501
1679997268734,1177257089403596,-0.67695004,7.6750503,4.4160004
1679997268736,1177257091905519,-1.026,7.6650004,4.69605
1679997268738,1177257094407596,-1.4070001,7.7800503,4.63395
1679997268741,1177257096909514,-1.4290501,7.9519506,4.9669504
1679997268745,1177257099411591,-1.4790001,7.8610506,5.103
1679997268747,1177257101913514,-2.0370002,7.7869506,4.905
1679997268749,1177257104415658,-2.193,8.002951,4.8349504
1679997268751,1177257106917734,-2.7120001,8.19705,4.99095
1679997268756,1177257109419658,-3.1390502,8.391001,4.87095
1679997268757,1177257111921734,-3.42405,8.589001,4.45905
1679997268759,1177257114423678,-3.8550003,8.641951,4.3830004
1679997268761,1177257116925754,-4.209,8.72595,4.083
1679997268764,1177257119427908,-4.6330504,8.596951,3.7549503
1679997268766,1177257121929831,-4.59705,8.38095,3.32205
1679997268769,1177257124431908,-4.63605,8.44305,3.1200001
1679997268771,1177257126933821,-4.8630004,8.30895,3.0370502
1679997268774,1177257129435975,-5.1000004,8.158051,2.97405
1679997268776,1177257131938052,-5.3179502,8.167951,2.8159502
1679997268779,1177257134439898,-5.58405,8.047951,2.7439501
1679997268781,1177257136942129,-5.7130504,8.023951,2.8330503
1679997268785,1177257139444206,-5.6340003,7.8850503,2.80395
1679997268787,1177257141946129,-5.709,7.8229504,2.80395
1679997268789,1177257144448206,-5.5219502,7.4779506,2.3490002
1679997268793,1177257146950110,-5.4690003,7.31295,2.124
1679997268795,1177257149452187,-5.3370004,6.9679503,2.05905
1679997268797,1177257151954110,-5.1049504,7.03695,2.18205
1679997268799,1177257154456264,-4.7530503,7.1310005,1.9920001
1679997268801,1177257156958341,-4.5490503,7.24095,2.421
1679997268804,1177257159460264,-4.56405,7.1260505,2.7250502
1679997268806,1177257161962341,-4.4700003,7.2169504,3.2260501
1679997268808,1177257164464264,-4.53,7.0590005,3.4459503
1679997268811,1177257166966341,-4.434,6.98505,2.9239502
1679997268815,1177257169468480,-4.257,7.0950003,2.9670002
1679997268818,1177257171970403,-4.02,6.81195,2.9290502
1679997268819,1177257174472480,-3.76395,6.9900002,2.8950002
1679997268821,1177257176974403,-3.4480503,7.1020503,3.21405
1679997268825,1177257179476557,-3.0600002,7.31505,3.3619502
1679997268827,1177257181978403,-2.6430001,7.65495,3.4080002
1679997268832,1177257184480557,-2.4750001,8.094001,3.6070502
1679997268833,1177257186982711,-2.1760502,8.472,4.2120004
1679997268835,1177257189484788,-1.98705,8.54595,4.5409503
1679997268837,1177257191986721,-1.7179501,8.472,4.5529504
1679997268839,1177257194488798,-1.4809501,8.439,4.8109503
1679997268841,1177257196990721,-1.299,8.47395,4.794
1679997268845,1177257199492798,-1.23705,8.58495,4.76805
1679997268846,1177257201994750,-1.1509501,8.56305,4.68405
1679997268849,1177257204496904,-1.2610501,8.403001,4.7080503
1679997268851,1177257206998980,-1.39005,8.40495,4.67205
1679997268855,1177257209500904,-1.7590501,8.187,4.428
1679997268856,1177257212002980,-1.797,8.005051,4.30095
1679997268859,1177257214504928,-1.74495,7.9140005,4.0470004
1679997268861,1177257217007004,-0.147,8.29695,4.452
1679997268866,1177257219509158,-0.054,7.9570503,3.453
1679997268868,1177257222011071,-1.371,7.4160004,2.5810502
1679997268870,1177257224513148,-2.2840502,6.7759504,2.601
1679997268872,1177257227015302,-3.3280501,6.6540003,2.83095
1679997268875,1177257229517148,-4.0009503,6.6160502,3.0580502
1679997268877,1177257232019071,-4.6930504,6.525,3.0030003
1679997268879,1177257234521206,-4.971,6.5850005,2.1979501
1679997268882,1177257237023360,-4.9009504,6.8220005,1.4970001
1679997268885,1177257239525206,-5.1600003,6.8890505,1.4580001
1679997268888,1177257242027360,-5.16195,7.0249505,1.3429501
1679997268889,1177257244529413,-5.48295,7.1239505,1.7050501
1679997268893,1177257247031336,-5.77995,7.24095,1.7580001
1679997268895,1177257249533413,-6.30705,7.26,1.53495
1679997268897,1177257252035567,-6.4150505,7.3680005,1.5880501
1679997268901,1177257254537505,-6.7770004,7.2049503,1.23105
1679997268901,1177257257039582,-6.8290505,7.1020503,0.83805007
1679997268908,1177257259541505,-6.98505,7.00605,0.81600004
1679997268910,1177257262043582,-7.07805,6.9199505,0.83295006
1679997268911,1177257264545736,-7.05,6.8269506,0.97395
1679997268912,1177257267047659,-7.20795,6.8310003,0.95505005
1679997268915,1177257269549736,-7.1860504,6.9030004,1.07295
1679997268916,1177257272051659,-7.29405,6.79995,0.56505
1679997268919,1177257274553736,-6.834,7.2390003,0.36795002
1679997268922,1177257277055649,-6.90105,7.3969502,0.50295
1679997268925,1177257279557803,-6.4630504,7.5040503,0.94305
1679997268926,1177257282059880,-6.26205,7.6720505,0.61800003
1679997268929,1177257284561803,-5.5219502,8.082001,0.66300005
1679997268932,1177257287063880,-5.6460004,8.211,0.98205006
1679997268935,1177257289566015,-4.6860003,8.56305,1.8700501
1679997268936,1177257292067861,-3.9889503,8.82705,2.29605
1679997268939,1177257294569784,-3.6439502,8.913,2.5890002
1679997268943,1177257297072187,-3.0550501,9.435,2.8900502
1679997268946,1177257299574111,-3.2080503,9.1039505,2.59095
1679997268947,1177257302076187,-2.9659503,9.45195,2.9340003
1679997268949,1177257304578111,-2.16405,9.780001,3.1729503
1679997268951,1177257307080187,-2.64105,9.61695,3.1350002
1679997268954,1177257309582107,-2.466,9.813001,3.17805
1679997268956,1177257312084183,-2.3719501,9.504001,3.6469502
1679997268960,1177257314586337,-1.7880001,9.46605,4.2510004
1679997268961,1177257317088260,-1.9630501,9.183001,4.5739503
1679997268965,1177257319590361,-2.0320501,8.776051,4.497
1679997268967,1177257322092284,-2.36295,8.7949505,4.4929504
1679997268969,1177257324594361,-2.3389502,8.773951,4.19805
1679997268972,1177257327096284,-2.5399501,8.71905,4.059
1679997268975,1177257329598447,-1.812,8.89605,3.62295
1679997268977,1177257332100524,-1.70595,8.757,3.7549503
1679997268980,1177257334602447,-1.146,8.74995,4.31505
1679997268982,1177257337104524,-0.55005,8.601001,4.1329503
1679997268985,1177257339606471,-0.67200005,8.57295,3.111
1679997268987,1177257342108548,-0.90405005,8.3880005,2.64105
1679997268989,1177257344610702,-0.60705,8.7310505,2.9890501
1679997268991,1177257347112856,-1.3399501,8.712001,3.24495
1679997268995,1177257349614668,-1.6060501,8.724,3.69
1679997268996,1177257352116822,-1.8169501,8.961,4.215
1679997268999,1177257354618745,-2.1040502,9.052051,4.0410004
1679997269001,1177257357120822,-1.8379501,9.62205,4.47405
1679997269005,1177257359622745,-2.403,9.80805,4.7059503
1679997269006,1177257362124899,-2.229,10.077001,4.806
1679997269009,1177257364626976,-1.4620501,10.43805,4.8300004
1679997269012,1177257367128899,-1.67505,10.422001,4.5259504
1679997269015,1177257369630976,-2.21895,10.078951,4.677
1679997269018,1177257372132885,-2.6089501,9.89505,4.9500003
1679997269019,1177257374634962,-1.9720501,10.045951,5.3380504
1679997269022,1177257377136885,-2.29095,10.029,4.82595
1679997269025,1177257379639044,-3.3019502,9.768001,3.97305
1679997269027,1177257382141121,-3.4380002,9.550051,3.70005
1679997269029,1177257384643044,-2.9520001,9.543,3.4459503
1679997269031,1177257387145121,-2.87505,9.36495,2.9929502
1679997269034,1177257389647044,-2.96895,9.02295,2.5890002
1679997269036,1177257392149116,-3.2920501,8.90295,2.2050002
1679997269039,1177257394651270,-3.318,8.56995,2.31795
1679997269041,1177257397153193,-3.66105,8.199,2.39205
1679997269044,1177257399655270,-3.7900503,8.13195,2.352
1679997269046,1177257402157423,-4.0740004,7.90395,2.36595
1679997269049,1177257404659347,-4.08495,7.76805,2.39895
1679997269051,1177257407161193,-3.555,7.6600504,2.53395
1679997269056,1177257409663347,-3.7210503,7.5880504,2.4520502
1679997269058,1177257412165495,-3.828,7.5600004,2.5410001
1679997269059,1177257414667572,-3.7470002,7.6720505,2.9860501
1679997269061,1177257417169495,-4.0140004,7.5859504,3.4440002
1679997269065,1177257419671572,-4.18995,7.4880004,3.5800502
1679997269067,1177257422173495,-4.341,7.6099505,3.7740002
1679997269069,1177257424675556,-3.9820502,7.7869506,4.13595
1679997269072,1177257427177479,-3.76095,7.8919506,4.38
1679997269078,1177257429679633,-3.2700002,7.8160505,4.36305
1679997269078,1177257432181710,-2.6839502,7.7820005,4.39905
1679997269079,1177257434683633,-2.5729501,7.7250004,4.4620504
1679997269082,1177257437185710,-2.45895,7.4329505,4.12395
1679997269085,1177257439687864,-2.35305,7.4809504,4.25295
1679997269088,1177257442189787,-2.36295,7.143,3.8869503
1679997269089,1177257444691879,-2.5210502,6.9199505,3.7240503
1679997269094,1177257447193802,-2.5399501,6.4480505,3.4009502
1679997269096,1177257449695879,-2.4150002,6.3910503,3.4080002
1679997269098,1177257452197802,-2.535,5.8690505,3.3619502
1679997269099,1177257454699912,-2.62905,4.93695,2.1379502
1679997269102,1177257457202066,-2.2450502,6.096,3.7170002
1679997269105,1177257459703989,-2.9520001,5.991,3.1060503
1679997269107,1177257462206066,-3.2250001,6.0150003,3.051
1679997269109,1177257464707989,-3.357,5.8350005,2.6490002
1679997269111,1177257467210047,-3.5050502,5.4090004,2.9650502
1679997269115,1177257469711970,-2.86995,5.361,3.417
1679997269117,1177257472214355,-2.6880002,6.0480003,4.21995
1679997269120,1177257474716186,-2.7820501,5.6670003,3.2710502
1679997269121,1177257477218109,-2.84205,6.135,3.8700001
1679997269125,1177257479720263,-3.1939502,7.011,4.52895
1679997269127,1177257482222340,-3.7759502,6.9700503,4.3440003
1679997269131,1177257484724239,-4.25505,6.10305,2.50005
1679997269132,1177257487226316,-3.8430002,6.51105,3.6040502
1679997269135,1177257489728470,-3.79695,6.9900002,5.451
1679997269136,1177257492230393,-3.8089502,7.2750006,5.3689504
1679997269139,1177257494732470,-4.2840004,6.9300003,4.4160004
1679997269142,1177257497234369,-4.1280003,6.9250503,4.4500504
1679997269145,1177257499736446,-4.33605,7.2430506,5.2930503
1679997269147,1177257502238369,-4.4820004,7.6720505,5.2780504
1679997269149,1177257504740446,-4.5690002,7.59495,4.71495
1679997269152,1177257507242566,-4.37895,7.9500003,4.59795
1679997269155,1177257509744490,-4.2379503,8.343,5.2830005
1679997269157,1177257512246567,-4.34595,8.652,5.2060504
1679997269159,1177257514748490,-4.36695,7.6819506,4.46595
1679997269161,1177257517250567,-3.79695,7.4160004,4.38495
1679997269165,1177257519752768,-3.31095,7.5070505,4.70295
1679997269168,1177257522254691,-3.1890001,7.48995,4.263
1679997269169,1177257524756768,-3.0600002,7.4329505,3.9949503
1679997269172,1177257527258922,-3.03795,7.4730005,3.8869503
1679997269175,1177257529760845,-3.1320002,7.0279503,3.5419502
1679997269176,1177257532262922,-2.7150002,6.60405,2.67705
1679997269179,1177257534764845,-2.97105,6.846,3.4339502
1679997269181,1177257537266922,-2.83695,7.0729504,4.0680003
1679997269185,1177257539769090,-3.11505,7.1620502,4.13595
1679997269187,1177257542271013,-3.3370502,7.4689503,4.05
1679997269189,1177257544773090,-3.80205,7.7700005,4.191
1679997269191,1177257547275013,-3.9940503,7.8780003,4.6320004
1679997269194,1177257549777076,-4.12095,8.0449505,5.0340004
1679997269196,1177257552278999,-4.056,8.326051,5.5579505
1679997269199,1177257554781076,-3.8359501,8.72595,6.018
1679997269201,1177257557283230,-3.7470002,8.724,6.3490505
1679997269206,1177257559785133,-3.76605,9.16395,7.932
1679997269208,1177257562287210,-3.7210503,9.109051,7.3759503
1679997269210,1177257564789133,-3.04305,8.500951,6.696
1679997269212,1177257567291210,-2.7529502,8.247001,5.7259502
1679997269215,1177257569793133,-2.49195,7.9860005,4.87605
1679997269216,1177257572295297,-2.1400502,7.7179503,4.28205
1679997269220,1177257574797374,-2.2410002,7.4160004,3.8580003
1679997269224,1177257577299528,-2.7120001,7.0230002,3.5730002
1679997269227,1177257579801374,-3.28695,6.6850505,3.13995
1679997269228,1177257582303528,-3.2580001,7.0519505,2.661
1679997269230,1177257584805451,-3.4480503,7.3369503,2.5410001
1679997269232,1177257587307528,-3.76395,7.54995,2.5069501
1679997269235,1177257589809682,-3.8400002,7.5720005,3.2929502
1679997269237,1177257592311630,-4.1130004,7.5400505,3.7600503
1679997269239,1177257594813707,-4.0810504,7.2460504,3.9780002
1679997269245,1177257597315630,-4.0140004,6.951,4.0009503
1679997269246,1177257599817707,-3.7420502,7.25505,3.9199502
1679997269248,1177257602319640,-3.76395,7.29405,4.038
1679997269250,1177257604821794,-4.1280003,7.3030505,4.224
1679997269251,1177257607323871,-4.3429503,7.7419505,4.29405
1679997269255,1177257609825794,-4.6810503,7.9810505,4.19805
1679997269264,1177257612327871,-4.992,7.8469505,4.26795
1679997269264,1177257614829784,-4.6260004,8.154,4.3830004
1679997269264,1177257617331861,-4.3309503,8.212951,5.2590003
1679997269265,1177257619833784,-4.6260004,8.26605,5.90595
1679997269267,1177257622335937,-4.4490004,8.29695,5.3959503
1679997269269,1177257624837995,-4.88205,8.10105,4.6800003
1679997269271,1177257627339918,-4.8679504,7.7440505,4.5859504
1679997269275,1177257629841995,-3.7470002,7.8949504,4.76805
1679997269276,1177257632344149,-3.072,7.84005,5.12505
1679997269280,1177257634846091,-2.6860502,7.9620004,5.1270003
1679997269282,1177257637348245,-2.1709502,8.20395,4.87095
1679997269286,1177257639850322,-1.67805,8.53005,4.215
1679997269287,1177257642352168,-1.9390501,8.82195,4.1070004
1679997269289,1177257644854322,-2.4109502,8.82195,4.76805
1679997269291,1177257647356264,-3.4090502,8.611051,5.52495
1679997269294,1177257649858341,-3.6370502,8.920051,6.1720505
1679997269296,1177257652360495,-3.5749502,8.905951,6.49305
1679997269299,1177257654862418,-2.80605,8.865001,6.7200003
1679997269301,1177257657364495,-2.47005,8.956051,6.7249503
1679997269305,1177257659866433,-2.3359501,9.03495,6.5520005
1679997269307,1177257662368510,-2.1709502,8.170051,3.79605
1679997269310,1177257664870433,-3.2340002,8.6640005,5.46495
1679997269312,1177257667372587,-2.20005,9.150001,5.53905
1679997269316,1177257669874664,-2.42295,9.094951,5.1130505
1679997269319,1177257672376587,-2.5399501,8.613001,4.63905
1679997269321,1177257674878664,-2.2360501,8.448,4.9120502
1679997269323,1177257677380606,-2.703,8.743051,5.02395
1679997269325,1177257679882683,-3.22005,8.74995,4.75605
1679997269327,1177257682384837,-3.2389503,8.668051,4.84695
1679997269329,1177257684886760,-2.8459501,8.88195,5.1010504
1679997269331,1177257687388914,-4.0410004,8.625,5.214
1679997269335,1177257689890731,-4.0009503,8.556001,5.3980503
1679997269337,1177257692392885,-4.40805,8.356951,5.34495
1679997269339,1177257694894962,-3.8809502,8.007,5.2660503
1679997269341,1177257697396885,-3.9049501,7.524,3.0700502
1679997269345,1177257699899039,-4.4370003,7.6189504,2.775
1679997269347,1177257702401116,-4.5610504,7.6770005,2.64105
1679997269349,1177257704903039,-5.4090004,7.6069503,2.9260502
1679997269352,1177257707405116,-5.4760504,7.6480503,3.6739502
1679997269356,1177257709907029,-5.9359503,7.7029505,4.47405
1679997269358,1177257712409106,-5.9479504,7.66695,5.07495
1679997269359,1177257714911259,-5.4160504,7.734,5.09595
1679997269362,1177257717413182,-4.83195,7.9789505,4.20795
1679997269365,1177257719915259,-4.91295,8.55105,4.4110503
1679997269366,1177257722417182,-5.29395,9.085051,4.9879503
1679997269369,1177257724919259,-5.17005,9.394051,4.998
1679997269372,1177257727421182,-4.98,9.394051,4.668
1679997269375,1177257729923259,-4.5160503,9.574051,3.9439502
1679997269377,1177257732425432,-4.0729504,9.780001,4.2460504
1679997269379,1177257734927586,-3.0310502,9.8539505,4.38495
1679997269382,1177257737429432,-2.2120502,9.864,4.66305
1679997269385,1177257739931355,-1.6540501,9.813001,4.79895
1679997269387,1177257742433514,-0.88005006,9.543,4.701
1679997269389,1177257744935591,-0.26700002,9.495001,4.7059503
1679997269396,1177257747437514,-0.00795,9.43995,4.45905
1679997269396,1177257749939668,0.32700002,9.139951,4.2390003
1679997269398,1177257752441745,0.15900001,8.901,3.8460002
1679997269400,1177257754943668,-0.079950005,8.925,3.8080502
1679997269401,1177257757445745,-0.504,8.42205,3.5749502
1679997269405,1177257759947668,-0.363,8.439,3.9589503
1679997269407,1177257762449745,-0.34095,8.532001,4.36095
1679997269409,1177257764951899,-0.42495003,8.30895,4.7730002
1679997269412,1177257767453822,1.9069501,6.67605,4.82805
1679997269415,1177257769955899,1.9020001,7.09005,5.2450504
1679997269417,1177257772457822,0.76500005,8.071051,3.9900002
1679997269420,1177257774959880,0.09705,8.01,3.3289502
1679997269421,1177257777461803,-0.74595004,8.335951,3.6400502
1679997269427,1177257779963880,-1.24695,8.80305,4.011
1679997269428,1177257782466111,-1.46895,9.1710005,4.224
1679997269431,1177257784967971,-1.041,9.768001,4.6459503
1679997269433,1177257787470048,-0.22395001,9.997951,4.9500003
1679997269437,1177257789972202,0.31500003,9.837001,5.3809505
1679997269438,1177257792474125,0.75600004,9.47295,5.5080004
1679997269440,1177257794975971,1.2550501,9.379951,5.65395
1679997269441,1177257797478125,1.53795,9.47805,5.56605
1679997269444,1177257799980279,1.50705,9.63105,5.5030503
1679997269446,1177257802482356,1.42005,9.559051,5.4910502
1679997269449,1177257804984279,1.2220501,9.588,5.64195
1679997269451,1177257807486332,0.91005003,9.68595,5.8549504
1679997269454,1177257809988485,0.58305,9.562051,5.7330003
1679997269456,1177257812490408,0.13095,9.16695,6.1639504
1679997269460,1177257814992485,-0.09195001,8.874001,6.39405
1679997269461,1177257817494408,-0.531,8.212951,6.50895
1679997269466,1177257819996485,-0.32205,7.7890506,6.8160005
1679997269469,1177257822498408,-0.51000005,7.3339505,6.4950004
1679997269471,1177257825000562,-0.31500003,7.1070004,5.77395
1679997269472,1177257827502620,0.079950005,6.8479505,5.23995
1679997269475,1177257830004543,0.38205,6.8509502,4.85895
1679997269477,1177257832506620,0.83205,7.071,4.7200503
1679997269479,1177257835008543,1.3290001,7.071,4.9090505
1679997269482,1177257837510620,1.4130001,7.2580504,5.12295
1679997269485,1177257840012543,1.3750501,7.2580504,5.4240003
1679997269486,1177257842514697,1.6099501,7.1860504,5.7790504
1679997269489,1177257845016774,1.4680501,6.867,6.03
1679997269491,1177257847518928,1.332,6.54405,6.12405
1679997269495,1177257850020856,1.57395,6.3480005,6.4140005
1679997269496,1177257852522702,1.95,6.31395,6.4489503
1679997269499,1177257855024856,2.058,6.0870004,6.3679504
1679997269502,1177257857526933,2.4070501,6.111,6.1789503
1679997269507,1177257860029120,2.7259502,6.23295,6.0610504
1679997269509,1177257862531043,2.8140001,6.2970004,5.97795
1679997269510,1177257865033120,3.051,6.56295,6.18795
1679997269512,1177257867535043,3.1210501,6.9300003,6.1720505
1679997269515,1177257870037135,3.006,7.1599503,6.1980004
1679997269518,1177257872539058,2.87895,7.2700505,6.2959504
1679997269519,1177257875041212,2.7640502,7.3180504,6.6529503
1679997269522,1177257877543289,2.3110502,7.28205,6.8950505
1679997269527,1177257880045241,2.1100502,7.2240005,7.0290003
1679997269527,1177257882547318,2.30205,7.2840004,6.83295
1679997269529,1177257885049241,2.3380501,7.3819504,6.50505
1679997269532,1177257887551395,2.5410001,7.2340503,6.28905
1679997269535,1177257890053245,2.80995,7.3080006,6.3300004
1679997269537,1177257892555399,2.9320502,7.4040003,6.2029505
1679997269539,1177257895057553,2.9920502,7.34595,6.1759505
1679997269543,1177257897559630,4.005,6.4170003,3.5040002
1679997269546,1177257900061553,3.59505,6.3570004,5.1610503
1679997269548,1177257902563630,8.016001,3.5020502,3.657
1679997269550,1177257905065553,8.661,1.27995,-0.60795003
1679997269552,1177257907567630,5.3650503,3.5410502,3.38595
1679997269555,1177257910069783,4.40205,3.6750002,3.86805
1679997269557,1177257912571721,9.745951,-1.3270501,1.0510501
1679997269561,1177257915073798,9.03195,-0.82395005,2.7540002
1679997269562,1177257917575721,2.6749501,1.3969501,3.55095
1679997269565,1177257920077798,0.84900004,4.17495,0.54105
1679997269568,1177257922579735,1.4950501,6.5659504,0.72300005
1679997269571,1177257925081889,0.32205,8.55105,3.8800502
1679997269572,1177257927584043,-1.5480001,10.194,7.4119506
1679997269576,1177257930085889,-2.9160001,10.41705,9.823951
1679997269577,1177257932588043,-3.0600002,10.342951,10.02495
1679997269582,1177257935090090,-2.8609502,10.137,10.95705
1679997269583,1177257937591936,-1.90005,8.82405,11.071951
1679997269587,1177257940094090,-1.113,8.005051,11.497951
1679997269588,1177257942596244,0.0010500001,7.794,10.737
1679997269590,1177257945098167,1.4280001,7.6390505,9.484051
1679997269592,1177257947600268,2.1679502,7.9450502,9.208051
1679997269595,1177257950102191,2.2039502,8.11305,8.586
1679997269597,1177257952604268,2.019,8.34,7.8940506
1679997269600,1177257955106191,1.6650001,8.688001,6.2029505
1679997269602,1177257957608331,1.1880001,9.255,4.63905
1679997269605,1177257960110408,0.78405005,10.054951,3.7360501
1679997269607,1177257962612331,0.31995,10.471951,2.9170501
1679997269610,1177257965114408,-0.44400004,10.672951,3.1920002
1679997269612,1177257967616331,-1.9789501,10.89795,4.668
1679997269616,1177257970118408,-3.49095,10.924951,6.0760503
1679997269621,1177257972620331,-4.815,10.968,6.8089504
1679997269621,1177257975122716,-5.68695,11.154,6.4230003
1679997269622,1177257977624576,-5.72805,11.18805,6.3970504
1679997269626,1177257980126499,-5.1940503,11.125951,6.6049504
1679997269628,1177257982628653,-3.8550003,10.810051,7.04295
1679997269630,1177257985130499,-2.5090501,10.6710005,6.885
1679997269633,1177257987632581,-1.1010001,10.675051,6.9090004
1679997269637,1177257990134735,-0.31305,10.27305,6.8299503
1679997269637,1177257992636889,0.025050001,9.715051,6.675
1679997269640,1177257995138812,-0.40095,9.253051,6.61005
1679997269642,1177257997640889,-0.69105005,9.16395,6.63105
1679997269645,1177258000142735,-1.1389501,9.528001,6.234
1679997269647,1177258002644965,-1.6030501,9.591001,5.58195
1679997269651,1177258005147042,-1.692,9.729,5.33295
1679997269654,1177258007648980,-1.55295,9.828,5.1010504
1679997269657,1177258010151057,-1.28295,9.67695,5.1390004
1679997269660,1177258012652980,-0.72,9.94305,5.1130505
1679997269660,1177258015155057,-0.29295,9.933001,5.451
1679997269662,1177258017656980,-0.27705002,9.712951,5.439
1679997269666,1177258020159114,0.252,9.969001,6.0370502
1679997269668,1177258022661191,0.57795,9.934951,6.1740003
1679997269669,1177258025163114,0.67200005,10.1650505,6.2509503
1679997269672,1177258027665191,0.60195005,10.186951,6.4230003
1679997269675,1177258030167114,0.411,10.014001,6.25995
1679997269677,1177258032669177,0.28395,9.82005,6.0210004
1679997269679,1177258035171408,0.24300002,9.576,5.5800004
1679997269683,1177258037673254,0.45600003,9.444,5.33295
1679997269685,1177258040175331,0.50100005,9.43995,4.833
1679997269687,1177258042677456,0.55200005,9.385051,4.5019503
1679997269690,1177258045179379,0.79905003,9.379951,4.392
1679997269693,1177258047681225,0.85395,9.1039505,4.4830503
1679997269696,1177258050183379,1.19295,9.222,4.8229504
1679997269697,1177258052685533,1.6530001,9.13095,4.914
1679997269699,1177258055187610,1.69605,8.938951,5.103
1679997269702,1177258057689533,1.57395,8.400001,4.998
1679997269706,1177258060191610,1.5310501,7.9450502,4.68195
1679997269707,1177258062693533,1.674,7.45905,4.05705
1679997269710,1177258065195615,1.6000501,7.1569505,3.6400502
1679997269712,1177258067697769,1.5160501,6.6730504,3.5040002
1679997269715,1177258070199692,1.28205,6.5130005,3.3790503
1679997269717,1177258072701769,1.176,6.60405,3.4009502
1679997269723,1177258075203682,0.9990001,6.6900005,3.7189503
1679997269723,1177258077705759,0.96495,6.8509502,3.8389502
1679997269725,1177258080207682,0.59805006,6.93195,4.03305
1679997269727,1177258082709836,0.16605,7.03695,3.9610503
1679997269731,1177258085211976,-0.25500003,7.248,4.28205
1679997269732,1177258087713822,-0.73395,7.2910504,4.30095
1679997269736,1177258090215976,-1.1770501,7.4350505,4.40205
1679997269738,1177258092718053,-1.1220001,7.9879503,4.54995
1679997269740,1177258095219899,-1.0669501,8.223001,4.809
1679997269742,1177258097722062,-1.2229501,8.335951,4.656
1679997269746,1177258100223985,-1.21095,8.280001,4.749
1679997269748,1177258102726138,-1.23705,8.27595,4.5139503
1679997269751,1177258105228215,-1.1149501,8.592,4.3110003
1679997269752,1177258107730163,-1.1149501,8.52,4.296
1679997269755,1177258110232240,-0.777,8.812051,4.4689503
1679997269757,1177258112734163,-0.76305,8.767051,4.605
1679997269760,1177258115236240,-0.83205,8.653951,4.689
1679997269762,1177258117738394,-0.684,8.565001,4.68195
1679997269765,1177258120240308,-0.52095,8.46,4.65105
1679997269768,1177258122742462,-0.47805002,8.48595,4.689
1679997269770,1177258125244308,-0.15900001,8.42205,4.57695
1679997269772,1177258127746385,-0.20205002,8.328,4.87395
1679997269776,1177258130248543,0.16605,8.352,4.7389503
1679997269777,1177258132750466,0.30105,8.2570505,4.794
1679997269780,1177258135252543,0.717,8.259001,5.1589503
1679997269782,1177258137754697,1.056,8.19705,5.3239503
1679997269786,1177258140256635,1.3099501,8.121,5.49405
1679997269789,1177258142758712,1.176,8.079,5.3500504
1679997269790,1177258145260635,1.36995,7.9399505,5.28105
1679997269793,1177258147762712,1.6720501,7.8349504,5.5030503
1679997269795,1177258150264635,1.9710001,7.8490505,5.6400003
1679997269797,1177258152766789,1.8040501,7.6909504,5.8770003
1679997269801,1177258155268866,1.6170001,7.5930004,6.4810505
1679997269802,1177258157770789,1.29795,7.3369503,7.3759503
1679997269807,1177258160272856,1.056,7.2960005,8.88
1679997269809,1177258162774779,16.284,9.294001,9.955951
1679997269810,1177258165276856,12.3820505,7.56195,9.89595
1679997269812,1177258167779010,9.922951,7.2049503,7.5799503
1679997269816,1177258170280933,6.8910003,6.5560503,6.40395
1679997269818,1177258172783010,4.5150003,6.2779503,5.6929502
1679997269819,1177258175284933,2.01405,5.9500504,5.1990004
1679997269822,1177258177787010,0.72900003,5.5690503,5.56605
1679997269826,1177258180289164,-0.34395,5.3590503,6.5329504
1679997269828,1177258182791087,-0.97095007,5.505,7.2180004
1679997269830,1177258185293164,-1.40505,5.9620504,7.6110005
1679997269832,1177258187795087,-1.6009501,6.3120003,7.5660005
1679997269835,1177258190297164,-1.8190501,7.08795,7.458
1679997269838,1177258192799116,-1.0380001,7.87305,7.3399506
1679997269840,1177258195301270,-1.1200501,8.26605,7.3999505
1679997269844,1177258197803347,-1.0380001,8.809951,7.4479504
1679997269846,1177258200305270,-1.11705,8.92695,7.31895
1679997269848,1177258202807361,-1.3039501,8.805,7.0960503
1679997269849,1177258205309284,-1.52205,8.400001,6.2460003
1679997269852,1177258207811361,-2.2450502,8.043,4.8829503
1679997269855,1177258210313284,-2.2360501,7.9189506,3.5059502
1679997269857,1177258212815437,-1.9600501,8.182051,2.6490002
1679997269859,1177258215317529,-1.86195,8.23005,2.49795
1679997269862,1177258217819683,-0.49695003,8.71605,3.0220501
1679997269866,1177258220321529,0.81795,9.094951,4.27995
1679997269868,1177258222823453,1.7170501,9.6,4.5210004
1679997269870,1177258225325582,2.0020502,9.777,3.8719501
1679997269872,1177258227827736,2.08395,9.84195,3.417
1679997269875,1177258230329582,2.36205,9.849001,3.42195
1679997269877,1177258232831736,2.46,9.913951,3.79605
1679997269881,1177258235333808,2.5080001,9.871051,3.6160502
1679997269887,1177258237835731,2.4790502,9.77295,3.7069502
1679997269888,1177258240337808,2.19195,9.53295,3.28095
1679997269888,1177258242839731,2.2350001,9.37695,3.3409503
1679997269890,1177258245341885,1.9039501,9.207001,3.1560001
1679997269892,1177258247843976,1.76505,9.37005,3.7549503
1679997269895,1177258250345899,1.7170501,9.298051,4.3369503
1679997269897,1177258252847976,1.38495,9.50205,4.6870503
1679997269900,1177258255349899,1.6380001,9.588,5.1870003
1679997269902,1177258257851976,1.26705,9.658051,5.4630003
1679997269905,1177258260353885,1.14495,9.727051,5.8669505
1679997269908,1177258262856039,1.09695,9.62205,6.46395
1679997269909,1177258265358116,0.93195003,9.35805,7.0630503
1679997269912,1177258267860039,0.95100003,9.1380005,7.6249504
1679997269916,1177258270362121,1.2910501,9.054001,7.8220506
1679997269920,1177258272864044,1.5450001,9.15495,7.2109504
1679997269921,1177258275366198,1.4950501,9.127951,5.853
1679997269924,1177258277868250,1.317,9.20505,4.46595
1679997269927,1177258280370173,1.0680001,9.406051,3.657
1679997269928,1177258282872327,0.82695,9.53295,3.4150503
1679997269930,1177258285374404,0.43500003,9.59805,3.0960002
1679997269932,1177258287876250,0.13305001,9.67695,2.871
1679997269935,1177258290378418,-0.17805001,9.736951,2.7180002
1679997269937,1177258292880341,-0.41595003,9.63105,2.5530002
1679997269940,1177258295382495,-0.768,9.250051,2.32995
1679997269942,1177258297884572,-0.84705,8.932051,1.8889501
1679997269946,1177258300386485,-0.85395,8.54895,1.4989501
1679997269948,1177258302888562,-0.657,8.170051,1.7340001
1679997269949,1177258305390485,-0.56595004,8.031,2.2840502
1679997269952,1177258307892562,-0.43005002,7.7700005,2.5120502
1679997269956,1177258310394686,-0.30795002,7.7370005,2.8879502
1679997269958,1177258312896609,-0.363,7.6480503,3.13995
1679997269960,1177258315398686,-0.37995002,7.689,3.489
1679997269962,1177258317900610,-0.70995003,7.794,3.8410501
1679997269965,1177258320402686,-0.91395,7.7890506,4.26
1679997269968,1177258322904601,-1.3420501,7.8570004,4.644
1679997269970,1177258325406677,-1.71405,8.023951,4.9840503
1679997269974,1177258327908831,-2.0320501,8.08605,5.1439505
1679997269975,1177258330410754,-2.26005,8.04105,5.3959503
1679997269977,1177258332912908,-2.38395,8.139,5.81505
1679997269980,1177258335414773,-2.43,7.87305,5.7720003
1679997269982,1177258337916850,-2.0350502,7.8520503,5.7570004
1679997269986,1177258340419004,-1.6110001,8.071051,5.511
1679997269990,1177258342920946,-1.2589501,8.14605,5.22795
1679997269990,1177258345423023,-1.0189501,8.211,4.81395
1679997269994,1177258347925177,-0.99300003,8.18505,4.5930004
1679997269997,1177258350427100,-0.94005007,8.055,4.21005
1679997269998,1177258352929177,-0.72900003,8.167951,4.18905
1679997270001,1177258355431100,-0.279,8.439,4.29405
1679997270002,1177258357933177,-0.186,8.58195,5.06295
1679997270005,1177258360435331,0.564,8.500951,5.97795
1679997270008,1177258362937254,1.30305,8.39505,6.6670504
1679997270010,1177258365439326,1.725,8.304001,6.675
1679997270012,1177258367941172,2.1990001,8.680051,6.08295
1679997270015,1177258370443326,2.3089502,8.608951,5.1319504
1679997270017,1177258372945480,2.18895,8.88195,4.62405
1679997270021,1177258375447403,2.091,9.05895,4.6530004
1679997270022,1177258377949480,1.4059501,8.905951,5.27295
1679997270026,1177258380451403,1.4610001,9.15705,5.4870005
1679997270028,1177258382953480,1.143,8.829,5.35995
1679997270032,1177258385455379,0.72900003,8.53695,5.4409504
1679997270034,1177258387957533,0.67695004,8.50605,5.6950502
1679997270037,1177258390459610,0.31005,8.095051,5.8699503
1679997270038,1177258392961533,0.70500004,8.412001,6.2629504
1679997270039,1177258395463610,0.81105006,8.26605,6.9360003
1679997270042,1177258397965557,0.717,7.497,7.46295
1679997270045,1177258400467634,1.2019501,7.7800503,7.8289504
1679997270047,1177258402969557,1.78005,8.18505,7.7520003
1679997270050,1177258405471711,1.9090501,8.757,7.2660003
1679997270052,1177258407973788,1.8870001,8.99895,6.3250504
1679997270055,1177258410475696,1.6339501,9.231001,5.8099504
1679997270057,1177258412977773,1.55505,9.504001,5.96295
1679997270060,1177258415479696,1.2049501,9.247951,6.0690002
1679997270063,1177258417981773,1.6720501,9.847051,5.853
1679997270066,1177258420483917,1.5469501,9.792001,5.2330503
1679997270071,1177258422986071,1.3410001,9.63105,4.32495
1679997270073,1177258425487936,1.3800001,9.97605,3.9109502
1679997270075,1177258427990090,1.26495,9.780001,3.93495
1679997270077,1177258430492013,1.095,9.769951,4.18095
1679997270077,1177258432994090,1.00605,9.8539505,4.215
1679997270080,1177258435496013,0.85095006,9.81795,4.25595
1679997270082,1177258437998167,0.84405005,9.64995,3.765
1679997270085,1177258440500210,0.9580501,9.411,3.3690002
1679997270088,1177258443002133,0.873,8.956051,3.0529501
1679997270089,1177258445504210,1.0320001,8.941051,2.8590002
1679997270092,1177258448006133,1.164,8.84805,2.838
1679997270095,1177258450508225,1.18605,8.7310505,2.7919502
1679997270097,1177258453010148,1.46595,8.724,2.88105
1679997270099,1177258455512302,1.2790501,8.57295,3.0199502
1679997270102,1177258458014379,1.26195,8.58705,3.2380502
1679997270107,1177258460516273,1.1689501,8.292001,3.2929502
1679997270108,1177258463018350,1.26195,8.26095,3.3100502
1679997270111,1177258465520273,1.41795,8.26395,3.52005
1679997270112,1177258468022350,1.30095,7.9189506,3.4150503
1679997270115,1177258470524504,1.19805,7.9600506,3.4939501
1679997270117,1177258473026677,1.4680501,7.8919506,3.73095
1679997270120,1177258475528523,1.6309501,7.8420005,3.8839502
1679997270122,1177258478030446,1.914,7.9909506,3.8460002
1679997270125,1177258480532523,1.9879501,7.8949504,3.2899501
1679997270127,1177258483034446,1.9210501,8.154,3.1279502
1679997270130,1177258485536542,1.7389501,8.068951,3.2640002
1679997270132,1177258488038773,1.58595,8.106,3.62805
1679997270135,1177258490540850,1.57095,8.14605,3.9199502
1679997270137,1177258493042696,1.89495,8.328,4.5739503
1679997270140,1177258495544860,1.8400501,8.328,4.866
1679997270144,1177258498046783,1.9069501,8.451,4.90005
1679997270147,1177258500548860,1.7490001,8.496,4.761
1679997270149,1177258503050783,2.05995,8.71395,4.66305
1679997270151,1177258505552918,2.046,9.06795,4.7970004
1679997270153,1177258508054995,1.8400501,9.23805,4.6990504
1679997270156,1177258510556918,1.7680501,9.379951,4.63905
1679997270157,1177258513058995,1.6189501,9.30795,4.5550504
1679997270161,1177258515560918,1.5829501,9.21,4.47795
1679997270163,1177258518062995,1.83,9.399,4.42995
1679997270165,1177258520565148,1.761,9.255,4.3710003
1679997270167,1177258523067072,1.77495,9.253051,4.22205
1679997270170,1177258525569148,1.84905,9.33705,4.1329503
1679997270172,1177258528071072,1.88505,9.37695,4.155
1679997270175,1177258530573148,1.93305,9.574051,4.16895
1679997270177,1177258533075072,1.9090501,9.684,4.3710003
1679997270181,1177258535577138,1.64295,9.591001,4.3180504
1679997270183,1177258538079369,1.626,9.66195,4.3390503
1679997270186,1177258540581215,1.6140001,9.571051,4.30305
1679997270188,1177258543083292,1.3630501,9.483001,4.224
1679997270190,1177258545585446,1.03995,9.243,4.09005
1679997270192,1177258548087355,0.93900007,9.16905,4.14795
1679997270195,1177258550589201,0.78900003,9.16695,4.0470004
1679997270197,1177258553091586,0.94095004,9.259951,4.1329503
1679997270200,1177258555593432,0.73395,9.018001,4.1599503
1679997270202,1177258558095379,0.88695,9.14295,4.24095
1679997270205,1177258560597456,1.0489501,9.351001,4.4419503
1679997270208,1177258563099379,1.04205,9.18105,4.7320504
1679997270210,1177258565601533,0.88695,9.01305,4.629
1679997270212,1177258568103687,0.975,9.02805,4.4710503
1679997270215,1177258570605514,0.90795004,8.83395,4.0680003
1679997270219,1177258573107591,0.83505005,8.55795,3.5010002
1679997270220,1177258575609745,0.88305,8.319,3.0990002
1679997270223,1177258578111668,0.58995,8.60595,3.2209501
1679997270227,1177258580613749,0.53805,8.652,3.0889502
1679997270228,1177258583115903,0.48000002,8.58195,3.2430003
1679997270230,1177258585617826,0.90795004,8.88195,3.34995
1679997270233,1177258588119903,1.0830001,8.98005,3.45795
1679997270235,1177258590621831,0.79605,8.724,3.9589503
1679997270237,1177258593123908,0.91995007,8.55105,4.09305
1679997270240,1177258595625831,1.143,8.532001,4.0150504
1679997270242,1177258598127985,1.3219501,8.68995,3.7380002
1679997270246,1177258600630067,1.4280001,8.920051,3.6540003
1679997270247,1177258603131990,1.21395,9.05895,3.7840502
1679997270250,1177258605634067,0.94095004,9.04905,4.038
1679997270252,1177258608135990,1.044,9.23595,4.19805
1679997270256,1177258610638067,0.80805004,8.961,4.37505
1679997270258,1177258613139990,0.837,8.85,4.36305
1679997270260,1177258615642144,0.96300006,8.908051,4.3060503
1679997270262,1177258618144221,0.90795004,8.853001,4.42605
1679997270265,1177258620646144,0.62895006,8.69205,4.545
1679997270268,1177258623148236,1.8870001,9.0709505,4.0939503
1679997270270,1177258625650389,1.65795,9.291,4.011
1679997270273,1177258628152236,0.95595,8.98005,4.308
1679997270275,1177258630654466,1.03695,8.92695,4.26
1679997270277,1177258633156553,0.84705,8.982,4.1620502
1679997270280,1177258635658476,0.79605,8.925,4.15005
1679997270283,1177258638160553,0.72,8.6970005,4.0410004
1679997270286,1177258640662476,0.93195003,8.568001,4.2769504
1679997270288,1177258643164548,1.1740501,8.553,4.4040003
1679997270290,1177258645666471,1.3939501,8.776051,4.30095
1679997270294,1177258648168625,1.3960501,8.635051,4.0999503
1679997270296,1177258650670702,1.24995,8.472,3.8389502
1679997270298,1177258653172610,1.06605,8.359051,3.9420002
1679997270301,1177258655674687,1.1590501,8.577001,3.9949503
1679997270304,1177258658176610,1.3050001,8.818951,4.0939503
1679997270307,1177258660678687,1.23405,8.661,4.15695
1679997270308,1177258663180841,1.3729501,8.53695,4.37505
1679997270310,1177258665682750,1.2930001,8.653951,4.56195
1679997270313,1177258668184827,1.0350001,8.57505,4.6150503
1679997270315,1177258670686750,0.73605,8.44305,4.59795
1679997270318,1177258673188904,0.75105006,8.299951,4.37505
1679997270320,1177258675690755,0.82005006,8.3880005,4.1719503
1679997270323,1177258678192909,0.80805004,8.34795,4.1119504
1679997270326,1177258680695063,0.85395,8.700001,4.335
1679997270328,1177258683197140,0.81795,8.71395,4.48995
1679997270332,1177258685698971,1.15005,9.34095,4.452
1679997270334,1177258688201125,0.83895004,9.262051,4.90005
1679997270336,1177258690703048,0.88305,9.127951,5.0680504
1679997270337,1177258693205125,0.88995004,9.1039505,5.2519503
1679997270340,1177258695707048,0.906,8.86005,5.01195
1679997270345,1177258698209178,0.98505,9.198001,4.4809504
1679997270347,1177258700711255,0.88695,9.38895,4.0939503
1679997270348,1177258703213178,0.82695,9.574051,4.48995
1679997270350,1177258705715255,0.73605,9.528001,4.7590504
1679997270352,1177258708217178,0.90405005,9.424951,4.77495
1679997270355,1177258710719255,0.95295006,9.66495,4.9740005
1679997270357,1177258713221409,0.804,9.403951,4.794
1679997270360,1177258715723332,0.59805006,9.10005,4.9879503
1679997270362,1177258718225486,1.11105,9.397051,4.9570503
1679997270365,1177258720727562,1.011,9.562051,5.1469502
1679997270370,1177258723229409,0.82995003,9.351001,5.2039504
1679997270371,1177258725731562,1.13505,9.403951,4.75605
1679997270372,1177258728233486,1.3080001,9.526051,4.36095
1679997270375,1177258730735639,0.88305,9.082951,4.3320003
1679997270377,1177258733237716,1.14705,9.262051,4.4809504
1679997270380,1177258735739639,1.284,9.418051,4.5
1679997270383,1177258738241716,1.0540501,9.31305,4.71105
1679997270386,1177258740743880,1.06605,9.13095,4.7920504
1679997270388,1177258743245803,1.0129501,8.74995,4.9570503
1679997270390,1177258745747880,1.0680001,8.61795,5.2260003
1679997270392,1177258748249803,1.1230501,8.635051,5.2450504
1679997270395,1177258750751880,1.047,8.46195,5.0389504
1679997270397,1177258753253803,1.2,8.67105,4.45695
1679997270400,1177258755755880,0.9889501,8.4529505,4.20795
1679997270403,1177258758258034,0.81105006,8.39805,4.3440003
1679997270407,1177258760759957,1.056,8.56995,4.4950504
1679997270408,1177258763262048,0.94905007,8.68305,4.5600004
1679997270410,1177258765763971,0.78195006,8.491051,4.6410003
1679997270413,1177258768266048,0.89505005,8.53905,4.75395
1679997270416,1177258770767971,1.011,8.56995,4.90695
1679997270417,1177258773270125,0.95295006,8.5990505,4.44
1679997270420,1177258775772192,1.09695,8.54895,3.9130502
1679997270423,1177258778274115,1.2580501,8.53005,3.62295
1679997270427,1177258780776192,1.2910501,8.613001,3.5299501
1679997270428,1177258783278346,1.22595,8.628,3.58695
1679997270432,1177258785780188,1.28205,8.641951,3.8389502
1679997270433,1177258788282342,1.2220501,8.70705,3.9559503
1679997270435,1177258790784496,1.13505,8.653951,4.011
1679997270437,1177258793286419,0.93195003,8.479051,4.098
1679997270441,1177258795788496,0.98700005,8.470051,4.1140504
1679997270444,1177258798290409,1.0159501,8.46,3.9780002
1679997270446,1177258800792486,0.76305,8.299951,3.798
1679997270448,1177258803294409,0.915,8.27595,3.82905
1679997270450,1177258805796486,1.12605,8.46195,4.0279503
1679997270453,1177258808298640,0.98205006,8.592,4.191
1679997270456,1177258810800573,0.71295005,8.476951,4.0740004
1679997270458,1177258813302650,0.61200005,8.509951,4.05195
1679997270460,1177258815804573,0.46095002,8.3880005,3.9229503
1679997270463,1177258818306650,0.53505003,8.316,4.1329503
1679997270466,1177258820808573,0.65505004,8.479051,4.2390003
1679997270468,1177258823310727,0.72,8.56305,4.392
1679997270470,1177258825812803,0.51600003,8.51295,4.689
1679997270473,1177258828314727,0.70500004,8.61795,4.701
1679997270475,1177258830816880,0.75795,8.46,4.51905
1679997270477,1177258833318731,0.78000003,8.565001,4.43505
1679997270481,1177258835820884,0.86100006,8.800051,4.5019503
1679997270484,1177258838322961,0.84705,8.973001,4.53105
1679997270487,1177258840825115,0.837,9.16695,4.60305
1679997270489,1177258843327058,0.85905004,9.127951,4.617
1679997270491,1177258845829135,-1.2229501,8.167951,8.073
1679997270494,1177258848331058,1.9020001,9.23805,4.5409503
1679997270496,1177258850833135,1.10895,9.078,4.62195
1679997270497,1177258853335058,0.93405,9.097051,4.71105
1679997270500,1177258855837135,0.88995004,9.06795,4.155
1679997270503,1177258858339289,0.82695,9.15705,4.2439504
1679997270506,1177258860841212,0.79200006,9.259951,4.29405
1679997270514,1177258863343289,0.82005006,9.126,4.50705
1679997270514,1177258865845212,0.83505005,8.994,4.3180504
1679997270514,1177258868347298,0.777,8.961,4.36095
1679997270515,1177258870849221,0.897,8.700001,4.16505
1679997270519,1177258873351375,0.81105006,8.743051,4.13805
1679997270521,1177258875853553,0.95100003,8.72595,4.1449504
1679997270523,1177258878355630,1.047,8.74995,4.16895
1679997270527,1177258880857476,1.0129501,8.767051,4.10505
1679997270528,1177258883359630,1.0519501,8.7619505,4.2720003
1679997270530,1177258885861553,0.93405,8.806951,4.38705
1679997270532,1177258888363616,0.91695005,8.800051,4.42995
1679997270535,1177258890865770,0.837,8.75205,4.6320004
1679997270538,1177258893367693,0.80805004,8.61795,4.54995
1679997270540,1177258895869770,0.80595005,8.5990505,4.4689503
1679997270544,1177258898371693,0.82995003,8.86995,4.629
1679997270546,1177258900873765,0.69600004,8.89605,4.45905
1679997270548,1177258903375688,0.72705,8.908051,4.4689503
1679997270550,1177258905877842,0.648,8.98005,4.63605
1679997270553,1177258908379924,0.70500004,8.96805,4.5480003
1679997270558,1177258910881847,0.61905,8.99895,4.6530004
1679997270561,1177258913383924,0.813,9.04695,4.71495
1679997270561,1177258915886077,0.79200006,9.030001,4.809
1679997270563,1177258918387924,0.76305,9.139951,4.9690504
1679997270565,1177258920889827,0.9580501,9.121051,4.7509503
1679997270569,1177258923392211,0.92505,9.05595,4.45695
1679997270571,1177258925894057,1.0009501,9.222,4.287
1679997270574,1177258928395986,1.09905,9.36495,4.35405
1679997270578,1177258930898063,1.23105,9.519,4.37295
1679997270578,1177258933400216,1.2409501,9.538051,4.67205
1679997270581,1177258935902139,1.3410001,9.61005,4.5090003
1679997270584,1177258938404216,1.24605,9.588,4.35405
1679997270587,1177258940906120,1.2889501,9.576,4.3440003
1679997270588,1177258943408274,1.26705,9.5449505,4.5739503
1679997270590,1177258945910351,0.93900007,9.33405,3.9160502
1679997270594,1177258948412197,1.8610501,9.901951,4.1020503
1679997270596,1177258950914433,1.485,9.769951,4.9120502
1679997270598,1177258953416510,1.33905,9.889951,5.07495
1679997270600,1177258955918433,1.1689501,9.64605,4.8640504
1679997270602,1177258958420510,1.3560001,9.8230505,4.9120502
1679997270605,1177258960922466,1.3729501,9.64605,4.9690504
1679997270607,1177258963424543,1.18095,9.48495,4.97895
1679997270610,1177258965926466,1.2550501,9.373051,4.6410003
1679997270612,1177258968428620,1.19505,9.3490505,4.689
1679997270615,1177258970930697,1.26195,9.09195,4.5259504
1679997270617,1177258973432605,1.33395,8.97,4.50705
1679997270620,1177258975934682,1.3990501,9.042001,4.5210004
1679997270623,1177258978436605,1.3249501,8.793,4.701
1679997270627,1177258980938667,1.2550501,8.673,4.854
1679997270628,1177258983440898,1.11105,8.544001,4.8229504
1679997270632,1177258985942744,0.90795004,8.434051,4.90005
1679997270634,1177258988444821,1.15005,8.712001,4.881
1679997270636,1177258990946975,1.24605,8.307,4.82595
1679997270638,1177258993448908,0.804,8.082001,4.452
1679997270640,1177258995950985,0.95295006,8.175,4.12605
1679997270643,1177258998452908,0.92205006,8.23995,4.2439504
1679997270645,1177259000955062,1.1590501,8.58195,4.3560004
1679997270648,1177259003457163,1.0639501,8.7640505,4.72695
1679997270650,1177259005959086,0.55695003,8.106,4.70295
1679997270653,1177259008461163,1.0849501,8.403001,4.4830503
1679997270656,1177259010963086,0.48495004,8.44305,4.12095
1679997270658,1177259013465163,1.22595,8.946,4.6600504
1679997270660,1177259015967316,0.92505,8.997001,4.62195
1679997270663,1177259018469240,0.657,8.82705,4.6480503
1679997270666,1177259020971393,0.54495,8.721001,4.5210004
1679997270669,1177259023473250,0.34605002,8.6640005,3.9160502
1679997270671,1177259025975403,0.64095,8.82705,4.1070004
1679997270673,1177259028477480,1.14495,8.989051,4.36095
1679997270676,1177259030979403,1.0680001,8.89605,4.644
1679997270678,1177259033481557,1.16205,9.052051,4.8180003
1679997270680,1177259035983638,0.777,8.994,4.4539504
