system_ts_ms, sensor_ts_ns, gyrX, gyrY, gyrZ
1680009479625,1189467977444675,-0.0396,-0.073699996,0.0924
1680009479625,1189467979946906,-0.0386375,-0.06875,0.0924
1680009479640,1189467982449060,-0.0407,-0.0627,0.091437496
1680009479640,1189467984951445,-0.0407,-0.0617375,0.091437496
1680009479641,1189467987453580,-0.042625,-0.0537625,0.091437496
1680009479641,1189467989955734,-0.0407,-0.048675,0.0933625
1680009479641,1189467992457888,-0.0435875,-0.0427625,0.0924
1680009479641,1189467994960042,-0.042625,-0.0367125,0.0903375
1680009479642,1189467997462273,-0.0396,-0.021724999,0.089375
1680009479647,1189467999964435,-0.0407,-0.0207625,0.084425
1680009479647,1189468002466819,-0.0416625,-0.0207625,0.08635
1680009479651,1189468004968973,-0.0416625,-0.0116875,0.0823625
1680009479652,1189468007471127,-0.045649998,-0.010725,0.0823625
1680009479654,1189468009973277,-0.04455,-0.0067375,0.0793375
1680009479656,1189468012475508,-0.04455,-0.004675,0.07645
1680009479663,1189468014977661,-0.045649998,-0.005775,0.0774125
1680009479663,1189468017479815,-0.0466125,-0.0088,0.07645
1680009479665,1189468019982204,-0.0515625,-0.0077,0.07535
1680009479667,1189468022484358,-0.0545875,-0.0088,0.07535
1680009479672,1189468024986512,-0.053625,-0.0067375,0.07645
1680009479674,1189468027488742,-0.05555,-0.0088,0.0774125
1680009479675,1189468029990888,-0.0576125,-0.0116875,0.07535
1680009479680,1189468032493273,-0.056649998,-0.0116875,0.07535
1680009479681,1189468034995196,-0.056649998,-0.010725,0.0743875
1680009479682,1189468037497657,-0.058575,-0.01375,0.0743875
1680009479685,1189468039999734,-0.056649998,-0.01375,0.0743875
1680009479687,1189468042501950,-0.05555,-0.01375,0.073425
1680009479691,1189468045004104,-0.058575,-0.016775,0.0724625
1680009479692,1189468047506258,-0.0595375,-0.0287375,0.0724625
1680009479697,1189468050008412,-0.0636625,-0.032725,0.0724625
1680009479698,1189468052510791,-0.0616,-0.01375,0.073425
1680009479701,1189468055012945,-0.0595375,-0.014712499,0.073425
1680009479702,1189468057515176,-0.0606375,-0.0177375,0.0704
1680009479704,1189468060017330,-0.0616,-0.01375,0.0724625
1680009479708,1189468062519489,-0.0636625,-0.010725,0.0694375
1680009479714,1189468065021643,-0.0625625,-0.0116875,0.0683375
1680009479714,1189468067524027,-0.0636625,-0.010725,0.0704
1680009479714,1189468070026181,-0.064625,-0.005775,0.0664125
1680009479718,1189468072528335,-0.069575,-0.0037125,0.0633875
1680009479721,1189468075030581,-0.0716375,0.0022,0.0664125
1680009479722,1189468077532734,-0.069575,0.0072875,0.0614625
1680009479725,1189468080034888,-0.06765,0.011275,0.0603625
1680009479730,1189468082537042,-0.06765,0.016224999,0.0603625
1680009479730,1189468085039407,-0.06765,0.0202125,0.0573375
1680009479732,1189468087541561,-0.069575,0.0323125,0.0554125
1680009479734,1189468090043714,-0.06655,0.0402875,0.056375
1680009479737,1189468092545945,-0.0606375,0.0473,0.0573375
1680009479741,1189468095048079,-0.0606375,0.052249998,0.0554125
1680009479742,1189468097550233,-0.0616,0.060225,0.051425
1680009479748,1189468100052618,-0.0636625,0.0672375,0.0474375
1680009479748,1189468102554771,-0.06765,0.071225,0.0484
1680009479751,1189468105056983,-0.0625625,0.072325,0.051425
1680009479752,1189468107559060,-0.0625625,0.0803,0.0523875
1680009479755,1189468110061291,-0.0636625,0.0803,0.0484
1680009479757,1189468112563445,-0.0616,0.08525,0.0484
1680009479763,1189468115065829,-0.0616,0.08525,0.051425
1680009479764,1189468117567988,-0.058575,0.082225,0.0474375
1680009479765,1189468120070142,-0.0576125,0.0842875,0.0474375
1680009479767,1189468122572373,-0.05555,0.08525,0.0463375
1680009479771,1189468125074435,-0.05555,0.0862125,0.0463375
1680009479772,1189468127576666,-0.05555,0.088275,0.0463375
1680009479775,1189468130079050,-0.0526625,0.088275,0.045375
1680009479782,1189468132581204,-0.0515625,0.088275,0.0463375
1680009479782,1189468135083354,-0.0526625,0.0873125,0.0463375
1680009479784,1189468137585508,-0.0545875,0.088275,0.0463375
1680009479785,1189468140087662,-0.0485375,0.0842875,0.0444125
1680009479787,1189468142589892,-0.0506,0.082225,0.045375
1680009479791,1189468145092277,-0.0466125,0.0803,0.0444125
1680009479792,1189468147594416,-0.0466125,0.0803,0.0444125
1680009479796,1189468150096570,-0.045649998,0.0782375,0.043449998
1680009479797,1189468152598724,-0.04455,0.0763125,0.0444125
1680009479800,1189468155100877,-0.042625,0.077275,0.043449998
1680009479802,1189468157603041,-0.0405625,0.0672375,0.04235
1680009479804,1189468160105272,-0.0416625,0.06325,0.0413875
1680009479807,1189468162607657,-0.0405625,0.060225,0.043449998
1680009479813,1189468165109811,-0.0386375,0.055275,0.043449998
1680009479814,1189468167611969,-0.037675,0.0512875,0.0413875
1680009479815,1189468170114123,-0.037675,0.0473,0.04235
1680009479817,1189468172616277,-0.037675,0.0433125,0.043449998
1680009479822,1189468175118440,-0.037675,0.0402875,0.04235
1680009479824,1189468177620901,-0.031625,0.0352,0.0413875
1680009479826,1189468180132978,-0.0306625,0.0312125,0.043449998
1680009479832,1189468182625209,-0.031625,0.0253,0.04235
1680009479834,1189468185127363,-0.0286,0.022275,0.0413875
1680009479835,1189468187629527,-0.0276375,0.01925,0.04235
1680009479836,1189468190131681,-0.025575,0.0122375,0.04235
1680009479837,1189468192633912,-0.02365,0.011275,0.043449998
1680009479841,1189468195136296,-0.0215875,0.005225,0.0444125
1680009479842,1189468197638450,-0.0215875,-6.875E-4,0.0444125
1680009479848,1189468200140608,-0.0196625,-0.004675,0.0444125
1680009479849,1189468202642762,-0.0196625,-0.0097624995,0.04235
1680009479851,1189468205144916,-0.0166375,-0.0187,0.04235
1680009479852,1189468207647146,-0.0166375,-0.02475,0.0413875
1680009479855,1189468210149551,-0.0196625,-0.0297,0.0394625
1680009479859,1189468212651474,-0.0176,-0.0336875,0.0394625
1680009479862,1189468215153859,-0.015675,-0.0407,0.04235
1680009479863,1189468217656012,-0.0196625,-0.0427625,0.040425
1680009479865,1189468220158137,-0.0176,-0.048675,0.0413875
1680009479868,1189468222660291,-0.0166375,-0.05775,0.040425
1680009479871,1189468225162522,-0.015675,-0.0617375,0.0374
1680009479872,1189468227664907,-0.014575,-0.0647625,0.0383625
1680009479874,1189468230166835,-0.015675,-0.0748,0.0383625
1680009479879,1189468232669219,-0.01265,-0.0776875,0.0374
1680009479881,1189468235171373,-0.01265,-0.082775,0.0364375
1680009479882,1189468237673527,-0.0105875,-0.0847,0.0353375
1680009479885,1189468240175738,-0.009625,-0.0858,0.032449998
1680009479887,1189468242677892,-0.0105875,-0.087725,0.0334125
1680009479891,1189468245180276,-0.0105875,-0.095699996,0.032449998
1680009479892,1189468247682430,-0.01155,-0.0977625,0.032449998
1680009479898,1189468250184599,-0.009625,-0.0977625,0.032449998
1680009479899,1189468252686753,-0.0105875,-0.1007875,0.0334125
1680009479902,1189468255188984,-0.0105875,-0.1027125,0.0353375
1680009479903,1189468257691137,-0.01155,-0.1067,0.03135
1680009479905,1189468260193291,-0.01155,-0.103675,0.03135
1680009479907,1189468262695661,-0.01155,-0.104775,0.0334125
1680009479914,1189468265197815,-0.013612499,-0.1137125,0.0374
1680009479914,1189468267699969,-0.0185625,-0.11275,0.043449998
1680009479915,1189468270202199,-0.020624999,-0.11275,0.0463375
1680009479918,1189468272704372,-0.015675,-0.1106875,0.0484
1680009479921,1189468275206526,-0.0176,-0.1087625,0.0523875
1680009479922,1189468277708911,-0.0196625,-0.1087625,0.056375
1680009479924,1189468280210834,-0.0176,-0.1027125,0.0603625
1680009479929,1189468282713228,-0.0176,-0.1007875,0.062425
1680009479931,1189468285215459,-0.0176,-0.0977625,0.0633875
1680009479934,1189468287717613,-0.0176,-0.0947375,0.0694375
1680009479935,1189468290219767,-0.014575,-0.093775,0.0683375
1680009479937,1189468292721921,-0.014575,-0.0858,0.0713625
1680009479941,1189468295224305,-0.0176,-0.081675,0.0724625
1680009479943,1189468297726228,-0.0196625,-0.076725,0.0664125
1680009479947,1189468300228613,-0.0215875,-0.0697125,0.0664125
1680009479947,1189468302730844,-0.02365,-0.059675,0.06545
1680009479951,1189468305232979,-0.026675,-0.0567875,0.0603625
1680009479952,1189468307735133,-0.0295625,-0.05775,0.062425
1680009479955,1189468310237286,-0.031625,-0.043725,0.0633875
1680009479957,1189468312739671,-0.031625,-0.0287375,0.0603625
1680009479963,1189468315241839,-0.037675,-0.021724999,0.0584375
1680009479964,1189468317744070,-0.0356125,-0.0187,0.0573375
1680009479965,1189468320246224,-0.03355,-0.0127875,0.0584375
1680009479968,1189468322748377,-0.034649998,-0.004675,0.054449998
1680009479972,1189468325250545,-0.0356125,-0.00275,0.05335
1680009479974,1189468327752699,-0.0356125,0.0012375,0.0484
1680009479975,1189468330254853,-0.034649998,0.0103124995,0.0463375
1680009479981,1189468332757314,-0.0356125,0.0122375,0.043449998
1680009479983,1189468335259468,-0.0356125,0.017324999,0.040425
1680009479985,1189468337761637,-0.03355,0.0202125,0.0383625
1680009479986,1189468340263791,-0.03355,0.0232375,0.0374
1680009479987,1189468342765945,-0.037675,0.0292875,0.03135
1680009479991,1189468345268099,-0.036575,0.0292875,0.0264
1680009479993,1189468347770488,-0.037675,0.0312125,0.0264
1680009479998,1189468350272719,-0.036575,0.0323125,0.0254375
1680009479998,1189468352774796,-0.037675,0.0342375,0.02035
1680009480001,1189468355276950,-0.036575,0.033275,0.02145
1680009480003,1189468357779157,-0.0435875,0.03025,0.0243375
1680009480005,1189468360281541,-0.0416625,0.0312125,0.0224125
1680009480010,1189468362783695,-0.0405625,0.0292875,0.02145
1680009480012,1189468365285849,-0.0416625,0.0292875,0.0224125
1680009480013,1189468367787984,-0.0435875,0.0242,0.02035
1680009480015,1189468370290138,-0.04455,0.0253,0.0224125
1680009480017,1189468372792599,-0.047575,0.0242,0.0243375
1680009480021,1189468375294753,-0.0506,0.0232375,0.023375
1680009480022,1189468377796907,-0.0506,0.0213125,0.0264
1680009480025,1189468380299028,-0.053625,0.0182875,0.0284625
1680009480028,1189468382801182,-0.0515625,0.011275,0.0273625
1680009480031,1189468385303336,-0.0545875,0.0103124995,0.029424999
1680009480033,1189468387805489,-0.05555,0.006325,0.0303875
1680009480035,1189468390307951,-0.0545875,0.0022,0.032449998
1680009480037,1189468392810123,-0.058575,-0.0017875,0.0353375
1680009480040,1189468395312277,-0.0595375,-0.0077,0.0374
1680009480042,1189468397814430,-0.0616,-0.0088,0.0374
1680009480047,1189468400316571,-0.0616,-0.010725,0.0383625
1680009480048,1189468402818725,-0.0625625,-0.0177375,0.040425
1680009480051,1189468405320956,-0.0616,-0.0207625,0.040425
1680009480052,1189468407823341,-0.0606375,-0.021724999,0.04235
1680009480055,1189468410325494,-0.0606375,-0.027775,0.04235
1680009480057,1189468412827666,-0.0625625,-0.0257125,0.04235
1680009480061,1189468415329820,-0.0625625,-0.027775,0.0444125
1680009480063,1189468417831974,-0.0625625,-0.0308,0.043449998
1680009480065,1189468420334205,-0.0595375,-0.0336875,0.043449998
1680009480068,1189468422836359,-0.0595375,-0.0308,0.0444125
1680009480071,1189468425338743,-0.0606375,-0.0347875,0.045375
1680009480074,1189468427840897,-0.058575,-0.0317625,0.0493625
1680009480075,1189468430343051,-0.056649998,-0.027775,0.0474375
1680009480078,1189468432845229,-0.0576125,-0.0297,0.0493625
1680009480081,1189468435347460,-0.056649998,-0.0297,0.0523875
1680009480085,1189468437849613,-0.0526625,-0.0257125,0.0493625
1680009480085,1189468440351998,-0.0545875,-0.026675,0.0484
1680009480087,1189468442853921,-0.0576125,-0.021724999,0.0493625
1680009480091,1189468445356301,-0.05555,-0.0187,0.0493625
1680009480093,1189468447858455,-0.0545875,-0.0187,0.05335
1680009480095,1189468450360608,-0.0576125,-0.015675,0.0554125
1680009480097,1189468452862815,-0.056649998,-0.016775,0.05335
1680009480101,1189468455364969,-0.0545875,-0.01375,0.05335
1680009480102,1189468457867354,-0.0576125,-0.014712499,0.054449998
1680009480105,1189468460369277,-0.0515625,-0.015675,0.0573375
1680009480107,1189468462871661,-0.0526625,-0.0127875,0.056375
1680009480111,1189468465373829,-0.0545875,-0.010725,0.0573375
1680009480112,1189468467876060,-0.053625,-0.0077,0.0594
1680009480115,1189468470378214,-0.0576125,-0.0077,0.0603625
1680009480120,1189468472880368,-0.0545875,-0.005775,0.0573375
1680009480123,1189468475382771,-0.0526625,-0.005775,0.0584375
1680009480124,1189468477884925,-0.0515625,-0.00275,0.0614625
1680009480126,1189468480387079,-0.0506,2.75E-4,0.0614625
1680009480128,1189468482889310,-0.0526625,0.0042625,0.0584375
1680009480131,1189468485391464,-0.0515625,0.0042625,0.0573375
1680009480133,1189468487893599,-0.047575,0.005225,0.0603625
1680009480135,1189468490395752,-0.0506,0.011275,0.0603625
1680009480138,1189468492897906,-0.053625,0.0103124995,0.0594
1680009480141,1189468495400291,-0.0515625,0.0132,0.0584375
1680009480143,1189468497902522,-0.0466125,0.015262499,0.0584375
1680009480145,1189468500404657,-0.0515625,0.0143,0.0573375
1680009480147,1189468502906811,-0.0515625,0.0182875,0.0573375
1680009480152,1189468505408965,-0.0545875,0.015262499,0.0554125
1680009480153,1189468507911119,-0.058575,0.017324999,0.054449998
1680009480155,1189468510413254,-0.059675,0.016224999,0.0594
1680009480159,1189468512915715,-0.059675,0.0182875,0.0603625
1680009480162,1189468515417869,-0.0606375,0.01925,0.0573375
1680009480163,1189468517920023,-0.0625625,0.0202125,0.0584375
1680009480166,1189468520422162,-0.0625625,0.017324999,0.0603625
1680009480168,1189468522924316,-0.064625,0.015262499,0.0603625
1680009480171,1189468525426700,-0.0616,0.0182875,0.0614625
1680009480173,1189468527928624,-0.0625625,0.0213125,0.0633875
1680009480176,1189468530431104,-0.0636625,0.0213125,0.06545
1680009480178,1189468532933258,-0.0636625,0.017324999,0.0694375
1680009480181,1189468535435412,-0.0636625,0.0182875,0.0694375
1680009480183,1189468537937566,-0.064625,0.01925,0.0683375
1680009480187,1189468540439719,-0.0625625,0.017324999,0.0724625
1680009480188,1189468542941888,-0.0616,0.016224999,0.073425
1680009480191,1189468545444350,-0.0625625,0.0143,0.0713625
1680009480193,1189468547946504,-0.059675,0.016224999,0.078375
1680009480197,1189468550448695,-0.0616,0.0182875,0.078375
1680009480198,1189468552950848,-0.059675,0.0122375,0.0774125
1680009480203,1189468555453002,-0.05555,0.015262499,0.078375
1680009480203,1189468557955156,-0.05555,0.015262499,0.0823625
1680009480205,1189468560457541,-0.0526625,0.01925,0.0853875
1680009480207,1189468562959782,-0.0515625,0.0132,0.08635
1680009480211,1189468565461858,-0.048675,0.0132,0.08745
1680009480213,1189468567964089,-0.0435875,0.0143,0.0853875
1680009480215,1189468570466243,-0.0405625,0.0143,0.08745
1680009480218,1189468572968401,-0.0405625,0.0143,0.0884125
1680009480221,1189468575470786,-0.0386375,0.016224999,0.0903375
1680009480222,1189468577972939,-0.0386375,0.016224999,0.091437496
1680009480226,1189468580475170,-0.0356125,0.0143,0.091437496
1680009480228,1189468582977305,-0.034649998,0.00825,0.0924
1680009480231,1189468585479459,-0.0356125,0.0122375,0.091437496
1680009480234,1189468587981613,-0.0295625,0.0103124995,0.0944625
1680009480236,1189468590483997,-0.0276375,0.006325,0.0944625
1680009480238,1189468592986151,-0.026675,0.00825,0.0944625
1680009480241,1189468595488305,-0.0276375,0.0132,0.0924
1680009480242,1189468597990536,-0.02365,0.011275,0.091437496
1680009480248,1189468600492690,-0.02365,0.006325,0.091437496
1680009480252,1189468602994839,-0.0246125,0.0033,0.0903375
1680009480253,1189468605496992,-0.0215875,0.0012375,0.0944625
1680009480253,1189468607999377,-0.0196625,0.0042625,0.0944625
1680009480254,1189468610501531,-0.0166375,0.005225,0.089375
1680009480257,1189468613003685,-0.0176,0.0022,0.0903375
1680009480261,1189468615505854,-0.0196625,-6.875E-4,0.0903375
1680009480262,1189468618008084,-0.0176,0.0033,0.089375
1680009480264,1189468620510238,-0.0166375,0.0012375,0.091437496
1680009480267,1189468623012623,-0.0166375,-0.00275,0.0924
1680009480272,1189468625514791,-0.015675,-0.00275,0.089375
1680009480274,1189468628016945,-0.013612499,2.75E-4,0.089375
1680009480275,1189468630519175,-0.014575,-0.0037125,0.08745
1680009480277,1189468633021252,-0.014575,-0.0017875,0.089375
1680009480281,1189468635523474,-0.0185625,-0.0017875,0.0884125
1680009480282,1189468638025859,-0.0176,0.0022,0.08635
1680009480284,1189468640528012,-0.020624999,0.006325,0.0823625
1680009480287,1189468643030166,-0.0185625,0.005225,0.0804375
1680009480290,1189468645532324,-0.0215875,0.0103124995,0.0814
1680009480292,1189468648034555,-0.0196625,0.00825,0.0823625
1680009480295,1189468650536709,-0.026675,0.005225,0.084425
1680009480297,1189468653039093,-0.0306625,0.00825,0.0814
1680009480301,1189468655541247,-0.0295625,0.00825,0.0814
1680009480303,1189468658043401,-0.03355,0.0103124995,0.0823625
1680009480305,1189468660545555,-0.036575,0.0143,0.0814
1680009480309,1189468663047709,-0.0386375,0.0182875,0.078375
1680009480311,1189468665549950,-0.0416625,0.01925,0.0814
1680009480313,1189468668052103,-0.04455,0.01925,0.0804375
1680009480315,1189468670554488,-0.0466125,0.0182875,0.0814
1680009480319,1189468673056642,-0.047575,0.022275,0.0853875
1680009480321,1189468675558796,-0.0515625,0.0253,0.0853875
1680009480323,1189468678060969,-0.0526625,0.0292875,0.084425
1680009480326,1189468680563199,-0.053625,0.03025,0.084425
1680009480328,1189468683065584,-0.0506,0.0323125,0.084425
1680009480331,1189468685567507,-0.0506,0.0342375,0.084425
1680009480332,1189468688069887,-0.0526625,0.039325,0.08635
1680009480337,1189468690572041,-0.0515625,0.0462,0.08745
1680009480338,1189468693074194,-0.048675,0.039325,0.0853875
1680009480341,1189468695576425,-0.0466125,0.0482625,0.0814
1680009480343,1189468698078565,-0.0506,0.0532125,0.0793375
1680009480347,1189468700580719,-0.0515625,0.0572,0.0793375
1680009480348,1189468703083104,-0.047575,0.061325,0.078375
1680009480352,1189468705585027,-0.0506,0.061325,0.0743875
1680009480353,1189468708087416,-0.047575,0.0642125,0.0713625
1680009480355,1189468710589647,-0.048675,0.0672375,0.0743875
1680009480358,1189468713091801,-0.048675,0.0672375,0.0743875
1680009480360,1189468715593955,-0.0515625,0.0672375,0.073425
1680009480363,1189468718096099,-0.0526625,0.0682,0.073425
1680009480365,1189468720598483,-0.053625,0.0702625,0.0743875
1680009480369,1189468723100406,-0.053625,0.0702625,0.0713625
1680009480371,1189468725602868,-0.053625,0.0672375,0.0724625
1680009480372,1189468728105022,-0.05555,0.0702625,0.0713625
1680009480376,1189468730607152,-0.059675,0.0672375,0.0704
1680009480379,1189468733109305,-0.0606375,0.0653125,0.0724625
1680009480381,1189468735611459,-0.0636625,0.069299996,0.0713625
1680009480386,1189468738113853,-0.064625,0.066275,0.0713625
1680009480388,1189468740616084,-0.06655,0.06325,0.0713625
1680009480388,1189468743118238,-0.06655,0.061325,0.073425
1680009480391,1189468745620391,-0.06655,0.0583,0.073425
1680009480393,1189468748122545,-0.064625,0.0532125,0.0724625
1680009480396,1189468750624709,-0.0686125,0.050325,0.073425
1680009480399,1189468753126863,-0.06655,0.049225,0.07535
1680009480402,1189468755629017,-0.064625,0.049225,0.0713625
1680009480403,1189468758131478,-0.06655,0.044275,0.0713625
1680009480406,1189468760633632,-0.0686125,0.0433125,0.0683375
1680009480408,1189468763135772,-0.069575,0.0452375,0.06545
1680009480411,1189468765637926,-0.0716375,0.0433125,0.06435
1680009480413,1189468768140080,-0.0726,0.039325,0.0633875
1680009480415,1189468770642234,-0.070675,0.038225,0.0614625
1680009480420,1189468773144598,-0.070675,0.0372625,0.0614625
1680009480423,1189468775646829,-0.0735625,0.0292875,0.0594
1680009480424,1189468778148983,-0.0746625,0.0292875,0.056375
1680009480426,1189468780651137,-0.075625,0.0232375,0.056375
1680009480430,1189468783153291,-0.07755,0.0232375,0.056375
1680009480433,1189468785655420,-0.0796125,0.0232375,0.05335
1680009480436,1189468788157882,-0.0796125,0.0202125,0.05335
1680009480437,1189468790659959,-0.0796125,0.01925,0.05335
1680009480438,1189468793162190,-0.086625,0.016224999,0.05335
1680009480441,1189468795664338,-0.0906125,0.011275,0.051425
1680009480442,1189468798166492,-0.092675,0.0042625,0.054449998
1680009480446,1189468800668646,-0.097625,0.0012375,0.051425
1680009480449,1189468803171031,-0.097625,-0.004675,0.054449998
1680009480451,1189468805673277,-0.102575,-0.01375,0.054449998
1680009480453,1189468808175430,-0.1016125,-0.0198,0.0573375
1680009480455,1189468810677584,-0.1065625,-0.0207625,0.0603625
1680009480459,1189468813179738,-0.1056,-0.0308,0.06435
1680009480462,1189468815681887,-0.1095875,-0.038775,0.0664125
1680009480464,1189468818184272,-0.1095875,-0.037675,0.0683375
1680009480465,1189468820686425,-0.108625,-0.0477125,0.0704
1680009480468,1189468823188656,-0.11165,-0.0528,0.0743875
1680009480471,1189468825690810,-0.1126125,-0.0617375,0.0743875
1680009480472,1189468828192964,-0.11055,-0.06875,0.0743875
1680009480475,1189468830695118,-0.11055,-0.0587125,0.0774125
1680009480477,1189468833197272,-0.11165,-0.0477125,0.0814
1680009480481,1189468835699656,-0.11055,-0.049775,0.0793375
1680009480483,1189468838201805,-0.1095875,-0.0528,0.0743875
1680009480486,1189468840703959,-0.108625,-0.048675,0.078375
1680009480488,1189468843206190,-0.1126125,-0.0477125,0.0793375
1680009480491,1189468845708344,-0.11165,-0.0457875,0.0774125
1680009480493,1189468848210473,-0.1126125,-0.0477125,0.0774125
1680009480497,1189468850712858,-0.11055,-0.0418,0.07645
1680009480499,1189468853215012,-0.11165,-0.037675,0.073425
1680009480503,1189468855717258,-0.113575,-0.038775,0.07535
1680009480503,1189468858219335,-0.114675,-0.0347875,0.07535
1680009480506,1189468860721565,-0.1166,-0.032725,0.0724625
1680009480508,1189468863223719,-0.113575,-0.0257125,0.07535
1680009480511,1189468865726104,-0.1126125,-0.021724999,0.07535
1680009480512,1189468868228258,-0.11055,-0.016775,0.0743875
1680009480517,1189468870730431,-0.1095875,-0.014712499,0.0713625
1680009480519,1189468873232584,-0.1095875,-0.010725,0.0694375
1680009480521,1189468875734738,-0.11055,-0.005775,0.0683375
1680009480522,1189468878236969,-0.1076625,-6.875E-4,0.0664125
1680009480527,1189468880739354,-0.11165,-0.00275,0.0664125
1680009480528,1189468883241508,-0.11055,0.0012375,0.06435
1680009480531,1189468885743661,-0.11055,0.0022,0.0664125
1680009480537,1189468888245810,-0.11055,0.0022,0.0683375
1680009480539,1189468890747964,-0.11055,0.0072875,0.06545
1680009480539,1189468893250195,-0.1095875,0.00825,0.06435
1680009480546,1189468895752272,-0.1095875,0.0103124995,0.0633875
1680009480546,1189468898254733,-0.1095875,0.0132,0.062425
1680009480548,1189468900756901,-0.11055,0.0122375,0.0614625
1680009480548,1189468903259055,-0.114675,0.0122375,0.062425
1680009480551,1189468905761209,-0.113575,0.0122375,0.0683375
1680009480553,1189468908263363,-0.113575,0.0122375,0.0704
1680009480555,1189468910765604,-0.1166,0.0103124995,0.0683375
1680009480557,1189468913267988,-0.1186625,0.006325,0.0683375
1680009480561,1189468915770142,-0.1166,0.00825,0.06545
1680009480563,1189468918272296,-0.119625,0.005225,0.0694375
1680009480565,1189468920774455,-0.1205875,2.75E-4,0.0704
1680009480568,1189468923276609,-0.1236125,-6.875E-4,0.0694375
1680009480572,1189468925778762,-0.125675,-0.0037125,0.0683375
1680009480574,1189468928281224,-0.125675,-0.005775,0.06545
1680009480575,1189468930783407,-0.125675,-0.004675,0.0683375
1680009480578,1189468933285561,-0.124575,-0.0077,0.06545
1680009480581,1189468935787715,-0.1236125,-0.016775,0.0633875
1680009480583,1189468938289868,-0.1266375,-0.016775,0.0584375
1680009480586,1189468940792046,-0.125675,-0.0177375,0.054449998
1680009480588,1189468943294277,-0.1266375,-0.027775,0.0573375
1680009480591,1189468945796662,-0.1296625,-0.0287375,0.0584375
1680009480593,1189468948298815,-0.1276,-0.032725,0.054449998
1680009480595,1189468950800969,-0.130625,-0.0317625,0.0554125
1680009480598,1189468953303147,-0.1346125,-0.0367125,0.0554125
1680009480601,1189468955805301,-0.130625,-0.0367125,0.0523875
1680009480603,1189468958307532,-0.1296625,-0.0407,0.051425
1680009480606,1189468960809916,-0.130625,-0.0457875,0.0523875
1680009480610,1189468963311806,-0.1296625,-0.0507375,0.0523875
1680009480611,1189468965814191,-0.1346125,-0.0507375,0.051425
1680009480613,1189468968316345,-0.136675,-0.0507375,0.054449998
1680009480615,1189468970818499,-0.1346125,-0.0528,0.0523875
1680009480619,1189468973320653,-0.1315875,-0.059675,0.0493625
1680009480621,1189468975822878,-0.1346125,-0.0587125,0.0493625
1680009480623,1189468978325263,-0.135575,-0.0567875,0.0484
1680009480625,1189468980827417,-0.1346125,-0.0567875,0.0493625
1680009480629,1189468983329590,-0.1346125,-0.0567875,0.0484
1680009480631,1189468985831744,-0.135575,-0.0517,0.0493625
1680009480633,1189468988333974,-0.135575,-0.0517,0.0493625
1680009480636,1189468990836051,-0.1376375,-0.0507375,0.0493625
1680009480639,1189468993338282,-0.13859999,-0.049775,0.0484
1680009480641,1189468995840427,-0.141625,-0.0507375,0.0474375
1680009480644,1189468998342581,-0.14465,-0.0528,0.0474375
1680009480648,1189469000844965,-0.1496,-0.048675,0.0463375
1680009480649,1189469003347119,-0.1505625,-0.048675,0.0474375
1680009480652,1189469005849350,-0.1505625,-0.04675,0.0484
1680009480653,1189469008351504,-0.1516625,-0.0446875,0.0474375
1680009480655,1189469010853658,-0.1505625,-0.0446875,0.0493625
1680009480658,1189469013355812,-0.152625,-0.0427625,0.0523875
1680009480661,1189469015858205,-0.1546875,-0.03575,0.054449998
1680009480663,1189469018360436,-0.1566125,-0.0336875,0.0554125
1680009480665,1189469020862513,-0.1606,-0.032725,0.0523875
1680009480669,1189469023364744,-0.1626625,-0.0297,0.0554125
1680009480671,1189469025866908,-0.163625,-0.0308,0.056375
1680009480673,1189469028369061,-0.1626625,-0.0287375,0.0614625
1680009480675,1189469030871446,-0.163625,-0.026675,0.06435
1680009480677,1189469033373600,-0.1645875,-0.027775,0.0664125
1680009480681,1189469035875744,-0.1676125,-0.0297,0.06435
1680009480684,1189469038377975,-0.168575,-0.0308,0.0694375
1680009480685,1189469040880051,-0.169675,-0.0317625,0.0694375
1680009480688,1189469043382282,-0.1716,-0.026675,0.0724625
1680009480691,1189469045884648,-0.1736625,-0.02475,0.073425
1680009480693,1189469048386802,-0.1706375,-0.0187,0.0713625
1680009480695,1189469050888956,-0.1706375,-0.021724999,0.0743875
1680009480698,1189469053391109,-0.1736625,-0.0257125,0.07535
1680009480702,1189469055893335,-0.174625,-0.0187,0.07645
1680009480703,1189469058395489,-0.174625,-0.0187,0.07645
1680009480705,1189469060897643,-0.1755875,-0.0207625,0.078375
1680009480708,1189469063400028,-0.174625,-0.0187,0.0804375
1680009480711,1189469065902181,-0.174625,-0.0177375,0.0793375
1680009480712,1189469068404349,-0.17765,-0.014712499,0.084425
1680009480715,1189469070906503,-0.1786125,-0.014712499,0.08745
1680009480720,1189469073408734,-0.1766875,-0.014712499,0.084425
1680009480722,1189469075910888,-0.18259999,-0.0177375,0.0853875
1680009480724,1189469078413268,-0.1786125,-0.0187,0.08635
1680009480727,1189469080915422,-0.1786125,-0.016775,0.08635
1680009480728,1189469083417576,-0.179575,-0.0127875,0.08745
1680009480731,1189469085919730,-0.1786125,-0.0077,0.0853875
1680009480733,1189469088421884,-0.1766875,2.75E-4,0.08745
1680009480736,1189469090924080,-0.1766875,0.0072875,0.0884125
1680009480738,1189469093426465,-0.179575,0.0122375,0.0884125
1680009480741,1189469095928619,-0.1766875,0.0132,0.08745
1680009480743,1189469098430748,-0.1755875,0.015262499,0.089375
1680009480746,1189469100932902,-0.1766875,0.01925,0.089375
1680009480748,1189469103435056,-0.1786125,0.0232375,0.08745
1680009480752,1189469105937209,-0.1766875,0.0292875,0.0884125
1680009480753,1189469108439416,-0.179575,0.0352,0.089375
1680009480755,1189469110941801,-0.1786125,0.0363,0.08745
1680009480759,1189469113443955,-0.179575,0.0352,0.08745
1680009480762,1189469115946108,-0.18259999,0.044275,0.089375
1680009480764,1189469118448257,-0.1835625,0.044275,0.0903375
1680009480765,1189469120950411,-0.1846625,0.0482625,0.089375
1680009480769,1189469123452642,-0.1846625,0.049225,0.0903375
1680009480771,1189469125954796,-0.185625,0.0512875,0.091437496
1680009480774,1189469128457180,-0.1835625,0.0543125,0.091437496
1680009480776,1189469130959363,-0.18259999,0.0562375,0.0944625
1680009480778,1189469133461517,-0.1786125,0.06325,0.09845
1680009480781,1189469135963671,-0.180675,0.0642125,0.1054625
1680009480783,1189469138465825,-0.1786125,0.055275,0.1043625
1680009480786,1189469140968286,-0.174625,0.0682,0.1043625
1680009480788,1189469143470440,-0.1736625,0.088275,0.1073875
1680009480791,1189469145972594,-0.174625,0.0952875,0.10945
1680009480793,1189469148474748,-0.1725625,0.1023,0.1144
1680009480798,1189469150976897,-0.1725625,0.1032625,0.1183875
1680009480799,1189469153479051,-0.174625,0.111237496,0.11935
1680009480801,1189469155981281,-0.174625,0.111237496,0.1233375
1680009480803,1189469158483435,-0.1736625,0.1082125,0.124437496
1680009480806,1189469160985820,-0.1755875,0.1082125,0.13035
1680009480808,1189469163487969,-0.17765,0.1122,0.1343375
1680009480811,1189469165990123,-0.1755875,0.1122,0.1373625
1680009480813,1189469168492276,-0.1755875,0.11825,0.1384625
1680009480816,1189469170994507,-0.1755875,0.1243,0.1373625
1680009480819,1189469173496666,-0.174625,0.121275,0.1384625
1680009480821,1189469175998820,-0.1766875,0.122237496,0.1403875
1680009480824,1189469178501205,-0.1755875,0.121275,0.1384625
1680009480827,1189469181003358,-0.17765,0.1192125,0.1364
1680009480829,1189469183505492,-0.17765,0.121275,0.1354375
1680009480831,1189469186007723,-0.1736625,0.122237496,0.1354375
1680009480835,1189469188509877,-0.1766875,0.11825,0.13145
1680009480836,1189469191012261,-0.1766875,0.1192125,0.128425
1680009480838,1189469193514181,-0.17765,0.115225,0.1263625
1680009480841,1189469196016565,-0.174625,0.113299996,0.1274625
1680009480843,1189469198518719,-0.174625,0.1142625,0.1254
1680009480847,1189469201020873,-0.179575,0.111237496,0.1214125
1680009480849,1189469203523099,-0.17765,0.1062875,0.122375
1680009480852,1189469206025253,-0.179575,0.105325,0.1214125
1680009480853,1189469208527637,-0.1846625,0.1012,0.1144
1680009480856,1189469211029560,-0.1865875,0.1023,0.111375
1680009480858,1189469213531714,-0.1846625,0.0972125,0.113437496
1680009480861,1189469216034118,-0.1846625,0.0952875,0.1104125
1680009480863,1189469218536348,-0.1846625,0.089237496,0.1104125
1680009480866,1189469221038502,-0.1786125,0.0902,0.10945
1680009480870,1189469223540656,-0.180675,0.091299996,0.1073875
1680009480874,1189469226042815,-0.1786125,0.0873125,0.1043625
1680009480877,1189469228545200,-0.1766875,0.089237496,0.1034
1680009480877,1189469231047123,-0.1755875,0.089237496,0.1034
1680009480878,1189469233549584,-0.1786125,0.083325,0.0994125
1680009480880,1189469236051718,-0.1786125,0.0812625,0.102437496
1680009480883,1189469238553872,-0.1766875,0.082225,0.0963875
1680009480886,1189469241056026,-0.1786125,0.0812625,0.0933625
1680009480888,1189469243558180,-0.17765,0.0782375,0.0933625
1680009480891,1189469246060550,-0.17765,0.0732875,0.091437496
1680009480893,1189469248562781,-0.179575,0.069299996,0.08745
1680009480895,1189469251064935,-0.1835625,0.066275,0.0823625
1680009480898,1189469253567089,-0.1835625,0.06325,0.078375
1680009480902,1189469256069253,-0.185625,0.0572,0.07535
1680009480903,1189469258571407,-0.1846625,0.050325,0.07535
1680009480905,1189469261073560,-0.1835625,0.044275,0.0713625
1680009480910,1189469263576022,-0.1835625,0.0402875,0.0694375
1680009480912,1189469266078205,-0.1846625,0.0323125,0.0664125
1680009480914,1189469268580359,-0.1835625,0.0342375,0.06435
1680009480915,1189469271082512,-0.185625,0.039325,0.0614625
1680009480922,1189469273584666,-0.180675,0.0363,0.0554125
1680009480924,1189469276086815,-0.17765,0.0323125,0.0554125
1680009480924,1189469278588969,-0.180675,0.0352,0.0523875
1680009480926,1189469281091354,-0.179575,0.0352,0.05335
1680009480928,1189469283593584,-0.1736625,0.03025,0.051425
1680009480931,1189469286095738,-0.1736625,0.0242,0.051425
1680009480933,1189469288597892,-0.1736625,0.0202125,0.051425
1680009480936,1189469291100013,-0.1725625,0.017324999,0.0493625
1680009480938,1189469293602167,-0.1716,0.017324999,0.0484
1680009480941,1189469296104628,-0.168575,0.01925,0.0523875
1680009480942,1189469298606705,-0.16665,0.01925,0.051425
1680009480947,1189469301108945,-0.1676125,0.0202125,0.0493625
1680009480949,1189469303611099,-0.1615625,0.01925,0.0523875
1680009480951,1189469306113484,-0.1615625,0.0182875,0.0554125
1680009480953,1189469308615623,-0.1596375,0.0202125,0.054449998
1680009480955,1189469311117777,-0.152625,0.022275,0.0523875
1680009480958,1189469313619931,-0.1505625,0.0232375,0.051425
1680009480961,1189469316122085,-0.1436875,0.0232375,0.0523875
1680009480963,1189469318624316,-0.14465,0.0232375,0.056375
1680009480967,1189469321126446,-0.1406625,0.0242,0.05335
1680009480970,1189469323628830,-0.1395625,0.0292875,0.051425
1680009480971,1189469326130984,-0.135575,0.0323125,0.054449998
1680009480973,1189469328633138,-0.1296625,0.0352,0.0493625
1680009480977,1189469331135306,-0.124575,0.0363,0.0463375
1680009480978,1189469333637460,-0.12265,0.0372625,0.0463375
1680009480981,1189469336139921,-0.1186625,0.039325,0.045375
1680009480986,1189469338642075,-0.114675,0.041249998,0.0444125
1680009480987,1189469341144229,-0.1076625,0.0452375,0.04235
1680009480988,1189469343646374,-0.104637496,0.0462,0.0413875
1680009480990,1189469346148528,-0.1056,0.049225,0.0383625
1680009480993,1189469348650681,-0.097625,0.0482625,0.0374
1680009480995,1189469351152912,-0.093637496,0.049225,0.0383625
1680009480998,1189469353655095,-0.0906125,0.0473,0.032449998
1680009481001,1189469356157480,-0.0906125,0.044275,0.032449998
1680009481003,1189469358659634,-0.086625,0.041249998,0.032449998
1680009481006,1189469361161787,-0.086625,0.041249998,0.032449998
1680009481009,1189469363663917,-0.0875875,0.0402875,0.03135
1680009481011,1189469366166071,-0.086625,0.0342375,0.03135
1680009481013,1189469368668302,-0.0796125,0.0363,0.0353375
1680009481016,1189469371170456,-0.0776875,0.0292875,0.0353375
1680009481020,1189469373672830,-0.0776875,0.028324999,0.0303875
1680009481023,1189469376174984,-0.07865,0.0242,0.0353375
1680009481025,1189469378677138,-0.0746625,0.0213125,0.0353375
1680009481027,1189469381179292,-0.0716375,0.0213125,0.0353375
1680009481029,1189469383681533,-0.0716375,0.022275,0.0364375
1680009481032,1189469386183917,-0.069575,0.0202125,0.03135
1680009481034,1189469388685840,-0.0686125,0.0232375,0.032449998
1680009481036,1189469391188225,-0.0666875,0.0202125,0.032449998
1680009481039,1189469393690379,-0.0616,0.017324999,0.032449998
1680009481042,1189469396192537,-0.059675,0.01925,0.0303875
1680009481044,1189469398694767,-0.0556875,0.0202125,0.0284625
1680009481047,1189469401196921,-0.0556875,0.017324999,0.0273625
1680009481049,1189469403699075,-0.056649998,0.0232375,0.0254375
1680009481051,1189469406201465,-0.0515625,0.0242,0.02035
1680009481053,1189469408703388,-0.0526625,0.0202125,0.018424999
1680009481055,1189469411205772,-0.0526625,0.0253,0.018424999
1680009481060,1189469413708022,-0.0515625,0.0292875,0.0133375
1680009481062,1189469416210176,-0.0466125,0.03025,0.00935
1680009481064,1189469418712330,-0.045649998,0.0292875,0.0083875
1680009481066,1189469421214484,-0.0416625,0.0312125,0.0133375
1680009481071,1189469423716883,-0.0435875,0.0312125,0.00935
1680009481072,1189469426218807,-0.0416625,0.03025,0.0053625
1680009481074,1189469428721191,-0.0396,0.0312125,0.0064625
1680009481076,1189469431223422,-0.0396,0.0312125,0.0044
1680009481079,1189469433725576,-0.036575,0.0323125,0.0044
1680009481081,1189469436227720,-0.0356125,0.0292875,0.0023375
1680009481083,1189469438729873,-0.0336875,0.0253,0.0044
1680009481086,1189469441232027,-0.0295625,0.0232375,0.0064625
1680009481089,1189469443734412,-0.0306625,0.0232375,0.0064625
1680009481091,1189469446236648,-0.0276375,0.0213125,0.0053625
1680009481095,1189469448738802,-0.025575,0.0232375,0.001375
1680009481100,1189469451240955,-0.026675,0.022275,0.0044
1680009481101,1189469453743109,-0.0246125,0.0202125,0.0053625
1680009481103,1189469456245296,-0.02365,0.01925,0.0053625
1680009481103,1189469458747450,-0.020624999,0.01925,0.0044
1680009481106,1189469461249912,-0.0185625,0.0182875,0.0044
1680009481108,1189469463752065,-0.014575,0.0132,0.0023375
1680009481111,1189469466254219,-0.0116875,0.0103124995,0.0064625
1680009481115,1189469468756349,-0.01265,0.015262499,0.012375
1680009481116,1189469471258503,-0.013612499,0.0122375,0.0083875
1680009481119,1189469473760657,-0.009625,0.0072875,0.00935
1680009481121,1189469476263041,-0.0075625,0.0103124995,0.0083875
1680009481123,1189469478765272,-0.0086624995,0.0072875,0.01045
1680009481126,1189469481267450,-0.0056375,0.0042625,0.012375
1680009481129,1189469483769604,-0.0026125,0.005225,0.0114124995
1680009481131,1189469486271758,-0.0056375,0.0012375,0.0114124995
1680009481137,1189469488773932,-0.00165,-6.875E-4,0.0133375
1680009481138,1189469491276393,-0.00165,-0.004675,0.0144375
1680009481139,1189469493778470,0.001375,-0.005775,0.0133375
1680009481141,1189469496280624,0.001375,-0.0077,0.0154
1680009481145,1189469498782855,0.0034375,-0.0097624995,0.0193875
1680009481146,1189469501285013,0.0044,-0.0116875,0.0163625
1680009481148,1189469503787166,0.0023375,-0.0127875,0.0154
1680009481151,1189469506289320,4.125E-4,-0.0127875,0.018424999
1680009481154,1189469508791705,-0.00165,-0.016775,0.02145
1680009481156,1189469511293936,-0.00165,-0.014712499,0.02145
1680009481158,1189469513796033,0.001375,-0.01375,0.02145
1680009481161,1189469516298263,4.125E-4,-0.016775,0.023375
1680009481163,1189469518800417,0.001375,-0.0196625,0.0273625
1680009481166,1189469521302571,0.001375,-0.016775,0.0284625
1680009481168,1189469523804956,-0.0026125,-0.0187,0.0284625
1680009481173,1189469526307110,4.125E-4,-0.021724999,0.0273625
1680009481174,1189469528809340,4.125E-4,-0.021724999,0.0303875
1680009481176,1189469531311417,4.125E-4,-0.0257125,0.032449998
1680009481178,1189469533813657,0.001375,-0.0237875,0.0303875
1680009481181,1189469536315811,4.125E-4,-0.02475,0.0303875
1680009481183,1189469538818195,0.001375,-0.0207625,0.03135
1680009481186,1189469541320349,0.0023375,-0.0196625,0.0284625
1680009481188,1189469543822498,0.001375,-0.016775,0.0284625
1680009481191,1189469546324729,0.0023375,-0.010725,0.029424999
1680009481193,1189469548826883,0.0034375,-0.0127875,0.0284625
1680009481196,1189469551329037,0.0023375,-0.0097624995,0.0273625
1680009481199,1189469553831407,0.0023375,-0.010725,0.0264
1680009481201,1189469556333561,0.0023375,-0.0067375,0.0264
1680009481204,1189469558835715,0.001375,-0.0067375,0.0243375
1680009481206,1189469561337869,0.001375,-0.0077,0.0243375
1680009481210,1189469563840013,0.001375,-0.0017875,0.02145
1680009481212,1189469566342243,0.001375,-0.004675,0.018424999
1680009481214,1189469568844628,0.001375,-0.005775,0.0154
1680009481216,1189469571346782,0.001375,-0.0017875,0.012375
1680009481218,1189469573848936,-0.00165,0.0012375,0.01045
1680009481221,1189469576351085,-0.0045375,0.0033,0.0083875
1680009481223,1189469578853239,-0.0066,-6.875E-4,0.007425
1680009481226,1189469581355392,-0.0066,-0.0017875,0.00935
1680009481229,1189469583857623,-0.0066,-6.875E-4,0.0114124995
1680009481231,1189469586359984,-0.009625,0.0033,0.00935
1680009481234,1189469588862138,-0.01155,2.75E-4,0.0083875
1680009481236,1189469591364291,-0.0166375,0.0022,0.01045
1680009481238,1189469593866445,-0.0155375,0.0022,0.00935
1680009481241,1189469596368599,-0.0176,2.75E-4,0.01045
1680009481243,1189469598870753,-0.0185625,-0.0017875,0.0114124995
1680009481249,1189469601373215,-0.020624999,-0.00275,0.0133375
1680009481250,1189469603875368,-0.0215875,-0.005775,0.0133375
1680009481252,1189469606377512,-0.025575,-0.0067375,0.0163625
1680009481253,1189469608879666,-0.0286,-0.0116875,0.018424999
1680009481256,1189469611381820,-0.0276375,-0.0116875,0.018424999
1680009481258,1189469613883974,-0.0276375,-0.0127875,0.0224125
1680009481261,1189469616386435,-0.0276375,-0.01375,0.0224125
1680009481266,1189469618888372,-0.031625,-0.014712499,0.0224125
1680009481266,1189469621390757,-0.034649998,-0.014712499,0.0243375
1680009481270,1189469623892911,-0.034649998,-0.0207625,0.0243375
1680009481271,1189469626395142,-0.034649998,-0.0177375,0.029424999
1680009481274,1189469628897278,-0.03355,-0.021724999,0.03135
1680009481276,1189469631399431,-0.036575,-0.0207625,0.0273625
1680009481280,1189469633901585,-0.034649998,-0.021724999,0.0284625
1680009481281,1189469636403739,-0.034649998,-0.026675,0.0334125
1680009481287,1189469638905916,-0.0375375,-0.027775,0.0303875
1680009481288,1189469641408301,-0.0375375,-0.02475,0.0303875
1680009481289,1189469643910531,-0.0386375,-0.027775,0.0353375
1680009481292,1189469646412685,-0.0386375,-0.0306625,0.0334125
1680009481295,1189469648914839,-0.034649998,-0.027775,0.0353375
1680009481297,1189469651416970,-0.034649998,-0.0257125,0.0353375
1680009481300,1189469653919124,-0.0356125,-0.026675,0.0353375
1680009481301,1189469656421278,-0.036575,-0.0287375,0.0353375
1680009481304,1189469658923662,-0.036575,-0.02475,0.0374
1680009481306,1189469661425897,-0.036575,-0.021724999,0.0394625
1680009481309,1189469663928051,-0.036575,-0.0207625,0.0374
1680009481312,1189469666430205,-0.0356125,-0.0187,0.0353375
1680009481313,1189469668932359,-0.0396,-0.0127875,0.032449998
1680009481316,1189469671434512,-0.0416625,-0.0127875,0.03135
1680009481319,1189469673936974,-0.042625,-0.010725,0.03135
1680009481326,1189469676439051,-0.04455,-0.0116875,0.03135
1680009481326,1189469678941282,-0.04455,-0.010725,0.0273625
1680009481327,1189469681443422,-0.0435875,-0.0077,0.0243375
1680009481329,1189469683945575,-0.0435875,-0.005775,0.023375
1680009481332,1189469686447729,-0.0416625,-0.0097624995,0.0193875
1680009481335,1189469688950114,-0.0405625,-0.004675,0.0144375
1680009481336,1189469691452268,-0.0435875,-6.875E-4,0.01045
1680009481339,1189469693954398,-0.0416625,0.0022,0.0083875
1680009481342,1189469696456628,-0.0416625,2.75E-4,0.0064625
1680009481345,1189469698958782,-0.045649998,0.0042625,0.001375
1680009481347,1189469701460936,-0.0466125,0.0072875,-0.0026125
1680009481349,1189469703963335,-0.047575,0.011275,-0.0026125
1680009481352,1189469706465488,-0.0466125,0.0122375,-0.003575
1680009481353,1189469708967642,-0.047575,0.015262499,-0.0086624995
1680009481356,1189469711469873,-0.0485375,0.0133375,-0.009625
1680009481360,1189469713971955,-0.0545875,0.017324999,-0.0086624995
1680009481362,1189469716474186,-0.05555,0.0182875,-0.0075625
1680009481364,1189469718976570,-0.05555,0.0182875,-0.0105875
1680009481366,1189469721478724,-0.056649998,0.0182875,-0.01155
1680009481369,1189469723980878,-0.05555,0.017324999,-0.01155
1680009481371,1189469726483023,-0.0606375,0.016224999,-0.0086624995
1680009481374,1189469728985254,-0.0616,0.0182875,-0.009625
1680009481376,1189469731487408,-0.064625,0.0182875,-0.0105875
1680009481379,1189469733989561,-0.06655,0.011275,-0.0075625
1680009481381,1189469736491965,-0.06765,0.0133375,-0.0066
1680009481383,1189469738994119,-0.0726,0.0143,-0.0026125
1680009481386,1189469741496350,-0.075625,0.0033,-0.0026125
1680009481389,1189469743998427,-0.07755,0.0033,-0.00165
1680009481391,1189469746500657,-0.07755,0.0033,0.001375
1680009481393,1189469749002811,-0.07865,2.75E-4,4.125E-4
1680009481397,1189469751505196,-0.075625,-0.004675,4.125E-4
1680009481399,1189469754007350,-0.0796125,-0.0077,0.0023375
1680009481401,1189469756509532,-0.0836,-0.005775,0.0034375
1680009481403,1189469759011685,-0.0815375,-0.0116875,0.0034375
1680009481406,1189469761513839,-0.0796125,-0.0097624995,0.0064625
1680009481408,1189469764015993,-0.080575,-0.0127875,0.0064625
1680009481411,1189469766518455,-0.0796125,-0.010725,0.0064625
1680009481413,1189469769020590,-0.080575,-0.0067375,0.0064625
1680009481416,1189469771522743,-0.080575,-0.005775,0.007425
1680009481418,1189469774024897,-0.080575,-0.0077,0.007425
1680009481421,1189469776527051,-0.07865,-0.0067375,0.01045
1680009481424,1189469779029287,-0.07865,-0.004675,0.0083875
1680009481426,1189469781531441,-0.0765875,-0.004675,0.007425
1680009481428,1189469784033825,-0.0726,-0.0017875,0.0083875
1680009481431,1189469786535979,-0.069575,-0.004675,0.0064625
1680009481435,1189469789038148,-0.069575,-0.005775,0.0064625
1680009481436,1189469791540302,-0.0705375,-6.875E-4,0.00935
1680009481439,1189469794042456,-0.069575,0.0012375,0.0083875
1680009481441,1189469796544917,-0.064625,0.0012375,0.0044
1680009481443,1189469799047071,-0.0576125,0.0012375,0.0044
1680009481446,1189469801549249,-0.0595375,0.0033,0.0053625
1680009481448,1189469804051403,-0.0576125,0.00825,0.0083875
1680009481452,1189469806553557,-0.05555,0.0042625,0.007425
1680009481453,1189469809055711,-0.0545875,0.0033,0.0114124995
1680009481456,1189469811557878,-0.0485375,0.006325,0.0044
1680009481459,1189469814060109,-0.0466125,0.006325,0.0044
1680009481461,1189469816562494,-0.045649998,0.0072875,0.0053625
1680009481464,1189469819064648,-0.045649998,0.0072875,0.0053625
1680009481466,1189469821566802,-0.042625,0.006325,-0.00165
1680009481469,1189469824068983,-0.0386375,0.00825,-0.003575
1680009481473,1189469826571137,-0.0386375,0.0133375,-0.00165
1680009481474,1189469829073368,-0.0386375,0.0143,-0.0026125
1680009481476,1189469831575522,-0.0375375,0.0103124995,-0.0026125
1680009481479,1189469834077892,-0.036575,0.0143,-0.0026125
1680009481481,1189469836580046,-0.0356125,0.0133375,-0.0026125
1680009481484,1189469839082200,-0.034649998,0.0133375,-0.0026125
1680009481486,1189469841584354,-0.03355,0.011275,-0.0026125
1680009481489,1189469844086585,-0.031625,0.0103124995,-0.0026125
1680009481491,1189469846588969,-0.036575,0.0072875,-0.0026125
1680009481494,1189469849090893,-0.0396,0.006325,0.001375
1680009481497,1189469851593277,-0.0416625,0.0033,-5.5E-4
1680009481500,1189469854095431,-0.0416625,-0.00275,-0.00165
1680009481501,1189469856597585,-0.0416625,-0.0017875,0.001375
1680009481503,1189469859099816,-0.0435875,0.0033,0.0034375
1680009481506,1189469861601969,-0.0405625,0.0012375,0.0053625
1680009481510,1189469864104123,-0.045649998,0.0022,0.0053625
1680009481512,1189469866606277,-0.045649998,0.0022,0.007425
1680009481514,1189469869108662,-0.0435875,0.0012375,0.0044
1680009481516,1189469871610816,-0.0466125,2.75E-4,0.0064625
1680009481519,1189469874112970,-0.0466125,-0.0017875,0.007425
1680009481522,1189469876615186,-0.0485375,0.0022,0.0083875
1680009481523,1189469879117340,-0.045649998,0.0033,0.0064625
1680009481526,1189469881619494,-0.0466125,0.006325,0.01045
1680009481529,1189469884121879,-0.0435875,0.0103124995,0.0114124995
1680009481531,1189469886623797,-0.0466125,0.0103124995,0.0114124995
1680009481533,1189469889126181,-0.0515625,0.011275,0.012375
1680009481536,1189469891628412,-0.0485375,0.0072875,0.012375
1680009481539,1189469894130566,-0.0485375,0.016224999,0.0114124995
1680009481541,1189469896632735,-0.047575,0.017324999,0.01045
1680009481544,1189469899134889,-0.0466125,0.016224999,0.012375
1680009481548,1189469901637273,-0.047575,0.022275,0.0114124995
1680009481549,1189469904139427,-0.047575,0.0253,0.0114124995
1680009481551,1189469906641648,-0.045649998,0.0292875,0.0114124995
1680009481554,1189469909143802,-0.0435875,0.0253,0.0114124995
1680009481556,1189469911645956,-0.0416625,0.0352,0.01045
1680009481559,1189469914148109,-0.0405625,0.0352,0.00935
1680009481562,1189469916650263,-0.0405625,0.038225,0.012375
1680009481564,1189469919152648,-0.0416625,0.0433125,0.01045
1680009481567,1189469921654879,-0.0375375,0.0402875,0.0114124995
1680009481569,1189469924157033,-0.034649998,0.0462,0.01045
1680009481571,1189469926659186,-0.0356125,0.0482625,0.01045
1680009481574,1189469929161321,-0.03355,0.0473,0.012375
1680009481576,1189469931663475,-0.0306625,0.0532125,0.00935
1680009481579,1189469934165629,-0.025575,0.055275,0.0083875
1680009481582,1189469936668014,-0.0265375,0.0532125,0.00935
1680009481586,1189469939170248,-0.0276375,0.050325,0.0114124995
1680009481587,1189469941672325,-0.02365,0.0482625,0.0114124995
1680009481589,1189469944174556,-0.02365,0.052249998,0.00935
1680009481591,1189469946676941,-0.0185625,0.049225,0.01045
1680009481594,1189469949179095,-0.0176,0.0452375,0.0114124995
1680009481596,1189469951681233,-0.0196625,0.0433125,0.0053625
1680009481599,1189469954183387,-0.020624999,0.039325,0.0083875
1680009481604,1189469956685618,-0.0196625,0.033275,0.00935
1680009481605,1189469959187772,-0.0196625,0.03025,0.01045
1680009481607,1189469961689902,-0.020624999,0.0253,0.0114124995
1680009481609,1189469964192286,-0.0196625,0.0202125,0.01045
1680009481612,1189469966694440,-0.020624999,0.016224999,0.007425
1680009481614,1189469969196594,-0.0166375,0.0133375,0.0053625
1680009481616,1189469971698719,-0.0155375,0.0072875,0.007425
1680009481619,1189469974200950,-0.0176,0.006325,0.01045
1680009481623,1189469976703027,-0.0166375,0.0012375,0.0083875
1680009481625,1189469979205488,-0.0185625,-0.004675,0.007425
1680009481627,1189469981707613,-0.020624999,-0.0097624995,0.01045
1680009481630,1189469984209767,-0.0215875,-0.0067375,0.0114124995
1680009481632,1189469986711921,-0.020624999,-0.0097624995,0.012375
1680009481634,1189469989214075,-0.02255,-0.0207625,0.01045
1680009481637,1189469991716305,-0.02255,-0.0207625,0.0053625
1680009481639,1189469994218690,-0.02255,-0.0187,0.007425
1680009481643,1189469996720844,-0.0265375,-0.0237875,0.0083875
1680009481644,1189469999222998,-0.0286,-0.0257125,0.007425
1680009481646,1189470001725152,-0.0295625,-0.027775,0.0053625
1680009481649,1189470004227315,-0.0276375,-0.0297,0.0064625
1680009481652,1189470006729469,-0.0306625,-0.032725,0.007425
1680009481654,1189470009231700,-0.034649998,-0.0336875,0.0083875
1680009481657,1189470011734085,-0.036575,-0.0336875,0.00935
1680009481663,1189470014236218,-0.037675,-0.0336875,0.0114124995
1680009481664,1189470016738372,-0.036575,-0.0367125,0.0114124995
1680009481665,1189470019240526,-0.037675,-0.0287375,0.012375
1680009481667,1189470021742680,-0.037675,-0.032725,0.0133375
1680009481669,1189470024244911,-0.0416625,-0.0297,0.012375
1680009481671,1189470026747065,-0.042625,-0.026675,0.0163625
1680009481674,1189470029249449,-0.0407,-0.0336875,0.0193875
1680009481676,1189470031751603,-0.042625,-0.027775,0.0154
1680009481679,1189470034253757,-0.0446875,-0.0257125,0.0144375
1680009481682,1189470036755911,-0.0446875,-0.021724999,0.0144375
1680009481683,1189470039258065,-0.0435875,-0.0177375,0.0193875
1680009481686,1189470041760526,-0.0466125,-0.0116875,0.0193875
1680009481689,1189470044262449,-0.0446875,-0.0088,0.02035
1680009481691,1189470046764834,-0.0466125,-0.004675,0.0154
1680009481694,1189470049266998,-0.0466125,0.0033,0.0154
1680009481698,1189470051769152,-0.045649998,0.00825,0.0163625
1680009481700,1189470054271305,-0.0446875,0.0132,0.012375
1680009481702,1189470056773541,-0.0435875,0.0202125,0.0144375
1680009481704,1189470059275695,-0.0416625,0.0242,0.0154
1680009481706,1189470061778080,-0.0446875,0.0292875,0.012375
1680009481709,1189470064280003,-0.042625,0.0323125,0.00935
1680009481712,1189470066782372,-0.0396,0.0363,0.012375
1680009481714,1189470069284526,-0.0416625,0.039325,0.00935
1680009481716,1189470071786757,-0.0396,0.0372625,0.01045
1680009481719,1189470074288911,-0.036575,0.0433125,0.0114124995
1680009481722,1189470076791051,-0.036575,0.0462,0.0114124995
1680009481724,1189470079293435,-0.0356125,0.0473,0.0133375
1680009481726,1189470081795358,-0.037675,0.0473,0.012375
1680009481729,1189470084297743,-0.034649998,0.052249998,0.01045
1680009481731,1189470086799964,-0.0336875,0.049225,0.01045
1680009481736,1189470089302118,-0.0336875,0.0512875,0.0114124995
1680009481737,1189470091804272,-0.031625,0.0512875,0.00935
1680009481739,1189470094306425,-0.031625,0.0473,0.01045
1680009481742,1189470096808805,-0.031625,0.0462,0.0114124995
1680009481744,1189470099310959,-0.0306625,0.0433125,0.01045
1680009481746,1189470101813113,-0.0297,0.0363,0.0114124995
1680009481749,1189470104315344,-0.0297,0.0372625,0.01045
1680009481752,1189470106817497,-0.0297,0.028324999,0.00935
1680009481754,1189470109319651,-0.0286,0.0202125,0.0114124995
1680009481756,1189470111821805,-0.0306625,0.016224999,0.0114124995
1680009481759,1189470114323959,-0.0336875,0.0122375,0.012375
1680009481762,1189470116826344,-0.0306625,0.0042625,0.012375
1680009481764,1189470119328555,-0.0297,-0.0017875,0.012375
1680009481766,1189470121830709,-0.031625,-0.00275,0.0144375
1680009481769,1189470124332863,-0.0336875,-0.0097624995,0.0133375
1680009481773,1189470126835017,-0.0386375,-0.014712499,0.0163625
1680009481775,1189470129337181,-0.037675,-0.02475,0.018424999
1680009481776,1189470131839335,-0.0386375,-0.0297,0.0193875
1680009481779,1189470134341796,-0.037675,-0.0336875,0.018424999
1680009481782,1189470136843950,-0.0386375,-0.0367125,0.0154
1680009481785,1189470139346104,-0.0396,-0.0407,0.0193875
1680009481786,1189470141848277,-0.0407,-0.0457875,0.02145
1680009481789,1189470144350431,-0.0416625,-0.0507375,0.0193875
1680009481792,1189470146852815,-0.0416625,-0.0528,0.018424999
1680009481794,1189470149354969,-0.0446875,-0.0528,0.018424999
1680009481797,1189470151857229,-0.0466125,-0.0537625,0.018424999
1680009481799,1189470154359383,-0.0466125,-0.0537625,0.0163625
1680009481801,1189470156861536,-0.045649998,-0.05775,0.0144375
1680009481805,1189470159363690,-0.047575,-0.0567875,0.0133375
1680009481807,1189470161865791,-0.0506,-0.054725,0.0114124995
1680009481810,1189470164368253,-0.048675,-0.0537625,0.0114124995
1680009481813,1189470166870407,-0.047575,-0.0477125,0.0114124995
1680009481815,1189470169372560,-0.0466125,-0.048675,0.0114124995
1680009481816,1189470171874719,-0.048675,-0.04675,0.00935
1680009481819,1189470174376873,-0.0506,-0.0427625,0.00935
1680009481822,1189470176879027,-0.053625,-0.0407,0.01045
1680009481826,1189470179381181,-0.053625,-0.037675,0.00935
1680009481828,1189470181883565,-0.0526625,-0.032725,0.00935
1680009481830,1189470184385796,-0.0545875,-0.0308,0.0083875
1680009481832,1189470186887950,-0.0545875,-0.0287375,0.007425
1680009481835,1189470189390104,-0.0556875,-0.0207625,0.0064625
1680009481837,1189470191892253,-0.0576125,-0.01375,0.0053625
1680009481839,1189470194394407,-0.0556875,-0.0127875,0.0044
1680009481842,1189470196896791,-0.053625,-0.0088,0.001375
1680009481844,1189470199398945,-0.0556875,-0.0077,0.0044
1680009481848,1189470201901185,-0.056649998,0.0042625,0.0034375
1680009481852,1189470204403339,-0.056649998,0.011275,4.125E-4
1680009481854,1189470206905493,-0.0556875,0.0132,-0.0026125
1680009481855,1189470209407646,-0.0545875,0.0143,-5.5E-4
1680009481857,1189470211910031,-0.053625,0.0202125,4.125E-4
1680009481859,1189470214412277,-0.053625,0.03025,-5.5E-4
1680009481862,1189470216914354,-0.0556875,0.0323125,-0.00165
1680009481867,1189470219416585,-0.0556875,0.033275,-0.003575
1680009481869,1189470221918738,-0.0545875,0.0352,-0.0045375
1680009481870,1189470224420906,-0.056649998,0.0363,-0.003575
1680009481873,1189470226923291,-0.0545875,0.038225,-0.0075625
1680009481875,1189470229425445,-0.0556875,0.0433125,-0.0066
1680009481877,1189470231927599,-0.0545875,0.0462,-0.003575
1680009481879,1189470234429762,-0.0556875,0.0482625,-0.0066
1680009481882,1189470236931993,-0.0576125,0.0402875,-0.0075625
1680009481888,1189470239434147,-0.0556875,0.044275,-0.0066
1680009481888,1189470241936532,-0.056649998,0.0482625,-0.0086624995
1680009481891,1189470244438686,-0.0576125,0.044275,-0.0066
1680009481893,1189470246940839,-0.059675,0.0402875,-0.0075625
1680009481894,1189470249442993,-0.058575,0.041249998,-0.0075625
1680009481896,1189470251945224,-0.056649998,0.039325,-0.0086624995
1680009481900,1189470254447315,-0.058575,0.038225,-0.0086624995
1680009481903,1189470256949546,-0.0616,0.0363,-0.0056375
1680009481905,1189470259451700,-0.0616,0.0342375,-0.0045375
1680009481906,1189470261954084,-0.064625,0.0323125,-0.003575
1680009481909,1189470264456007,-0.0716375,0.0312125,-0.0026125
1680009481912,1189470266958416,-0.0726,0.0253,-5.5E-4
1680009481914,1189470269460647,-0.0746625,0.016224999,0.001375
1680009481917,1189470271962801,-0.07865,0.016224999,0.0034375
1680009481920,1189470274464954,-0.080575,0.0122375,0.0064625
1680009481926,1189470276967118,-0.0856625,0.0072875,0.0083875
1680009481927,1189470279469503,-0.093637496,-6.875E-4,0.0114124995
1680009481929,1189470281971657,-0.0996875,-0.0037125,0.0163625
1680009481930,1189470284473921,-0.1056,-0.0077,0.0193875
1680009481933,1189470286976075,-0.113575,-0.010725,0.0224125
1680009481934,1189470289478229,-0.114675,-0.014712499,0.0243375
1680009481937,1189470291980614,-0.119625,-0.021724999,0.029424999
1680009481940,1189470294482537,-0.124575,-0.027775,0.032449998
1680009481942,1189470296984932,-0.130625,-0.027775,0.0353375
1680009481944,1189470299487162,-0.13365,-0.0297,0.0353375
1680009481948,1189470301989316,-0.1376375,-0.0297,0.0364375
1680009481950,1189470304491470,-0.14465,-0.0347875,0.040425
1680009481953,1189470306993624,-0.146575,-0.0477125,0.0374
1680009481955,1189470309495778,-0.1535875,-0.0446875,0.0383625
1680009481957,1189470311997932,-0.1566125,-0.0336875,0.0394625
1680009481963,1189470314500354,-0.158675,-0.0257125,0.0383625
1680009481965,1189470317002508,-0.1626625,-0.026675,0.0394625
1680009481967,1189470319504662,-0.16665,-0.021724999,0.040425
1680009481969,1189470322006816,-0.168575,-0.0198,0.0413875
1680009481971,1189470324508970,-0.1716,-0.014712499,0.04235
1680009481973,1189470327011147,-0.1755875,-0.010725,0.043449998
1680009481975,1189470329513609,-0.17765,-0.0116875,0.0463375
1680009481977,1189470332015686,-0.180675,-0.004675,0.0474375
1680009481979,1189470334517917,-0.1837,-0.0017875,0.0474375
1680009481983,1189470337020061,-0.1865875,2.75E-4,0.0484
1680009481985,1189470339522215,-0.18865,0.005225,0.051425
1680009481987,1189470342024369,-0.18865,0.006325,0.051425
1680009481989,1189470344526523,-0.1876875,0.006325,0.05335
1680009481992,1189470347028985,-0.1865875,0.0132,0.054449998
1680009481994,1189470349531089,-0.18865,0.01925,0.05335
1680009481998,1189470352033320,-0.1896125,0.0182875,0.05335
1680009482001,1189470354535474,-0.1896125,0.01925,0.0554125
1680009482003,1189470357037628,-0.1896125,0.0202125,0.056375
1680009482005,1189470359539797,-0.190575,0.0202125,0.05335
1680009482007,1189470362042181,-0.19167499,0.0242,0.05335
1680009482009,1189470364544412,-0.1936,0.0292875,0.0554125
1680009482012,1189470367046566,-0.1956625,0.027224999,0.054449998
1680009482014,1189470369548729,-0.2036375,0.0292875,0.0554125
1680009482016,1189470372050883,-0.2006125,0.0292875,0.05335
1680009482019,1189470374553037,-0.2057,0.028324999,0.0523875
1680009482022,1189470377055421,-0.2066625,0.0312125,0.054449998
1680009482024,1189470379557566,-0.2066625,0.0323125,0.05335
1680009482027,1189470382059720,-0.2116125,0.0312125,0.056375
1680009482029,1189470384561951,-0.21367499,0.03025,0.0594
1680009482032,1189470387064105,-0.2195875,0.028324999,0.0603625
1680009482036,1189470389566253,-0.2206875,0.0213125,0.062425
1680009482037,1189470392068638,-0.22165,0.0202125,0.0664125
1680009482039,1189470394570792,-0.223575,0.017324999,0.0713625
1680009482042,1189470397072946,-0.22165,0.0132,0.0743875
1680009482044,1189470399575100,-0.2256375,0.0042625,0.078375
1680009482047,1189470402077330,-0.2256375,-0.0037125,0.084425
1680009482049,1189470404579484,-0.224675,-0.0067375,0.08635
1680009482052,1189470407081638,-0.2256375,-0.0088,0.091437496
1680009482054,1189470409584023,-0.2277,-0.01375,0.0963875
1680009482057,1189470412086177,-0.2286625,-0.0177375,0.0963875
1680009482059,1189470414588330,-0.22659999,-0.0198,0.0994125
1680009482062,1189470417090484,-0.22659999,-0.0257125,0.1043625
1680009482064,1189470419592715,-0.2286625,-0.0297,0.106425
1680009482067,1189470422094859,-0.224675,-0.032725,0.1104125
1680009482069,1189470424597244,-0.224675,-0.032725,0.1144
1680009482074,1189470427099397,-0.2277,-0.0317625,0.1164625
1680009482075,1189470429601551,-0.223575,-0.0308,0.1183875
1680009482077,1189470432103677,-0.22165,-0.0317625,0.1233375
1680009482079,1189470434605908,-0.224675,-0.0297,0.1293875
1680009482082,1189470437107985,-0.22165,-0.026675,0.13035
1680009482085,1189470439610446,-0.2195875,-0.0257125,0.1354375
1680009482087,1189470442112609,-0.22165,-0.021724999,0.1384625
1680009482089,1189470444614763,-0.2226125,-0.0198,0.1403875
1680009482092,1189470447116917,-0.218625,-0.0177375,0.14135
1680009482094,1189470449619071,-0.2167,-0.021724999,0.14739999
1680009482097,1189470452121302,-0.2116125,-0.0198,0.15235
1680009482100,1189470454623445,-0.2116125,-0.0207625,0.1563375
1680009482103,1189470457125830,-0.2096875,-0.0237875,0.161425
1680009482104,1189470459627984,-0.2085875,-0.02475,0.16335
1680009482107,1189470462130138,-0.207625,-0.0257125,0.1694
1680009482111,1189470464632292,-0.2057,-0.0257125,0.17545
1680009482113,1189470467134445,-0.2036375,-0.02475,0.1764125
1680009482115,1189470469636676,-0.2006125,-0.021724999,0.1874125
1680009482117,1189470472139061,-0.201575,-0.015675,0.1923625
1680009482119,1189470474641229,-0.1975875,-0.016775,0.194425
1680009482122,1189470477143382,-0.1936,-0.0177375,0.1984125
1680009482127,1189470479645536,-0.18865,-0.015675,0.2033625
1680009482127,1189470482147719,-0.19167499,-0.0237875,0.2024
1680009482129,1189470484649873,-0.1896125,-0.027775,0.2044625
1680009482132,1189470487152104,-0.18865,-0.0116875,0.2024
1680009482134,1189470489654488,-0.185625,-0.010725,0.2033625
1680009482137,1189470492156642,-0.18865,-0.016775,0.20735
1680009482139,1189470494658810,-0.1936,-0.016775,0.20845
1680009482142,1189470497160964,-0.1926375,-0.016775,0.21133749
1680009482144,1189470499663118,-0.190575,-0.0187,0.2143625
1680009482147,1189470502165349,-0.1936,-0.0207625,0.221375
1680009482150,1189470504667502,-0.2006125,-0.02475,0.227425
1680009482152,1189470507169887,-0.2036375,-0.02475,0.232375
1680009482154,1189470509672041,-0.2055625,-0.026675,0.2424125
1680009482156,1189470512174195,-0.2085875,-0.0317625,0.254375
1680009482159,1189470514676325,-0.2066625,-0.0257125,0.265375
1680009482162,1189470517178555,-0.2066625,-0.021724999,0.2754125
1680009482164,1189470519680709,-0.2006125,-0.0207625,0.2833875
1680009482167,1189470522182863,-0.1945625,-0.0127875,0.28545
1680009482169,1189470524685008,-0.1876875,-0.0097624995,0.2924625
1680009482172,1189470527187393,-0.179575,-0.00275,0.2924625
1680009482175,1189470529689546,-0.1645875,0.00825,0.2913625
1680009482177,1189470532191777,-0.1505625,0.016224999,0.2883375
1680009482181,1189470534693906,-0.1395625,0.0352,0.28435
1680009482182,1189470537196060,-0.125675,0.0512875,0.2794
1680009482186,1189470539698445,-0.1166,0.0562375,0.2684
1680009482187,1189470542200368,-0.1056,0.0702625,0.2574
1680009482190,1189470544702752,-0.0996875,0.083325,0.2473625
1680009482192,1189470547204979,-0.093637496,0.089237496,0.24035
1680009482196,1189470549707133,-0.0886875,0.0902,0.22935
1680009482197,1189470552209287,-0.07865,0.0902,0.21835
1680009482199,1189470554711441,-0.0765875,0.088275,0.2094125
1680009482203,1189470557213815,-0.0735625,0.091299996,0.2024
1680009482205,1189470559715738,-0.070675,0.093225,0.19139999
1680009482207,1189470562218123,-0.069575,0.0873125,0.18535
1680009482209,1189470564720354,-0.0726,0.083325,0.1804
1680009482212,1189470567222508,-0.0735625,0.0732875,0.172425
1680009482217,1189470569724666,-0.0776875,0.0653125,0.1694
1680009482217,1189470572226820,-0.0856625,0.0622875,0.16445
1680009482219,1189470574729205,-0.0946,0.050325,0.16445
1680009482225,1189470577231368,-0.1056,0.039325,0.16335
1680009482226,1189470579733599,-0.1175625,0.027224999,0.1703625
1680009482227,1189470582235752,-0.1266375,0.0143,0.1714625
1680009482232,1189470584737906,-0.136675,0.005225,0.1733875
1680009482233,1189470587240060,-0.147675,-0.01375,0.1794375
1680009482237,1189470589742455,-0.152625,-0.026675,0.18535
1680009482237,1189470592244609,-0.157575,-0.0336875,0.18933749
1680009482239,1189470594746762,-0.1676125,-0.03575,0.1923625
1680009482242,1189470597248916,-0.1736625,-0.03575,0.194425
1680009482244,1189470599751147,-0.180675,-0.0477125,0.19745
1680009482247,1189470602253301,-0.1865875,-0.0537625,0.2003375
1680009482252,1189470604755685,-0.190575,-0.0507375,0.1984125
1680009482254,1189470607257839,-0.1956625,-0.049775,0.1984125
1680009482255,1189470609759993,-0.202675,-0.0457875,0.2024
1680009482257,1189470612262219,-0.2085875,-0.0457875,0.2063875
1680009482261,1189470614764296,-0.2176625,-0.0418,0.20735
1680009482263,1189470617266527,-0.2256375,-0.04675,0.2094125
1680009482265,1189470619768911,-0.2336125,-0.04675,0.2134
1680009482267,1189470622271075,-0.2426875,-0.0457875,0.2173875
1680009482269,1189470624773229,-0.2495625,-0.0477125,0.2204125
1680009482272,1189470627275383,-0.251625,-0.0457875,0.221375
1680009482274,1189470629777537,-0.2556125,-0.0367125,0.221375
1680009482277,1189470632279672,-0.257675,-0.0347875,0.227425
1680009482279,1189470634781902,-0.25959998,-0.0297,0.22935
1680009482285,1189470637284287,-0.2605625,-0.0207625,0.232375
1680009482285,1189470639786441,-0.2616625,-0.01375,0.2344375
1680009482287,1189470642288566,-0.2605625,-0.005775,0.23539999
1680009482292,1189470644790720,-0.256575,-6.875E-4,0.238425
1680009482294,1189470647292873,-0.2556125,0.0182875,0.238425
1680009482296,1189470649795104,-0.2495625,0.033275,0.23539999
1680009482301,1189470652297229,-0.24365,0.0462,0.2314125
1680009482303,1189470654799614,-0.2385625,0.0572,0.23045
1680009482304,1189470657301767,-0.2286625,0.0732875,0.2264625
1680009482305,1189470659803921,-0.2206875,0.0873125,0.2204125
1680009482307,1189470662306075,-0.212575,0.100237496,0.2173875
1680009482309,1189470664808215,-0.207625,0.111237496,0.2094125
1680009482312,1189470667310446,-0.2036375,0.1192125,0.1984125
1680009482315,1189470669812600,-0.1956625,0.127325,0.1934625
1680009482320,1189470672314984,-0.1945625,0.1332375,0.1843875
1680009482322,1189470674817133,-0.1896125,0.1392875,0.177375
1680009482323,1189470677319287,-0.1846625,0.1442375,0.1694
1680009482325,1189470679821441,-0.17765,0.1502875,0.161425
1680009482327,1189470682323672,-0.1736625,0.1502875,0.15345
1680009482332,1189470684825825,-0.1676125,0.1502875,0.144375
1680009482333,1189470687328210,-0.163625,0.1463,0.139425
1680009482336,1189470689830133,-0.1645875,0.1452,0.1364
1680009482338,1189470692332518,-0.16665,0.14025,0.13035
1680009482340,1189470694834672,-0.1645875,0.1342,0.1214125
1680009482342,1189470697336902,-0.1706375,0.1313125,0.11935
1680009482345,1189470699839056,-0.1716,0.127325,0.113437496
1680009482353,1189470702341210,-0.1766875,0.116325,0.1104125
1680009482355,1189470704843595,-0.18259999,0.105325,0.1054625
1680009482356,1189470707345749,-0.1865875,0.0983125,0.106425
1680009482358,1189470709847902,-0.1936,0.0902,0.1043625
1680009482359,1189470712350056,-0.2006125,0.0803,0.1013375
1680009482361,1189470714852287,-0.2046,0.0622875,0.1034
1680009482362,1189470717354441,-0.2096875,0.050325,0.09845
1680009482364,1189470719856595,-0.218625,0.0372625,0.102437496
1680009482367,1189470722358979,-0.2226125,0.0253,0.102437496
1680009482370,1189470724861133,-0.223575,0.0103124995,0.102437496
1680009482374,1189470727363301,-0.23265,-0.0017875,0.1043625
1680009482377,1189470729865532,-0.2376,-0.0177375,0.1073875
1680009482378,1189470732367686,-0.2426875,-0.038775,0.10945
1680009482381,1189470734869840,-0.2476375,-0.0407,0.1104125
1680009482383,1189470737371993,-0.2536875,-0.0446875,0.1104125
1680009482386,1189470739874147,-0.267575,-0.0517,0.1164625
1680009482387,1189470742376532,-0.273625,-0.060775,0.122375
1680009482391,1189470744878763,-0.278575,-0.06875,0.13035
1680009482393,1189470747380917,-0.289575,-0.076725,0.1373625
1680009482395,1189470749883061,-0.2996125,-0.0847,0.144375
1680009482397,1189470752385215,-0.306625,-0.087725,0.15235
1680009482402,1189470754887369,-0.311575,-0.093775,0.1584
1680009482403,1189470757389523,-0.3106125,-0.0947375,0.1654125
1680009482405,1189470759891908,-0.30965,-0.0897875,0.17435
1680009482407,1189470762394138,-0.30965,-0.0867625,0.1804
1680009482412,1189470764896292,-0.30965,-0.082775,0.18535
1680009482414,1189470767398446,-0.311575,-0.073699996,0.18645
1680009482415,1189470769900614,-0.3075875,-0.0697125,0.188375
1680009482418,1189470772402768,-0.3036,-0.0617375,0.188375
1680009482421,1189470774905152,-0.2996125,-0.038775,0.18933749
1680009482422,1189470777407306,-0.29865,-0.0287375,0.18645
1680009482425,1189470779909537,-0.2926,-0.015675,0.1804
1680009482427,1189470782411691,-0.28765,-0.004675,0.1804
1680009482433,1189470784913845,-0.2836625,0.0042625,0.17545
1680009482434,1189470787415999,-0.279675,0.0202125,0.172425
1680009482436,1189470789918152,-0.2726625,0.033275,0.1703625
1680009482438,1189470792420614,-0.267575,0.0462,0.1604625
1680009482441,1189470794922691,-0.2605625,0.060225,0.1584
1680009482443,1189470797424922,-0.25465,0.071225,0.155375
1680009482445,1189470799927075,-0.2476375,0.0842875,0.14739999
1680009482450,1189470802429205,-0.2426875,0.094325,0.1464375
1680009482454,1189470804931359,-0.2426875,0.104225,0.14245
1680009482455,1189470807433744,-0.2376,0.1172875,0.1373625
1680009482456,1189470809935898,-0.2366375,0.1282875,0.1343375
1680009482458,1189470812438128,-0.2385625,0.138325,0.13035
1680009482461,1189470814940186,-0.23567499,0.1472625,0.1293875
1680009482462,1189470817442417,-0.229625,0.1522125,0.1293875
1680009482465,1189470819944571,-0.2305875,0.1552375,0.128425
1680009482469,1189470822446956,-0.23265,0.159225,0.1274625
1680009482471,1189470824949133,-0.2256375,0.1612875,0.1274625
1680009482473,1189470827451287,-0.2206875,0.16225,0.1263625
1680009482475,1189470829953518,-0.22165,0.1632125,0.128425
1680009482477,1189470832455595,-0.218625,0.160325,0.1263625
1680009482481,1189470834957835,-0.21367499,0.160325,0.128425
1680009482482,1189470837460219,-0.2165625,0.1573,0.13145
1680009482486,1189470839962373,-0.2165625,0.148225,0.1343375
1680009482488,1189470842464527,-0.212575,0.1442375,0.1354375
1680009482490,1189470844966681,-0.212575,0.138325,0.1373625
1680009482492,1189470847468907,-0.2156,0.1313125,0.139425
1680009482495,1189470849971061,-0.2176625,0.127325,0.1434125
1680009482497,1189470852473214,-0.2206875,0.1203125,0.14533749
1680009482503,1189470854975609,-0.2206875,0.1142625,0.1483625
1680009482506,1189470857477763,-0.2256375,0.099275,0.1544125
1680009482507,1189470859979917,-0.2305875,0.0902,0.1604625
1680009482508,1189470862482071,-0.23567499,0.088275,0.1654125
1680009482511,1189470864984210,-0.2396625,0.0862125,0.1703625
1680009482513,1189470867486441,-0.2426875,0.0763125,0.17435
1680009482514,1189470869988826,-0.2476375,0.061325,0.177375
1680009482517,1189470872490980,-0.2525875,0.0532125,0.1813625
1680009482521,1189470874993134,-0.25465,0.038225,0.188375
1680009482526,1189470877495306,-0.2536875,0.01925,0.18933749
1680009482527,1189470879997460,-0.2525875,0.0182875,0.1923625
1680009482528,1189470882499614,-0.251625,0.022275,0.1904375
1680009482531,1189470885001845,-0.251625,0.0132,0.1923625
1680009482533,1189470887504230,-0.2525875,0.00825,0.1923625
1680009482535,1189470890006172,-0.2525875,-0.0017875,0.1984125
1680009482537,1189470892508325,-0.2476375,-0.0088,0.1984125
1680009482542,1189470895010787,-0.246675,-0.0067375,0.2003375
1680009482543,1189470897512941,-0.2446125,-0.005775,0.2024
1680009482545,1189470900015095,-0.2446125,-0.0037125,0.2044625
1680009482547,1189470902517249,-0.2426875,0.0022,0.205425
1680009482551,1189470905019402,-0.2396625,0.005225,0.2044625
1680009482553,1189470907521556,-0.2366375,0.005225,0.2033625
1680009482554,1189470910023941,-0.234575,0.0182875,0.2003375
1680009482557,1189470912526095,-0.2305875,0.0242,0.19745
1680009482563,1189470915028326,-0.22659999,0.0372625,0.194425
1680009482565,1189470917530479,-0.2195875,0.0452375,0.1934625
1680009482567,1189470920032647,-0.212575,0.055275,0.188375
1680009482572,1189470922534801,-0.2085875,0.069299996,0.1783375
1680009482575,1189470925037186,-0.202675,0.091299996,0.1703625
1680009482577,1189470927539340,-0.1936,0.105325,0.1574375
1680009482579,1189470930041493,-0.18865,0.116325,0.14135
1680009482581,1189470932543710,-0.180675,0.132275,0.124437496
1680009482583,1189470935045864,-0.174625,0.138325,0.1054625
1680009482584,1189470937548018,-0.168575,0.149325,0.091437496
1680009482586,1189470940050172,-0.1645875,0.154275,0.078375
1680009482588,1189470942552546,-0.1596375,0.1533125,0.0633875
1680009482591,1189470945054700,-0.1535875,0.1533125,0.051425
1680009482592,1189470947556854,-0.1516625,0.1573,0.040425
1680009482596,1189470950059008,-0.1505625,0.154275,0.03135
1680009482602,1189470952561230,-0.1436875,0.1472625,0.0303875
1680009482604,1189470955063384,-0.13859999,0.1412125,0.0243375
1680009482604,1189470957565768,-0.1296625,0.1392875,0.02035
1680009482606,1189470960067922,-0.1236125,0.1282875,0.02145
1680009482607,1189470962570076,-0.1166,0.122237496,0.02035
1680009482613,1189470965072214,-0.1076625,0.116325,0.023375
1680009482613,1189470967574368,-0.102575,0.1122,0.0254375
1680009482615,1189470970076598,-0.0946,0.1023,0.0264
1680009482621,1189470972578983,-0.092675,0.099275,0.032449998
1680009482622,1189470975081176,-0.08965,0.094325,0.0383625
1680009482623,1189470977583330,-0.0875875,0.08525,0.043449998
1680009482625,1189470980085484,-0.0886875,0.0812625,0.0484
1680009482627,1189470982587637,-0.0875875,0.0842875,0.051425
1680009482631,1189470985089868,-0.081675,0.0812625,0.054449998
1680009482633,1189470987592051,-0.0765875,0.07425,0.0573375
1680009482638,1189470990094436,-0.075625,0.071225,0.056375
1680009482639,1189470992596589,-0.075625,0.066275,0.0523875
1680009482641,1189470995098743,-0.0716375,0.060225,0.0554125
1680009482643,1189470997600892,-0.0686125,0.050325,0.051425
1680009482644,1189471000103046,-0.06765,0.0452375,0.043449998
1680009482647,1189471002605277,-0.0625625,0.0312125,0.0413875
1680009482652,1189471005107431,-0.0616,0.0253,0.0364375
1680009482653,1189471007609556,-0.0625625,0.01925,0.0334125
1680009482655,1189471010111940,-0.0616,0.005225,0.0264
1680009482658,1189471012614094,-0.064625,-6.875E-4,0.0243375
1680009482660,1189471015116248,-0.0686125,-0.010725,0.0224125
1680009482662,1189471017618402,-0.06765,-0.0207625,0.0193875
1680009482665,1189471020120641,-0.0705375,-0.027775,0.02035
1680009482669,1189471022623026,-0.069575,-0.0336875,0.0193875
1680009482671,1189471025124949,-0.0705375,-0.043725,0.018424999
1680009482674,1189471027627334,-0.0705375,-0.04675,0.0243375
1680009482675,1189471030129488,-0.069575,-0.0567875,0.0273625
1680009482677,1189471032631642,-0.0705375,-0.0587125,0.029424999
1680009482682,1189471035133872,-0.069575,-0.0627,0.032449998
1680009482683,1189471037636026,-0.0686125,-0.0636625,0.0334125
1680009482686,1189471040138180,-0.069575,-0.0647625,0.0383625
1680009482688,1189471042640565,-0.069575,-0.0677875,0.043449998
1680009482692,1189471045142488,-0.069575,-0.0666875,0.045375
1680009482695,1189471047644877,-0.0625625,-0.065725,0.0484
1680009482696,1189471050147108,-0.06765,-0.0666875,0.0554125
1680009482697,1189471052649262,-0.06655,-0.0666875,0.0554125
1680009482704,1189471055151416,-0.064625,-0.0666875,0.0573375
1680009482704,1189471057653570,-0.0636625,-0.0647625,0.0603625
1680009482706,1189471060155921,-0.0625625,-0.0666875,0.0603625
1680009482708,1189471062657844,-0.0616,-0.0647625,0.0614625
1680009482714,1189471065160306,-0.05555,-0.0636625,0.0584375
1680009482715,1189471067662460,-0.0526625,-0.059675,0.0554125
1680009482717,1189471070164613,-0.047575,-0.0617375,0.0594
1680009482718,1189471072666766,-0.0435875,-0.0636625,0.0573375
1680009482721,1189471075168920,-0.0405625,-0.0526625,0.0554125
1680009482723,1189471077671074,-0.0396,-0.048675,0.05335
1680009482725,1189471080173459,-0.0416625,-0.04675,0.0523875
1680009482729,1189471082675609,-0.0386375,-0.03575,0.0523875
1680009482732,1189471085177839,-0.0386375,-0.0336875,0.05335
1680009482733,1189471087679993,-0.042625,-0.0336875,0.054449998
1680009482735,1189471090182147,-0.042625,-0.0257125,0.05335
1680009482738,1189471092684301,-0.042625,-0.021724999,0.056375
1680009482741,1189471095186469,-0.042625,-0.016775,0.0554125
1680009482742,1189471097688930,-0.0416625,-0.0127875,0.056375
1680009482745,1189471100191007,-0.0386375,-0.0116875,0.0584375
1680009482751,1189471102693238,-0.0356125,-0.004675,0.0603625
1680009482759,1189471105195392,-0.0356125,-0.0017875,0.0594
1680009482760,1189471107697546,-0.034649998,-0.004675,0.0614625
1680009482760,1189471110199700,-0.03355,0.0023375,0.0594
1680009482760,1189471112702084,-0.0306625,0.0042625,0.0594
1680009482761,1189471115204214,-0.0286,0.011275,0.0664125
1680009482763,1189471117706445,-0.0295625,0.0133375,0.0633875
1680009482765,1189471120208522,-0.0265375,0.01925,0.06435
1680009482767,1189471122710753,-0.0306625,0.027224999,0.0664125
1680009482770,1189471125212901,-0.0295625,0.03025,0.06435
1680009482772,1189471127715286,-0.0286,0.033275,0.0633875
1680009482775,1189471130217440,-0.0306625,0.0363,0.0683375
1680009482777,1189471132719594,-0.036575,0.0402875,0.06545
1680009482781,1189471135221748,-0.0416625,0.0532125,0.06545
1680009482782,1189471137723978,-0.042625,0.0562375,0.0664125
1680009482786,1189471140226055,-0.0466125,0.060225,0.06435
1680009482788,1189471142728517,-0.0545875,0.061325,0.0633875
1680009482790,1189471145230657,-0.0576125,0.0642125,0.0664125
1680009482792,1189471147732811,-0.0606375,0.0642125,0.0664125
1680009482794,1189471150234964,-0.0625625,0.0653125,0.0664125
1680009482797,1189471152737118,-0.064625,0.066275,0.073425
1680009482801,1189471155239349,-0.0686125,0.0653125,0.0743875
1680009482802,1189471157741445,-0.0726,0.066275,0.0774125
1680009482805,1189471160243907,-0.0746625,0.0653125,0.0814
1680009482807,1189471162746060,-0.0726,0.0642125,0.084425
1680009482811,1189471165248214,-0.0705375,0.072325,0.0884125
1680009482812,1189471167750373,-0.0726,0.07425,0.0944625
1680009482815,1189471170252527,-0.0705375,0.0763125,0.0963875
1680009482818,1189471172754681,-0.0716375,0.07425,0.09735
1680009482821,1189471175257142,-0.0765875,0.07425,0.1013375
1680009482826,1189471177759079,-0.080575,0.0642125,0.1013375
1680009482827,1189471180261464,-0.0875875,0.049225,0.102437496
1680009482828,1189471182763618,-0.0875875,0.069299996,0.102437496
1680009482831,1189471185265772,-0.0875875,0.0812625,0.1034
1680009482833,1189471187767926,-0.0955625,0.082225,0.09845
1680009482838,1189471190270156,-0.097625,0.082225,0.09845
1680009482838,1189471192772310,-0.10065,0.08525,0.0963875
1680009482841,1189471195274695,-0.1035375,0.091299996,0.0933625
1680009482842,1189471197776618,-0.1056,0.0972125,0.0924
1680009482845,1189471200279003,-0.1056,0.1032625,0.0853875
1680009482847,1189471202781146,-0.1076625,0.105325,0.0793375
1680009482852,1189471205283377,-0.1076625,0.105325,0.07645
1680009482853,1189471207785531,-0.1065625,0.1142625,0.073425
1680009482855,1189471210287685,-0.108625,0.115225,0.0664125
1680009482858,1189471212789849,-0.1065625,0.1192125,0.0603625
1680009482862,1189471215292233,-0.108625,0.1343375,0.0573375
1680009482864,1189471217794464,-0.1056,0.138325,0.054449998
1680009482866,1189471220296541,-0.1056,0.1463,0.0484
1680009482868,1189471222798772,-0.1076625,0.1552375,0.0484
1680009482871,1189471225300921,-0.102575,0.1632125,0.0474375
1680009482873,1189471227803075,-0.0946,0.1683,0.04235
1680009482874,1189471230305459,-0.093637496,0.1802625,0.040425
1680009482877,1189471232807613,-0.08855,0.18727499,0.0364375
1680009482881,1189471235309786,-0.0845625,0.19525,0.0303875
1680009482883,1189471237812017,-0.0815375,0.2013,0.0273625
1680009482885,1189471240314170,-0.0765875,0.2123,0.0224125
1680009482887,1189471242816324,-0.0705375,0.2182125,0.0133375
1680009482891,1189471245318478,-0.069575,0.2193125,0.0053625
1680009482893,1189471247820863,-0.069575,0.2233,-0.0026125
1680009482895,1189471250323017,-0.0686125,0.22825,-0.009625
1680009482899,1189471252825170,-0.06765,0.2292125,-0.0166375
1680009482903,1189471255327401,-0.0726,0.2303125,-0.0246125
1680009482904,1189471257829478,-0.0735625,0.236225,-0.0295625
1680009482905,1189471260331709,-0.0796125,0.2343,-0.03355
1680009482908,1189471262834094,-0.086625,0.2223375,-0.0375375
1680009482911,1189471265336228,-0.0906125,0.2193125,-0.0356125
1680009482912,1189471267838382,-0.0966625,0.21133749,-0.0386375
1680009482915,1189471270340536,-0.1016125,0.2013,-0.0375375
1680009482920,1189471272842695,-0.108625,0.193325,-0.0375375
1680009482922,1189471275344926,-0.1126125,0.182325,-0.0356125
1680009482923,1189471277847080,-0.1145375,0.170225,-0.034649998
1680009482925,1189471280349464,-0.119625,0.1612875,-0.0306625
1680009482927,1189471282851618,-0.12265,0.148225,-0.025575
1680009482931,1189471285353800,-0.12155,0.137225,-0.0246125
1680009482933,1189471287855954,-0.1236125,0.126225,-0.02255
1680009482937,1189471290358108,-0.1276,0.111237496,-0.020624999
1680009482938,1189471292860338,-0.1266375,0.1023,-0.020624999
1680009482941,1189471295362723,-0.130625,0.093225,-0.0176
1680009482942,1189471297864661,-0.1346125,0.0862125,-0.0155375
1680009482945,1189471300367046,-0.13365,0.0763125,-0.0105875
1680009482947,1189471302869200,-0.1346125,0.0683375,-0.009625
1680009482952,1189471305371353,-0.135575,0.0642125,-0.0086624995
1680009482953,1189471307873574,-0.135575,0.0622875,-0.0075625
1680009482955,1189471310375728,-0.13653749,0.061325,-0.0066
1680009482958,1189471312878113,-0.13653749,0.060225,-0.0066
1680009482961,1189471315380282,-0.1376375,0.052249998,-0.0045375
1680009482963,1189471317882435,-0.13653749,0.0482625,-0.0056375
1680009482965,1189471320384589,-0.13859999,0.0473,-0.0086624995
1680009482969,1189471322886743,-0.1406625,0.044275,-0.009625
1680009482971,1189471325388945,-0.135575,0.0473,-0.0086624995
1680009482976,1189471327891099,-0.135575,0.0402875,-0.009625
1680009482978,1189471330393253,-0.1346125,0.0363,-0.01265
1680009482978,1189471332895637,-0.13859999,0.0372625,-0.013612499
1680009482981,1189471335397560,-0.13859999,0.0363,-0.0155375
1680009482983,1189471337899940,-0.13859999,0.0323125,-0.0155375
1680009482986,1189471340402171,-0.1376375,0.03025,-0.0185625
1680009482988,1189471342904325,-0.13365,0.0292875,-0.0196625
1680009482991,1189471345406478,-0.13365,0.0292875,-0.0196625
1680009482993,1189471347908661,-0.1315875,0.027224999,-0.0196625
1680009482995,1189471350410815,-0.1296625,0.027224999,-0.01265
1680009483000,1189471352913200,-0.1315875,0.0323125,-0.01155
1680009483003,1189471355415431,-0.1296625,0.028324999,-0.0166375
1680009483004,1189471357917594,-0.1255375,0.0232375,-0.01265
1680009483005,1189471360419748,-0.1255375,0.0202125,-0.0105875
1680009483007,1189471362921902,-0.1205875,0.016224999,-0.0086624995
1680009483012,1189471365424056,-0.1186625,0.017324999,-0.009625
1680009483014,1189471367926219,-0.1166,0.0143,-0.0075625
1680009483016,1189471370428680,-0.1126125,0.0072875,-0.0045375
1680009483018,1189471372930757,-0.1095875,0.0023375,-0.0026125
1680009483021,1189471375432988,-0.108625,-0.0017875,-0.00165
1680009483023,1189471377935147,-0.1056,-0.0086624995,-5.5E-4
1680009483025,1189471380437301,-0.1065625,-0.010725,-5.5E-4
1680009483028,1189471382939455,-0.1076625,-0.010725,-5.5E-4
1680009483031,1189471385441608,-0.108625,-0.0116875,4.125E-4
1680009483033,1189471387943993,-0.1076625,-0.0077,0.0044
1680009483036,1189471390446238,-0.1065625,-0.0077,0.0044
1680009483038,1189471392948315,-0.108625,-0.0037125,0.007425
1680009483041,1189471395450546,-0.1076625,-6.875E-4,0.01045
1680009483043,1189471397952699,-0.1095875,-0.0017875,0.0083875
1680009483045,1189471400454868,-0.108625,-0.0017875,0.0114124995
1680009483049,1189471402957253,-0.11055,0.0012375,0.0144375
1680009483053,1189471405459407,-0.1126125,0.006325,0.0163625
1680009483054,1189471407961551,-0.1095875,0.011275,0.02035
1680009483056,1189471410463781,-0.11165,0.017324999,0.02035
1680009483058,1189471412965858,-0.11165,0.01925,0.0224125
1680009483061,1189471415468089,-0.11165,0.0243375,0.023375
1680009483063,1189471417970474,-0.1126125,0.0323125,0.0273625
1680009483065,1189471420472628,-0.113575,0.038225,0.03135
1680009483069,1189471422974781,-0.11055,0.038225,0.0353375
1680009483071,1189471425476935,-0.108625,0.039325,0.0374
1680009483073,1189471427979166,-0.108625,0.044275,0.040425
1680009483077,1189471430481233,-0.11055,0.0433125,0.043449998
1680009483079,1189471432983694,-0.1076625,0.0452375,0.0493625
1680009483081,1189471435485848,-0.1065625,0.0512875,0.05335
1680009483083,1189471437988002,-0.104637496,0.055275,0.0573375
1680009483087,1189471440490147,-0.1016125,0.055275,0.0614625
1680009483089,1189471442992301,-0.09955,0.0622875,0.0614625
1680009483091,1189471445494455,-0.0955625,0.06325,0.062425
1680009483093,1189471447996916,-0.08965,0.0622875,0.06435
1680009483095,1189471450498839,-0.0856625,0.06325,0.0664125
1680009483099,1189471453001190,-0.0815375,0.066275,0.06545
1680009483102,1189471455503344,-0.07865,0.0683375,0.06545
1680009483103,1189471458005498,-0.0726,0.0653125,0.062425
1680009483105,1189471460507652,-0.0705375,0.0683375,0.062425
1680009483110,1189471463009771,-0.06765,0.069299996,0.0633875
1680009483112,1189471465512002,-0.06765,0.072325,0.0584375
1680009483114,1189471468014387,-0.0625625,0.07425,0.056375
1680009483116,1189471470516541,-0.056649998,0.077275,0.054449998
1680009483120,1189471473018694,-0.053625,0.07425,0.0554125
1680009483122,1189471475520848,-0.0485375,0.0732875,0.0554125
1680009483124,1189471478023002,-0.045649998,0.072325,0.05335
1680009483126,1189471480525233,-0.0416625,0.0672375,0.0493625
1680009483128,1189471483027387,-0.0375375,0.0683375,0.051425
1680009483131,1189471485529767,-0.0375375,0.061325,0.0484
1680009483133,1189471488031691,-0.0356125,0.0562375,0.0474375
1680009483136,1189471490534075,-0.0306625,0.050325,0.0474375
1680009483139,1189471493036229,-0.0286,0.044275,0.0493625
1680009483141,1189471495538464,-0.0276375,0.039325,0.051425
1680009483143,1189471498040618,-0.0246125,0.0342375,0.05335
1680009483145,1189471500542771,-0.0215875,0.027224999,0.0554125
1680009483148,1189471503044925,-0.020624999,0.022275,0.0584375
1680009483153,1189471505547315,-0.0185625,0.0182875,0.0594
1680009483156,1189471508049238,-0.0166375,0.0103124995,0.0603625
1680009483157,1189471510551700,-0.013612499,0.0022,0.0664125
1680009483159,1189471513053853,-0.013612499,-6.875E-4,0.0683375
1680009483162,1189471515555988,-0.0116875,-0.0067375,0.06545
1680009483165,1189471518058142,-0.0075625,-0.0127875,0.0683375
1680009483166,1189471520560296,-0.0056375,-0.0177375,0.06545
1680009483169,1189471523062681,-0.0066,-0.02475,0.0683375
1680009483172,1189471525564834,-0.0075625,-0.027775,0.0633875
1680009483176,1189471528066978,-0.0075625,-0.0317625,0.06435
1680009483177,1189471530569132,-0.004675,-0.0407,0.06435
1680009483179,1189471533071286,-0.0075625,-0.0418,0.0603625
1680009483181,1189471535573748,-0.0075625,-0.0427625,0.0584375
1680009483182,1189471538075906,-0.0105875,-0.0517,0.056375
1680009483186,1189471540578060,-0.014575,-0.0507375,0.056375
1680009483188,1189471543080214,-0.0185625,-0.05775,0.0594
1680009483191,1189471545582368,-0.0196625,-0.0627,0.0573375
1680009483193,1189471548084508,-0.020624999,-0.060775,0.056375
1680009483195,1189471550586662,-0.0246125,-0.0647625,0.0594
1680009483199,1189471553089123,-0.0295625,-0.0647625,0.0614625
1680009483203,1189471555591046,-0.031625,-0.0587125,0.0614625
1680009483204,1189471558093411,-0.034649998,-0.0567875,0.0614625
1680009483206,1189471560595565,-0.037675,-0.054725,0.0603625
1680009483208,1189471563097719,-0.036575,-0.0537625,0.062425
1680009483211,1189471565599872,-0.031625,-0.0507375,0.0614625
1680009483213,1189471568102103,-0.0295625,-0.0418,0.0603625
1680009483215,1189471570604228,-0.0246125,-0.0336875,0.0554125
1680009483219,1189471573106613,-0.0176,-0.0198,0.051425
1680009483221,1189471575608536,-0.0166375,-0.0177375,0.0444125
1680009483223,1189471578110920,-0.0086624995,-0.0088,0.043449998
1680009483225,1189471580613074,0.0023375,0.0012375,0.0364375
1680009483228,1189471583115305,0.0053625,0.005225,0.029424999
1680009483232,1189471585617459,0.0103124995,0.015262499,0.02145
1680009483233,1189471588119609,0.018424999,0.0242,0.0133375
1680009483237,1189471590621993,0.0224125,0.028324999,0.0114124995
1680009483239,1189471593123916,0.0243375,0.039325,0.0064625
1680009483241,1189471595626301,0.0254375,0.0452375,4.125E-4
1680009483243,1189471598128532,0.0254375,0.0482625,-0.0075625
1680009483245,1189471600630700,0.0264,0.0482625,-0.0105875
1680009483247,1189471603132854,0.028324999,0.0482625,-0.0105875
1680009483251,1189471605635007,0.0264,0.050325,-0.0155375
1680009483253,1189471608137161,0.0243375,0.049225,-0.01265
1680009483256,1189471610639541,0.0243375,0.0462,-0.013612499
1680009483258,1189471613141464,0.0224125,0.0462,-0.0166375
1680009483262,1189471615643926,0.023375,0.0352,-0.013612499
1680009483263,1189471618146079,0.0193875,0.028324999,-0.0105875
1680009483266,1189471620648272,0.0133375,0.0182875,-0.01155
1680009483268,1189471623150426,0.012375,0.0072875,-0.009625
1680009483271,1189471625652580,0.0114124995,-0.00275,-0.0045375
1680009483274,1189471628154965,0.007425,-0.0127875,-0.00165
1680009483276,1189471630657233,0.0053625,-0.0177375,0.0023375
1680009483278,1189471633159387,0.0034375,-0.026675,0.0044
1680009483281,1189471635661541,0.0023375,-0.037675,0.0064625
1680009483284,1189471638163695,-0.0026125,-0.048675,0.0144375
1680009483286,1189471640665849,-0.0086624995,-0.05775,0.0163625
1680009483289,1189471643167998,-0.0116875,-0.0617375,0.0224125
1680009483291,1189471645670382,-0.014575,-0.0617375,0.0273625
1680009483292,1189471648172613,-0.020624999,-0.0666875,0.03135
1680009483295,1189471650674690,-0.0246125,-0.0666875,0.0334125
1680009483298,1189471653176936,-0.0306625,-0.065725,0.0383625
1680009483301,1189471655679090,-0.031625,-0.0647625,0.0413875
1680009483302,1189471658181243,-0.0336875,-0.0587125,0.043449998
1680009483305,1189471660683628,-0.036575,-0.0477125,0.043449998
1680009483307,1189471663185782,-0.0396,-0.038775,0.043449998
1680009483312,1189471665687936,-0.0435875,-0.032725,0.043449998
1680009483314,1189471668190166,-0.045649998,-0.0237875,0.04235
1680009483315,1189471670692243,-0.0416625,-0.010725,0.043449998
1680009483322,1189471673194440,-0.042625,0.0012375,0.0383625
1680009483323,1189471675696825,-0.0416625,0.016224999,0.0383625
1680009483324,1189471678198979,-0.0396,0.0312125,0.0364375
1680009483326,1189471680701133,-0.0396,0.0402875,0.032449998
1680009483328,1189471683203286,-0.0396,0.0473,0.0273625
1680009483331,1189471685705522,-0.0396,0.039325,0.02145
1680009483333,1189471688207676,-0.036575,0.0512875,0.02035
1680009483337,1189471690709753,-0.034649998,0.0842875,0.0154
1680009483339,1189471693212214,-0.0356125,0.0952875,0.01045
1680009483341,1189471695714372,-0.0356125,0.0952875,0.007425
1680009483343,1189471698216526,-0.0306625,0.0983125,0.0023375
1680009483346,1189471700718680,-0.0306625,0.1122,4.125E-4
1680009483352,1189471703220834,-0.0286,0.1142625,-0.0075625
1680009483354,1189471705723065,-0.0286,0.1142625,-0.009625
1680009483355,1189471708225219,-0.0276375,0.116325,-0.0105875
1680009483356,1189471710727603,-0.02365,0.1142625,-0.0155375
1680009483358,1189471713229757,-0.020624999,0.1122,-0.020624999
1680009483361,1189471715731921,-0.0226875,0.1062875,-0.0246125
1680009483363,1189471718234075,-0.0185625,0.104225,-0.0286
1680009483365,1189471720736229,-0.0166375,0.09625,-0.0276375
1680009483370,1189471723238459,-0.014575,0.0873125,-0.03355
1680009483372,1189471725740830,-0.015675,0.0782375,-0.0396
1680009483376,1189471728242753,-0.0166375,0.0642125,-0.042625
1680009483380,1189471730745138,-0.015675,0.0532125,-0.045649998
1680009483380,1189471733247291,-0.015675,0.041249998,-0.045649998
1680009483380,1189471735749445,-0.0185625,0.03025,-0.04455
1680009483383,1189471738251690,-0.0196625,0.017324999,-0.0506
1680009483386,1189471740753844,-0.020624999,0.005225,-0.045649998
1680009483388,1189471743255998,-0.025575,-0.0017875,-0.0435875
1680009483392,1189471745758382,-0.0295625,-0.0127875,-0.042625
1680009483393,1189471748260560,-0.031625,-0.0257125,-0.0386375
1680009483396,1189471750762714,-0.0306625,-0.0317625,-0.0356125
1680009483397,1189471753264945,-0.031625,-0.037675,-0.03355
1680009483402,1189471755767099,-0.0336875,-0.0457875,-0.0286
1680009483403,1189471758269253,-0.037675,-0.054725,-0.0246125
1680009483406,1189471760771416,-0.0396,-0.0587125,-0.0246125
1680009483408,1189471763273801,-0.0396,-0.059675,-0.02365
1680009483411,1189471765775724,-0.0435875,-0.0647625,-0.0215875
1680009483413,1189471768278094,-0.0435875,-0.0638,-0.020624999
1680009483416,1189471770780325,-0.045649998,-0.0627,-0.0185625
1680009483420,1189471773282478,-0.0515625,-0.0627,-0.0155375
1680009483421,1189471775784632,-0.0526625,-0.060775,-0.0155375
1680009483426,1189471778286801,-0.053625,-0.054725,-0.009625
1680009483427,1189471780788955,-0.0556875,-0.049775,-0.0075625
1680009483429,1189471783291340,-0.0556875,-0.0427625,-0.0075625
1680009483432,1189471785793493,-0.0616,-0.0367125,-0.0075625
1680009483434,1189471788295724,-0.0616,-0.032725,-0.003575
1680009483436,1189471790797877,-0.0606375,-0.021724999,-0.0026125
1680009483438,1189471793300031,-0.0616,-0.016775,-0.0066
1680009483441,1189471795802185,-0.0616,-0.0067375,-0.0045375
1680009483443,1189471798304339,-0.0616,0.0012375,-0.0056375
1680009483445,1189471800806704,-0.059675,0.0072875,-0.0075625
1680009483448,1189471803308858,-0.0576125,0.0122375,-0.0066
1680009483452,1189471805811089,-0.058575,0.0182875,-0.0086624995
1680009483453,1189471808313243,-0.058575,0.0213125,-0.01155
1680009483455,1189471810815422,-0.0556875,0.028324999,-0.01265
1680009483458,1189471813317575,-0.0545875,0.0342375,-0.01265
1680009483462,1189471815819960,-0.0515625,0.038225,-0.0176
1680009483464,1189471818322114,-0.053625,0.0462,-0.0155375
1680009483465,1189471820824336,-0.0506,0.044275,-0.0155375
1680009483469,1189471823326413,-0.047575,0.049225,-0.0166375
1680009483471,1189471825828643,-0.045649998,0.052249998,-0.0196625
1680009483473,1189471828330797,-0.042625,0.0543125,-0.0196625
1680009483475,1189471830832955,-0.0356125,0.0543125,-0.020624999
1680009483478,1189471833335340,-0.0295625,0.0543125,-0.02365
1680009483481,1189471835837494,-0.0246125,0.052249998,-0.025575
1680009483483,1189471838339647,-0.0246125,0.0543125,-0.0295625
1680009483486,1189471840841874,-0.026675,0.0532125,-0.034649998
1680009483488,1189471843344028,-0.025575,0.049225,-0.0375375
1680009483491,1189471845846413,-0.025575,0.050325,-0.0375375
1680009483493,1189471848348336,-0.0306625,0.0482625,-0.0386375
1680009483495,1189471850850720,-0.0306625,0.049225,-0.0386375
1680009483499,1189471853352864,-0.0286,0.0512875,-0.0356125
1680009483502,1189471855855018,-0.031625,0.052249998,-0.036575
1680009483504,1189471858357249,-0.031625,0.052249998,-0.036575
1680009483505,1189471860859403,-0.0286,0.049225,-0.0375375
1680009483508,1189471863361787,-0.026675,0.0512875,-0.03355
1680009483511,1189471865863691,-0.0276375,0.052249998,-0.036575
1680009483513,1189471868366076,-0.0286,0.0512875,-0.0375375
1680009483515,1189471870868230,-0.026675,0.049225,-0.036575
1680009483519,1189471873370461,-0.025575,0.0512875,-0.0356125
1680009483522,1189471875872615,-0.0286,0.055275,-0.0375375
1680009483523,1189471878374768,-0.0356125,0.052249998,-0.0375375
1680009483528,1189471880876922,-0.0356125,0.050325,-0.034649998
1680009483529,1189471883379307,-0.0356125,0.049225,-0.03355
1680009483532,1189471885881244,-0.0405625,0.049225,-0.0356125
1680009483533,1189471888383705,-0.042625,0.0462,-0.0306625
1680009483537,1189471890885859,-0.042625,0.044275,-0.0265375
1680009483538,1189471893388013,-0.042625,0.0363,-0.0276375
1680009483542,1189471895890186,-0.0446875,0.0323125,-0.0215875
1680009483543,1189471898392340,-0.0435875,0.0292875,-0.0246125
1680009483546,1189471900894494,-0.0405625,0.027224999,-0.025575
1680009483548,1189471903396955,-0.0435875,0.0232375,-0.020624999
1680009483551,1189471905899090,-0.0405625,0.0213125,-0.02255
1680009483554,1189471908401244,-0.0405625,0.015262499,-0.0215875
1680009483556,1189471910903398,-0.0386375,0.015262499,-0.0215875
1680009483558,1189471913405552,-0.0396,0.0103124995,-0.020624999
1680009483561,1189471915907706,-0.0416625,2.75E-4,-0.0196625
1680009483563,1189471918409845,-0.037675,-0.0017875,-0.02365
1680009483566,1189471920912307,-0.0386375,-0.0017875,-0.0215875
1680009483568,1189471923414384,-0.0416625,-0.0077,-0.020624999
1680009483571,1189471925916615,-0.0396,-0.005775,-0.0215875
1680009483574,1189471928418748,-0.0396,-0.0067375,-0.020624999
1680009483576,1189471930920902,-0.0386375,-0.0097624995,-0.020624999
1680009483578,1189471933423056,-0.042625,-0.0088,-0.020624999
1680009483581,1189471935925441,-0.042625,-0.0088,-0.020624999
1680009483583,1189471938427595,-0.0416625,-0.010725,-0.020624999
1680009483586,1189471940929830,-0.0446875,-0.004675,-0.020624999
1680009483588,1189471943431907,-0.048675,-0.00275,-0.0196625
1680009483591,1189471945934138,-0.047575,0.0022,-0.0215875
1680009483593,1189471948436292,-0.0446875,0.005225,-0.02255
1680009483595,1189471950938682,-0.0416625,0.00825,-0.0215875
1680009483598,1189471953440835,-0.0435875,0.011275,-0.0215875
1680009483603,1189471955942989,-0.037675,0.017324999,-0.0246125
1680009483603,1189471958445143,-0.031625,0.022275,-0.0276375
1680009483606,1189471960947282,-0.031625,0.0242,-0.0246125
1680009483608,1189471963449436,-0.0276375,0.0292875,-0.0286
1680009483613,1189471965951897,-0.025575,0.039325,-0.0286
1680009483614,1189471968454051,-0.02365,0.0402875,-0.03355
1680009483616,1189471970956205,-0.0226875,0.0462,-0.0295625
1680009483619,1189471973458359,-0.0196625,0.0473,-0.0286
1680009483621,1189471975960513,-0.0196625,0.0512875,-0.0286
1680009483623,1189471978462744,-0.0196625,0.0532125,-0.0276375
1680009483626,1189471980964887,-0.0176,0.0562375,-0.025575
1680009483628,1189471983467272,-0.013612499,0.0572,-0.02365
1680009483631,1189471985969426,-0.013612499,0.055275,-0.025575
1680009483633,1189471988471580,-0.01265,0.0532125,-0.0246125
1680009483636,1189471990973739,-0.013612499,0.0543125,-0.02255
1680009483639,1189471993475892,-0.0075625,0.0512875,-0.02255
1680009483641,1189471995978046,-0.0086624995,0.0452375,-0.020624999
1680009483643,1189471998480508,-0.003575,0.0402875,-0.0176
1680009483646,1189472000982431,-0.00165,0.028324999,-0.0185625
1680009483650,1189472003484820,-0.00165,0.01925,-0.020624999
1680009483653,1189472005986973,-0.00165,0.0132,-0.020624999
1680009483654,1189472008489127,-0.00165,0.0033,-0.0166375
1680009483656,1189472010991281,-0.00165,0.0012375,-0.0155375
1680009483660,1189472013493512,4.125E-4,-0.0067375,-0.0185625
1680009483662,1189472015995705,-0.0026125,-0.016775,-0.0196625
1680009483663,1189472018498089,-0.00165,-0.0187,-0.013612499
1680009483665,1189472021000243,0.0033,-0.0287375,-0.009625
1680009483669,1189472023502397,0.0044,-0.032725,-0.01155
1680009483671,1189472026004541,0.0053625,-0.032725,-0.0086624995
1680009483673,1189472028506772,0.006325,-0.038775,-0.00165
1680009483675,1189472031008926,0.0083875,-0.038775,0.001375
1680009483679,1189472033511079,0.012375,-0.0407,0.0023375
1680009483681,1189472036013479,0.00935,-0.0407,0.0064625
1680009483683,1189472038515402,0.012375,-0.0367125,0.0053625
1680009483687,1189472041017787,0.017324999,-0.03575,0.0034375
1680009483689,1189472043520018,0.0193875,-0.03575,0.0023375
1680009483691,1189472046022171,0.0193875,-0.032725,-0.00165
1680009483693,1189472048524325,0.0133375,-0.0268125,-0.0056375
1680009483696,1189472051026479,0.0154,-0.0297,-0.00165
1680009483701,1189472053528633,0.0143,-0.0317625,0.0034375
1680009483703,1189472056031018,0.0133375,-0.0336875,-0.00165
1680009483705,1189472058532926,0.0114124995,-0.032725,-0.0026125
1680009483706,1189472061035387,0.0114124995,-0.0347875,0.001375
1680009483708,1189472063537541,0.007425,-0.0367125,0.001375
1680009483711,1189472066039695,0.001375,-0.0347875,0.0023375
1680009483713,1189472068541835,-0.0026125,-0.0347875,-0.0026125
1680009483715,1189472071043989,-0.0077,-0.0378125,-0.0056375
1680009483718,1189472073546142,-0.0105875,-0.0317625,-0.0075625
1680009483721,1189472076048527,-0.01265,-0.0268125,-0.0105875
1680009483725,1189472078550762,-0.009625,-0.021724999,-0.0166375
1680009483727,1189472081052916,-0.0056375,-0.0237875,-0.025575
1680009483729,1189472083555070,-0.003575,-0.021724999,-0.0265375
1680009483731,1189472086057223,-0.0026125,-0.0257125,-0.0325875
1680009483733,1189472088559377,-0.00165,-0.0287375,-0.0396
1680009483736,1189472091061772,-0.0026125,-0.0308,-0.0416625
1680009483739,1189472093564003,-0.0056375,-0.0378125,-0.042625
1680009483741,1189472096066080,-0.0077,-0.043725,-0.0435875
1680009483743,1189472098568310,-0.0105875,-0.0517,-0.0435875
1680009483746,1189472101070469,-0.009625,-0.05775,-0.042625
1680009483749,1189472103572623,-0.0105875,-0.0627,-0.0416625
1680009483753,1189472106075008,-0.0105875,-0.0697125,-0.036575
1680009483754,1189472108577162,-0.01265,-0.0776875,-0.034649998
1680009483756,1189472111079310,-0.01265,-0.0787875,-0.03355
1680009483758,1189472113581541,-0.013612499,-0.0787875,-0.0325875
1680009483762,1189472116083618,-0.013612499,-0.082775,-0.034649998
1680009483764,1189472118585849,-0.015675,-0.082775,-0.034649998
1680009483766,1189472121088223,-0.014575,-0.0837375,-0.0375375
1680009483773,1189472123397680,-0.0187,-0.0858,-0.0416625
1680009483773,1189472125707377,-0.0276375,-0.0917125,-0.0466125
1680009483777,1189472128594685,-0.034649998,-0.098725,-0.0576125
1680009483779,1189472131096916,-0.0356125,-0.0928125,-0.0606375
1680009483781,1189472133598993,-0.031625,-0.0837375,-0.0606375
1680009483783,1189472136101224,-0.034649998,-0.0818125,-0.058575
1680009483784,1189472138603608,-0.0446875,-0.0787875,-0.056649998
1680009483786,1189472141105762,-0.047575,-0.07975,-0.05555
1680009483790,1189472143607916,-0.053625,-0.082775,-0.053625
1680009483792,1189472146110070,-0.059675,-0.0818125,-0.0506
1680009483794,1189472148612224,-0.070675,-0.0708125,-0.0485375
1680009483796,1189472151114454,-0.0765875,-0.0617375,-0.0485375
1680009483800,1189472153616624,-0.0847,-0.0567875,-0.045649998
1680009483804,1189472156118778,-0.0856625,-0.0507375,-0.042625
1680009483806,1189472158620932,-0.0875875,-0.0457875,-0.0416625
1680009483808,1189472161123317,-0.093637496,-0.0427625,-0.0405625
1680009483810,1189472163625470,-0.0946,-0.0367125,-0.0396
1680009483813,1189472166127710,-0.10065,-0.032725,-0.042625
1680009483814,1189472168629864,-0.11165,-0.03575,-0.0466125
1680009483816,1189472171132018,-0.117699996,-0.0297,-0.0506
1680009483818,1189472173634172,-0.12265,-0.014712499,-0.0466125
1680009483821,1189472176136312,-0.1236125,-0.0077,-0.042625
1680009483824,1189472178638773,-0.1276,-0.0037125,-0.042625
1680009483827,1189472181140850,-0.1346125,-6.875E-4,-0.045649998
1680009483830,1189472183643081,-0.1406625,2.75E-4,-0.0466125
1680009483832,1189472186145235,-0.1425875,0.0061875,-0.0485375
1680009483833,1189472188647388,-0.1535875,0.0132,-0.05555
1680009483838,1189472191149542,-0.1617,0.0182875,-0.0636625
1680009483839,1189472193651927,-0.16665,0.03025,-0.0686125
1680009483842,1189472196154100,-0.169675,0.0462,-0.0726
1680009483844,1189472198656331,-0.1755875,0.0512875,-0.0765875
1680009483846,1189472201158408,-0.17765,0.0543125,-0.0826375
1680009483849,1189472203660638,-0.180675,0.0642125,-0.0925375
1680009483854,1189472206162768,-0.185625,0.0721875,-0.0966625
1680009483855,1189472208665153,-0.18865,0.0862125,-0.1056
1680009483856,1189472211167307,-0.19167499,0.100237496,-0.113575
1680009483858,1189472213669460,-0.1956625,0.110275,-0.1236125
1680009483862,1189472216171691,-0.1975875,0.113299996,-0.1285625
1680009483864,1189472218673840,-0.19965,0.121275,-0.13653749
1680009483866,1189472221175994,-0.2046,0.1243,-0.14355
1680009483870,1189472223678148,-0.207625,0.1271875,-0.1535875
1680009483872,1189472226180532,-0.2096875,0.1381875,-0.1596375
1680009483877,1189472228682691,-0.2116125,0.137225,-0.1626625
1680009483878,1189472231184845,-0.21065,0.1392875,-0.168575
1680009483879,1189472233686999,-0.218625,0.14025,-0.1716
1680009483882,1189472236189230,-0.2195875,0.14025,-0.1736625
1680009483883,1189472238691384,-0.218625,0.137225,-0.179575
1680009483886,1189472241193778,-0.22165,0.137225,-0.1835625
1680009483889,1189472243695932,-0.2277,0.1332375,-0.18259999
1680009483892,1189472246198086,-0.2305875,0.12925,-0.18865
1680009483894,1189472248700240,-0.23265,0.1282875,-0.18865
1680009483896,1189472251202408,-0.2376,0.1192125,-0.1945625
1680009483898,1189472253704561,-0.245575,0.1122,-0.2006125
1680009483901,1189472256207023,-0.2506625,0.110275,-0.20253749
1680009483903,1189472258708946,-0.2525875,0.1023,-0.2036375
1680009483906,1189472261211331,-0.2607,0.093225,-0.20955
1680009483909,1189472263713461,-0.2666125,0.088275,-0.20955
1680009483913,1189472266215614,-0.2726625,0.082225,-0.212575
1680009483915,1189472268717768,-0.2745875,0.069299996,-0.2195875
1680009483917,1189472271220009,-0.2806375,0.0572,-0.2176625
1680009483919,1189472273722394,-0.28861248,0.0543125,-0.2195875
1680009483922,1189472276224548,-0.2946625,0.044275,-0.2195875
1680009483923,1189472278726701,-0.2965875,0.0323125,-0.22165
1680009483926,1189472281228855,-0.3026375,0.0242,-0.22165
1680009483930,1189472283731028,-0.3086875,0.016224999,-0.2195875
1680009483932,1189472286233490,-0.317625,0.0022,-0.2195875
1680009483934,1189472288735413,-0.322575,-0.0067375,-0.2195875
1680009483936,1189472291237567,-0.3295875,-0.0097624995,-0.2195875
1680009483939,1189472293739960,-0.3366,-0.0187,-0.2176625
1680009483942,1189472296241883,-0.3436125,-0.0268125,-0.2165625
1680009483944,1189472298744268,-0.3526875,-0.0336875,-0.22055
1680009483946,1189472301246422,-0.35365,-0.0378125,-0.218625
1680009483950,1189472303748682,-0.3636875,-0.043725,-0.2176625
1680009483953,1189472306250835,-0.3707,-0.0567875,-0.2176625
1680009483955,1189472308752989,-0.37565,-0.060775,-0.218625
1680009483958,1189472311255374,-0.3826625,-0.0638,-0.2146375
1680009483959,1189472313757528,-0.389675,-0.0677875,-0.2146375
1680009483961,1189472316259682,-0.3936625,-0.0677875,-0.2165625
1680009483964,1189472318761912,-0.3966875,-0.0677875,-0.2146375
1680009483966,1189472321264066,-0.4046625,-0.073699996,-0.212575
1680009483970,1189472323766220,-0.411675,-0.0776875,-0.212575
1680009483973,1189472326268384,-0.4147,-0.0757625,-0.2146375
1680009483974,1189472328770538,-0.42061248,-0.0807125,-0.2116125
1680009483976,1189472331272922,-0.4246,-0.0807125,-0.2146375
1680009483980,1189472333775153,-0.4296875,-0.0807125,-0.2116125
1680009483981,1189472336277307,-0.43559998,-0.0807125,-0.20955
1680009483984,1189472338779432,-0.44165,-0.07975,-0.207625
1680009483988,1189472341281586,-0.45265,-0.0776875,-0.2046
1680009483989,1189472343783740,-0.4596625,-0.0748,-0.2006125
1680009483992,1189472346285893,-0.465575,-0.0748,-0.1936
1680009483994,1189472348788369,-0.4725875,-0.0748,-0.1896125
1680009483996,1189472351290523,-0.4816625,-0.0697125,-0.1816375
1680009483999,1189472353792677,-0.4866125,-0.065725,-0.1706375
1680009484005,1189472356294831,-0.488675,-0.0617375,-0.16555
1680009484005,1189472358796984,-0.4926625,-0.0507375,-0.157575
1680009484006,1189472361299359,-0.499675,-0.0446875,-0.1505625
1680009484009,1189472363801282,-0.5055875,-0.0378125,-0.14355
1680009484012,1189472366303744,-0.5116375,-0.0287375,-0.13859999
1680009484014,1189472368805902,-0.515625,-0.0127875,-0.13653749
1680009484016,1189472371308056,-0.51865,-0.0067375,-0.135575
1680009484019,1189472373810210,-0.5247,0.0042625,-0.13653749
1680009484022,1189472376312364,-0.5346,0.022275,-0.135575
1680009484025,1189472378814547,-0.5416125,0.0363,-0.13653749
1680009484027,1189472381317008,-0.5526125,0.049225,-0.141625
1680009484030,1189472383819085,-0.55962497,0.0622875,-0.14355
1680009484033,1189472386321316,-0.5666375,0.077275,-0.146575
1680009484035,1189472388848998,-0.5715875,0.1023,-0.157575
1680009484037,1189472391325614,-0.5726875,0.1332375,-0.157575
1680009484039,1189472393827768,-0.576675,0.170225,-0.1606
1680009484042,1189472396330152,-0.5786,0.1992375,-0.168575
1680009484044,1189472398832383,-0.58465,0.2242625,-0.17765
1680009484048,1189472401334547,-0.587675,0.2462625,-0.1865875
1680009484052,1189472403836701,-0.5886375,0.2633125,-0.1945625
1680009484053,1189472406338855,-0.5916625,0.2762375,-0.2066625
1680009484054,1189472408841008,-0.592625,0.286275,-0.2165625
1680009484056,1189472411343379,-0.5946875,0.3031875,-0.22453749
1680009484058,1189472413845533,-0.598675,0.319275,-0.2336125
1680009484065,1189472416347687,-0.6006,0.32725,-0.2415875
1680009484065,1189472418849918,-0.6026625,0.335225,-0.2506625
1680009484067,1189472421352080,-0.6006,0.3471875,-0.25355
1680009484069,1189472423854234,-0.6026625,0.3443,-0.2586375
1680009484072,1189472426356619,-0.6026625,0.3482875,-0.262625
1680009484074,1189472428858773,-0.6006,0.35021248,-0.26565
1680009484076,1189472431360927,-0.5996375,0.346225,-0.2696375
1680009484081,1189472433863090,-0.598675,0.3471875,-0.2696375
1680009484081,1189472436365321,-0.5916625,0.346225,-0.2696375
1680009484084,1189472438867475,-0.59565,0.3403125,-0.2715625
1680009484086,1189472441369629,-0.597575,0.3342625,-0.2696375
1680009484089,1189472443872014,-0.598675,0.3232625,-0.267575
1680009484093,1189472446374181,-0.598675,0.3141875,-0.26455
1680009484094,1189472448876335,-0.6017,0.30827498,-0.26455
1680009484096,1189472451378489,-0.603625,0.2963125,-0.2616625
1680009484103,1189472453880629,-0.6045875,0.2842125,-0.2605625
1680009484104,1189472456382860,-0.609675,0.280225,-0.262625
1680009484105,1189472458885244,-0.6116,0.2682625,-0.267575
1680009484107,1189472461387398,-0.614625,0.26221249,-0.2666125
1680009484109,1189472463889552,-0.62067497,0.2552,-0.267575
1680009484112,1189472466391691,-0.6246625,0.25025,-0.2706
1680009484114,1189472468893922,-0.631675,0.2453,-0.2696375
1680009484116,1189472471396076,-0.6356625,0.2343,-0.2685375
1680009484120,1189472473898229,-0.6386875,0.2343,-0.267575
1680009484122,1189472476400364,-0.6446,0.2303125,-0.2685375
1680009484124,1189472478902749,-0.6446,0.2272875,-0.267575
1680009484126,1189472481404903,-0.641575,0.2272875,-0.267575
1680009484131,1189472483907134,-0.6436375,0.2242625,-0.26455
1680009484133,1189472486409297,-0.641575,0.2261875,-0.2605625
1680009484136,1189472488911451,-0.63965,0.2292125,-0.25959998
1680009484138,1189472491413836,-0.636625,0.2332,-0.25753748
1680009484140,1189472493915759,-0.6326375,0.2371875,-0.25355
1680009484143,1189472496418123,-0.6265875,0.2432375,-0.2506625
1680009484144,1189472498920353,-0.6237,0.2481875,-0.2486
1680009484146,1189472501422507,-0.6166875,0.253275,-0.245575
1680009484148,1189472503924661,-0.6106375,0.2572625,-0.2446125
1680009484154,1189472506426815,-0.60665,0.26427498,-0.24365
1680009484154,1189472508928969,-0.6017,0.2682625,-0.2415875
1680009484156,1189472511431123,-0.59455,0.270325,-0.2415875
1680009484159,1189472513933507,-0.58959997,0.270325,-0.2396625
1680009484162,1189472516435738,-0.58355,0.2732125,-0.2396625
1680009484163,1189472518937902,-0.5786,0.27719998,-0.2355375
1680009484166,1189472521440056,-0.57365,0.2762375,-0.23265
1680009484170,1189472523942210,-0.5666375,0.2732125,-0.2336125
1680009484173,1189472526444363,-0.564575,0.275275,-0.23155
1680009484176,1189472528946724,-0.5636125,0.270325,-0.2286625
1680009484178,1189472531448878,-0.5586625,0.26427498,-0.22659999
1680009484179,1189472533951109,-0.5566,0.2552,-0.229625
1680009484182,1189472536453262,-0.55055,0.2492875,-0.229625
1680009484184,1189472538955416,-0.542575,0.242275,-0.22659999
1680009484186,1189472541457575,-0.54065,0.22825,-0.2275625
1680009484189,1189472543959729,-0.5355625,0.2193125,-0.2275625
1680009484192,1189472546462191,-0.53061247,0.2052875,-0.22659999
1680009484194,1189472548964344,-0.5236,0.1882375,-0.2275625
1680009484196,1189472551466479,-0.5165875,0.170225,-0.229625
1680009484199,1189472553968633,-0.510675,0.1533125,-0.229625
1680009484201,1189472556470787,-0.504625,0.1362625,-0.234575
1680009484204,1189472558972941,-0.499675,0.122237496,-0.2396625
1680009484206,1189472561475324,-0.49555,0.104225,-0.240625
1680009484209,1189472563977478,-0.4926625,0.091299996,-0.24255
1680009484214,1189472566479709,-0.4906,0.082225,-0.2446125
1680009484215,1189472568981786,-0.487575,0.072325,-0.2476375
1680009484218,1189472571484008,-0.48455,0.0642125,-0.251625
1680009484220,1189472573986162,-0.487575,0.055275,-0.2525875
1680009484223,1189472576488546,-0.48565,0.0543125,-0.2556125
1680009484224,1189472578990700,-0.48455,0.0433125,-0.25355
1680009484226,1189472581492854,-0.48565,0.0363,-0.256575
1680009484229,1189472583995090,-0.48565,0.028324999,-0.2586375
1680009484232,1189472586497244,-0.482625,0.0253,-0.2586375
1680009484234,1189472588999397,-0.4786375,0.0202125,-0.25753748
1680009484236,1189472591501551,-0.47465,0.01925,-0.25959998
1680009484239,1189472594003935,-0.471625,0.0132,-0.26565
1680009484242,1189472596506089,-0.4676375,0.01925,-0.2666125
1680009484244,1189472599008243,-0.4585625,0.017324999,-0.2666125
1680009484246,1189472601510396,-0.455675,0.0213125,-0.2706
1680009484251,1189472604012647,-0.45265,0.027224999,-0.2715625
1680009484254,1189472606514801,-0.4456375,0.0253,-0.2706
1680009484255,1189472609306724,-0.4426125,0.0292875,-0.2726625
1680009484257,1189472611519340,-0.44055,0.0342375,-0.2706
1680009484259,1189472614021493,-0.4395875,0.038225,-0.2696375
1680009484261,1189472616523642,-0.432575,0.044275,-0.2666125
1680009484264,1189472619025796,-0.4316125,0.0462,-0.26455
1680009484266,1189472621528027,-0.427625,0.052249998,-0.2616625
1680009484269,1189472624030412,-0.4255625,0.061325,-0.25355
1680009484272,1189472626532565,-0.41965,0.0642125,-0.245575
1680009484274,1189472629034724,-0.41965,0.0682,-0.2396625
1680009484276,1189472631536878,-0.4126375,0.07425,-0.2355375
1680009484279,1189472634039032,-0.40755,0.0862125,-0.229625
1680009484282,1189472636541186,-0.405625,0.089237496,-0.2256375
1680009484284,1189472639043676,-0.399575,0.09625,-0.223575
1680009484288,1189472641545830,-0.3925625,0.1032625,-0.2195875
1680009484290,1189472644047984,-0.3876125,0.1172875,-0.2176625
1680009484293,1189472646550137,-0.3876125,0.127325,-0.2146375
1680009484295,1189472649052291,-0.3826625,0.1362625,-0.2156
1680009484297,1189472651554445,-0.3815625,0.1472625,-0.2176625
1680009484299,1189472654056906,-0.377575,0.15619999,-0.22165
1680009484303,1189472656558829,-0.37565,0.1692625,-0.22165
1680009484305,1189472659061219,-0.3735875,0.1802625,-0.2226125
1680009484306,1189472661563373,-0.372625,0.193325,-0.22659999
1680009484309,1189472664065527,-0.37661248,0.2022625,-0.2275625
1680009484314,1189472666567680,-0.37565,0.2162875,-0.2275625
1680009484315,1189472669069854,-0.3796375,0.2292125,-0.2275625
1680009484317,1189472671572316,-0.3826625,0.23925,-0.23155
1680009484320,1189472674074239,-0.38665,0.253275,-0.2336125
1680009484322,1189472676576624,-0.38665,0.2652375,-0.2366375
1680009484325,1189472679078802,-0.3916,0.280225,-0.2376
1680009484328,1189472681580956,-0.3916,0.2952125,-0.234575
1680009484330,1189472684083110,-0.3876125,0.3042875,-0.2366375
1680009484334,1189472686585341,-0.3876125,0.319275,-0.234575
1680009484336,1189472689087485,-0.3876125,0.3293125,-0.23265
1680009484338,1189472691589869,-0.3925625,0.33825,-0.229625
1680009484340,1189472694091792,-0.394625,0.346225,-0.229625
1680009484342,1189472696594177,-0.400675,0.35227498,-0.23265
1680009484344,1189472699096331,-0.40865,0.3542,-0.22659999
1680009484346,1189472701598576,-0.4175875,0.3562625,-0.2195875
1680009484351,1189472704100729,-0.416625,0.358325,-0.2165625
1680009484353,1189472706602883,-0.41854998,0.3562625,-0.2055625
1680009484355,1189472709105268,-0.421575,0.3542,-0.1956625
1680009484357,1189472711607432,-0.41965,0.34925,-0.18755
1680009484359,1189472714109586,-0.41965,0.3452625,-0.1716
1680009484366,1189472716611816,-0.42061248,0.3392125,-0.1606
1680009484368,1189472719113970,-0.421575,0.3392125,-0.1505625
1680009484370,1189472721616148,-0.4156625,0.3312375,-0.13859999
1680009484371,1189472724118302,-0.4145625,0.3212,-0.1315875
1680009484373,1189472726620456,-0.4156625,0.31625,-0.12155
1680009484375,1189472729122840,-0.416625,0.3092375,-0.115637496
1680009484377,1189472731624994,-0.4175875,0.3012625,-0.11055
1680009484379,1189472734127225,-0.41854998,0.2982375,-0.1076625
1680009484382,1189472736629379,-0.421575,0.2893,-0.1035375
1680009484385,1189472739131533,-0.4236375,0.2853125,-0.09955
1680009484388,1189472741633687,-0.42955,0.28325,-0.10065
1680009484390,1189472744135836,-0.42955,0.2783,-0.10065
1680009484392,1189472746638220,-0.42955,0.27225,-0.09955
1680009484394,1189472749140451,-0.4316125,0.2712875,-0.0985875
1680009484397,1189472751642605,-0.4346375,0.27225,-0.0955625
1680009484400,1189472754144773,-0.438625,0.270325,-0.0985875
1680009484403,1189472756646926,-0.438625,0.2762375,-0.0985875
1680009484405,1189472759149080,-0.4365625,0.281325,-0.09955
1680009484407,1189472761651234,-0.44055,0.2792625,-0.0955625
1680009484410,1189472764153619,-0.44055,0.2783,-0.0946
1680009484413,1189472766655850,-0.4426125,0.28325,-0.0966625
1680009484415,1189472769158003,-0.4456375,0.286275,-0.10065
1680009484416,1189472771660157,-0.449625,0.2872375,-0.0985875
1680009484419,1189472774162311,-0.4505875,0.2902625,-0.0966625
1680009484422,1189472776664432,-0.45155,0.2932875,-0.093637496
1680009484423,1189472779166817,-0.4486625,0.297275,-0.0966625
1680009484427,1189472781668970,-0.4486625,0.30525,-0.0966625
1680009484429,1189472784171124,-0.4456375,0.3092375,-0.0955625
1680009484432,1189472786673273,-0.4365625,0.313225,-0.093637496
1680009484434,1189472789175504,-0.42955,0.3183125,-0.091575
1680009484438,1189472791677658,-0.4246,0.319275,-0.091575
1680009484440,1189472794180042,-0.4175875,0.325325,-0.0955625
1680009484443,1189472796682201,-0.410575,0.3312375,-0.0985875
1680009484444,1189472799184355,-0.40755,0.3312375,-0.10065
1680009484446,1189472801686509,-0.405625,0.33825,-0.1076625
1680009484449,1189472804188740,-0.410575,0.35227498,-0.113575
1680009484452,1189472806691099,-0.41854998,0.3592875,-0.12265
1680009484454,1189472809193022,-0.421575,0.3702875,-0.1255375
1680009484456,1189472811695407,-0.427625,0.3812875,-0.1346125
1680009484459,1189472814197561,-0.4346375,0.3892625,-0.141625
1680009484461,1189472816699715,-0.4395875,0.40425,-0.146575
1680009484464,1189472819201855,-0.4395875,0.41525,-0.1505625
1680009484466,1189472821704085,-0.449625,0.429275,-0.15853749
1680009484469,1189472824206239,-0.4576,0.4412375,-0.1626625
1680009484472,1189472826708624,-0.4576,0.4522375,-0.16555
1680009484476,1189472829210759,-0.460625,0.4642,-0.1676125
1680009484477,1189472831712913,-0.465575,0.4772625,-0.1706375
1680009484479,1189472834215066,-0.46667498,0.4862,-0.1736625
1680009484482,1189472836717297,-0.4686,0.500225,-0.1736625
1680009484484,1189472839219451,-0.4706625,0.50325,-0.17765
1680009484486,1189472841721589,-0.4725875,0.5053125,-0.1816375
1680009484490,1189472844223974,-0.4725875,0.5102625,-0.1835625
1680009484493,1189472846725897,-0.47465,0.5132875,-0.1835625
1680009484494,1189472849228281,-0.4756125,0.5132875,-0.1865875
1680009484496,1189472851730499,-0.47465,0.5132875,-0.190575
1680009484499,1189472854232653,-0.4796,0.512325,-0.190575
1680009484503,1189472856734807,-0.477675,0.5053125,-0.190575
1680009484506,1189472859236961,-0.4816625,0.4983,-0.1926375
1680009484507,1189472861739114,-0.4816625,0.4992625,-0.1915375
1680009484509,1189472864241499,-0.4816625,0.49225,-0.1956625
1680009484513,1189472866743653,-0.482625,0.48125,-0.19855
1680009484516,1189472869245884,-0.482625,0.47025,-0.201575
1680009484517,1189472871748056,-0.487575,0.45925,-0.20253749
1680009484521,1189472874250209,-0.488675,0.445225,-0.2036375
1680009484523,1189472876752363,-0.488675,0.4312,-0.2055625
1680009484525,1189472879254517,-0.4906,0.4202,-0.21065
1680009484527,1189472881756961,-0.4906,0.401225,-0.2085875
1680009484532,1189472884259038,-0.4915625,0.385275,-0.212575
1680009484534,1189472886761268,-0.488675,0.3642375,-0.2146375
1680009484535,1189472889263422,-0.488675,0.346225,-0.2165625
1680009484537,1189472891765576,-0.4906,0.330275,-0.2156
1680009484539,1189472894267710,-0.488675,0.3092375,-0.2176625
1680009484541,1189472896769864,-0.4835875,0.2902625,-0.218625
1680009484544,1189472899272248,-0.476575,0.2712875,-0.2195875
1680009484546,1189472901774479,-0.471625,0.253275,-0.223575
1680009484550,1189472904276561,-0.46461248,0.237325,-0.2256375
1680009484553,1189472906778792,-0.460625,0.21725,-0.23155
1680009484555,1189472909280946,-0.4576,0.1962125,-0.2366375
1680009484557,1189472911783100,-0.454575,0.181225,-0.2385625
