system_ts_ms, sensor_ts_ns, accX, accY, accZ
1680009479625,1189467977444675,1.3960501,7.4010005,5.973
1680009479625,1189467979946906,1.401,7.38,6.1189504
1680009479627,1189467982449060,1.4680501,7.3900504,6.102
1680009479640,1189467984951445,1.5090001,7.4610004,6.09495
1680009479641,1189467987453580,1.5619501,7.4089503,6.018
1680009479641,1189467989955734,1.6000501,7.3489504,6.0690002
1680009479641,1189467992457888,1.61205,7.497,6.1309505
1680009479641,1189467994960042,1.48695,7.5400505,6.045
1680009479642,1189467997462273,1.557,7.51905,6.102
1680009479647,1189467999964435,1.59,7.5600004,6.1140003
1680009479647,1189468002466819,1.4950501,7.6050005,6.1189504
1680009479650,1189468004968973,1.50195,7.59495,6.1759505
1680009479652,1189468007471127,1.4470501,7.6530004,6.0690002
1680009479654,1189468009973277,1.41795,7.6189504,6.1189504
1680009479656,1189468012475508,1.3800001,7.7080503,6.0420003
1680009479663,1189468014977661,1.3939501,7.6579504,6.09495
1680009479663,1189468017479815,1.3270501,7.63605,6.1210504
1680009479664,1189468019982200,1.4110501,7.66305,6.1069503
1680009479667,1189468022484358,1.36995,7.7869506,6.1330504
1680009479671,1189468024986512,1.3990501,7.7890506,6.09705
1680009479673,1189468027488742,1.33905,7.7509503,6.1380005
1680009479675,1189468029990888,1.4059501,7.8420005,6.1140003
1680009479680,1189468032493273,1.416,7.8760505,6.14295
1680009479680,1189468034995196,1.4080501,7.7970004,6.15705
1680009479682,1189468037497657,1.3939501,7.6699505,6.21495
1680009479684,1189468039999734,1.4130001,7.734,6.33195
1680009479687,1189468042501950,1.28205,7.7460003,6.09
1680009479691,1189468045004104,1.3990501,7.76595,6.2700005
1680009479692,1189468047506258,1.2859501,7.7700005,6.18405
1680009479697,1189468050008412,1.45905,7.6309505,6.1480503
1680009479698,1189468052510791,1.4440501,7.6270504,6.2650504
1680009479700,1189468055012945,1.416,7.6150503,6.15705
1680009479702,1189468057515176,1.401,7.6309505,6.1860003
1680009479704,1189468060017330,1.4950501,7.6170006,6.25995
1680009479708,1189468062519489,1.42305,7.60305,6.1600504
1680009479714,1189468065021643,1.4280001,7.6099505,6.18405
1680009479714,1189468067524027,1.47105,7.5670505,6.31995
1680009479714,1189468070026181,1.43505,7.5859504,6.3130503
1680009479717,1189468072528335,1.473,7.5859504,6.29895
1680009479721,1189468075030581,1.4680501,7.5739503,6.3079505
1680009479722,1189468077532734,1.4610001,7.5520506,6.2359505
1680009479725,1189468080034888,1.5330001,7.5040503,6.2359505
1680009479730,1189468082537042,1.4970001,7.49205,6.366
1680009479730,1189468085039407,1.452,7.4830503,6.3490505
1680009479732,1189468087541561,1.52295,7.5330005,6.3780003
1680009479734,1189468090043714,1.4779501,7.4950504,6.399
1680009479737,1189468092545945,1.5499501,7.59495,6.2629504
1680009479740,1189468095048079,1.452,7.557,6.3700504
1680009479742,1189468097550233,1.4059501,7.5520506,6.31995
1680009479748,1189468100052618,1.4250001,7.6600504,6.327
1680009479748,1189468102554771,1.5160501,7.5430503,6.366
1680009479750,1189468105056983,1.52295,7.5520506,6.3370504
1680009479752,1189468107559060,1.4779501,7.5379505,6.4350004
1680009479754,1189468110061291,1.5310501,7.6600504,6.3370504
1680009479757,1189468112563445,1.4490001,7.701,6.49695
1680009479763,1189468115065829,1.5690001,7.6099505,6.39405
1680009479764,1189468117567988,1.45395,7.6390505,6.5020504
1680009479764,1189468120070142,1.50195,7.59495,6.49305
1680009479767,1189468122572373,1.521,7.7179503,6.39195
1680009479770,1189468125074435,1.45395,7.6189504,6.327
1680009479772,1189468127576666,1.452,7.6429505,6.3780003
1680009479774,1189468130079050,1.521,7.6980004,6.3559504
1680009479781,1189468132581204,1.4280001,7.761,6.3580503
1680009479782,1189468135083358,1.3920001,7.6390505,6.387
1680009479784,1189468137585508,1.4830501,7.6410003,6.3150005
1680009479785,1189468140087662,1.4950501,7.59105,6.3580503
1680009479787,1189468142589892,1.401,7.6120505,6.4230003
1680009479790,1189468145092277,1.4800501,7.59105,6.3300004
1680009479792,1189468147594416,1.4320501,7.6750503,6.3580503
1680009479796,1189468150096570,1.49205,7.5840006,6.3150005
1680009479797,1189468152598724,1.4299501,7.62195,6.24795
1680009479800,1189468155100877,1.3960501,7.5379505,6.2959504
1680009479802,1189468157603041,1.4320501,7.5450006,6.2430005
1680009479804,1189468160105272,1.3939501,7.5810003,6.33195
1680009479807,1189468162607657,1.33395,7.5690002,6.2460003
1680009479813,1189468165109811,1.42005,7.54995,6.2790003
1680009479814,1189468167611969,1.317,7.5480003,6.2430005
1680009479815,1189468170114123,1.3800001,7.497,6.2530503
1680009479817,1189468172616277,1.30095,7.48995,6.16905
1680009479822,1189468175118431,1.3270501,7.45905,6.018
1680009479824,1189468177620901,1.32,7.4779506,6.1450505
1680009479826,1189468180132978,1.3630501,7.524,6.09
1680009479832,1189468182625209,1.33905,7.4710503,6.18405
1680009479833,1189468185127363,1.3579501,7.54995,6.15
1680009479834,1189468187629527,1.33395,7.4209504,6.1450505
1680009479835,1189468190131681,1.33395,7.497,6.1909504
1680009479837,1189468192633912,1.3440001,7.4539504,6.1050005
1680009479840,1189468195136296,1.3800001,7.485,6.1909504
1680009479842,1189468197638450,1.332,7.3969502,6.09705
1680009479848,1189468200140608,1.38195,7.4950504,6.15705
1680009479849,1189468202642762,1.2910501,7.5160503,6.1000504
1680009479850,1189468205144916,1.30095,7.5139503,5.9490004
1680009479852,1189468207647146,1.33395,7.41795,6.1860003
1680009479855,1189468210149551,1.34595,7.56195,6.2389503
1680009479858,1189468212651474,1.2379501,7.4880004,6.1380005
1680009479862,1189468215153859,1.29795,7.4779506,6.15705
1680009479863,1189468217656012,1.3609501,7.4689503,6.1330504
1680009479865,1189468220158137,1.32,7.5210004,6.2509503
1680009479867,1189468222660291,1.31295,7.452,6.29895
1680009479871,1189468225162522,1.2360001,7.5120006,6.1189504
1680009479872,1189468227664907,1.2930001,7.5160503,6.19995
1680009479874,1189468230166835,1.31295,7.59105,6.2029505
1680009479879,1189468232669219,1.3800001,7.4689503,6.22695
1680009479880,1189468235171373,1.29795,7.4490004,6.18795
1680009479882,1189468237673527,1.284,7.5210004,6.162
1680009479884,1189468240175738,1.317,7.53105,6.0330005
1680009479887,1189468242677892,1.31505,7.5739503,6.1189504
1680009479891,1189468245180276,1.365,7.4040003,6.1189504
1680009479892,1189468247682430,1.3099501,7.5280504,6.13605
1680009479898,1189468250184599,1.33905,7.5070505,6.2239504
1680009479898,1189468252686753,1.401,7.5840006,6.14295
1680009479900,1189468255188984,1.3579501,7.4419503,6.2410502
1680009479902,1189468257691137,1.3099501,7.5480003,6.306
1680009479905,1189468260193291,1.404,7.5760503,6.1789503
1680009479907,1189468262695661,1.42005,7.53105,6.2770505
1680009479914,1189468265197815,1.4419501,7.5600004,6.3079505
1680009479914,1189468267699969,1.5109501,7.5450006,6.2749505
1680009479915,1189468270202199,1.5670501,7.56195,6.25995
1680009479918,1189468272704372,1.5259501,7.5600004,6.3970504
1680009479920,1189468275206526,1.5589501,7.557,6.3150005
1680009479922,1189468277708911,1.5469501,7.5280504,6.43305
1680009479924,1189468280210834,1.6189501,7.485,6.3679504
1680009479929,1189468282713218,1.6360501,7.524,6.4489503
1680009479930,1189468285215459,1.674,7.5330005,6.3750005
1680009479933,1189468287717613,1.6650001,7.524,6.4950004
1680009479935,1189468290219767,1.6720501,7.524,6.42105
1680009479937,1189468292721921,1.6099501,7.6050005,6.4879503
1680009479940,1189468295224305,1.7389501,7.4370003,6.53595
1680009479942,1189468297726228,1.7320501,7.5259504,6.5160003
1680009479947,1189468300228613,1.76505,7.5720005,6.49305
1680009479947,1189468302730844,1.7629501,7.5019503,6.4350004
1680009479951,1189468305232979,1.7530501,7.4470506,6.50895
1680009479952,1189468307735133,1.626,7.5280504,6.5280004
1680009479955,1189468310237286,1.7010001,7.4689503,6.5449505
1680009479957,1189468312739671,1.7580001,7.5139503,6.4999504
1680009479963,1189468315241839,1.7410501,7.3819504,6.5880003
1680009479964,1189468317744070,1.64295,7.5280504,6.5839505
1680009479964,1189468320246224,1.66005,7.5670505,6.50505
1680009479967,1189468322748377,1.641,7.3699503,6.53595
1680009479972,1189468325250545,1.66005,7.452,6.5479503
1680009479973,1189468327752699,1.5979501,7.4760003,6.5020504
1680009479975,1189468330254853,1.5979501,7.45905,6.45195
1680009479981,1189468332757314,1.59,7.4209504,6.4180503
1680009479983,1189468335259468,1.5310501,7.3510504,6.50895
1680009479985,1189468337761637,1.6189501,7.51905,6.5160003
1680009479986,1189468340263791,1.53795,7.4880004,6.4810505
1680009479987,1189468342765945,1.4680501,7.3969502,6.543
1680009479990,1189468345268099,1.3939501,7.4059505,6.31995
1680009479993,1189468347770488,1.4899501,7.4350505,6.36105
1680009479997,1189468350272719,1.3939501,7.4610004,6.49695
1680009479998,1189468352774796,1.45905,7.452,6.4609504
1680009480000,1189468355276950,1.4610001,7.3630505,6.49305
1680009480002,1189468357779157,1.3219501,7.497,6.3490505
1680009480005,1189468360281541,1.3249501,7.4350505,6.3439503
1680009480009,1189468362783695,1.3270501,7.4370003,6.4470005
1680009480011,1189468365285849,1.284,7.5040503,6.327
1680009480013,1189468367787984,1.284,7.45905,6.3559504
1680009480015,1189468370290138,1.296,7.4710503,6.31995
1680009480017,1189468372792599,1.26495,7.5070505,6.28695
1680009480020,1189468375294753,1.3770001,7.63605,6.399
1680009480022,1189468377796907,1.33395,7.5040503,6.3820505
1680009480025,1189468380299028,1.284,7.56195,6.339
1680009480027,1189468382801182,1.3920001,7.4830503,6.25995
1680009480031,1189468385303336,1.3729501,7.5379505,6.3420005
1680009480032,1189468387805489,1.3990501,7.5550504,6.3439503
1680009480034,1189468390307951,1.38495,7.5160503,6.3079505
1680009480037,1189468392810123,1.41795,7.5520506,6.3700504
1680009480040,1189468395312277,1.45395,7.5930004,6.4279504
1680009480042,1189468397814430,1.4610001,7.5400505,6.3490505
1680009480046,1189468400316571,1.521,7.5810003,6.387
1680009480048,1189468402818725,1.50405,7.5760503,6.306
1680009480051,1189468405320956,1.5160501,7.5979505,6.2719502
1680009480052,1189468407823341,1.6290001,7.5880504,6.3490505
1680009480055,1189468410325494,1.58595,7.5480003,6.3150005
1680009480057,1189468412827666,1.5880501,7.5739503,6.3079505
1680009480060,1189468415329820,1.6720501,7.6480503,6.2509503
1680009480063,1189468417831974,1.6140001,7.5739503,6.3460503
1680009480065,1189468420334205,1.57605,7.5400505,6.4399505
1680009480067,1189468422836359,1.57395,7.5550504,6.2359505
1680009480070,1189468425338743,1.65795,7.5120006,6.3150005
1680009480074,1189468427840897,1.6620001,7.4370003,6.3630004
1680009480075,1189468430343051,1.5790501,7.4539504,6.3250504
1680009480077,1189468432845205,1.7149501,7.5690002,6.3300004
1680009480080,1189468435347460,1.7389501,7.4449506,6.46395
1680009480083,1189468437849613,1.64295,7.5139503,6.3250504
1680009480085,1189468440351998,1.5640501,7.392,6.3679504
1680009480087,1189468442853921,1.71,7.3819504,6.387
1680009480091,1189468445356301,1.593,7.5480003,6.4110003
1680009480092,1189468447858455,1.65795,7.4490004,6.2959504
1680009480095,1189468450360608,1.6290001,7.4710503,6.4350004
1680009480097,1189468452862839,1.5880501,7.5280504,6.339
1680009480100,1189468455364969,1.6290001,7.5070505,6.2910004
1680009480102,1189468457867354,1.626,7.39905,6.46395
1680009480104,1189468460369277,1.71,7.4040003,6.39195
1680009480107,1189468462871661,1.62405,7.3560004,6.4230003
1680009480110,1189468465373829,1.6860001,7.5040503,6.4230003
1680009480112,1189468467876060,1.6360501,7.4689503,6.4140005
1680009480115,1189468470378214,1.57395,7.4610004,6.40395
1680009480119,1189468472880368,1.69305,7.5040503,6.3850503
1680009480123,1189468475382771,1.6459501,7.4110503,6.4729505
1680009480124,1189468477884925,1.6720501,7.4539504,6.4489503
1680009480126,1189468480387079,1.69305,7.3939505,6.46605
1680009480128,1189468482889310,1.64295,7.5160503,6.46395
1680009480131,1189468485391464,1.6620001,7.4419503,6.3750005
1680009480133,1189468487893599,1.7149501,7.4760003,6.43305
1680009480135,1189468490395752,1.71,7.4689503,6.471
1680009480137,1189468492897906,1.57395,7.5690002,6.5620503
1680009480140,1189468495400291,1.593,7.4779506,6.4540505
1680009480143,1189468497902522,1.5979501,7.425,6.4489503
1680009480145,1189468500404657,1.593,7.4470506,6.45195
1680009480147,1189468502906811,1.57095,7.5430503,6.3850503
1680009480151,1189468505408965,1.5829501,7.4689503,6.5400004
1680009480153,1189468507911119,1.60695,7.51905,6.3850503
1680009480155,1189468510413254,1.5280501,7.48995,6.3780003
1680009480159,1189468512915715,1.5690001,7.5360003,6.28905
1680009480161,1189468515417869,1.605,7.4779506,6.46395
1680009480163,1189468517920023,1.52295,7.4209504,6.4849505
1680009480165,1189468520422162,1.5330001,7.5090003,6.4830003
1680009480167,1189468522924316,1.54005,7.53105,6.40395
1680009480171,1189468525426700,1.6020001,7.5330005,6.4180503
1680009480173,1189468527928624,1.62195,7.5259504,6.4420505
1680009480175,1189468530431085,1.62195,7.4950504,6.5620503
1680009480178,1189468532933258,1.6189501,7.5160503,6.5190005
1680009480181,1189468535435412,1.6500001,7.51905,6.4759502
1680009480183,1189468537937566,1.54005,7.497,6.47805
1680009480186,1189468540439719,1.6500001,7.497,6.53805
1680009480187,1189468542941888,1.6620001,7.5430503,6.531
1680009480191,1189468545444350,1.62195,7.5120006,6.5190005
1680009480193,1189468547946504,1.6810501,7.4089503,6.366
1680009480197,1189468550448695,1.6650001,7.4730005,6.4110003
1680009480198,1189468552950848,1.7080501,7.452,6.4230003
1680009480202,1189468555453002,1.72905,7.45905,6.4399505
1680009480203,1189468557955156,1.6669501,7.39905,6.53595
1680009480205,1189468560457541,1.7320501,7.4059505,6.4900503
1680009480207,1189468562959782,1.761,7.452,6.4470005
1680009480211,1189468565461858,1.74405,7.3630505,6.339
1680009480212,1189468567964089,1.7200501,7.4040003,6.4090505
1680009480215,1189468570466243,1.65495,7.425,6.39195
1680009480217,1189468572968401,1.7080501,7.3660502,6.3630004
1680009480220,1189468575470786,1.7149501,7.4280005,6.40395
1680009480222,1189468577972939,1.7370001,7.3060503,6.3300004
1680009480225,1189468580475170,1.6890001,7.3180504,6.36105
1680009480227,1189468582977305,1.7220001,7.4230504,6.25995
1680009480231,1189468585479459,1.7170501,7.34595,6.4690504
1680009480234,1189468587981613,1.6669501,7.3609505,6.40395
1680009480236,1189468590483997,1.6099501,7.32,6.222
1680009480238,1189468592986151,1.64295,7.34595,6.2509503
1680009480241,1189468595488305,1.6380001,7.4160004,6.2239504
1680009480242,1189468597990536,1.6290001,7.3699503,6.3850503
1680009480245,1189468600492690,1.7029501,7.3339505,6.31995
1680009480252,1189468602994844,1.6840501,7.4370003,6.3420005
1680009480253,1189468605496992,1.7490001,7.38,6.33195
1680009480253,1189468607999377,1.6720501,7.4329505,6.3420005
1680009480254,1189468610501531,1.61205,7.4880004,6.387
1680009480257,1189468613003685,1.62195,7.4880004,6.3700504
1680009480261,1189468615505854,1.6720501,7.5379505,6.4279504
1680009480262,1189468618008084,1.61205,7.497,6.4810505
1680009480264,1189468620510238,1.65495,7.6170006,6.42105
1680009480267,1189468623012623,1.5829501,7.53105,6.4279504
1680009480272,1189468625514791,1.61205,7.4950504,6.5070004
1680009480273,1189468628016945,1.66005,7.7100005,6.471
1680009480275,1189468630519175,1.66005,7.5859504,6.39405
1680009480277,1189468633021252,1.6530001,7.6309505,6.5599504
1680009480280,1189468635523474,1.7029501,7.63605,6.4810505
1680009480282,1189468638025859,1.5160501,7.5880504,6.5550003
1680009480284,1189468640528012,1.5790501,7.6410003,6.6220503
1680009480287,1189468643030166,1.6170001,7.63395,6.531
1680009480290,1189468645532324,1.5880501,7.62195,6.43305
1680009480292,1189468648034555,1.54005,7.63605,6.6240005
1680009480294,1189468650536709,1.59,7.63395,6.4609504
1680009480297,1189468653039093,1.57095,7.5139503,6.5719504
1680009480301,1189468655541247,1.6170001,7.5739503,6.61005
1680009480302,1189468658043401,1.5790501,7.5379505,6.59595
1680009480305,1189468660545555,1.557,7.5360003,6.49305
1680009480309,1189468663047709,1.50405,7.4760003,6.5809503
1680009480311,1189468665549950,1.55505,7.5360003,6.5740504
1680009480313,1189468668052103,1.5949501,7.4329505,6.5400004
1680009480315,1189468670554488,1.5829501,7.4809504,6.61005
1680009480319,1189468673056642,1.6140001,7.5379505,6.531
1680009480321,1189468675558796,1.641,7.42995,6.6340504
1680009480323,1189468678060969,1.6810501,7.4880004,6.5479503
1680009480325,1189468680563199,1.78005,7.4400005,6.5449505
1680009480327,1189468683065584,1.65795,7.4350505,6.6190505
1680009480330,1189468685567507,1.7389501,7.4400005,6.6220503
1680009480332,1189468688069887,1.713,7.3780503,6.49305
1680009480337,1189468690572041,1.78005,7.4089503,6.5190005
1680009480338,1189468693074194,1.725,7.2910504,6.4090505
1680009480341,1189468695576425,1.81095,7.38495,6.42495
1680009480343,1189468698078565,1.7580001,7.4400005,6.60795
1680009480346,1189468700580719,1.7560501,7.39905,6.53595
1680009480348,1189468703083104,1.7370001,7.4089503,6.31995
1680009480351,1189468705585027,1.7530501,7.4760003,6.387
1680009480353,1189468708087416,1.7560501,7.4230504,6.46605
1680009480355,1189468710589647,1.7580001,7.3780503,6.36105
1680009480358,1189468713091801,1.7340001,7.3609505,6.339
1680009480360,1189468715593955,1.7530501,7.4350505,6.4180503
1680009480362,1189468718096109,1.71,7.4059505,6.4350004
1680009480365,1189468720598483,1.7560501,7.4130006,6.366
1680009480367,1189468723100406,1.7490001,7.39905,6.3460503
1680009480371,1189468725602868,1.6459501,7.392,6.4230003
1680009480372,1189468728105022,1.6699501,7.41795,6.39405
1680009480376,1189468730607152,1.6459501,7.3630505,6.39405
1680009480379,1189468733109305,1.62195,7.3560004,6.4900503
1680009480381,1189468735611459,1.6339501,7.3630505,6.3460503
1680009480385,1189468738113853,1.60695,7.392,6.4140005
1680009480387,1189468740616084,1.7149501,7.3819504,6.4180503
1680009480388,1189468743118238,1.6500001,7.4209504,6.4540505
1680009480391,1189468745620391,1.6720501,7.3750505,6.39405
1680009480393,1189468748122545,1.605,7.3969502,6.4900503
1680009480396,1189468750624709,1.5790501,7.4350505,6.4159503
1680009480399,1189468753126863,1.605,7.2630005,6.4450502
1680009480402,1189468755629017,1.6500001,7.4490004,6.3490505
1680009480403,1189468758131478,1.74405,7.4280005,6.42105
1680009480405,1189468760633632,1.6290001,7.4539504,6.43695
1680009480407,1189468763135772,1.69605,7.5210004,6.471
1680009480411,1189468765637926,1.674,7.4110503,6.387
1680009480412,1189468768140080,1.6669501,7.42995,6.52395
1680009480415,1189468770642234,1.59,7.5070505,6.46395
1680009480420,1189468773144598,1.61205,7.5070505,6.4110003
1680009480423,1189468775646829,1.5520501,7.4689503,6.46395
1680009480424,1189468778148983,1.5640501,7.4689503,6.327
1680009480426,1189468780651137,1.5810001,7.5480003,6.42495
1680009480429,1189468783153291,1.53795,7.6000504,6.4950004
1680009480432,1189468785655420,1.6500001,7.5430503,6.52395
1680009480436,1189468788157882,1.69095,7.452,6.5599504
1680009480437,1189468790659959,1.5690001,7.4880004,6.42105
1680009480438,1189468793162190,1.5109501,7.5810003,6.5620503
1680009480440,1189468795664338,1.5330001,7.5210004,6.531
1680009480442,1189468798166492,1.48695,7.4779506,6.5329504
1680009480445,1189468800668646,1.4899501,7.5810003,6.4140005
1680009480449,1189468803171031,1.45905,7.485,6.4540505
1680009480451,1189468805673277,1.626,7.5000005,6.52605
1680009480453,1189468808175430,1.4970001,7.53105,6.53595
1680009480455,1189468810677584,1.6140001,7.4059505,6.4450502
1680009480459,1189468813179738,1.6360501,7.49205,6.56895
1680009480462,1189468815681887,1.6720501,7.524,6.4690504
1680009480464,1189468818184272,1.6789501,7.464,6.4230003
1680009480465,1189468820686425,1.761,7.5480003,6.6150002
1680009480468,1189468823188656,1.8060001,7.5520506,6.49695
1680009480471,1189468825690810,1.7770501,7.60305,6.471
1680009480472,1189468828192964,1.7410501,7.5480003,6.4690504
1680009480475,1189468830695118,1.8010501,7.4760003,6.576
1680009480477,1189468833197272,1.8349501,7.4730005,6.52605
1680009480481,1189468835699656,1.8970501,7.5040503,6.50895
1680009480483,1189468838201805,1.84905,7.392,6.4999504
1680009480486,1189468840703959,1.8199501,7.4880004,6.564
1680009480488,1189468843206190,1.8610501,7.38,6.5400004
1680009480491,1189468845708344,1.8900001,7.4809504,6.43695
1680009480492,1189468848210497,1.84695,7.3339505,6.3970504
1680009480497,1189468850712858,1.8420001,7.32705,6.43305
1680009480499,1189468853215012,1.8420001,7.4160004,6.50895
1680009480502,1189468855717243,1.8750001,7.3780503,6.49305
1680009480503,1189468858219335,1.8079501,7.4110503,6.45195
1680009480505,1189468860721565,1.8199501,7.29405,6.3630004
1680009480508,1189468863223719,1.8400501,7.38495,6.49305
1680009480510,1189468865726104,1.86405,7.26,6.5280004
1680009480512,1189468868228258,1.8589501,7.2769504,6.60795
1680009480516,1189468870730431,1.8750001,7.35795,6.4729505
1680009480519,1189468873232584,1.8589501,7.34595,6.4900503
1680009480521,1189468875734738,1.7839501,7.2390003,6.4879503
1680009480522,1189468878236969,1.746,7.34595,6.531
1680009480526,1189468880739354,1.674,7.2840004,6.46605
1680009480528,1189468883241508,1.7509501,7.2910504,6.471
1680009480531,1189468885743661,1.7149501,7.2769504,6.52605
1680009480537,1189468888245810,1.7839501,7.143,6.5670004
1680009480539,1189468890747964,1.61205,7.2510004,6.53595
1680009480539,1189468893250195,1.641,7.1239505,6.4609504
1680009480545,1189468895752272,1.6650001,7.1860504,6.59805
1680009480546,1189468898254733,1.71,7.2580504,6.543
1680009480548,1189468900756887,1.65495,7.2120004,6.4110003
1680009480548,1189468903259055,1.6500001,7.1620502,6.5209503
1680009480551,1189468905761209,1.6530001,7.2670503,6.471
1680009480552,1189468908263363,1.6380001,7.2750006,6.5790005
1680009480555,1189468910765594,1.6459501,7.3009505,6.53805
1680009480557,1189468913267988,1.7149501,7.28205,6.4810505
1680009480560,1189468915770142,1.6840501,7.3080006,6.5020504
1680009480562,1189468918272296,1.6650001,7.29405,6.4350004
1680009480565,1189468920774450,1.66005,7.3300505,6.5479503
1680009480567,1189468923276609,1.7839501,7.2649503,6.46605
1680009480572,1189468925778762,1.6720501,7.3339505,6.56895
1680009480574,1189468928281224,1.6980001,7.248,6.4540505
1680009480575,1189468930783407,1.7820001,7.3030505,6.6150002
1680009480577,1189468933285561,1.72905,7.2360005,6.564
1680009480580,1189468935787715,1.725,7.39905,6.5209503
1680009480583,1189468938289868,1.78005,7.2769504,6.5839505
1680009480585,1189468940792022,1.6360501,7.3630505,6.6220503
1680009480587,1189468943294277,1.7509501,7.32705,6.5500503
1680009480590,1189468945796662,1.7509501,7.3489504,6.50505
1680009480592,1189468948298815,1.6339501,7.2240005,6.5500503
1680009480595,1189468950800969,1.69305,7.2960005,6.49695
1680009480598,1189468953303147,1.7530501,7.3060503,6.5880003
1680009480601,1189468955805301,1.69605,7.3099504,6.5140505
1680009480603,1189468958307532,1.7560501,7.2430506,6.6049504
1680009480606,1189468960809916,1.7220001,7.2460504,6.5449505
1680009480609,1189468963311806,1.7389501,7.2840004,6.576
1680009480611,1189468965814191,1.7050501,7.3320003,6.6940503
1680009480613,1189468968316345,1.7149501,7.2630005,6.591
1680009480615,1189468970818499,1.8559501,7.2769504,6.636
1680009480619,1189468973320653,1.866,7.3009505,6.6220503
1680009480620,1189468975822878,1.7389501,7.2720003,6.591
1680009480623,1189468978325263,1.84905,7.3630505,6.6240005
1680009480625,1189468980827417,1.8349501,7.2030005,6.7219505
1680009480628,1189468983329571,1.9380001,7.2769504,6.6550503
1680009480631,1189468985831744,1.81605,7.2750006,6.7900505
1680009480632,1189468988333974,1.81095,7.2360005,6.6870003
1680009480635,1189468990836051,1.84695,7.2769504,6.7219505
1680009480638,1189468993338282,1.8319501,7.12095,6.6840005
1680009480641,1189468995840427,1.8709501,7.2360005,6.7390504
1680009480644,1189468998342581,1.9350001,7.2049503,6.7270503
1680009480648,1189469000844965,1.89495,7.21005,6.7320004
1680009480649,1189469003347119,1.8870001,7.1400003,6.6990004
1680009480652,1189469005849350,1.9470001,7.1790004,6.8569503
1680009480652,1189469008351504,2.01,7.28205,6.7200003
1680009480655,1189469010853658,1.8780001,7.2190504,6.7440004
1680009480658,1189469013355812,1.96905,7.0969505,6.6580505
1680009480660,1189469015858205,1.9230001,7.1020503,6.7369504
1680009480663,1189469018360436,1.9710001,7.3030505,6.7819505
1680009480665,1189469020862513,1.9189501,7.1860504,6.6910505
1680009480669,1189469023364744,1.9350001,7.2190504,6.675
1680009480671,1189469025866908,1.8970501,7.2030005,6.7219505
1680009480672,1189469028369061,1.914,7.1640005,6.7939506
1680009480675,1189469030871446,1.96905,7.2310505,6.71295
1680009480677,1189469033373600,1.9810501,7.1929502,6.8209505
1680009480680,1189469035875754,1.9090501,7.1190004,6.6240005
1680009480684,1189469038377975,1.96905,7.0810504,6.64305
1680009480685,1189469040880051,2.046,7.1050506,6.7780504
1680009480687,1189469043382282,1.9590001,7.1620502,6.64305
1680009480690,1189469045884667,1.96905,7.1070004,6.696
1680009480693,1189469048386802,2.05005,7.0999503,6.76095
1680009480695,1189469050888956,2.055,7.1050506,6.7849503
1680009480698,1189469053391109,2.01705,7.1860504,6.7369504
1680009480702,1189469055893335,2.0329502,7.0810504,6.8230505
1680009480703,1189469058395489,2.0400002,7.2030005,6.8110504
1680009480705,1189469060897643,1.9519501,7.1070004,6.6510005
1680009480708,1189469063400028,2.0670002,7.1790004,6.73005
1680009480711,1189469065902181,1.9879501,7.071,6.708
1680009480712,1189469068404349,1.983,7.1620502,6.80595
1680009480715,1189469070906503,2.0359502,7.10895,6.7200003
1680009480719,1189469073408734,2.0359502,7.1190004,6.74205
1680009480722,1189469075910888,2.0020502,7.10895,6.7099504
1680009480724,1189469078413268,1.9950001,7.0129504,6.7510505
1680009480727,1189469080915422,1.9210501,7.1140504,6.8809505
1680009480728,1189469083417576,2.079,7.0540504,6.74205
1680009480731,1189469085919730,2.06205,7.0609503,6.76095
1680009480733,1189469088421884,2.01,7.07595,6.6720004
1680009480735,1189469090924080,2.02305,7.2310505,6.7320004
1680009480738,1189469093426465,2.091,7.0810504,6.68205
1680009480741,1189469095928619,2.0380502,7.1020503,6.8689504
1680009480743,1189469098430773,2.022,7.0729504,6.74205
1680009480745,1189469100932902,1.9950001,7.1860504,6.8710504
1680009480748,1189469103435056,1.93305,7.176,6.9040504
1680009480751,1189469105937209,1.9230001,7.05705,6.8899503
1680009480753,1189469108439440,1.9810501,7.1569505,6.7699504
1680009480755,1189469110941801,1.8730501,7.15005,6.7510505
1680009480759,1189469113443955,2.0050502,7.2070503,6.8760004
1680009480762,1189469115946108,1.9810501,7.2310505,6.9259505
1680009480764,1189469118448257,1.9230001,7.2030005,6.7270503
1680009480765,1189469120950411,2.01705,7.2360005,6.93795
1680009480769,1189469123452642,1.9879501,7.2340503,6.9880505
1680009480771,1189469125954796,1.9930501,7.2750006,7.0189505
1680009480773,1189469128457180,2.0299501,7.3219504,7.0000505
1680009480776,1189469130959363,2.06205,7.2790504,7.14405
1680009480778,1189469133461517,2.08395,7.2960005,7.1010003
1680009480781,1189469135963671,2.091,7.32,7.0750504
1680009480783,1189469138465825,2.0770502,7.2769504,7.0669503
1680009480785,1189469140968286,2.1010501,7.248,6.9619503
1680009480788,1189469143470440,2.28705,7.1980505,7.0360503
1680009480791,1189469145972594,2.196,7.2720003,7.0939503
1680009480793,1189469148474748,2.2110002,7.215,6.972
1680009480797,1189469150976897,2.184,7.1280003,6.945
1680009480799,1189469153479051,2.127,7.0999503,6.94005
1680009480801,1189469155981281,2.223,7.0249505,6.7630506
1680009480803,1189469158483435,2.2420502,6.9919505,6.8809505
1680009480805,1189469160985820,2.3089502,6.9679503,6.8970003
1680009480808,1189469163487969,2.3089502,7.0420504,6.8610005
1680009480811,1189469165990123,2.2729502,6.9580503,6.7870502
1680009480813,1189469168492276,2.319,6.9420004,6.7489505
1680009480815,1189469170994507,2.292,6.9150004,6.7200003
1680009480818,1189469173496666,2.3470502,6.8509502,6.70305
1680009480821,1189469175998820,2.22495,6.83895,6.7369504
1680009480823,1189469178501205,2.29005,6.8239503,6.8490005
1680009480826,1189469181003358,2.2729502,6.8430004,6.8250003
1680009480829,1189469183505492,2.17995,6.8269506,6.7560005
1680009480831,1189469186007723,2.16,6.8100004,6.7390504
1680009480835,1189469188509877,2.1409502,6.7549505,6.768
1680009480836,1189469191012261,2.043,6.7930503,6.73005
1680009480838,1189469193514185,2.0329502,6.762,6.7900505
1680009480841,1189469196016565,2.01195,6.834,6.8299503
1680009480843,1189469198518719,1.96395,6.8940005,6.603
1680009480846,1189469201020873,1.9020001,6.83895,6.7630506
1680009480848,1189469203523099,1.88505,6.8959503,6.7900505
1680009480852,1189469206025253,1.9380001,6.9490504,6.7060504
1680009480853,1189469208527637,1.8780001,6.97305,6.8089504
1680009480855,1189469211029560,1.84905,6.98505,6.90705
1680009480858,1189469213531714,1.9110001,7.0690503,6.78
1680009480861,1189469216034118,1.8280501,7.0350003,6.8809505
1680009480863,1189469218536348,1.8349501,7.1239505,6.84495
1680009480866,1189469221038502,1.8040501,7.083,7.0000505
1680009480870,1189469223540656,1.7530501,7.1520004,6.9139504
1680009480872,1189469226042815,1.7220001,7.2000003,6.8209505
1680009480877,1189469228545200,1.7320501,7.155,6.9739504
1680009480877,1189469231047123,1.7220001,7.0660505,6.873
1680009480878,1189469233549584,1.6789501,7.227,6.9139504
1680009480880,1189469236051718,1.7580001,7.1959505,6.945
1680009480883,1189469238553872,1.72695,7.1359506,6.9090004
1680009480885,1189469241056026,1.74405,7.0950003,7.0459504
1680009480888,1189469243558180,1.7080501,7.12095,6.8830504
1680009480891,1189469246060550,1.69305,7.0609503,6.9880505
1680009480893,1189469248562781,1.71,7.0540504,6.86595
1680009480895,1189469251064935,1.6380001,7.0330505,6.9160504
1680009480898,1189469253567089,1.6290001,7.03695,6.972
1680009480901,1189469256069253,1.7010001,7.03695,6.95205
1680009480903,1189469258571407,1.6360501,6.94605,7.00995
1680009480905,1189469261073560,1.69605,6.9340506,6.9930005
1680009480910,1189469263576022,1.62195,6.9300003,7.00995
1680009480912,1189469266078205,1.6339501,6.83895,6.8569503
1680009480914,1189469268580359,1.677,6.8599505,6.945
1680009480915,1189469271082512,1.6810501,6.9340506,6.9160504
1680009480920,1189469273584666,1.6840501,6.8770504,6.984
1680009480923,1189469276086815,1.6890001,6.7639503,7.00995
1680009480924,1189469278588969,1.7820001,6.7309504,6.9430504
1680009480926,1189469281091354,1.7200501,6.73605,6.9690003
1680009480928,1189469283593584,1.6980001,6.7759504,6.9880505
1680009480931,1189469286095738,1.74405,6.7570505,6.9210005
1680009480933,1189469288597892,1.7890501,6.7549505,6.9310503
1680009480935,1189469291100013,1.761,6.762,6.9880505
1680009480938,1189469293602167,1.8540001,6.8310003,6.8179502
1680009480940,1189469296104628,1.74405,6.6540003,6.9210005
1680009480942,1189469298606705,1.761,6.84105,6.9310503
1680009480947,1189469301108945,1.9210501,6.76905,6.9280505
1680009480949,1189469303611099,1.89495,6.681,6.9619503
1680009480951,1189469306113484,1.9780501,6.7429504,6.9949503
1680009480953,1189469308615637,1.9860001,6.762,6.9670506
1680009480955,1189469311117777,1.9950001,6.66405,6.94995
1680009480958,1189469313619931,2.06205,6.7260003,6.95205
1680009480961,1189469316122085,2.0070002,6.702,7.0600505
1680009480963,1189469318624316,2.08395,6.7210503,7.0720506
1680009480967,1189469321126446,2.0959501,6.6829505,6.945
1680009480970,1189469323628830,2.0770502,6.714,6.9330006
1680009480971,1189469326130984,2.08605,6.6469502,6.9310503
1680009480973,1189469328633138,2.1319501,6.6850505,6.8160005
1680009480977,1189469331135292,2.15595,6.70905,6.9139504
1680009480978,1189469333637460,2.15805,6.6469502,6.9670506
1680009480980,1189469336139921,2.0770502,6.70695,6.9739504
1680009480986,1189469338642075,2.184,6.7720504,6.9619503
1680009480986,1189469341144229,2.11305,6.7330503,6.93795
1680009480988,1189469343646374,2.055,6.6730504,6.9910502
1680009480990,1189469346148528,2.046,6.6930003,6.9640503
1680009480992,1189469348650681,2.05995,6.73605,6.93795
1680009480995,1189469351152912,2.01195,6.76905,7.0459504
1680009480998,1189469353655095,2.01,6.69495,6.972
1680009481001,1189469356157480,1.9260001,6.702,7.0270505
1680009481003,1189469358659634,1.9570501,6.762,7.0150504
1680009481006,1189469361161787,1.9189501,6.8890505,6.9430504
1680009481008,1189469363663917,1.9590001,6.8890505,6.8950505
1680009481011,1189469366166071,1.9620001,6.90105,6.984
1680009481013,1189469368668302,1.8709501,6.8940005,7.0600505
1680009481015,1189469371170456,1.99995,6.8029504,7.0530005
1680009481019,1189469373672830,1.866,6.8509502,6.972
1680009481022,1189469376174984,1.9210501,6.8599505,6.9310503
1680009481025,1189469378677138,1.9660501,6.7260003,7.02405
1680009481027,1189469381179292,1.9740001,6.8149505,6.9040504
1680009481029,1189469383681523,1.9570501,6.8700004,6.9600005
1680009481032,1189469386183917,1.9879501,6.8509502,7.1059504
1680009481034,1189469388685840,1.9350001,6.867,7.0530005
1680009481036,1189469391188225,1.9710001,6.8430004,6.9880505
1680009481038,1189469393690379,1.9429501,6.8220005,7.0219502
1680009481041,1189469396192537,1.9950001,6.906,7.03905
1680009481044,1189469398694767,1.9590001,6.7549505,6.9979506
1680009481047,1189469401196921,1.9900501,6.8599505,7.0360503
1680009481048,1189469403699075,1.89495,6.8890505,6.93795
1680009481051,1189469406201465,1.914,6.7720504,7.017
1680009481053,1189469408703388,1.93095,6.7450504,6.9880505
1680009481055,1189469411205772,1.9189501,6.85305,6.9240003
1680009481060,1189469413708022,1.8870001,6.762,6.9690003
1680009481062,1189469416210176,1.84395,6.73605,6.9979506
1680009481064,1189469418712330,1.84695,6.7570505,6.9430504
1680009481066,1189469421214484,1.8319501,6.6780005,6.9690003
1680009481071,1189469423716883,1.7770501,6.62295,6.8590503
1680009481071,1189469426218807,1.9039501,6.70695,6.9040504
1680009481073,1189469428721191,1.7680501,6.79995,7.05495
1680009481076,1189469431223422,1.8250501,6.7120504,6.8640003
1680009481078,1189469433725576,1.8520501,6.7450504,6.87795
1680009481081,1189469436227720,1.8589501,6.81195,6.83505
1680009481083,1189469438729873,1.72905,6.74805,6.8640003
1680009481086,1189469441232027,1.8280501,6.681,6.9
1680009481088,1189469443734412,1.8679501,6.70905,6.8689504
1680009481091,1189469446236648,1.8060001,6.7519503,6.7969503
1680009481095,1189469448738802,1.81095,6.7860003,6.84705
1680009481099,1189469451240955,1.8589501,6.76905,6.8880005
1680009481101,1189469453743109,1.83,6.774,6.9210005
1680009481103,1189469456245296,1.83,6.81195,6.8539505
1680009481103,1189469458747450,1.7920501,6.6570005,6.94005
1680009481105,1189469461249912,1.8750001,6.7549505,6.9619503
1680009481108,1189469463752065,1.77495,6.8269506,6.9670506
1680009481111,1189469466254219,1.8540001,6.78105,6.97905
1680009481115,1189469468756349,1.8829501,6.7879505,6.9310503
1680009481116,1189469471258503,1.7890501,6.7549505,6.8539505
1680009481119,1189469473760657,1.8780001,6.77895,6.8370004
1680009481121,1189469476263041,1.9090501,6.867,6.8299503
1680009481123,1189469478765272,1.8199501,6.8290505,6.9600005
1680009481126,1189469481267450,1.8079501,6.7549505,7.0360503
1680009481129,1189469483769604,1.899,6.7980003,6.9739504
1680009481131,1189469486271758,1.9879501,6.84105,6.9259505
1680009481136,1189469488773912,1.9380001,6.9150004,6.9910502
1680009481138,1189469491276393,1.89495,6.8700004,6.8569503
1680009481139,1189469493778470,1.9210501,6.9250503,6.9949503
1680009481141,1189469496280624,1.899,6.8650503,7.0410004
1680009481144,1189469498782855,2.019,6.83895,6.8929505
1680009481146,1189469501285009,1.96395,6.94395,7.02405
1680009481148,1189469503787166,1.9159501,6.8580003,6.972
1680009481151,1189469506289320,1.9069501,6.88395,7.0480504
1680009481153,1189469508791705,2.01405,6.90105,7.0980005
1680009481156,1189469511293936,1.93305,6.8509502,7.0630503
1680009481158,1189469513796033,1.9660501,6.8430004,7.0069504
1680009481161,1189469516298263,2.01705,6.8770504,7.0650005
1680009481163,1189469518800417,1.9230001,6.7600503,7.077
1680009481166,1189469521302571,2.01705,6.7930503,6.9930005
1680009481168,1189469523804956,2.0359502,6.81195,7.1059504
1680009481173,1189469526307110,2.12205,6.7759504,7.1029506
1680009481174,1189469528809340,2.08095,6.8890505,7.0939503
1680009481175,1189469531311417,2.115,6.6900005,7.08195
1680009481178,1189469533813657,2.079,6.8149505,7.15395
1680009481181,1189469536315811,2.02305,6.8170505,7.1580005
1680009481183,1189469538818195,1.9879501,6.84105,7.2400503
1680009481186,1189469541320349,2.08905,6.7879505,7.2130504
1680009481188,1189469543822503,2.0400002,6.7429504,7.2180004
1680009481191,1189469546324729,2.01195,6.8100004,7.209
1680009481193,1189469548826883,2.0299501,6.8869505,7.0870504
1680009481196,1189469551329037,1.9570501,6.7720504,7.17495
1680009481198,1189469553831421,2.04795,6.939,7.08405
1680009481201,1189469556333561,1.9879501,6.7210503,7.2370505
1680009481203,1189469558835715,1.9399501,6.774,7.01205
1680009481206,1189469561337869,1.9039501,6.8430004,7.0360503
1680009481210,1189469563840013,1.9090501,6.8190002,7.14195
1680009481212,1189469566342243,1.96905,6.7189503,7.0669503
1680009481214,1189469568844628,1.8900001,6.7330503,7.1700006
1680009481216,1189469571346782,1.8709501,6.7860003,7.1629505
1680009481218,1189469573848936,1.8610501,6.774,7.089
1680009481221,1189469576351085,1.8400501,6.7309504,7.1370006
1680009481223,1189469578853239,1.8540001,6.7210503,7.0069504
1680009481226,1189469581355392,1.87995,6.8770504,7.0579505
1680009481228,1189469583857623,1.7320501,6.7980003,7.08405
1680009481231,1189469586359984,1.7820001,6.939,7.1340003
1680009481233,1189469588862138,1.7989501,6.8749504,7.00995
1680009481236,1189469591364291,1.761,6.8479505,7.149
1680009481238,1189469593866445,1.866,6.8239503,7.0360503
1680009481241,1189469596368599,1.7080501,6.84105,7.04295
1680009481243,1189469598870753,1.8250501,6.9420004,7.0069504
1680009481249,1189469601373215,1.7149501,6.73605,7.1059504
1680009481249,1189469603875368,1.8180001,6.83895,7.1460004
1680009481252,1189469606377512,1.84395,6.87195,7.0480504
1680009481253,1189469608879666,1.83,6.8239503,7.0410004
1680009481256,1189469611381820,1.8559501,6.7380004,7.18695
1680009481258,1189469613883974,1.95,6.8239503,7.1629505
1680009481261,1189469616386435,1.9230001,6.78105,7.0939503
1680009481263,1189469618888372,1.95,6.78105,7.077
1680009481266,1189469621390757,1.9879501,6.8170505,7.2010503
1680009481270,1189469623892911,1.9429501,6.7720504,6.97905
1680009481271,1189469626395142,1.9660501,6.78105,7.1629505
1680009481273,1189469628897278,1.8970501,6.74805,7.149
1680009481276,1189469631399431,2.022,6.7429504,7.089
1680009481279,1189469633901585,2.0359502,6.7519503,7.1730003
1680009481281,1189469636403739,1.9930501,6.8149505,7.1080503
1680009481286,1189469638905916,2.0380502,6.8359504,7.1779504
1680009481288,1189469641408301,2.0380502,6.774,7.2709503
1680009481289,1189469643910531,1.9710001,6.73605,7.2570004
1680009481291,1189469646412685,2.0670002,6.6930003,7.3020005
1680009481295,1189469648914839,2.055,6.8550005,7.3240504
1680009481296,1189469651416970,2.08095,6.7960505,7.26105
1680009481299,1189469653919124,2.1720002,6.7429504,7.2180004
1680009481301,1189469656421278,2.1079502,6.7500005,7.281
1680009481303,1189469658923662,2.18895,6.8359504,7.29195
1680009481306,1189469661425893,2.2110002,6.79995,7.209
1680009481309,1189469663928051,2.2080002,6.8190002,7.2520504
1680009481312,1189469666430205,2.22795,6.669,7.2330003
1680009481313,1189469668932359,2.1409502,6.69495,7.2370505
1680009481316,1189469671434512,2.15595,6.69495,7.18905
1680009481319,1189469673936974,2.19405,6.6610503,7.18695
1680009481325,1189469676439051,2.1409502,6.5779505,7.1920505
1680009481326,1189469678941282,2.1720002,6.67605,7.1610003
1680009481327,1189469681443422,2.15805,6.6829505,7.2760506
1680009481329,1189469683945575,2.1390002,6.6610503,7.1700006
1680009481332,1189469686447729,2.09295,6.69495,7.2109504
1680009481333,1189469688950114,2.1030002,6.7050004,7.1970005
1680009481336,1189469691452268,2.1030002,6.6829505,7.14405
1680009481338,1189469693954398,2.046,6.69705,7.15395
1680009481341,1189469696456628,2.01705,6.7429504,7.2349505
1680009481345,1189469698958782,1.9470001,6.78105,7.0270505
1680009481347,1189469701460936,1.9950001,6.72795,7.1509504
1680009481348,1189469703963335,1.86405,6.7000504,7.15395
1680009481352,1189469706465488,1.9110001,6.7429504,7.1340003
1680009481353,1189469708967642,1.89495,6.7549505,7.209
1680009481356,1189469711469873,1.9069501,6.7909503,7.149
1680009481360,1189469713971955,1.84905,6.762,7.15395
1680009481362,1189469716474186,1.9260001,6.72795,7.2010503
1680009481364,1189469718976570,1.899,6.73995,7.2829504
1680009481366,1189469721478724,1.9189501,6.762,7.1850004
1680009481368,1189469723980878,1.8750001,6.70905,7.1610003
1680009481371,1189469726483023,1.9230001,6.7500005,7.221
1680009481373,1189469728985254,1.8319501,6.76905,7.1029506
1680009481376,1189469731487408,1.9710001,6.867,7.2060003
1680009481379,1189469733989561,1.95,6.7909503,7.2850504
1680009481381,1189469736491965,1.9020001,6.7189503,7.24905
1680009481383,1189469738994119,1.9069501,6.7840505,7.2520504
1680009481386,1189469741496350,1.9519501,6.774,7.2640505
1680009481388,1189469743998427,1.9350001,6.77895,7.0939503
1680009481391,1189469746500657,2.019,6.8100004,7.1029506
1680009481393,1189469749002811,2.05005,6.8149505,7.1250005
1680009481397,1189469751505196,1.96395,6.7210503,7.24695
1680009481398,1189469754007350,2.0380502,6.6829505,7.1970005
1680009481401,1189469756509532,2.09805,6.7050004,7.1629505
1680009481403,1189469759011685,2.08395,6.70695,7.1580005
1680009481405,1189469761513839,2.08905,6.7260003,7.1920505
1680009481408,1189469764015993,2.0770502,6.6160502,7.1509504
1680009481410,1189469766518455,2.08605,6.6660004,7.1269503
1680009481413,1189469769020590,2.079,6.6660004,7.182
1680009481415,1189469771522743,2.05005,6.7380004,7.2010503
1680009481418,1189469774024897,2.08395,6.6469502,7.11495
1680009481421,1189469776527051,2.1079502,6.5940003,7.14405
1680009481423,1189469779029287,2.1049502,6.5610003,6.984
1680009481426,1189469781531441,2.1769502,6.63,7.0530005
1680009481428,1189469784033825,2.12505,6.6109505,6.9979506
1680009481431,1189469786535979,2.1340501,6.57495,7.0630503
1680009481435,1189469789038148,2.1079502,6.537,7.0720506
1680009481436,1189469791540302,2.151,6.59205,7.0980005
1680009481438,1189469794042456,2.1370502,6.6280503,7.11
1680009481441,1189469796544917,2.1679502,6.5460005,7.122
1680009481443,1189469799047071,2.1409502,6.58995,6.972
1680009481445,1189469801549249,2.046,6.5340004,7.0150504
1680009481448,1189469804051403,2.11995,6.60195,6.9690003
1680009481451,1189469806553557,2.1390002,6.5940003,7.04295
1680009481453,1189469809055711,2.079,6.6210003,7.0720506
1680009481456,1189469811557864,2.0070002,6.6610503,7.03905
1680009481459,1189469814060109,2.0650501,6.6780005,7.122
1680009481461,1189469816562494,2.02905,6.642,7.0459504
1680009481463,1189469819064648,1.9879501,6.642,7.0750504
1680009481466,1189469821566802,2.01195,6.57,7.089
1680009481468,1189469824068983,2.0400002,6.67605,7.0960503
1680009481473,1189469826571137,1.96905,6.537,7.0909505
1680009481474,1189469829073368,1.9230001,6.6780005,7.0000505
1680009481476,1189469831575522,1.8589501,6.70695,7.1340003
1680009481479,1189469834077892,1.9090501,6.6660004,7.06995
1680009481481,1189469836580046,1.9090501,6.7170005,7.1629505
1680009481483,1189469839082200,1.8679501,6.70905,7.1179504
1680009481486,1189469841584354,1.8559501,6.74805,7.1800504
1680009481488,1189469844086585,1.8010501,6.76905,7.14405
1680009481491,1189469846588969,1.8420001,6.78105,7.182
1680009481493,1189469849090893,1.8349501,6.8170505,7.1580005
1680009481496,1189469851593277,1.8349501,6.7450504,7.14195
1680009481500,1189469854095431,1.9380001,6.7879505,7.1920505
1680009481501,1189469856597585,1.9110001,6.77895,7.2850504
1680009481503,1189469859099816,1.8559501,6.834,7.1610003
1680009481505,1189469861601969,1.914,6.8650503,7.3500004
1680009481510,1189469864104123,1.9570501,6.78105,7.3639503
1680009481512,1189469866606277,2.01,6.8430004,7.28805
1680009481514,1189469869108662,1.88505,6.7639503,7.2180004
1680009481516,1189469871610816,1.9230001,6.7309504,7.3980002
1680009481518,1189469874112970,1.9780501,6.89895,7.314
1680009481521,1189469876615186,2.058,6.8100004,7.4100003
1680009481523,1189469879117340,2.0670002,6.6850505,7.3240504
1680009481526,1189469881619494,2.09295,6.642,7.2850504
1680009481528,1189469884121879,2.09805,6.6330004,7.18695
1680009481531,1189469886623797,2.1649501,6.7240505,7.2660003
1680009481533,1189469889126181,2.0670002,6.7330503,7.209
1680009481536,1189469891628412,2.151,6.67605,7.18905
1680009481538,1189469894130566,2.15805,6.6180005,7.1509504
1680009481541,1189469896632720,2.223,6.6930003,7.2010503
1680009481543,1189469899134889,2.22795,6.5940003,7.22805
1680009481547,1189469901637273,2.15295,6.57,7.1730003
1680009481549,1189469904139427,2.2080002,6.597,7.17495
1680009481551,1189469906641648,2.196,6.5149503,7.1029506
1680009481553,1189469909143802,2.1720002,6.6570005,7.1970005
1680009481556,1189469911645956,2.259,6.7330503,7.077
1680009481558,1189469914148109,2.127,6.6610503,7.1680503
1680009481561,1189469916650263,2.15295,6.6400504,7.0069504
1680009481564,1189469919152648,2.1990001,6.558,7.0650005
1680009481566,1189469921654879,2.187,6.67605,7.1250005
1680009481569,1189469924157033,2.11305,6.6469502,7.1179504
1680009481571,1189469926659186,2.1460502,6.56295,7.0579505
1680009481574,1189469929161321,2.1409502,6.54405,7.0630503
1680009481576,1189469931663475,2.0380502,6.5800505,7.0650005
1680009481579,1189469934165629,1.9930501,6.51105,6.9550505
1680009481581,1189469936668014,2.01,6.5340004,6.9600005
1680009481586,1189469939170248,1.9660501,6.5130005,6.9570003
1680009481587,1189469941672325,2.046,6.5490003,6.93795
1680009481588,1189469944174556,1.93305,6.5490003,6.8830504
1680009481591,1189469946676941,1.96395,6.5560503,6.9739504
1680009481594,1189469949179095,1.8900001,6.6589503,7.05105
1680009481596,1189469951681233,1.9519501,6.5940003,6.9330006
1680009481599,1189469954183387,1.8589501,6.4870505,6.9
1680009481604,1189469956685618,1.9069501,6.702,7.11
1680009481605,1189469959187772,1.8420001,6.5610003,6.9949503
1680009481606,1189469961689902,1.7820001,6.4870505,7.0219502
1680009481608,1189469964192286,1.8010501,6.52995,6.9810004
1680009481611,1189469966694440,1.8280501,6.7000504,6.9600005
1680009481614,1189469969196594,1.746,6.6109505,7.1340003
1680009481616,1189469971698748,1.7370001,6.6160502,7.05495
1680009481619,1189469974200950,1.7530501,6.76905,7.0870504
1680009481623,1189469976703027,1.7389501,6.7720504,7.0750504
1680009481625,1189469979205488,1.8180001,6.7860003,7.15395
1680009481627,1189469981707613,1.713,6.76905,7.21605
1680009481630,1189469984209767,1.6890001,6.8050504,7.14405
1680009481632,1189469986711921,1.7530501,6.64905,7.0669503
1680009481634,1189469989214075,1.7410501,6.7450504,7.077
1680009481636,1189469991716305,1.64295,6.7000504,7.221
1680009481638,1189469994218690,1.7170501,6.7519503,7.31895
1680009481642,1189469996720844,1.7340001,6.69495,7.2900004
1680009481643,1189469999222998,1.7839501,6.6900005,7.2229505
1680009481646,1189470001725152,1.8349501,6.8170505,7.32105
1680009481649,1189470004227315,1.7989501,6.7840505,7.3330503
1680009481651,1189470006729469,1.88505,6.762,7.314
1680009481654,1189470009231700,1.8420001,6.774,7.34805
1680009481657,1189470011734085,1.9069501,6.7549505,7.18905
1680009481662,1189470014236218,1.93095,6.6660004,7.3330503
1680009481664,1189470016738372,1.899,6.7330503,7.2660003
1680009481665,1189470019240526,1.9519501,6.76905,7.35195
1680009481667,1189470021742680,1.9900501,6.6850505,7.3810506
1680009481669,1189470024244911,2.058,6.81195,7.3069506
1680009481671,1189470026747065,2.1079502,6.5989504,7.3039503
1680009481673,1189470029249449,2.1340501,6.6139503,7.3639503
1680009481676,1189470031751603,2.12895,6.6850505,7.2900004
1680009481678,1189470034253757,2.21595,6.63705,7.3980002
1680009481681,1189470036755911,2.196,6.6829505,7.314
1680009481683,1189470039258065,2.25405,6.6660004,7.4389505
1680009481686,1189470041760526,2.2440002,6.62295,7.3330503
1680009481688,1189470044262449,2.1720002,6.64905,7.36005
1680009481691,1189470046764834,2.3380501,6.6330004,7.2660003
1680009481693,1189470049266998,2.3110502,6.597,7.22805
1680009481698,1189470051769152,2.19405,6.5509505,7.3950005
1680009481700,1189470054271305,2.2369502,6.60405,7.2730503
1680009481702,1189470056773536,2.25195,6.5230503,7.3000503
1680009481704,1189470059275695,2.2080002,6.54405,7.4100003
1680009481706,1189470061778080,2.223,6.5820003,7.3330503
1680009481709,1189470064280003,2.223,6.5509505,7.326
1680009481711,1189470066782387,2.18895,6.4789505,7.1580005
1680009481714,1189470069284526,2.1720002,6.5509505,7.326
1680009481716,1189470071786757,2.259,6.5509505,7.1130004
1680009481719,1189470074288911,2.091,6.558,7.2760506
1680009481721,1189470076791065,2.079,6.4870505,7.1299505
1680009481724,1189470079293435,2.1030002,6.5850005,7.089
1680009481726,1189470081795358,2.0740502,6.5460005,7.1370006
1680009481729,1189470084297743,2.079,6.52995,7.1460004
1680009481731,1189470086799974,2.0740502,6.4290004,7.11495
1680009481735,1189470089302118,1.93095,6.465,7.0000505
1680009481737,1189470091804272,1.9740001,6.4080005,7.18695
1680009481739,1189470094306425,1.93095,6.5230503,7.1200504
1680009481742,1189470096808810,1.9660501,6.465,7.0360503
1680009481744,1189470099310959,1.8829501,6.5779505,7.1200504
1680009481746,1189470101813113,1.8370501,6.4890003,7.0150504
1680009481748,1189470104315344,1.9090501,6.4459505,7.18905
1680009481752,1189470106817497,1.8010501,6.5200505,7.0579505
1680009481754,1189470109319651,1.7890501,6.49095,7.1299505
1680009481756,1189470111821805,1.794,6.5200505,7.122
1680009481759,1189470114323959,1.7050501,6.6330004,7.1779504
1680009481761,1189470116826344,1.7080501,6.6210003,7.0789504
1680009481763,1189470119328555,1.7989501,6.63705,7.2040505
1680009481766,1189470121830709,1.6810501,6.6259503,7.14405
1680009481769,1189470124332863,1.71,6.5850005,7.0530005
1680009481773,1189470126835017,1.6840501,6.6730504,7.2349505
1680009481774,1189470129337181,1.7509501,6.6570005,7.2060003
1680009481776,1189470131839335,1.72695,6.6259503,7.17495
1680009481779,1189470134341796,1.7050501,6.669,7.26105
1680009481781,1189470136843950,1.7530501,6.6589503,7.2829504
1680009481784,1189470139346104,1.8520501,6.6210003,7.1730003
1680009481786,1189470141848277,1.7890501,6.6570005,7.3159504
1680009481789,1189470144350431,1.8349501,6.64905,7.2060003
1680009481791,1189470146852815,1.8970501,6.7330503,7.2040505
1680009481794,1189470149354969,1.8319501,6.6930003,7.281
1680009481796,1189470151857229,1.93305,6.6780005,7.3380003
1680009481798,1189470154359383,1.983,6.681,7.32105
1680009481801,1189470156861536,1.9260001,6.6930003,7.39095
1680009481804,1189470159363690,1.9090501,6.6520505,7.3720503
1680009481807,1189470161865791,1.96395,6.6660004,7.2900004
1680009481810,1189470164368253,1.9710001,6.67605,7.45305
1680009481813,1189470166870407,1.9740001,6.54195,7.45095
1680009481814,1189470169372560,2.01405,6.6400504,7.3330503
1680009481816,1189470171874719,2.046,6.67605,7.36005
1680009481819,1189470174376873,1.9900501,6.7170005,7.4820004
1680009481821,1189470176879027,2.11305,6.6540003,7.4410505
1680009481825,1189470179381181,2.1030002,6.6850505,7.4220004
1680009481827,1189470181883565,2.02605,6.6400504,7.4290504
1680009481829,1189470184385796,2.1409502,6.6829505,7.4290504
1680009481832,1189470186887950,2.08395,6.67605,7.3240504
1680009481835,1189470189390104,2.12895,6.76905,7.3669505
1680009481836,1189470191892258,2.1649501,6.6880503,7.5199504
1680009481839,1189470194394407,2.15295,6.558,7.3500004
1680009481841,1189470196896791,2.17995,6.6469502,7.39305
1680009481844,1189470199398945,2.18895,6.6780005,7.3740005
1680009481848,1189470201901185,2.1700501,6.7050004,7.4170504
1680009481851,1189470204403339,2.2440002,6.63,7.4389505
1680009481853,1189470206905493,2.163,6.5820003,7.2949505
1680009481855,1189470209407646,2.151,6.60195,7.4359503
1680009481857,1189470211910031,2.12205,6.6660004,7.3570504
1680009481859,1189470214412277,2.15805,6.64905,7.4149504
1680009481861,1189470216914354,2.1079502,6.4939504,7.2850504
1680009481866,1189470219416585,2.15595,6.5200505,7.3830004
1680009481869,1189470221918738,2.05005,6.4890003,7.2250504
1680009481870,1189470224420906,2.14905,6.525,7.3690505
1680009481872,1189470226923291,2.05995,6.5130005,7.2130504
1680009481874,1189470229425445,2.163,6.5200505,7.4220004
1680009481876,1189470231927599,2.1319501,6.46005,7.4170504
1680009481879,1189470234429762,2.09805,6.4429502,7.32105
1680009481882,1189470236931993,1.96395,6.4669504,7.2829504
1680009481887,1189470239434147,1.96395,6.4669504,7.39095
1680009481888,1189470241936532,2.0650501,6.5539503,7.3360505
1680009481891,1189470244438686,1.96905,6.42705,7.4170504
1680009481893,1189470246940839,1.9980001,6.5010004,7.5079503
1680009481894,1189470249442993,1.96905,6.4890003,7.458
1680009481896,1189470251945224,1.95,6.4630504,7.46505
1680009481899,1189470254447315,1.9039501,6.4870505,7.4070005
1680009481902,1189470256949546,1.9429501,6.477,7.4550004
1680009481904,1189470259451700,1.87995,6.4080005,7.6210504
1680009481906,1189470261954084,1.7820001,6.4819503,7.7089505
1680009481909,1189470264456007,1.8900001,6.38805,7.5990005
1680009481912,1189470266958416,1.8060001,6.4510503,7.52505
1680009481914,1189470269460647,1.72905,6.3760505,7.5150003
1680009481916,1189470271962801,1.84905,6.3169503,7.6399503
1680009481920,1189470274464954,1.9350001,6.3289504,7.4479504
1680009481925,1189470276967118,1.899,6.38595,7.5820503
1680009481927,1189470279469503,1.9740001,6.3810005,7.5730505
1680009481929,1189470281971657,1.93305,6.2779503,7.5100503
1680009481930,1189470284473887,1.9810501,6.2899504,7.6039505
1680009481932,1189470286976075,2.05005,6.2380505,7.6009502
1680009481934,1189470289478229,1.9879501,6.3019505,7.58895
1680009481936,1189470291980614,1.99995,6.3289504,7.5150003
1680009481939,1189470294482537,2.079,6.249,7.6470003
1680009481941,1189470296984932,2.1769502,6.3810005,7.563
1680009481944,1189470299487162,2.1409502,6.3570004,7.3720503
1680009481948,1189470301989316,2.1700501,6.372,7.3759503
1680009481950,1189470304491470,2.2800002,6.38805,7.5079503
1680009481953,1189470306993624,2.184,6.36705,7.5370502
1680009481954,1189470309495778,2.256,6.4459505,7.5390005
1680009481956,1189470311997932,2.3040001,6.43905,7.5439506
1680009481962,1189470314500354,2.2470002,6.4789505,7.6090503
1680009481965,1189470317002508,2.2729502,6.5340004,7.4719505
1680009481967,1189470319504662,2.2800002,6.5340004,7.35195
1680009481969,1189470322006816,2.2800002,6.5080504,7.58895
1680009481971,1189470324508970,2.36205,6.5269504,7.46295
1680009481973,1189470327011147,2.319,6.5989504,7.48605
1680009481974,1189470329513609,2.4049501,6.6330004,7.4599504
1680009481977,1189470332015686,2.319,6.60195,7.458
1680009481979,1189470334517917,2.28705,6.5989504,7.39305
1680009481983,1189470337020061,2.32305,6.5989504,7.4749503
1680009481985,1189470339522215,2.29695,6.63495,7.4820004
1680009481987,1189470342024369,2.319,6.6139503,7.4220004
1680009481989,1189470344526523,2.25195,6.7860003,7.6009502
1680009481991,1189470347028985,2.26305,6.69495,7.4940004
1680009481994,1189470349531089,2.352,6.6610503,7.4100003
1680009481998,1189470352033320,2.2350001,6.6930003,7.39305
1680009482000,1189470354535474,2.21805,6.7260003,7.4290504
1680009482003,1189470357037628,2.19195,6.5820003,7.5199504
1680009482004,1189470359539797,2.09805,6.66405,7.3879504
1680009482006,1189470362042181,2.01,6.7519503,7.5700502
1680009482009,1189470364544412,2.0380502,6.7210503,7.4430003
1680009482011,1189470367046566,2.0299501,6.6660004,7.5199504
1680009482014,1189470369548720,2.02305,6.6540003,7.491
1680009482016,1189470372050883,1.9069501,6.5730004,7.4070005
1680009482019,1189470374553037,1.89495,6.6060004,7.3999505
1680009482021,1189470377055421,1.83,6.5610003,7.4389505
1680009482024,1189470379557566,1.7389501,6.46005,7.4290504
1680009482027,1189470382059720,1.866,6.54195,7.4719505
1680009482029,1189470384561951,1.7530501,6.4549503,7.5270004
1680009482032,1189470387064105,1.8280501,6.3499503,7.4100003
1680009482035,1189470389566253,1.72695,6.34005,7.3120503
1680009482037,1189470392068638,1.8679501,6.3499503,7.4290504
1680009482039,1189470394570792,1.9159501,6.3289504,7.39095
1680009482042,1189470397072946,1.8750001,6.2470503,7.46295
1680009482044,1189470399575100,1.9020001,6.261,7.45305
1680009482046,1189470402077330,1.866,6.216,7.46505
1680009482049,1189470404579484,1.93095,6.135,7.4149504
1680009482052,1189470407081638,2.022,6.2040005,7.3240504
1680009482054,1189470409584023,1.9950001,6.0550504,7.48395
1680009482056,1189470412086177,2.01,5.991,7.4149504
1680009482059,1189470414588330,1.9429501,6.0220504,7.3669505
1680009482062,1189470417090484,2.0719502,5.9809504,7.4359503
1680009482064,1189470419592715,2.06205,5.9500504,7.3830004
1680009482067,1189470422094869,2.05005,5.9809504,7.3999505
1680009482069,1189470424597244,2.01705,5.83995,7.39095
1680009482073,1189470427099397,2.0670002,5.8710003,7.5540004
1680009482075,1189470429601551,2.1720002,5.8710003,7.3740005
1680009482077,1189470432103705,2.1100502,5.8609505,7.4460006
1680009482079,1189470434605908,2.16,5.79405,7.45095
1680009482082,1189470437107985,2.1079502,5.7990003,7.458
1680009482084,1189470439610446,2.08395,5.775,7.4719505
1680009482086,1189470442112600,2.1319501,5.76795,7.5540004
1680009482089,1189470444614763,2.15595,5.703,7.5030003
1680009482092,1189470447116917,2.11305,5.78205,7.5390005
1680009482094,1189470449619071,2.0670002,5.77995,7.52505
1680009482097,1189470452121302,2.1700501,5.67495,7.563
1680009482100,1189470454623445,2.2080002,5.7990003,7.5420003
1680009482103,1189470457125830,2.163,5.75895,7.39305
1680009482104,1189470459627984,2.1769502,5.73495,7.49805
1680009482106,1189470462130138,2.19195,5.7510004,7.6210504
1680009482110,1189470464632292,2.19195,5.7300005,7.4890504
1680009482113,1189470467134445,2.21595,5.8110003,7.5820503
1680009482115,1189470469636676,2.22495,5.76795,7.6369505
1680009482117,1189470472139061,2.1679502,5.84205,7.6780505
1680009482119,1189470474641229,2.35395,5.8780503,7.314
1680009482121,1189470477143382,2.33505,5.8230004,7.491
1680009482127,1189470479645536,2.26605,5.8279505,7.4770503
1680009482127,1189470482147690,2.35695,5.991,7.458
1680009482129,1189470484649873,2.259,5.8830004,7.3950005
1680009482131,1189470487152104,2.2009501,5.98395,7.5030003
1680009482134,1189470489654488,2.1649501,5.9760003,7.39095
1680009482136,1189470492156642,2.19405,6.0670505,7.5340505
1680009482139,1189470494658810,2.1649501,6.1270504,7.49805
1680009482141,1189470497160964,2.2039502,6.2040005,7.5270004
1680009482144,1189470499663118,2.12205,6.3310504,7.5079503
1680009482147,1189470502165349,2.184,6.3360004,7.66095
1680009482150,1189470504667502,2.11305,6.43905,7.6399503
1680009482152,1189470507169887,2.1370502,6.4360504,7.5990005
1680009482154,1189470509672041,2.196,6.5149503,7.7209506
1680009482156,1189470512174195,2.295,6.5389504,7.7449503
1680009482159,1189470514676325,2.4070501,6.4150505,7.8409505
1680009482162,1189470517178555,2.496,6.5149503,7.6780505
1680009482164,1189470519680709,2.5890002,6.5080504,7.7710505
1680009482166,1189470522182863,2.60595,6.46995,7.7449503
1680009482169,1189470524685008,2.69895,6.4360504,7.6729503
1680009482172,1189470527187393,2.7499502,6.3190503,7.6660504
1680009482174,1189470529689546,2.8500001,6.3690004,7.5679502
1680009482176,1189470532191777,2.8170002,6.2779503,7.6780505
1680009482181,1189470534693906,2.8140001,6.1920004,7.6039505
1680009482182,1189470537196060,2.84505,6.084,7.37895
1680009482186,1189470539698445,2.877,6.111,7.2829504
1680009482187,1189470542200368,2.8189502,6.0480003,7.3039503
1680009482189,1189470544702752,2.74005,5.99595,7.2250504
1680009482192,1189470547204979,2.59395,6.0480003,7.29195
1680009482196,1189470549707133,2.56305,5.99595,7.2370505
1680009482197,1189470552209287,2.4100502,6.0270004,7.1989503
1680009482199,1189470554711441,2.259,5.9479504,7.2370505
1680009482202,1189470557213815,2.151,5.9209504,7.2949505
1680009482205,1189470559715738,1.9429501,6.0720005,7.15605
1680009482206,1189470562218123,1.99995,6.0220504,7.281
1680009482209,1189470564720354,1.8919501,6.0150003,7.3360505
1680009482212,1189470567222508,1.8010501,6.0700502,7.5030003
1680009482216,1189470569724666,1.69605,6.0940504,7.5439506
1680009482217,1189470572226820,1.6530001,6.1080003,7.66095
1680009482219,1189470574729205,1.62195,6.22305,7.767
1680009482225,1189470577231368,1.4680501,6.1870503,7.8460503
1680009482226,1189470579733599,1.5190501,6.2419505,8.071051
1680009482227,1189470582235752,1.54005,6.2899504,8.24295
1680009482232,1189470584737906,1.5810001,6.1870503,8.229
1680009482233,1189470587240060,1.5979501,6.2140503,8.3220005
1680009482235,1189470589742455,1.65795,6.2110505,8.37705
1680009482237,1189470592244609,1.71,6.0940504,8.32695
1680009482239,1189470594746762,1.746,6.08895,8.260051
1680009482242,1189470597248916,1.8280501,6.0750003,8.221951
1680009482244,1189470599751147,1.9039501,6.135,8.31495
1680009482247,1189470602253301,1.9429501,5.95695,8.2240505
1680009482252,1189470604755685,1.9950001,6.0199504,8.149051
1680009482254,1189470607257839,2.091,5.8639503,8.1
1680009482255,1189470609759993,2.08095,5.95695,8.03295
1680009482257,1189470612262219,2.21295,5.8690505,7.93905
1680009482261,1189470614764296,2.32605,5.8570504,7.9680004
1680009482263,1189470617266527,2.28495,5.8950005,8.029051
1680009482265,1189470619768911,2.4120002,5.88105,8.005051
1680009482267,1189470622271075,2.39805,5.8780503,7.89795
1680009482269,1189470624773229,2.55795,5.95695,7.9939504
1680009482272,1189470627275383,2.5530002,5.9740505,7.9849505
1680009482274,1189470629777537,2.63205,5.9620504,8.023951
1680009482276,1189470632279691,2.733,6.02895,8.04705
1680009482279,1189470634781902,2.73495,6.0700502,7.9819503
1680009482284,1189470637284287,2.913,6.0319505,7.9729505
1680009482285,1189470639786441,2.9200501,6.0600004,7.9870505
1680009482287,1189470642288595,2.9869502,6.0000005,7.9819503
1680009482291,1189470644790720,3.0349503,6.0390005,7.9750504
1680009482293,1189470647292873,3.0730503,6.0750003,7.8910503
1680009482295,1189470649795104,3.0010502,6.1129503,7.8190503
1680009482300,1189470652297229,3.01095,6.144,7.8580503
1680009482303,1189470654799614,3.00795,6.0649505,7.7790003
1680009482304,1189470657301767,3.042,6.096,7.7479506
1680009482305,1189470659803921,2.97705,6.1870503,7.7910004
1680009482306,1189470662306075,2.901,6.0550504,7.5270004
1680009482309,1189470664808215,2.802,6.09105,7.4749503
1680009482312,1189470667310446,2.63505,6.063,7.6900506
1680009482314,1189470669812600,2.6850002,5.9880004,7.55805
1680009482319,1189470672314984,2.457,5.9599504,7.4790006
1680009482322,1189470674817133,2.4120002,6.0649505,7.45305
1680009482323,1189470677319287,2.33505,5.8570504,7.3830004
1680009482325,1189470679821441,2.259,5.9479504,7.37895
1680009482327,1189470682323672,2.2369502,5.88105,7.3980002
1680009482331,1189470684825825,2.0770502,6.012,7.419
1680009482333,1189470687328210,1.9810501,5.9329505,7.4389505
1680009482336,1189470689830133,1.9069501,5.95695,7.45095
1680009482338,1189470692332518,1.9350001,5.9359503,7.3120503
1680009482340,1189470694834672,1.76505,6.0480003,7.4599504
1680009482342,1189470697336902,1.725,5.979,7.3240504
1680009482345,1189470699839056,1.69095,6.0480003,7.5850506
1680009482349,1189470702341210,1.6380001,6.1320004,7.66095
1680009482355,1189470704843595,1.4970001,6.135,7.7479506
1680009482356,1189470707345749,1.5330001,6.1369505,7.7569504
1680009482358,1189470709847902,1.4800501,6.1150503,7.77405
1680009482359,1189470712350056,1.42305,6.1270504,7.8430505
1680009482360,1189470714852287,1.404,6.1249504,7.965
1680009482362,1189470717354441,1.45905,6.1270504,7.9030504
1680009482364,1189470719856595,1.3990501,6.0990005,7.9009504
1680009482367,1189470722358979,1.5310501,6.1369505,8.023951
1680009482370,1189470724861133,1.452,6.14895,8.10705
1680009482373,1189470727363301,1.5450001,6.1849504,8.04705
1680009482376,1189470729865532,1.6360501,6.084,8.064
1680009482378,1189470732367686,1.674,6.19005,8.116051
1680009482380,1189470734869840,1.6360501,6.2040005,8.04
1680009482383,1189470737371993,1.8420001,6.2089505,8.06595
1680009482385,1189470739874147,1.8679501,6.261,8.05395
1680009482387,1189470742376532,1.9740001,6.3360004,8.158951
1680009482390,1189470744878763,1.9900501,6.28095,8.20695
1680009482393,1189470747380917,2.08905,6.288,8.101951
1680009482394,1189470749883070,2.21595,6.2689505,8.241
1680009482397,1189470752385215,2.29005,6.2779503,8.397
1680009482400,1189470754887369,2.38995,6.3499503,8.35305
1680009482403,1189470757389523,2.604,6.2689505,8.301001
1680009482405,1189470759891908,2.63505,6.3810005,8.44695
1680009482407,1189470762394138,2.7469501,6.34005,8.392051
1680009482412,1189470764896292,2.8620002,6.3310504,8.45895
1680009482414,1189470767398446,2.9290502,6.3120003,8.32695
1680009482415,1189470769900614,3.0970502,6.23295,8.248051
1680009482417,1189470772402768,3.0919502,6.3120003,8.254951
1680009482420,1189470774905152,3.2239501,6.2590504,8.3890505
1680009482422,1189470777407306,3.147,6.216,8.21205
1680009482425,1189470779909537,3.25005,6.10305,8.229
1680009482427,1189470782411691,3.18105,6.07695,8.149051
1680009482432,1189470784913845,3.2290502,6.02895,8.181001
1680009482433,1189470787415999,3.2359502,5.9050503,8.104051
1680009482436,1189470789918152,3.2050502,5.8639503,7.977
1680009482437,1189470792420614,3.11805,5.7229505,7.93695
1680009482440,1189470794922691,3.075,5.7559505,7.9099503
1680009482443,1189470797424922,3.0589502,5.6239505,7.8430505
1680009482444,1189470799927075,2.9250002,5.4810004,7.7860503
1680009482450,1189470802429205,2.98005,5.4970503,7.8150005
1680009482453,1189470804931359,2.86905,5.42595,7.69995
1680009482455,1189470807433744,2.9560502,5.394,7.6800003
1680009482456,1189470809935898,2.8330503,5.3179502,7.7190003
1680009482457,1189470812438128,2.7810001,5.289,7.7089505
1680009482461,1189470814940186,2.7520502,5.361,7.635
1680009482462,1189470817442417,2.6749501,5.2720504,7.6330504
1680009482464,1189470819944571,2.6850002,5.2200003,7.6519504
1680009482467,1189470822446956,2.5530002,5.3250003,7.695
1680009482470,1189470824949109,2.5129502,5.20305,7.6849504
1680009482473,1189470827451287,2.4139502,5.1790504,7.7689505
1680009482474,1189470829953518,2.3760002,5.208,7.79505
1680009482477,1189470832455595,2.3430002,5.313,7.6759505
1680009482480,1189470834957826,2.295,5.2200003,7.7400002
1680009482482,1189470837460219,2.21805,5.3560505,7.668
1680009482486,1189470839962373,2.11305,5.3200502,7.80705
1680009482487,1189470842464527,2.17995,5.29395,7.6249504
1680009482490,1189470844966681,2.1340501,5.3419504,7.7040005
1680009482492,1189470847468907,2.05995,5.3560505,7.7140503
1680009482494,1189470849971061,2.0020502,5.289,7.7140503
1680009482497,1189470852473214,2.05305,5.32305,7.7980504
1680009482503,1189470854975609,1.96905,5.3149505,7.8220506
1680009482504,1189470857477763,1.9780501,5.29605,7.7209506
1680009482507,1189470859979917,1.914,5.4540005,7.8940506
1680009482508,1189470862482071,2.0020502,5.53095,7.9630504
1680009482510,1189470864984224,2.019,5.61,7.9180503
1680009482513,1189470867486441,1.899,5.4570003,7.8940506
1680009482514,1189470869988826,1.9930501,5.5360503,8.0779505
1680009482517,1189470872490980,1.96395,5.5999503,8.049001
1680009482520,1189470874993134,2.02605,5.6670003,8.149051
1680009482525,1189470877495306,2.0329502,5.5530005,8.215051
1680009482526,1189470879997460,2.079,5.47305,8.02305
1680009482528,1189470882499614,2.163,5.6910005,8.148001
1680009482530,1189470885001845,2.196,5.57205,8.24295
1680009482532,1189470887504230,2.2350001,5.4760504,8.24295
1680009482535,1189470890006172,2.30205,5.5090504,8.3890505
1680009482537,1189470892508325,2.35905,5.5020003,8.236051
1680009482540,1189470895010787,2.3449502,5.51205,8.17905
1680009482543,1189470897512941,2.4409502,5.45205,8.21205
1680009482545,1189470900015095,2.529,5.33505,8.254951
1680009482547,1189470902517249,2.5819502,5.37795,8.19495
1680009482550,1189470905019402,2.59395,5.35395,8.205
1680009482552,1189470907521556,2.6950502,5.2120504,8.221951
1680009482554,1189470910023941,2.77095,5.2050004,8.122951
1680009482557,1189470912526095,2.73795,5.229,8.18595
1680009482562,1189470915028326,2.8260002,5.0740504,8.133
1680009482565,1189470917530479,2.8980002,5.1120005,8.19795
1680009482567,1189470920032647,2.8530002,5.06895,8.059051
1680009482571,1189470922534801,2.901,4.9900503,8.05605
1680009482574,1189470925037186,2.88105,4.9900503,7.9800005
1680009482577,1189470927539340,2.8530002,5.004,7.9459505
1680009482578,1189470930041493,2.742,4.99905,7.9219503
1680009482580,1189470932543710,2.57505,4.9180503,7.8769503
1680009482582,1189470935045864,2.493,4.9729505,7.9270506
1680009482584,1189470937548018,2.4049501,4.9939504,7.8600006
1680009482586,1189470940050172,2.2470002,5.0470505,7.79505
1680009482587,1189470942552546,2.1460502,4.9350004,7.79505
1680009482590,1189470945054700,2.06205,5.0500503,7.7880006
1680009482592,1189470947556854,1.9350001,5.004,7.668
1680009482595,1189470950059008,1.8829501,4.97805,7.7190003
1680009482601,1189470952561230,1.8060001,4.9009504,7.6210504
1680009482603,1189470955063384,1.8229501,4.9180503,7.6639504
1680009482604,1189470957565768,1.7560501,4.89195,7.7479506
1680009482606,1189470960067922,1.6890001,5.0620503,7.6590004
1680009482607,1189470962570076,1.69095,5.0160003,7.77405
1680009482612,1189470965072214,1.7200501,4.8889503,7.5010505
1680009482613,1189470967574368,1.8520501,4.9630504,7.5540004
1680009482614,1189470970076598,1.7839501,5.0059505,7.5940504
1680009482620,1189470972578983,1.9110001,5.0880003,7.5270004
1680009482622,1189470975081176,2.02305,5.0280004,7.5610504
1680009482623,1189470977583330,1.9260001,5.01105,7.5030003
1680009482625,1189470980085484,2.184,5.0329504,7.5700502
1680009482627,1189470982587637,2.19195,5.11905,7.6330504
1680009482631,1189470985089868,2.2680001,5.08605,7.6900506
1680009482632,1189470987592051,2.36205,5.1450005,7.6729503
1680009482638,1189470990094436,2.3760002,5.1139503,7.6660504
1680009482639,1189470992596589,2.3689501,5.14995,7.7380505
1680009482641,1189470995098743,2.4070501,5.17395,7.8430505
1680009482642,1189470997600892,2.48895,5.241,7.6920004
1680009482644,1189471000103046,2.35395,5.1550503,7.76205
1680009482647,1189471002605277,2.4450002,5.23605,7.79505
1680009482651,1189471005107431,2.3779502,5.30595,7.7760005
1680009482653,1189471007609556,2.35395,5.2530003,7.80495
1680009482655,1189471010111940,2.2729502,5.33895,7.8409505
1680009482657,1189471012614094,2.3830502,5.33505,7.8
1680009482660,1189471015116248,2.232,5.2819505,7.7790003
1680009482662,1189471017618402,2.24895,5.361,7.9489503
1680009482665,1189471020120641,2.21805,5.37795,7.9420505
1680009482669,1189471022623026,2.22495,5.36595,8.035951
1680009482671,1189471025124949,2.1409502,5.41095,7.965
1680009482674,1189471027627334,2.25195,5.4210005,8.08005
1680009482675,1189471030129488,2.1460502,5.4040504,8.061001
1680009482677,1189471032631642,2.1319501,5.406,8.236051
1680009482681,1189471035133872,2.2369502,5.3200502,8.134951
1680009482682,1189471037636026,2.21295,5.3490005,8.29395
1680009482686,1189471040138180,2.2440002,5.44995,8.272051
1680009482687,1189471042640565,2.29695,5.48295,8.337001
1680009482692,1189471045142488,2.295,5.54295,8.272051
1680009482693,1189471047644872,2.4120002,5.4970503,8.233951
1680009482695,1189471050147108,2.4810002,5.3869505,8.277
1680009482697,1189471052649262,2.5560002,5.493,8.229
1680009482703,1189471055151416,2.56995,5.54295,8.23095
1680009482703,1189471057653570,2.5510502,5.4640503,8.254951
1680009482706,1189471060155921,2.6779501,5.4810004,8.241
1680009482707,1189471062657844,2.6560502,5.493,8.203051
1680009482714,1189471065160306,2.7210002,5.4900002,8.23095
1680009482715,1189471067662460,2.6869502,5.48505,8.05605
1680009482716,1189471070164613,2.766,5.45895,8.05395
1680009482718,1189471072666766,2.70405,5.385,8.134951
1680009482721,1189471075168920,2.7640502,5.3970003,8.163
1680009482723,1189471077671074,2.7280502,5.2720504,8.035951
1680009482725,1189471080173459,2.6560502,5.3590503,8.061001
1680009482729,1189471082675609,2.6560502,5.3029504,7.965
1680009482732,1189471085177839,2.57505,5.3110504,7.9819503
1680009482733,1189471087679993,2.57505,5.26305,8.049001
1680009482735,1189471090182147,2.52495,5.2870502,8.257951
1680009482737,1189471092684301,2.5819502,5.2099504,8.253
1680009482740,1189471095186469,2.5080001,5.3320503,8.442
1680009482742,1189471097688930,2.4409502,5.24595,8.349
1680009482745,1189471100191007,2.42595,5.2770004,8.20695
1680009482749,1189471102693238,2.493,5.169,8.215051
1680009482759,1189471105195392,2.5170002,5.1769505,8.334001
1680009482760,1189471107697546,2.43105,5.1769505,8.394
1680009482760,1189471110199700,2.4450002,5.0809503,8.409
1680009482760,1189471112702084,2.493,5.10195,8.37705
1680009482760,1189471115204214,2.4480002,5.109,8.2890005
1680009482762,1189471117706445,2.42895,5.1720004,8.36505
1680009482764,1189471120208522,2.49105,5.19105,8.301001
1680009482767,1189471122710753,2.4190502,5.16195,8.313001
1680009482770,1189471125212901,2.38995,5.3029504,8.2240505
1680009482772,1189471127715286,2.46,5.268,8.266951
1680009482775,1189471130217440,2.4190502,5.2579503,8.31
1680009482777,1189471132719594,2.4840002,5.418,8.274
1680009482780,1189471135221748,2.424,5.4469504,8.3560505
1680009482782,1189471137723978,2.4120002,5.55705,8.28405
1680009482786,1189471140226055,2.3860502,5.55495,8.182051
1680009482787,1189471142728517,2.4769502,5.5690503,8.349
1680009482790,1189471145230671,2.43105,5.5410004,8.34405
1680009482792,1189471147732811,2.457,5.6940002,8.44695
1680009482794,1189471150234964,2.35695,5.775,8.41605
1680009482797,1189471152737118,2.4720001,5.77995,8.47995
1680009482801,1189471155239349,2.424,5.80905,8.599951
1680009482802,1189471157741445,2.424,5.79405,8.63805
1680009482805,1189471160243907,2.496,5.7900004,8.63805
1680009482807,1189471162746060,2.4120002,5.74695,8.59095
1680009482810,1189471165248214,2.568,5.727,8.599951
1680009482812,1189471167750368,2.59605,5.7780004,8.62395
1680009482814,1189471170252527,2.637,5.6959505,8.566951
1680009482817,1189471172754681,2.5890002,5.60505,8.53995
1680009482820,1189471175257142,2.697,5.7130504,8.425051
1680009482825,1189471177759079,2.6470501,5.7010503,8.535001
1680009482826,1189471180261464,2.73495,5.60295,8.538
1680009482828,1189471182763618,2.733,5.6239505,8.512051
1680009482831,1189471185265772,2.8219502,5.5690503,8.557051
1680009482833,1189471187767926,2.87205,5.50005,8.52105
1680009482838,1189471190270156,2.8600502,5.43795,8.598001
1680009482838,1189471192772310,2.90805,5.47095,8.530951
1680009482840,1189471195274695,2.802,5.43795,8.44905
1680009482842,1189471197776618,2.8530002,5.3299503,8.502001
1680009482845,1189471200279003,2.8260002,5.394,8.443951
1680009482847,1189471202781146,2.802,5.28,8.434951
1680009482851,1189471205283377,2.7900002,5.2579503,8.42805
1680009482853,1189471207785531,2.7259502,5.2320004,8.37495
1680009482855,1189471210287685,2.80695,5.19105,8.490001
1680009482857,1189471212789839,2.6590502,5.1880503,8.382
1680009482862,1189471215292233,2.6440501,5.1120005,8.37705
1680009482864,1189471217794464,2.60595,5.1979504,8.31
1680009482865,1189471220296541,2.5560002,5.12895,8.31495
1680009482867,1189471222798772,2.50305,5.0659504,8.34405
1680009482870,1189471225300921,2.52195,5.1649504,8.36295
1680009482873,1189471227803075,2.50095,5.08605,8.346001
1680009482874,1189471230305459,2.493,5.05905,8.257951
1680009482877,1189471232807613,2.436,5.08995,8.187
1680009482880,1189471235309786,2.36595,5.1120005,8.20695
1680009482883,1189471237812017,2.35395,5.109,8.278951
1680009482884,1189471240314170,2.295,5.13105,8.142
1680009482887,1189471242816324,2.25195,5.109,8.1
1680009482890,1189471245318478,2.127,5.1049504,8.05605
1680009482892,1189471247820863,2.12505,5.1930003,8.059051
1680009482894,1189471250323017,1.9429501,5.1670504,8.061001
1680009482899,1189471252825170,1.88505,5.22405,8.05605
1680009482902,1189471255327401,1.8250501,5.3110504,8.163
1680009482904,1189471257829478,1.78005,5.3899503,8.145
1680009482905,1189471260331709,1.6380001,5.32695,8.170051
1680009482907,1189471262834094,1.7370001,5.5090504,8.029051
1680009482911,1189471265336228,1.6500001,5.43795,8.095051
1680009482912,1189471267838382,1.6810501,5.5069504,8.15205
1680009482915,1189471270340536,1.65795,5.4640503,8.193001
1680009482920,1189471272842695,1.7389501,5.5360503,8.272051
1680009482921,1189471275344926,1.725,5.5620003,8.239051
1680009482922,1189471277847080,1.6810501,5.47095,8.398951
1680009482925,1189471280349464,1.7389501,5.5360503,8.29395
1680009482927,1189471282851618,1.7869501,5.50005,8.262
1680009482931,1189471285353800,1.7700001,5.54295,8.35095
1680009482933,1189471287855954,1.87995,5.57205,8.3869505
1680009482936,1189471290358108,1.89495,5.517,8.37705
1680009482938,1189471292860338,1.93305,5.63205,8.35305
1680009482941,1189471295362723,1.9429501,5.5210505,8.254951
1680009482942,1189471297864661,2.0650501,5.4900002,8.455951
1680009482945,1189471300367046,2.08905,5.598,8.325001
1680009482947,1189471302869200,2.17995,5.5260005,8.397
1680009482951,1189471305371353,2.26095,5.4540005,8.398951
1680009482953,1189471307873574,2.3089502,5.5690503,8.358001
1680009482955,1189471310375728,2.3860502,5.5410004,8.301001
1680009482958,1189471312878113,2.35395,5.538,8.260051
1680009482960,1189471315380267,2.4,5.5789504,8.154
1680009482963,1189471317882435,2.4790502,5.53305,8.0449505
1680009482965,1189471320384589,2.505,5.50005,8.035951
1680009482969,1189471322886743,2.46705,5.4900002,8.061001
1680009482971,1189471325388974,2.50095,5.4540005,7.9849505
1680009482976,1189471327891099,2.5099502,5.4880505,7.93695
1680009482977,1189471330393253,2.3830502,5.4210005,8.049001
1680009482978,1189471332895637,2.4049501,5.3560505,7.9009504
1680009482980,1189471335397560,2.4859502,5.4640503,8.023951
1680009482982,1189471337899940,2.4,5.30595,7.9459505
1680009482986,1189471340402171,2.424,5.36805,7.9680004
1680009482988,1189471342904325,2.3070002,5.445,7.86495
1680009482991,1189471345406478,2.28705,5.3320503,7.9009504
1680009482993,1189471347908661,2.26605,5.3560505,8.002951
1680009482994,1189471350410815,2.2800002,5.33505,8.089951
1680009482999,1189471352913200,2.18895,5.313,8.05395
1680009483002,1189471355415431,2.2729502,5.36595,8.158951
1680009483003,1189471357917584,2.127,5.30595,8.21895
1680009483005,1189471360419748,2.1649501,5.23395,8.163
1680009483007,1189471362921902,2.0670002,5.28,8.0779505
1680009483012,1189471365424056,2.0719502,5.1649504,8.205
1680009483014,1189471367926219,2.14395,5.1550503,8.203051
1680009483015,1189471370428680,2.223,5.1210003,8.17395
1680009483017,1189471372930757,2.19405,5.184,8.24295
1680009483021,1189471375432988,2.187,5.2000504,8.193001
1680009483023,1189471377935147,2.1769502,5.14995,8.11905
1680009483025,1189471380437301,2.232,5.0809503,8.13
1680009483027,1189471382939455,2.3040001,5.2720504,8.16705
1680009483031,1189471385441608,2.3110502,5.1070504,8.17905
1680009483033,1189471387943993,2.28495,5.1480002,8.122951
1680009483035,1189471390446238,2.295,5.1070504,8.149051
1680009483038,1189471392948315,2.328,5.11695,8.217
1680009483041,1189471395450546,2.3740501,5.19105,8.19495
1680009483042,1189471397952699,2.21595,5.1049504,8.253
1680009483045,1189471400454868,2.29005,5.1550503,8.32695
1680009483049,1189471402957253,2.33295,5.1550503,8.265
1680009483052,1189471405459407,2.30205,5.1450005,8.215051
1680009483054,1189471407961551,2.33295,5.229,8.3560505
1680009483055,1189471410463781,2.328,5.1259503,8.409
1680009483058,1189471412965858,2.33505,5.1649504,8.368051
1680009483061,1189471415468089,2.4120002,5.13105,8.46405
1680009483062,1189471417970474,2.33505,5.1720004,8.44005
1680009483065,1189471420472628,2.32095,5.12895,8.45205
1680009483067,1189471422974781,2.28705,5.14995,8.437051
1680009483071,1189471425476935,2.2800002,5.0929503,8.42805
1680009483073,1189471427979166,2.3809502,5.13105,8.29395
1680009483076,1189471430481233,2.4430501,5.19105,8.443951
1680009483079,1189471432983694,2.4070501,5.00895,8.370001
1680009483081,1189471435485848,2.46,5.1049504,8.49495
1680009483083,1189471437988002,2.5480502,5.0329504,8.2890005
1680009483086,1189471440490147,2.496,5.0160003,8.455951
1680009483088,1189471442992301,2.601,5.03805,8.346001
1680009483091,1189471445494455,2.66295,4.98705,8.325001
1680009483092,1189471447996916,2.52495,5.01105,8.34195
1680009483095,1189471450498839,2.59605,4.971,8.37495
1680009483099,1189471453001190,2.57505,5.01795,8.34195
1680009483101,1189471455503344,2.53695,4.93905,8.20995
1680009483103,1189471458005498,2.52495,5.04495,8.116051
1680009483105,1189471460507652,2.5440001,5.00895,8.133
1680009483109,1189471463009771,2.53695,4.88205,8.313001
1680009483112,1189471465512002,2.4,4.93905,8.112
1680009483113,1189471468014387,2.42895,4.9489503,8.142
1680009483115,1189471470516541,2.3400002,4.93695,8.175
1680009483120,1189471473018694,2.22795,4.9729505,8.161051
1680009483121,1189471475520848,2.259,4.98,8.0779505
1680009483124,1189471478023002,2.1720002,4.8960004,8.241
1680009483126,1189471480525233,2.11995,4.87995,8.14005
1680009483128,1189471483027387,2.1079502,4.9009504,8.148001
1680009483131,1189471485529767,2.0359502,4.88205,8.175
1680009483133,1189471488031691,2.02305,4.9080005,8.154
1680009483135,1189471490534075,2.01,4.91295,8.113951
1680009483138,1189471493036229,1.9810501,4.9080005,8.089951
1680009483140,1189471495538464,1.93095,4.7839503,8.14005
1680009483143,1189471498040618,1.9429501,4.9110003,8.19495
1680009483145,1189471500542771,2.0299501,4.9939504,8.203051
1680009483147,1189471503044925,2.0740502,4.9830003,8.2240505
1680009483152,1189471505547315,2.02305,5.004,8.203051
1680009483154,1189471508049238,2.046,4.971,8.36505
1680009483157,1189471510551700,1.9879501,4.992,8.19795
1680009483158,1189471513053853,2.11995,4.992,8.28405
1680009483162,1189471515555988,2.12895,4.992,8.35095
1680009483164,1189471518058142,2.02605,5.12895,8.278951
1680009483166,1189471520560296,2.1100502,5.0400004,8.18595
1680009483169,1189471523062681,2.1649501,4.9230003,8.245951
1680009483171,1189471525564834,2.18205,5.04495,8.302951
1680009483175,1189471528066978,2.1679502,5.0230503,8.409
1680009483177,1189471530569132,2.25405,5.0160003,8.409
1680009483179,1189471533071286,2.15595,5.0400004,8.25
1680009483181,1189471535573748,2.25405,4.9609504,8.42805
1680009483182,1189471538075901,2.21595,5.0809503,8.302951
1680009483186,1189471540578060,2.2080002,5.0830503,8.302951
1680009483187,1189471543080214,2.187,5.03805,8.349
1680009483191,1189471545582368,2.3040001,5.1070504,8.286
1680009483192,1189471548084522,2.3140502,5.1480002,8.394
1680009483195,1189471550586662,2.4019501,5.14995,8.4210005
1680009483199,1189471553089123,2.469,5.1859503,8.586
1680009483202,1189471555591046,2.4,5.22195,8.48295
1680009483204,1189471558093411,2.4550502,5.2000504,8.634001
1680009483205,1189471560595565,2.4450002,5.0160003,8.51895
1680009483207,1189471563097719,2.6419501,5.03805,8.557051
1680009483211,1189471565599872,2.628,5.0659504,8.61495
1680009483213,1189471568102103,2.6179502,4.9680004,8.587951
1680009483215,1189471570604228,2.5890002,4.97805,8.62905
1680009483217,1189471573106613,2.62995,4.9009504,8.530951
1680009483221,1189471575608536,2.5459502,4.8240004,8.49495
1680009483223,1189471578110920,2.55795,4.82205,8.325001
1680009483225,1189471580613074,2.46495,4.932,8.241
1680009483228,1189471583115305,2.38995,4.8120003,8.205
1680009483231,1189471585617459,2.3380501,4.815,8.097
1680009483233,1189471588119613,2.21295,4.8030005,8.035951
1680009483237,1189471590621993,2.151,4.827,8.0449505
1680009483239,1189471593123916,2.1100502,4.9560003,8.088
1680009483241,1189471595626301,2.01,4.90605,8.064
1680009483242,1189471598128532,1.9950001,4.95405,8.061001
1680009483245,1189471600630700,2.0070002,4.9750504,8.0779505
1680009483247,1189471603132854,1.8349501,4.992,8.236051
1680009483251,1189471605635007,1.8040501,5.07105,8.116051
1680009483252,1189471608137161,1.72905,5.076,8.05395
1680009483255,1189471610639541,1.7530501,5.01795,8.083051
1680009483258,1189471613141464,1.713,4.9729505,8.21895
1680009483261,1189471615643926,1.6890001,5.01405,8.21205
1680009483263,1189471618146079,1.7340001,5.1600003,8.06805
1680009483265,1189471620648272,1.8060001,5.004,8.32695
1680009483268,1189471623150426,1.9069501,5.1120005,8.46405
1680009483271,1189471625652580,1.8349501,5.1379504,8.418
1680009483274,1189471628154965,1.8730501,5.1480002,8.290951
1680009483276,1189471630657233,2.115,5.10195,8.61495
1680009483278,1189471633159387,2.1030002,5.1210003,8.545051
1680009483281,1189471635661541,2.2080002,5.2320004,8.514
1680009483283,1189471638163695,2.29905,5.1880503,8.578951
1680009483286,1189471640665849,2.28705,5.136,8.60505
1680009483288,1189471643167998,2.364,5.13105,8.607
1680009483290,1189471645670382,2.39295,5.16195,8.677051
1680009483292,1189471648172613,2.52195,5.076,8.734051
1680009483294,1189471650674690,2.59605,5.2000504,8.677051
1680009483297,1189471653176921,2.6950502,5.12895,8.77005
1680009483301,1189471655679090,2.6920502,5.109,8.706
1680009483302,1189471658181243,2.7810001,5.052,8.811001
1680009483305,1189471660683628,2.7949502,5.0470505,8.751
1680009483307,1189471663185782,2.91,4.9900503,8.787001
1680009483312,1189471665687936,2.913,5.0059505,8.809051
1680009483314,1189471668190166,2.9599502,4.9510503,8.81295
1680009483315,1189471670692243,2.9509501,4.99695,8.863951
1680009483321,1189471673194440,2.97195,5.004,8.722051
1680009483323,1189471675696825,2.9170501,4.9830003,8.734051
1680009483324,1189471678198979,2.9290502,4.93905,8.707951
1680009483325,1189471680701133,2.9340003,4.9009504,8.67
1680009483327,1189471683203286,2.9149501,4.9609504,8.6959505
1680009483331,1189471685705522,2.8219502,4.93695,8.81805
1680009483333,1189471688207676,2.7570002,4.9030504,8.547
1680009483336,1189471690709753,2.73795,4.97805,8.574
1680009483339,1189471693212214,2.6590502,4.87995,8.49705
1680009483341,1189471695714372,2.60595,4.9080005,8.512051
1680009483343,1189471698216526,2.6200502,4.8559504,8.583
1680009483345,1189471700718680,2.5200002,4.91505,8.42805
1680009483350,1189471703220834,2.4120002,4.9030504,8.571
1680009483353,1189471705723065,2.352,4.87995,8.368051
1680009483355,1189471708225219,2.2680001,4.89405,8.36295
1680009483356,1189471710727603,2.163,4.9300504,8.526
1680009483358,1189471713229757,2.16,4.9350004,8.425051
1680009483361,1189471715731911,1.9810501,5.08605,8.31
1680009483363,1189471718234075,2.01405,4.959,8.272051
1680009483365,1189471720736229,1.9210501,4.98,8.257951
1680009483370,1189471723238459,1.914,5.01105,8.145
1680009483371,1189471725740830,1.7509501,5.01105,8.236051
1680009483373,1189471728242753,1.8010501,4.9180503,8.217
1680009483379,1189471730745138,1.7629501,4.9030504,8.125951
1680009483380,1189471733247291,1.7820001,4.947,8.154
1680009483380,1189471735749445,1.6890001,4.98,8.133
1680009483383,1189471738251690,1.7050501,4.99905,8.061001
1680009483386,1189471740753844,1.7890501,4.98705,8.133
1680009483388,1189471743255998,1.77495,4.971,8.203051
1680009483391,1189471745758382,1.69095,4.89405,8.205
1680009483393,1189471748260560,1.8900001,5.00895,8.21205
1680009483395,1189471750762714,1.95,5.0329504,8.187
1680009483397,1189471753264945,1.8559501,5.04495,8.262
1680009483400,1189471755767099,1.9090501,5.0620503,8.29395
1680009483403,1189471758269253,2.0299501,5.0329504,8.380051
1680009483405,1189471760771416,2.1720002,5.064,8.373
1680009483408,1189471763273801,2.1409502,4.9180503,8.32695
1680009483411,1189471765775724,2.18205,4.9609504,8.443951
1680009483413,1189471768278109,2.2369502,5.0020504,8.418
1680009483415,1189471770780325,2.36205,5.01405,8.45895
1680009483420,1189471773282478,2.4120002,4.93905,8.595
1680009483421,1189471775784632,2.4139502,4.9609504,8.454
1680009483425,1189471778286801,2.5530002,4.93695,8.55195
1680009483426,1189471780788955,2.604,4.9110003,8.542951
1680009483428,1189471783291340,2.601,4.96605,8.60295
1680009483431,1189471785793493,2.66805,4.92,8.563951
1680009483433,1189471788295724,2.69895,4.9900503,8.542951
1680009483435,1189471790797877,2.5890002,4.99695,8.6310005
1680009483437,1189471793300031,2.6110501,5.004,8.622001
1680009483440,1189471795802185,2.7190502,5.00895,8.72505
1680009483442,1189471798304339,2.63505,4.92495,8.677051
1680009483445,1189471800806723,2.601,4.9440002,8.66205
1680009483447,1189471803308858,2.59395,4.992,8.689051
1680009483450,1189471805811089,2.5870502,4.899,8.731951
1680009483453,1189471808313243,2.5560002,4.90605,8.610001
1680009483455,1189471810815397,2.52495,4.8630004,8.706
1680009483457,1189471813317575,2.5510502,4.97805,8.566951
1680009483462,1189471815819960,2.493,4.8360004,8.710051
1680009483464,1189471818322114,2.604,4.7140503,8.65305
1680009483465,1189471820824336,2.42205,4.7569504,8.542951
1680009483467,1189471823326413,2.4409502,4.6980004,8.719951
1680009483471,1189471825828643,2.36205,4.755,8.610001
1680009483472,1189471828330797,2.388,4.73595,8.66205
1680009483475,1189471830832951,2.4430501,4.6639504,8.610001
1680009483477,1189471833335340,2.38995,4.67595,8.73705
1680009483480,1189471835837494,2.32605,4.78095,8.575951
1680009483482,1189471838339647,2.46195,4.68795,8.49705
1680009483485,1189471840841878,2.3470502,4.7569504,8.574
1680009483488,1189471843344028,2.39505,4.6930504,8.454
1680009483491,1189471845846413,2.4019501,4.77405,8.50695
1680009483493,1189471848348336,2.39805,4.7310004,8.574
1680009483495,1189471850850720,2.3040001,4.7070003,8.574
1680009483499,1189471853352864,2.3160002,4.743,8.530951
1680009483502,1189471855855018,2.3470502,4.76205,8.55
1680009483504,1189471858357249,2.352,4.83405,8.433001
1680009483505,1189471860859403,2.39505,4.8700504,8.425051
1680009483508,1189471863361787,2.3040001,4.9080005,8.466001
1680009483511,1189471865863691,2.2729502,4.80495,8.380051
1680009483513,1189471868366076,2.223,4.887,8.325001
1680009483515,1189471870868230,2.25405,4.8840003,8.43
1680009483519,1189471873370461,2.16,4.83405,8.392051
1680009483522,1189471875872615,2.1700501,4.98,8.277
1680009483523,1189471878374768,2.1720002,4.947,8.298
1680009483527,1189471880876922,2.1409502,4.9729505,8.155951
1680009483529,1189471883379307,2.17995,4.947,8.401051
1680009483531,1189471885881244,2.1679502,4.932,8.269951
1680009483533,1189471888383705,2.1340501,4.9030504,8.28405
1680009483537,1189471890885859,2.2009501,4.8679504,8.155951
1680009483538,1189471893388013,2.12895,4.91505,8.269951
1680009483541,1189471895890186,2.127,4.9030504,8.2890005
1680009483543,1189471898392340,2.1460502,4.93905,8.215051
1680009483545,1189471900894494,2.1010501,4.91505,8.31
1680009483548,1189471903396955,2.187,4.85295,8.34195
1680009483551,1189471905899109,2.1049502,4.99695,8.21895
1680009483553,1189471908401244,2.15295,5.0539503,8.2240505
1680009483555,1189471910903398,2.11995,4.99905,8.274
1680009483558,1189471913405552,2.127,4.9489503,8.21205
1680009483560,1189471915907706,2.079,4.887,8.265
1680009483563,1189471918409845,2.1409502,4.92705,8.313001
1680009483565,1189471920912307,2.19405,4.9009504,8.20695
1680009483567,1189471923414384,2.1340501,4.8889503,8.221951
1680009483571,1189471925916615,2.079,4.9080005,8.17905
1680009483574,1189471928418748,2.21595,4.88205,8.229
1680009483576,1189471930920902,2.18205,4.947,8.227051
1680009483578,1189471933423056,2.28705,4.9009504,8.254951
1680009483581,1189471935925441,2.22795,4.8,8.346001
1680009483582,1189471938427595,2.25405,4.75005,8.20695
1680009483585,1189471940929830,2.232,4.8580503,8.25
1680009483587,1189471943431907,2.3089502,4.839,8.32995
1680009483590,1189471945934138,2.292,4.9009504,8.24295
1680009483593,1189471948436292,2.331,4.85295,8.262
1680009483595,1189471950938682,2.2800002,4.8,8.35095
1680009483598,1189471953440835,2.295,4.872,8.19495
1680009483602,1189471955942989,2.2060502,4.77705,8.31795
1680009483603,1189471958445143,2.184,4.92495,8.133
1680009483605,1189471960947297,2.25195,4.81005,8.31495
1680009483608,1189471963449436,2.3740501,4.8769503,8.3220005
1680009483612,1189471965951897,2.21295,4.8580503,8.346001
1680009483614,1189471968454051,2.15295,4.9440002,8.181001
1680009483616,1189471970956205,2.19195,4.9180503,8.265
1680009483619,1189471973458359,2.12895,4.95405,8.265
1680009483621,1189471975960513,2.163,5.02995,8.37705
1680009483623,1189471978462744,2.1700501,5.0400004,8.33895
1680009483625,1189471980964897,2.1769502,4.9939504,8.437051
1680009483628,1189471983467272,2.11305,4.9630504,8.266951
1680009483631,1189471985969426,2.1049502,5.0500503,8.368051
1680009483633,1189471988471580,2.05995,5.08995,8.31495
1680009483636,1189471990973734,2.14905,5.00895,8.3560505
1680009483638,1189471993475892,2.1079502,5.07105,8.370001
1680009483640,1189471995978046,2.055,5.01405,8.313001
1680009483643,1189471998480508,2.058,5.0950503,8.3869505
1680009483645,1189472000982431,2.115,5.0470505,8.413051
1680009483650,1189472003484820,2.0959501,5.00895,8.346001
1680009483653,1189472005986973,2.08395,5.00895,8.370001
1680009483654,1189472008489127,2.0359502,4.9230003,8.302951
1680009483655,1189472010991281,2.0329502,5.05695,8.455951
1680009483660,1189472013493512,2.0670002,5.0830503,8.48805
1680009483661,1189472015995705,2.0689502,4.9609504,8.47605
1680009483663,1189472018498089,1.9950001,4.96605,8.413051
1680009483665,1189472021000243,2.046,4.9680004,8.535001
1680009483668,1189472023502397,2.1390002,5.0809503,8.478001
1680009483671,1189472026004541,2.1990001,5.0209503,8.49495
1680009483673,1189472028506772,2.2350001,5.004,8.41605
1680009483675,1189472031008926,2.14905,4.98705,8.397
1680009483678,1189472033511079,2.2710001,5.06895,8.442
1680009483681,1189472036013479,2.29695,5.0059505,8.434951
1680009483683,1189472038515402,2.3430002,5.0160003,8.3890505
1680009483687,1189472041017787,2.36205,5.0830503,8.380051
1680009483689,1189472043520018,2.3400002,5.0230503,8.368051
1680009483691,1189472046022171,2.29005,5.0350504,8.406
1680009483693,1189472048524325,2.2750502,4.93905,8.44005
1680009483695,1189472051026479,2.2080002,5.0539503,8.34405
1680009483698,1189472053528633,2.163,5.05695,8.34195
1680009483703,1189472056031018,2.2060502,5.01405,8.370001
1680009483705,1189472058532926,2.2440002,5.1139503,8.33205
1680009483706,1189472061035387,2.295,5.05695,8.301001
1680009483707,1189472063537541,2.4,5.1880503,8.334001
1680009483710,1189472066039695,2.38995,5.21505,8.361
1680009483713,1189472068541849,2.32305,5.208,8.346001
1680009483715,1189472071043989,2.22795,5.23605,8.571
1680009483718,1189472073546142,2.2080002,5.3419504,8.530951
1680009483721,1189472076048527,2.187,5.4640503,8.569051
1680009483724,1189472078550762,2.1010501,5.3419504,8.578951
1680009483726,1189472081052916,2.05305,5.37795,8.50395
1680009483729,1189472083555070,1.99995,5.4619503,8.50395
1680009483731,1189472086057223,1.8870001,5.41095,8.48505
1680009483733,1189472088559377,1.79595,5.42805,8.313001
1680009483736,1189472091061772,1.7530501,5.466,8.409
1680009483738,1189472093564003,1.7080501,5.406,8.28195
1680009483741,1189472096066080,1.65795,5.3490005,8.3220005
1680009483743,1189472098568310,1.674,5.39895,8.392051
1680009483745,1189472101070469,1.6980001,5.385,8.410951
1680009483748,1189472103572623,1.6620001,5.373,8.301001
1680009483752,1189472106075008,1.7989501,5.361,8.41605
1680009483754,1189472108577162,1.8079501,5.34705,8.34405
1680009483755,1189472111079310,1.95,5.36595,8.413051
1680009483758,1189472113581541,1.9110001,5.35395,8.236051
1680009483762,1189472116083618,1.9810501,5.3749504,8.35305
1680009483764,1189472118585849,2.0359502,5.301,8.368051
1680009483765,1189472121088223,2.0070002,5.4040504,8.253
1680009483772,1189472123397680,2.1750002,5.5530005,7.4359503
1680009483772,1189472125707377,2.26095,5.55,8.301001
1680009483776,1189472128594685,2.15595,5.445,8.530951
1680009483779,1189472131096916,2.058,5.3920503,8.44695
1680009483780,1189472133598993,1.9930501,5.47095,8.46405
1680009483782,1189472136101224,2.1700501,5.5810504,8.35095
1680009483784,1189472138603608,2.1100502,5.60295,8.3220005
1680009483786,1189472141105762,2.151,5.7510004,8.559
1680009483788,1189472143607916,2.08395,5.66295,8.667001
1680009483791,1189472146110070,2.1079502,5.74905,8.66205
1680009483794,1189472148612224,2.17995,5.754,8.667001
1680009483795,1189472151114454,2.11995,5.7250504,8.719951
1680009483799,1189472153616624,2.2080002,5.6910005,8.78895
1680009483803,1189472156118778,2.22,5.6200504,8.776951
1680009483806,1189472158620932,2.3140502,5.6719503,8.811001
1680009483807,1189472161123317,2.3830502,5.65605,8.61705
1680009483809,1189472163625470,2.4190502,5.4880505,8.502001
1680009483812,1189472166127710,2.56995,5.67495,8.578951
1680009483814,1189472168629864,2.5150502,5.60295,8.81595
1680009483816,1189472171132018,2.4070501,5.6239505,8.90205
1680009483818,1189472173634172,2.4019501,5.55,8.707951
1680009483821,1189472176136312,2.53905,5.4619503,8.83005
1680009483823,1189472178638773,2.55795,5.5290003,8.718
1680009483826,1189472181140850,2.592,5.5789504,8.68605
1680009483829,1189472183643081,2.661,5.54295,8.64105
1680009483831,1189472186145235,2.69895,5.5090504,8.6959505
1680009483833,1189472188647388,2.6920502,5.4900002,8.928
1680009483837,1189472191149542,2.493,5.5690503,8.79195
1680009483839,1189472193651927,2.62995,5.5069504,8.78505
1680009483841,1189472196154100,2.52195,5.41095,8.764951
1680009483843,1189472198656331,2.4550502,5.3820004,8.832001
1680009483846,1189472201158408,2.5510502,5.406,8.84895
1680009483849,1189472203660638,2.50095,5.42805,8.895
1680009483852,1189472206162768,2.46195,5.4640503,8.79195
1680009483854,1189472208665153,2.3779502,5.4300003,8.821051
1680009483856,1189472211167307,2.26605,5.48505,8.68395
1680009483858,1189472213669460,2.2680001,5.4970503,8.74905
1680009483861,1189472216171691,2.151,5.47095,8.710051
1680009483863,1189472218673840,1.9950001,5.5260005,8.65995
1680009483865,1189472221175994,1.9980001,5.47305,8.67405
1680009483869,1189472223678148,1.9230001,5.5740004,8.740951
1680009483872,1189472226180532,1.9110001,5.50005,8.80095
1680009483876,1189472228682691,1.9039501,5.47305,8.72505
1680009483878,1189472231184845,1.7719501,5.4880505,8.622001
1680009483879,1189472233686999,1.7389501,5.48295,8.689051
1680009483882,1189472236189230,1.7010001,5.52405,8.643001
1680009483883,1189472238691384,1.6500001,5.517,8.622001
1680009483886,1189472241193778,1.6170001,5.6239505,8.545051
1680009483889,1189472243695932,1.6339501,5.5410004,8.535001
1680009483892,1189472246198086,1.5259501,5.54295,8.50905
1680009483894,1189472248700240,1.641,5.538,8.433001
1680009483896,1189472251202408,1.65495,5.6580005,8.566951
1680009483898,1189472253704561,1.5589501,5.4810004,8.59305
1680009483901,1189472256207023,1.4950501,5.4760504,8.55195
1680009483903,1189472258708946,1.5670501,5.5620003,8.3869505
1680009483906,1189472261211331,1.6720501,5.48295,8.502001
1680009483909,1189472263713461,1.45395,5.4229503,8.587951
1680009483913,1189472266215614,1.5670501,5.466,8.47305
1680009483915,1189472268717768,1.6140001,5.4210005,8.530951
1680009483916,1189472271220009,1.54005,5.4300003,8.413051
1680009483919,1189472273722394,1.5949501,5.2990503,8.586
1680009483921,1189472276224548,1.62405,5.3149505,8.533051
1680009483923,1189472278726701,1.5829501,5.2440004,8.4210005
1680009483926,1189472281228855,1.6099501,5.2270503,8.48295
1680009483929,1189472283731028,1.6840501,5.22405,8.542951
1680009483932,1189472286233490,1.6890001,5.23395,8.569051
1680009483934,1189472288735413,1.6789501,5.1979504,8.49195
1680009483936,1189472291237567,1.7200501,5.30595,8.490001
1680009483939,1189472293739960,1.7080501,5.2720504,8.559
1680009483941,1189472296241883,1.7680501,5.3149505,8.7289505
1680009483944,1189472298744268,1.8040501,5.2530003,8.562
1680009483946,1189472301246422,1.8079501,5.3560505,8.658
1680009483950,1189472303748682,1.7890501,5.2699504,8.77005
1680009483953,1189472306250835,1.8229501,5.4229503,8.78895
1680009483955,1189472308752989,1.8420001,5.3920503,8.896951
1680009483958,1189472311255374,1.9260001,5.433,8.866051
1680009483959,1189472313757528,1.84695,5.34705,9.004951
1680009483961,1189472316259682,1.9380001,5.3920503,9.010051
1680009483964,1189472318761912,1.8900001,5.41095,9.028951
1680009483966,1189472321264066,1.9429501,5.3869505,9.13395
1680009483970,1189472323766220,1.9860001,5.42805,9.156
1680009483972,1189472326268384,2.0329502,5.36595,9.192
1680009483974,1189472328770538,2.0719502,5.26305,9.25605
1680009483976,1189472331272922,2.14905,5.2579503,9.26805
1680009483980,1189472333775153,2.15595,5.229,9.26805
1680009483981,1189472336277307,2.14395,5.208,9.204
1680009483983,1189472338779432,2.18895,5.181,9.316051
1680009483987,1189472341281586,2.3830502,5.08605,9.39105
1680009483989,1189472343783740,2.32305,5.1259503,9.37395
1680009483991,1189472346285893,2.42595,5.0830503,9.42195
1680009483994,1189472348788369,2.39295,5.0470505,9.45495
1680009483996,1189472351290523,2.5099502,5.05905,9.46695
1680009483998,1189472353792677,2.568,5.0230503,9.465
1680009484005,1189472356294831,2.6899502,5.02995,9.496051
1680009484005,1189472358796984,2.7139502,5.004,9.508051
1680009484006,1189472361299359,2.8140001,5.04195,9.517051
1680009484009,1189472363801282,2.8650002,5.0620503,9.4140005
1680009484012,1189472366303744,2.9629502,5.02605,9.426001
1680009484014,1189472368805902,3.0040503,5.004,9.328051
1680009484016,1189472371308056,3.13995,5.1049504,9.37905
1680009484019,1189472373810210,3.1020002,4.9939504,9.328051
1680009484021,1189472376312364,3.1279502,4.9510503,9.261001
1680009484025,1189472378814547,3.114,5.0230503,9.394951
1680009484027,1189472381317008,3.1260002,4.9009504,9.319051
1680009484030,1189472383819085,3.1900501,4.839,9.319051
1680009484033,1189472386321316,3.2239501,4.9030504,9.25605
1680009484035,1189472388848998,3.1330502,4.8030005,9.33495
1680009484037,1189472391325614,3.1639502,4.848,9.37395
1680009484039,1189472393827768,3.1350002,4.638,9.252001
1680009484042,1189472396330152,3.17595,4.66905,9.328051
1680009484044,1189472398832383,3.042,4.45095,9.249001
1680009484047,1189472401334547,2.9599502,4.36005,9.30195
1680009484052,1189472403836701,2.8570502,4.3330503,9.1699505
1680009484053,1189472406338855,2.7810001,4.3429503,9.22305
1680009484054,1189472408841008,2.6800501,4.3050003,9.29205
1680009484056,1189472411343393,2.4739501,4.314,9.192
1680009484058,1189472413845533,2.46,4.197,9.240001
1680009484064,1189472416347687,2.4769502,4.1680503,9.25395
1680009484065,1189472418849918,2.1700501,4.1130004,9.264001
1680009484067,1189472421352080,2.1100502,4.0810504,9.37605
1680009484069,1189472423854234,1.9930501,4.0800004,9.26805
1680009484072,1189472426356619,1.9210501,4.0339503,9.328051
1680009484074,1189472428858773,1.65495,4.12995,9.28005
1680009484076,1189472431360927,1.7200501,4.0800004,9.450001
1680009484080,1189472433863090,1.7080501,4.0140004,9.36705
1680009484081,1189472436365321,1.5469501,4.11795,9.36705
1680009484083,1189472438867475,1.53795,4.0630503,9.40995
1680009484086,1189472441369629,1.3410001,3.92895,9.370951
1680009484089,1189472443872014,1.3290001,4.02105,9.36705
1680009484092,1189472446374181,1.284,4.032,9.36705
1680009484094,1189472448876335,1.317,4.089,9.204
1680009484096,1189472451378489,1.42305,3.9810002,9.181951
1680009484103,1189472453880629,1.43505,4.0630503,9.108001
1680009484104,1189472456382860,1.50195,3.9790502,9.144
1680009484105,1189472458885244,1.4950501,3.9840002,9.09795
1680009484107,1189472461387398,1.45905,3.9139502,9.004951
1680009484108,1189472463889552,1.4779501,4.00995,8.93505
1680009484112,1189472466391691,1.46595,4.0129504,8.916
1680009484114,1189472468893922,1.5109501,3.936,8.82495
1680009484116,1189472471396076,1.5109501,4.0140004,8.842051
1680009484119,1189472473898229,1.5469501,4.0630503,8.896951
1680009484121,1189472476400383,1.677,4.005,8.88
1680009484124,1189472478902749,1.6650001,3.86595,8.875951
1680009484126,1189472481404903,1.7770501,3.92895,8.93505
1680009484131,1189472483907134,1.84395,3.9019501,8.93295
1680009484132,1189472486409297,1.88505,3.8569503,8.871
1680009484135,1189472488911451,1.9660501,3.8400002,8.875951
1680009484138,1189472491413836,1.9759501,3.8470502,8.89995
1680009484140,1189472493915759,1.96395,3.8449502,8.851951
1680009484143,1189472496418123,1.9930501,3.76605,8.896951
1680009484144,1189472498920353,1.9740001,3.7489502,8.90205
1680009484146,1189472501422507,2.02305,3.7159503,8.713051
1680009484148,1189472503924661,2.18205,3.5860503,8.868
1680009484153,1189472506426815,2.05305,3.6169503,8.887951
1680009484154,1189472508928969,2.0070002,3.4350002,8.842051
1680009484156,1189472511431123,2.019,3.5020502,8.734051
1680009484158,1189472513933507,2.0689502,3.4429502,8.718
1680009484161,1189472516435738,2.043,3.4330502,8.7630005
1680009484163,1189472518937892,1.9189501,3.2920501,8.68605
1680009484166,1189472521440056,1.9930501,3.25095,8.75805
1680009484169,1189472523942210,2.046,3.28695,8.76795
1680009484172,1189472526444363,1.9159501,3.1260002,8.706
1680009484176,1189472528946724,1.9519501,3.1360502,8.67405
1680009484178,1189472531448878,1.8520501,3.1360502,8.587951
1680009484179,1189472533951109,1.9590001,3.1380002,8.554951
1680009484182,1189472536453262,1.81305,3.0190501,8.583
1680009484184,1189472538955416,1.7080501,3.0280502,8.62695
1680009484186,1189472541457575,1.64295,3.141,8.52795
1680009484188,1189472543959729,1.6140001,3.01395,8.53995
1680009484191,1189472546462191,1.5619501,3.078,8.595
1680009484193,1189472548964344,1.55505,3.0330002,8.694
1680009484196,1189472551466498,1.4110501,2.9869502,8.689051
1680009484198,1189472553968633,1.41795,2.9659503,8.643001
1680009484201,1189472556470787,1.27005,3.0280502,8.667001
1680009484203,1189472558972941,1.248,3.0229502,8.7289505
1680009484206,1189472561475325,1.2720001,3.0190501,8.74905
1680009484209,1189472563977478,1.3080001,2.97495,8.90205
1680009484214,1189472566479709,1.1520001,2.9640002,8.78895
1680009484215,1189472568981786,1.2070501,3.01095,8.823
1680009484217,1189472571484008,1.07805,3.0640502,8.866051
1680009484220,1189472573986162,1.095,3.10995,8.896951
1680009484223,1189472576488546,1.1520001,3.0040503,8.890051
1680009484224,1189472578990700,1.14495,2.9899502,8.866051
1680009484226,1189472581492854,1.12605,3.0550501,8.952001
1680009484229,1189472583995090,1.1520001,3.2050502,8.923051
1680009484232,1189472586497244,1.21905,3.15,9.049951
1680009484233,1189472588999397,1.07595,3.1380002,9.085951
1680009484236,1189472591501551,1.08,3.14595,9.055051
1680009484238,1189472594003936,1.1020501,3.1740003,9.04605
1680009484242,1189472596506089,1.128,3.1309502,9.129001
1680009484244,1189472599008243,1.1590501,3.14805,9.003
1680009484246,1189472601510396,1.11105,3.14295,9.189
1680009484250,1189472604012647,1.1329501,3.0880501,9.049951
1680009484253,1189472606514801,1.1209501,3.0589502,9.10995
1680009484255,1189472609306724,1.10895,3.03795,9.151051
1680009484257,1189472611519340,1.059,2.9899502,9.165
1680009484259,1189472614021493,1.1020501,2.94195,9.220051
1680009484261,1189472616523642,1.1020501,2.9560502,9.172951
1680009484263,1189472619025796,1.2049501,2.9610002,9.27105
1680009484266,1189472621528027,1.2070501,2.9680502,9.319051
1680009484268,1189472624030412,1.1209501,3.0040503,9.24405
1680009484271,1189472626532565,1.3050001,2.9200501,9.328051
1680009484273,1189472629034724,1.3219501,2.9250002,9.502951
1680009484276,1189472631536878,1.437,2.98305,9.402
1680009484279,1189472634039032,1.54305,2.9539502,9.537001
1680009484281,1189472636541186,1.6170001,2.9989502,9.43095
1680009484283,1189472639043676,1.6480501,2.9350502,9.538951
1680009484288,1189472641545830,1.69095,3.0690002,9.417001
1680009484290,1189472644047984,1.7680501,2.937,9.357
1680009484293,1189472646550137,1.8040501,3.0550501,9.493951
1680009484295,1189472649052291,1.7490001,3.0670502,9.426001
1680009484297,1189472651554445,1.7680501,3.1050003,9.46695
1680009484299,1189472654056906,1.8010501,2.9920502,9.453
1680009484302,1189472656558829,1.86405,3.078,9.561001
1680009484304,1189472659061219,1.9429501,3.14595,9.41205
1680009484306,1189472661563373,1.81605,3.14295,9.534
1680009484309,1189472664065527,1.8730501,3.1579502,9.474
1680009484313,1189472666567680,1.77495,3.2220001,9.364051
1680009484315,1189472669069854,1.81305,3.354,9.508051
1680009484317,1189472671572316,1.76505,3.35595,9.273001
1680009484319,1189472674074239,1.71,3.3709502,9.394951
1680009484322,1189472676576624,1.6789501,3.4090502,9.54405
1680009484325,1189472679078802,1.6170001,3.38505,9.405001
1680009484328,1189472681580956,1.5640501,3.459,9.56505
1680009484330,1189472684083110,1.49205,3.41595,9.58695
1680009484334,1189472686585341,1.6380001,3.4810503,9.60795
1680009484336,1189472689087485,1.5090001,3.3660002,9.738001
1680009484337,1189472691589869,1.5670501,3.426,9.57705
1680009484339,1189472694091792,1.5330001,3.3630002,9.58005
1680009484342,1189472696594177,1.4299501,3.22005,9.58005
1680009484344,1189472699096331,1.50405,3.282,9.529051
1680009484346,1189472701598576,1.4640001,3.2080503,9.56505
1680009484351,1189472704100729,1.3939501,3.177,9.68295
1680009484353,1189472706602883,1.42005,3.1930501,9.73095
1680009484355,1189472709105268,1.332,3.1020002,9.73995
1680009484356,1189472711607432,1.38495,3.081,9.73095
1680009484359,1189472714109586,1.365,3.03795,9.762
1680009484365,1189472716611816,1.34895,3.0499501,9.759001
1680009484367,1189472719113970,1.389,3.0619502,9.72105
1680009484369,1189472721616148,1.4059501,3.07605,9.69705
1680009484371,1189472724118302,1.29795,3.0349503,9.679951
1680009484372,1189472726620456,1.41795,3.009,9.634951
1680009484374,1189472729122840,1.4440501,3.14805,9.637051
1680009484376,1189472731624994,1.38495,3.0880501,9.592051
1680009484379,1189472734127225,1.4110501,2.9920502,9.70905
1680009484382,1189472736629379,1.3750501,2.9659503,9.5460005
1680009484383,1189472739131533,1.3560001,3.00705,9.622951
1680009484387,1189472741633687,1.3290001,3.0210001,9.642
1680009484389,1189472744135836,1.248,2.9520001,9.649051
1680009484392,1189472746638220,1.23405,2.8870502,9.508051
1680009484394,1189472749140451,1.2550501,3.0640502,9.438001
1680009484396,1189472751642605,1.16205,2.91105,9.592051
1680009484400,1189472754144773,1.116,2.94195,9.538951
1680009484403,1189472756646926,1.00605,2.8920002,9.616051
1680009484405,1189472759149080,1.1590501,2.80995,9.56805
1680009484406,1189472761651234,1.15005,2.8819501,9.64395
1680009484410,1189472764153619,1.09905,2.8170002,9.69705
1680009484412,1189472766655850,1.10895,2.83905,9.592051
1680009484414,1189472769158003,1.1740501,2.7889502,9.678
1680009484416,1189472771660157,1.06605,2.7480001,9.735001
1680009484418,1189472774162311,1.02795,2.7889502,9.604051
1680009484421,1189472776664432,1.04205,2.7600002,9.76395
1680009484423,1189472779166817,0.86595005,2.6830502,9.880951
1680009484426,1189472781668970,0.88695,2.70195,9.89595
1680009484429,1189472784171124,0.81495005,2.676,9.88395
1680009484432,1189472786673273,0.88695,2.5399501,10.07505
1680009484433,1189472789175504,0.85905004,2.53005,10.044001
1680009484438,1189472791677658,0.906,2.5519502,9.99195
1680009484440,1189472794180042,0.86100006,2.5729501,10.090051
1680009484442,1189472796682201,0.95100003,2.5800002,9.970051
1680009484444,1189472799184355,0.91695005,2.43195,9.891001
1680009484446,1189472801686509,0.93195003,2.5470002,9.85995
1680009484449,1189472804188740,1.0129501,2.628,9.76395
1680009484452,1189472806691124,0.9990001,2.6430001,9.738001
1680009484454,1189472809193022,1.0129501,2.6190002,9.814051
1680009484456,1189472811695407,1.0540501,2.6089501,9.655951
1680009484458,1189472814197561,0.97695005,2.59695,9.66405
1680009484461,1189472816699715,1.0009501,2.5489502,9.63195
1680009484464,1189472819201855,0.91005003,2.63505,9.534
1680009484466,1189472821704085,0.82005006,2.664,9.582001
1680009484469,1189472824206239,0.94605005,2.568,9.585
1680009484472,1189472826708624,0.9990001,2.628,9.537001
1680009484475,1189472829210759,0.83505005,2.5159502,9.55605
1680009484477,1189472831712913,0.72195005,2.5420501,9.457951
1680009484479,1189472834215066,0.73200005,2.52495,9.426001
1680009484482,1189472836717297,0.75600004,2.4750001,9.321
1680009484484,1189472839219451,0.64305,2.463,9.357
1680009484486,1189472841721589,0.54495,2.42505,9.498
1680009484490,1189472844223974,0.39900002,2.49405,9.37395
1680009484492,1189472846725897,0.46305,2.46105,9.261001
1680009484494,1189472849228281,0.40095,2.41995,9.273001
1680009484496,1189472851730512,0.43905002,2.46105,9.441
1680009484499,1189472854232653,0.27405003,2.32905,9.370951
1680009484502,1189472856734807,0.24300002,2.29305,9.382951
1680009484506,1189472859236961,0.21195,2.3070002,9.337951
1680009484507,1189472861739114,0.17400001,2.3500502,9.345
1680009484509,1189472864241499,0.162,2.3719501,9.321
1680009484513,1189472866743653,0.109050006,2.19705,9.3
1680009484516,1189472869245884,0.13305001,2.286,9.264001
1680009484517,1189472871748056,0.042000003,2.1760502,9.232051
1680009484521,1189472874250209,0.042000003,2.1780002,9.27795
1680009484522,1189472876752363,-0.028050002,2.2380002,9.189
1680009484524,1189472879254517,-0.043950003,2.1040502,9.132
1680009484527,1189472881756979,-0.04695,2.08695,9.184951
1680009484531,1189472884259038,-0.06105,2.154,9.193951
1680009484533,1189472886761268,-0.14295001,2.013,9.189
1680009484535,1189472889263422,-0.17595,1.9189501,9.24195
1680009484536,1189472891765576,-0.19800001,1.9980001,9.361951
1680009484539,1189472894267710,-0.23595001,1.8880501,9.297001
1680009484541,1189472896769864,-0.15900001,1.78005,9.438001
1680009484544,1189472899272248,-0.12795001,1.8499501,9.340051
1680009484546,1189472901774479,-0.19500001,1.9620001,9.426001
1680009484550,1189472904276561,-0.13995,1.8739501,9.321
1680009484553,1189472906778792,-0.13995,1.93095,9.358951
1680009484555,1189472909280946,-0.028050002,1.9339501,9.3
1680009484557,1189472911783100,-0.09705,1.98405,9.28995
1680009484559,1189472914285484,-0.03195,1.9219501,9.229951
1680009484561,1189472916787657,0.079950005,1.8910501,9.21105
1680009484565,1189472919289811,-0.01305,1.8349501,9.319051
1680009484566,1189472921792042,-0.063,1.81605,9.352051
1680009484569,1189472924294195,-0.030000001,1.7950501,9.43605
1680009484572,1189472926796335,-0.06105,1.74705,9.43095
1680009484574,1189472929298720,-0.006,1.74705,9.43095
1680009484577,1189472931800874,0.022950001,1.725,9.462001
1680009484579,1189472934303028,0.010950001,1.6650001,9.493951
1680009484583,1189472936805182,0.09195001,1.6150501,9.402
1680009484585,1189472939307383,0.09705,1.62195,9.352051
1680009484589,1189472941809537,0.21000001,1.5790501,9.40695
1680009484591,1189472944311922,0.24495001,1.59405,9.288
1680009484592,1189472946814076,0.21405001,1.58595,9.346951
1680009484594,1189472949316263,0.37500003,1.6369501,9.321
1680009484596,1189472951818417,0.38205,1.608,9.25605
1680009484599,1189472954320571,0.36,1.6969501,9.319051
1680009484602,1189472956822802,0.35295,1.728,9.28005
1680009484604,1189472959325187,0.40605003,1.71105,9.297001
1680009484606,1189472961827320,0.46605003,1.6650001,9.261001
1680009484611,1189472964329474,0.45900002,1.7179501,9.204
1680009484612,1189472966831628,0.51000005,1.7680501,9.288
1680009484614,1189472969333782,0.46800002,1.6870501,9.189
1680009484616,1189472971835932,0.483,1.7830501,9.34305
1680009484619,1189472974338086,0.432,1.7490001,9.232051
1680009484621,1189472976840547,0.53505003,1.5820501,9.35505
1680009484625,1189472979342701,0.45900002,1.6609501,9.288
1680009484632,1189472981844869,0.39405003,1.58895,9.337951
1680009484632,1189472984347023,0.36495003,1.641,9.42405
1680009484633,1189472986849177,0.30795002,1.5499501,9.393001
1680009484635,1189472989351407,0.33405003,1.5120001,9.417001
1680009484636,1189472991853561,0.28605002,1.3920001,9.37605
1680009484639,1189472994355965,0.24495001,1.416,9.382951
1680009484641,1189472996858119,0.20700002,1.383,9.208051
1680009484644,1189472999360273,0.08295,1.21305,9.382951
1680009484646,1189473001862426,0.15195,1.24905,9.29205
1680009484650,1189473004364613,0.043950003,1.1890501,9.252001
1680009484652,1189473006866844,0.09705,1.2270001,9.30195
1680009484654,1189473009368998,0.058950003,1.2870001,9.229951
1680009484656,1189473011871152,0.17595,1.1910001,9.328051
1680009484658,1189473014373536,0.12795001,1.27695,9.30405
1680009484663,1189473016875710,0.08295,1.251,9.345
1680009484665,1189473019377864,0.21405001,1.31295,9.24405
1680009484667,1189473021880095,0.102000006,1.23,9.29205
1680009484669,1189473024382249,0.24105,1.23,9.340051
1680009484672,1189473026884648,0.22200002,1.2940501,9.4140005
1680009484674,1189473029386571,0.24495001,1.368,9.40005
1680009484676,1189473031888956,0.30795002,1.2610501,9.462001
1680009484679,1189473034391110,0.36,1.2970501,9.484051
1680009484682,1189473036893244,0.33405003,1.3609501,9.35505
1680009484684,1189473039395475,0.38205,1.3560001,9.394951
1680009484686,1189473041897628,0.303,1.4470501,9.38595
1680009484690,1189473044399782,0.37500003,1.5270001,9.42405
1680009484692,1189473046901936,0.51405,1.5820501,9.405001
1680009484694,1189473049404090,0.31305,1.4809501,9.35505
1680009484696,1189473051906475,0.44895002,1.4830501,9.438001
1680009484700,1189473054408705,0.49500003,1.4760001,9.537001
1680009484704,1189473056910864,0.43500003,1.5480001,9.61305
1680009484705,1189473059413018,0.41295,1.4830501,9.73095
1680009484707,1189473061915172,0.46095002,1.4569501,9.738001
1680009484709,1189473064417557,0.46605003,1.419,9.73095
1680009484713,1189473066919480,0.49500003,1.4470501,9.778951
1680009484715,1189473069421931,0.49005002,1.43805,9.74295
1680009484717,1189473071924085,0.59295005,1.42095,9.69495
1680009484719,1189473074426239,0.58305,1.4449501,9.673051
1680009484722,1189473076928393,0.61905,1.40205,9.57495
1680009484724,1189473079430566,0.59295005,1.4470501,9.70695
1680009484726,1189473081932719,0.684,1.4790001,9.670951
1680009484730,1189473084435181,0.64095,1.4500501,9.774
1680009484733,1189473086937258,0.58305,1.4280001,9.834001
1680009484735,1189473089439470,0.41295,1.3969501,9.766951
1680009484738,1189473091941623,0.35295,1.4280001,9.88605
1680009484741,1189473094443777,0.31500003,1.3950001,9.75195
1680009484743,1189473096945931,0.27705002,1.31295,9.87405
1680009484745,1189473099448331,0.18105,1.3110001,9.73305
1680009484747,1189473101950485,0.171,1.383,9.781051
1680009484749,1189473104452639,0.26505002,1.3470001,9.7879505
1680009484752,1189473106954869,0.15405001,1.27995,9.783
1680009484754,1189473109457023,0.13095,1.3230001,9.65205
1680009484756,1189473111959191,0.15405001,1.2559501,9.68295
1680009484759,1189473114461576,-0.00795,1.3440001,9.811951
1680009484762,1189473116963729,-0.00405,1.3399501,9.63
1680009484764,1189473119465883,-0.006,1.3420501,9.69705
1680009484769,1189473121968003,-0.022950001,1.335,9.654
1680009484771,1189473124470157,-0.11895001,1.31595,9.69495
1680009484773,1189473126972619,-0.06105,1.40205,9.618
1680009484776,1189473129474542,-0.11400001,1.36395,9.68505
1680009484778,1189473131976941,-0.05595,1.44,9.783
1680009484781,1189473134479095,0.016050002,1.31805,9.65205
1680009484783,1189473136981249,-0.03195,1.3780501,9.667951
1680009484785,1189473139483403,-0.018000001,1.42095,9.628051
1680009484788,1189473141985634,-0.01305,1.4430001,9.604051
1680009484789,1189473144488003,0.00795,1.3590001,9.5460005
1680009484792,1189473146990157,-0.16905001,1.31595,9.679951
1680009484794,1189473149492080,0.006,1.2580501,9.673051
1680009484796,1189473151994465,-0.15900001,1.31295,9.73095
1680009484799,1189473154496619,-0.10695001,1.1910001,9.817051
1680009484802,1189473156998859,-0.22605,1.20105,9.604051
1680009484804,1189473159501013,-0.21195,1.146,9.73305
1680009484806,1189473162003167,-0.27705002,1.11705,9.747001
1680009484810,1189473164505547,-0.19800001,1.1530501,9.73305
1680009484817,1189473167007470,-0.27705002,1.1410501,9.754951
1680009484818,1189473169508662,-0.29295,1.1029501,9.63
1680009484818,1189473172009855,-0.30795002,1.026,9.64395
1680009484821,1189473174514239,-0.22605,1.08105,9.69705
1680009484822,1189473177016364,-0.22605,1.0360501,9.493951
1680009484825,1189473179518518,-0.29295,1.0690501,9.502951
1680009484827,1189473182020672,-0.21195,1.0570501,9.489
1680009484830,1189473184523056,-0.20505,1.11705,9.508051
1680009484833,1189473187025257,-0.16605,1.1029501,9.405001
1680009484835,1189473189527411,-0.08295,1.1890501,9.32295
1680009484837,1189473192029565,-0.13095,1.1550001,9.441
