system_ts_ms, sensor_ts_ns, gyrX, gyrY, gyrZ
1680014648443,1194636789170110,-0.1379125,-0.039049998,-0.0253
1680014648443,1194636791672341,-0.1299375,-0.0331375,-0.0253
1680014648443,1194636794174793,-0.124025,-0.02915,-0.0253
1680014648444,1194636796677254,-0.1170125,-0.0240625,-0.0262625
1680014648445,1194636799179408,-0.1139875,-0.01815,-0.028324999
1680014648458,1194636801681870,-0.108899996,-0.0121,-0.028324999
1680014648458,1194636804184244,-0.0999625,-0.004125,-0.0292875
1680014648459,1194636806686475,-0.0919875,0.0059125,-0.0292875
1680014648459,1194636809188937,-0.0840125,0.0169125,-0.03025
1680014648460,1194636811691321,-0.077,0.023924999,-0.028324999
1680014648460,1194636814193788,-0.069025,0.0248875,-0.028324999
1680014648462,1194636816696019,-0.05995,0.0279125,-0.028324999
1680014648471,1194636819198403,-0.04895,0.0339625,-0.0292875
1680014648471,1194636821700634,-0.0429,0.03795,-0.03025
1680014648471,1194636824203096,-0.0319,0.0389125,-0.033275
1680014648472,1194636826705562,-0.023924999,0.0438625,-0.0323125
1680014648474,1194636829207716,-0.01595,0.045925,-0.0292875
1680014648476,1194636831710177,-0.0089375,0.0449625,-0.028324999
1680014648479,1194636834212562,-0.00495,0.045925,-0.0292875
1680014648484,1194636836714803,0.0020625,0.047849998,-0.027224999
1680014648485,1194636839217264,0.0100375,0.050875,-0.027224999
1680014648487,1194636841719649,0.01705,0.0539,-0.0253
1680014648489,1194636844221880,0.0210375,0.0518375,-0.0253
1680014648491,1194636846724278,0.022,0.0529375,-0.0232375
1680014648494,1194636849226740,0.0240625,0.0559625,-0.0232375
1680014648500,1194636851728971,0.0290125,0.05995,-0.022275
1680014648500,1194636854231432,0.0320375,0.056925,-0.0202125
1680014648503,1194636856733807,0.0320375,0.0559625,-0.0213125
1680014648504,1194636859236038,0.031075,0.0548625,-0.017324999
1680014648506,1194636861738499,0.031075,0.0559625,-0.0133375
1680014648508,1194636864240884,0.0290125,0.0559625,-0.0122375
1680014648512,1194636866743115,0.0270875,0.0518375,-0.00825
1680014648517,1194636869245561,0.0341,0.0499125,-0.0072875
1680014648517,1194636871747946,0.0290125,0.0468875,-0.0072875
1680014648519,1194636874250177,0.0240625,0.0408375,-0.0023375
1680014648522,1194636876752561,0.0240625,0.0358875,0.0017875
1680014648524,1194636879254773,0.025024999,0.0389125,0.0077
1680014648527,1194636881757235,0.0210375,0.0309375,0.004675
1680014648529,1194636884259619,0.0210375,0.0279125,0.0037125
1680014648533,1194636886762081,0.0180125,0.0229625,0.0086624995
1680014648534,1194636889264311,0.018975,0.0169125,0.01375
1680014648538,1194636891766686,0.0160875,0.01485,0.0127875
1680014648539,1194636894268917,0.013062499,0.0078375,0.01375
1680014648542,1194636896771302,0.0149875,0.001925,0.014712499
1680014648544,1194636899273840,0.0149875,9.625E-4,0.0187
1680014648550,1194636901776220,0.013062499,-0.0020625,0.015675
1680014648550,1194636904278450,0.0100375,-0.00715,0.014712499
1680014648552,1194636906780835,0.0121,-0.009075,0.01375
1680014648554,1194636909283066,0.0121,-0.0100375,0.0127875
1680014648556,1194636911785513,0.011,-0.0081124995,0.0116875
1680014648558,1194636914287898,0.0149875,-0.0121,0.0067375
1680014648562,1194636916790359,0.011,-0.01815,0.004675
1680014648567,1194636919292590,0.0121,-0.0191125,0.00275
1680014648567,1194636921794975,0.0121,-0.01815,-2.75E-4
1680014648569,1194636924297206,0.0160875,-0.014162499,-0.0042625
1680014648572,1194636926799590,0.0100375,-0.01815,-0.00825
1680014648576,1194636929302105,0.011,-0.0210375,-0.0092124995
1680014648577,1194636931804489,0.013062499,-0.0240625,-0.0133375
1680014648579,1194636934306720,0.011,-0.0251625,-0.0182875
1680014648583,1194636936809105,0.0100375,-0.026124999,-0.0232375
1680014648584,1194636939311336,0.009075,-0.0320375,-0.0243375
1680014648587,1194636941813782,0.007975,-0.0350625,-0.0243375
1680014648589,1194636944316167,0.0100375,-0.0361625,-0.0262625
1680014648592,1194636946818628,0.00605,-0.0380875,-0.028324999
1680014648594,1194636949320859,0.0050875,-0.039049998,-0.0323125
1680014648596,1194636951823230,0.0039875,-0.0441375,-0.0342375
1680014648602,1194636954325460,0.0039875,-0.0460625,-0.0323125
1680014648603,1194636956827845,0.0011,-0.05115,-0.028324999
1680014648604,1194636959330383,-9.625E-4,-0.0521125,-0.033275
1680014648606,1194636961832532,-0.001925,-0.0521125,-0.03025
1680014648609,1194636964334994,-0.001925,-0.059125,-0.0292875
1680014648616,1194636966837379,-0.00495,-0.0631125,-0.0323125
1680014648617,1194636969339609,-0.0039875,-0.061049998,-0.0323125
1680014648617,1194636971842023,-0.0039875,-0.0661375,-0.03025
1680014648619,1194636974344484,-0.001925,-0.0691625,-0.0292875
1680014648623,1194636976846946,-0.001925,-0.0691625,-0.0292875
1680014648624,1194636979349177,-0.00495,-0.0671,-0.0253
1680014648626,1194636981851561,-0.001925,-0.0680625,-0.0262625
1680014648628,1194636984353806,-0.001925,-0.0680625,-0.0243375
1680014648635,1194636986856191,-9.625E-4,-0.0680625,-0.0202125
1680014648636,1194636989358652,0.0,-0.0691625,-0.0202125
1680014648637,1194636991860883,-0.0039875,-0.070125,-0.0202125
1680014648639,1194636994363350,-0.001925,-0.0661375,-0.017324999
1680014648642,1194636996865734,0.0,-0.0631125,-0.016224999
1680014648644,1194636999367965,0.0,-0.0600875,-0.016224999
1680014648650,1194637001870350,9.625E-4,-0.0581625,-0.015262499
1680014648650,1194637004372792,-9.625E-4,-0.0551375,-0.0103124995
1680014648653,1194637006875254,0.0,-0.054175,-0.00825
1680014648654,1194637009377408,0.0020625,-0.053075,-0.0072875
1680014648656,1194637011879638,0.003025,-0.0460625,-0.0042625
1680014648659,1194637014382100,0.0020625,-0.0441375,-0.0012375
1680014648662,1194637016884480,0.0050875,-0.0441375,6.875E-4
1680014648670,1194637019386941,0.007975,-0.0411125,0.0017875
1680014648671,1194637021889172,0.009075,-0.0350625,-2.75E-4
1680014648672,1194637024391556,0.0100375,-0.031075,0.004675
1680014648673,1194637026894018,0.0119624995,-0.031075,0.005775
1680014648674,1194637029396249,0.013062499,-0.032175,0.0067375
1680014648676,1194637031898633,0.011,-0.031075,0.0077
1680014648680,1194637034401095,0.011,-0.02805,0.0097624995
1680014648684,1194637036903562,0.0100375,-0.031075,0.0127875
1680014648685,1194637039405715,0.011,-0.021175,0.015675
1680014648689,1194637041907946,0.009075,-0.0240625,0.0187
1680014648689,1194637044410408,0.0050875,-0.0240625,0.015675
1680014648693,1194637046912820,0.00605,-0.0240625,0.0187
1680014648694,1194637049415282,0.00605,-0.0270875,0.0196625
1680014648701,1194637051917513,0.0050875,-0.026124999,0.021724999
1680014648702,1194637054419897,0.00605,-0.026124999,0.0207625
1680014648702,1194637056922128,0.0070125,-0.0270875,0.0207625
1680014648704,1194637059424489,0.0050875,-0.0251625,0.021724999
1680014648706,1194637061926950,0.0050875,-0.02805,0.0226875
1680014648709,1194637064429412,0.00605,-0.031075,0.0226875
1680014648712,1194637066931643,0.0050875,-0.0301125,0.02475
1680014648717,1194637069434023,0.0039875,-0.0350625,0.0257125
1680014648718,1194637071936254,0.0050875,-0.0380875,0.02475
1680014648719,1194637074438715,0.0070125,-0.0380875,0.021724999
1680014648723,1194637076940869,0.003025,-0.0380875,0.0237875
1680014648725,1194637079443542,0.0050875,-0.043175,0.0207625
1680014648727,1194637081945772,0.0050875,-0.042075,0.014712499
1680014648729,1194637084448157,0.0020625,-0.043175,0.0196625
1680014648733,1194637086950388,0.0020625,-0.0411125,0.015675
1680014648734,1194637089452772,0.0,-0.043175,0.01375
1680014648736,1194637091955206,0.0,-0.0411125,0.0116875
1680014648739,1194637094457668,9.625E-4,-0.0350625,0.014712499
1680014648743,1194637096959898,-9.625E-4,-0.037125,0.0127875
1680014648744,1194637099462283,-0.001925,-0.037125,0.0097624995
1680014648749,1194637101964547,-0.00495,-0.042075,0.0077
1680014648750,1194637104467008,-0.00495,-0.037125,0.005775
1680014648752,1194637106969162,-0.0059125,-0.0361625,0.005775
1680014648754,1194637109471854,-0.00495,-0.0331375,0.004675
1680014648757,1194637111974099,-0.00495,-0.0350625,0.0037125
1680014648759,1194637114476484,-0.0059125,-0.0350625,0.00275
1680014648769,1194637116978715,-0.007975,-0.0341,0.0017875
1680014648770,1194637119481099,-0.0100375,-0.032175,-2.75E-4
1680014648772,1194637121983557,-0.012925,-0.0341,-0.0012375
1680014648773,1194637124485788,-0.0100375,-0.031075,-0.0012375
1680014648775,1194637126988249,-0.0100375,-0.02915,0.0017875
1680014648775,1194637129490634,-0.014025,-0.02805,-2.75E-4
1680014648776,1194637131992864,-0.0149875,-0.02915,-0.0012375
1680014648779,1194637134495258,-0.014025,-0.02805,-0.0033
1680014648787,1194637136997489,-0.0149875,-0.02915,-0.0033
1680014648788,1194637139500181,-0.0149875,-0.0270875,-0.0023375
1680014648790,1194637142002412,-0.0149875,-0.026124999,-0.0023375
1680014648790,1194637144504778,-0.0199375,-0.0240625,-0.0042625
1680014648792,1194637147007008,-0.0199375,-0.0301125,-0.0023375
1680014648795,1194637149509393,-0.018975,-0.031075,-0.0023375
1680014648801,1194637152011854,-0.0169125,-0.02805,-0.0023375
1680014648802,1194637154514067,-0.0180125,-0.02915,-2.75E-4
1680014648803,1194637157016529,-0.0169125,-0.032175,0.0017875
1680014648806,1194637159518913,-0.01595,-0.0331375,0.0037125
1680014648807,1194637162021144,-0.014025,-0.0301125,0.00275
1680014648809,1194637164523529,-0.014025,-0.02915,0.0037125
1680014648812,1194637167025768,-0.01595,-0.02915,0.005775
1680014648816,1194637169528460,-0.012925,-0.031075,0.005775
1680014648818,1194637172030614,-0.012925,-0.032175,0.0067375
1680014648819,1194637174533075,-0.0119624995,-0.032175,0.0077
1680014648823,1194637177035316,-0.0119624995,-0.032175,0.0086624995
1680014648824,1194637179537701,-0.011,-0.031075,0.0097624995
1680014648827,1194637182039931,-0.011,-0.031075,0.0097624995
1680014648829,1194637184542393,-0.0100375,-0.031075,0.010725
1680014648833,1194637187044773,-0.0070125,-0.02915,0.0127875
1680014648834,1194637189547234,-0.0070125,-0.026124999,0.0127875
1680014648839,1194637192049465,-0.0070125,-0.02915,0.014712499
1680014648840,1194637194551850,-0.00495,-0.0301125,0.014712499
1680014648842,1194637197054090,0.0,-0.0251625,0.015675
1680014648844,1194637199556552,0.0020625,-0.0240625,0.014712499
1680014648847,1194637202058937,0.0,-0.0251625,0.016775
1680014648849,1194637204561398,0.0020625,-0.0270875,0.0187
1680014648852,1194637207063629,9.625E-4,-0.0251625,0.0187
1680014648855,1194637209566003,0.0050875,-0.02805,0.0196625
1680014648857,1194637212068234,0.007975,-0.0221375,0.014712499
1680014648859,1194637214570696,0.009075,-0.0251625,0.0116875
1680014648863,1194637217073080,0.00605,-0.0301125,0.010725
1680014648864,1194637219575301,0.0070125,-0.0270875,0.0127875
1680014648867,1194637222077686,0.0070125,-0.0270875,0.0097624995
1680014648869,1194637224580147,0.0039875,-0.0251625,0.0127875
1680014648872,1194637227082378,0.0050875,-0.02805,0.014712499
1680014648875,1194637229584874,0.007975,-0.0270875,0.0127875
1680014648877,1194637232087258,0.0070125,-0.02805,0.0116875
1680014648879,1194637234589489,0.00605,-0.026124999,0.01375
1680014648882,1194637237091951,0.00605,-0.0251625,0.01375
1680014648884,1194637239594104,0.0070125,-0.0221375,0.0127875
1680014648887,1194637242096566,0.0070125,-0.021175,0.010725
1680014648890,1194637244599028,0.0050875,-0.021175,0.0116875
1680014648893,1194637247101412,0.0039875,-0.0221375,0.0097624995
1680014648894,1194637249603643,0.0039875,-0.01815,0.010725
1680014648896,1194637252106028,0.003025,-0.013062499,0.0086624995
1680014648899,1194637254608494,0.003025,-0.014162499,0.0067375
1680014648903,1194637257110725,-9.625E-4,-0.015125,0.0037125
1680014648906,1194637259613110,0.0039875,-0.010175,0.004675
1680014648906,1194637262115571,9.625E-4,-0.00715,0.0017875
1680014648909,1194637264617831,-0.0039875,-0.00715,6.875E-4
1680014648914,1194637267120215,-0.0059125,-0.010175,-0.0012375
1680014648915,1194637269622446,-0.0070125,-0.0050875,-0.0042625
1680014648918,1194637272124893,-0.0070125,8.25E-4,-0.00825
1680014648919,1194637274627277,-0.007975,0.0028875,-0.0103124995
1680014648923,1194637277129739,-0.011,0.0059125,-0.011275
1680014648924,1194637279631970,-0.014025,0.0108624995,-0.0122375
1680014648927,1194637282134354,-0.0199375,0.01595,-0.017324999
1680014648929,1194637284636807,-0.022,0.0188375,-0.017324999
1680014648932,1194637287138961,-0.0259875,0.0209,-0.016224999
1680014648934,1194637289641422,-0.025024999,0.023924999,-0.0182875
1680014648939,1194637292143884,-0.029975,0.0248875,-0.0202125
1680014648940,1194637294646129,-0.0309375,0.02695,-0.0202125
1680014648943,1194637297148513,-0.0259875,0.0309375,-0.022275
1680014648944,1194637299650744,-0.029975,0.0309375,-0.0202125
1680014648947,1194637302153129,-0.0290125,0.0358875,-0.01925
1680014648952,1194637304655571,-0.0320375,0.0328625,-0.0232375
1680014648953,1194637307158033,-0.0320375,0.0328625,-0.022275
1680014648956,1194637309660263,-0.029975,0.0319,-0.0202125
1680014648957,1194637312162648,-0.0259875,0.0319,-0.022275
1680014648959,1194637314665110,-0.0259875,0.0309375,-0.0232375
1680014648963,1194637317167264,-0.0229625,0.0279125,-0.0243375
1680014648964,1194637319669725,-0.0210375,0.028875,-0.0243375
1680014648967,1194637322172187,-0.022,0.0248875,-0.0262625
1680014648969,1194637324674417,-0.0180125,0.022824999,-0.0243375
1680014648973,1194637327176811,-0.01595,0.0218625,-0.0253
1680014648974,1194637329679042,-0.01595,0.0209,-0.0262625
1680014648976,1194637332181426,-0.014025,0.0209,-0.027224999
1680014648979,1194637334683657,-0.012925,0.0199375,-0.0243375
1680014648983,1194637337186330,-0.012925,0.0188375,-0.0253
1680014648985,1194637339688561,-0.0089375,0.022824999,-0.0253
1680014648988,1194637342190946,-0.0089375,0.0199375,-0.0253
1680014648990,1194637344693177,-0.0089375,0.017875,-0.0232375
1680014648993,1194637347195571,-0.00495,0.01595,-0.0213125
1680014648994,1194637349697802,-0.001925,0.0169125,-0.022275
1680014648996,1194637352200494,-0.0039875,0.0138875,-0.0213125
1680014648999,1194637354702648,-0.001925,0.01485,-0.0213125
1680014649003,1194637357205114,9.625E-4,0.01595,-0.022275
1680014649004,1194637359707345,0.0039875,0.011825,-0.0182875
1680014649007,1194637362209729,0.0050875,0.011825,-0.015262499
1680014649009,1194637364711960,0.009075,0.0169125,-0.0182875
1680014649012,1194637367214417,0.0070125,0.0078375,-0.0182875
1680014649014,1194637369716879,0.0070125,0.00385,-0.01925
1680014649017,1194637372219033,0.0070125,0.006875,-0.0202125
1680014649019,1194637374721494,0.0070125,0.00495,-0.01925
1680014649023,1194637377223879,0.00605,0.00495,-0.01925
1680014649026,1194637379726110,0.0,0.0059125,-0.01925
1680014649027,1194637382228571,-9.625E-4,0.00495,-0.0202125
1680014649029,1194637384730956,0.0,0.00495,-0.016224999
1680014649032,1194637387233413,9.625E-4,0.0078375,-0.017324999
1680014649034,1194637389735643,-9.625E-4,0.0099,-0.017324999
1680014649036,1194637392238028,-9.625E-4,0.00385,-0.015262499
1680014649039,1194637394740259,-9.625E-4,0.00385,-0.0202125
1680014649042,1194637397242705,-0.001925,0.0099,-0.017324999
1680014649045,1194637399745167,-0.00495,0.006875,-0.016224999
1680014649047,1194637402247321,-0.00495,0.006875,-0.016224999
1680014649049,1194637404749782,-0.001925,0.00385,-0.015262499
1680014649052,1194637407252167,-0.0039875,0.00385,-0.015262499
1680014649054,1194637409754403,-0.007975,0.0028875,-0.0122375
1680014649058,1194637412256864,-0.0070125,0.0028875,-0.0103124995
1680014649063,1194637414759249,-0.0100375,0.00385,-0.0103124995
1680014649063,1194637417261480,-0.011,0.001925,-0.00825
1680014649065,1194637419763955,-0.0100375,-0.0011,-0.00825
1680014649067,1194637422266340,-0.007975,-0.0020625,-0.0092124995
1680014649069,1194637424768570,-0.0089375,-1.375E-4,-0.0092124995
1680014649072,1194637427271032,-0.007975,-0.004125,-0.006325
1680014649074,1194637429773398,-0.0070125,-0.0031625,-0.0092124995
1680014649076,1194637432275628,-0.0089375,-0.00605,-0.0103124995
1680014649079,1194637434778013,-0.007975,-0.00715,-0.00825
1680014649082,1194637437280475,-0.0089375,-0.0020625,-0.011275
1680014649084,1194637439782676,-0.0089375,-0.0031625,-0.0103124995
1680014649087,1194637442285138,-0.007975,-0.00605,-0.0072875
1680014649089,1194637444787522,-0.0089375,-0.0031625,-0.00825
1680014649092,1194637447289753,-0.011,-0.0011,-0.0092124995
1680014649094,1194637449792138,-0.011,-0.0020625,-0.0092124995
1680014649097,1194637452294384,-0.014025,-0.0031625,-0.00825
1680014649101,1194637454796845,-0.0119624995,0.001925,-0.005225
1680014649103,1194637457299307,-0.011,0.001925,-0.005225
1680014649107,1194637459801696,-0.0149875,-0.0020625,-0.0042625
1680014649107,1194637462303927,-0.014025,-0.0011,-0.005225
1680014649110,1194637464806312,-0.0119624995,-0.004125,-0.005225
1680014649112,1194637467308773,-0.0100375,-0.00605,-0.0042625
1680014649115,1194637469810927,-0.0100375,-0.0081124995,-0.0042625
1680014649118,1194637472313485,-0.011,-0.010175,-0.0023375
1680014649122,1194637474815869,-0.011,-0.0111375,-0.0023375
1680014649123,1194637477318100,-0.0100375,-0.0111375,-0.0012375
1680014649124,1194637479820485,-0.0100375,-0.015125,-0.0033
1680014649127,1194637482322715,-0.007975,-0.0221375,-0.0012375
1680014649129,1194637484825167,-0.007975,-0.020075,0.0017875
1680014649133,1194637487327552,-0.00495,-0.01705,0.00275
1680014649134,1194637489830013,-0.00495,-0.01815,0.0037125
1680014649139,1194637492332244,-0.0039875,-0.021175,0.0037125
1680014649140,1194637494834653,-0.001925,-0.0221375,0.0067375
1680014649143,1194637497336883,-0.00495,-0.020075,0.005775
1680014649144,1194637499839268,-0.001925,-0.0191125,0.005775
1680014649147,1194637502341806,-9.625E-4,-0.01815,0.005775
1680014649150,1194637504843979,-9.625E-4,-0.0191125,0.0067375
1680014649153,1194637507346441,-0.001925,-0.0221375,0.005775
1680014649156,1194637509848825,0.0,-0.0191125,0.005775
1680014649157,1194637512351287,0.0,-0.0160875,0.005775
1680014649159,1194637514853518,-0.0039875,-0.015125,0.00275
1680014649163,1194637517355917,-0.001925,-0.0160875,0.00275
1680014649164,1194637519858148,-0.0039875,-0.01815,6.875E-4
1680014649167,1194637522360533,-0.0059125,-0.0121,0.0037125
1680014649170,1194637524862994,-0.001925,-0.013062499,0.0037125
1680014649173,1194637527365460,-0.007975,-0.009075,0.00275
1680014649176,1194637529867691,-0.0089375,-0.0111375,0.0017875
1680014649177,1194637532370075,-0.0059125,-0.013062499,6.875E-4
1680014649179,1194637534872306,-0.0070125,-0.0081124995,0.0017875
1680014649183,1194637537374691,-0.0089375,-0.0050875,0.00275
1680014649185,1194637539876921,-0.0070125,-0.009075,0.00275
1680014649189,1194637542379614,-0.0059125,-0.00605,0.0037125
1680014649190,1194637544881845,-0.011,-0.0081124995,0.0037125
1680014649193,1194637547384244,-0.012925,-0.00605,6.875E-4
1680014649196,1194637549886475,-0.0149875,-0.004125,6.875E-4
1680014649197,1194637552388860,-0.012925,-0.0031625,0.00275
1680014649199,1194637554891090,-0.0119624995,-0.0031625,-2.75E-4
1680014649203,1194637557393802,-0.0119624995,-0.0031625,6.875E-4
1680014649207,1194637559895955,-0.0119624995,-0.0020625,0.00275
1680014649207,1194637562398417,-0.0119624995,-0.0011,0.00275
1680014649210,1194637564900648,-0.0138875,9.625E-4,0.0017875
1680014649214,1194637567403027,-0.0149875,-0.0011,6.875E-4
1680014649215,1194637569905258,-0.0138875,-0.0020625,6.875E-4
1680014649217,1194637572407720,-0.0138875,-0.0011,6.875E-4
1680014649221,1194637574910181,-0.0138875,0.001925,6.875E-4
1680014649223,1194637577412566,-0.0149875,9.625E-4,0.00275
1680014649224,1194637579914783,-0.0149875,9.625E-4,-2.75E-4
1680014649227,1194637582417167,-0.0138875,0.00385,-0.0012375
1680014649230,1194637584919398,-0.0138875,0.00385,6.875E-4
1680014649233,1194637587421860,-0.0138875,0.00495,-0.0012375
1680014649234,1194637589924244,-0.01595,0.0078375,-0.0033
1680014649237,1194637592426706,-0.0169125,0.0059125,-0.0023375
1680014649240,1194637594928937,-0.0180125,0.0059125,-0.0023375
1680014649242,1194637597431321,-0.0149875,0.0119624995,-0.0042625
1680014649244,1194637599933552,-0.0149875,0.012925,-0.0033
1680014649247,1194637602436027,-0.0180125,0.0078375,-0.0023375
1680014649251,1194637604938412,-0.0180125,0.01485,-0.0033
1680014649253,1194637607440643,-0.0199375,0.01595,-0.0023375
1680014649255,1194637609943119,-0.022,0.0138875,-0.0042625
1680014649257,1194637612445504,-0.023924999,0.01595,-0.0033
1680014649260,1194637614947735,-0.0290125,0.017875,-0.0042625
1680014649263,1194637617450196,-0.02695,0.0188375,-0.005225
1680014649264,1194637619952581,-0.02695,0.0199375,-0.0072875
1680014649267,1194637622454792,-0.0309375,0.0229625,-0.0072875
1680014649270,1194637624957253,-0.0309375,0.0218625,-0.006325
1680014649272,1194637627459407,-0.0339625,0.0248875,-0.00825
1680014649274,1194637629961869,-0.0339625,0.0248875,-0.0092124995
1680014649277,1194637632464321,-0.0369875,0.0229625,-0.00825
1680014649280,1194637634966706,-0.0369875,0.02695,-0.0103124995
1680014649283,1194637637468937,-0.0358875,0.023924999,-0.0122375
1680014649284,1194637639971321,-0.033,0.0218625,-0.0133375
1680014649289,1194637642473773,-0.0319,0.023924999,-0.0133375
1680014649290,1194637644975927,-0.0358875,0.0229625,-0.011275
1680014649293,1194637647478465,-0.0319,0.0169125,-0.0122375
1680014649294,1194637649980850,-0.0309375,0.017875,-0.0122375
1680014649297,1194637652483081,-0.0319,0.017875,-0.0122375
1680014649299,1194637654985480,-0.029975,0.0138875,-0.0103124995
1680014649302,1194637657487711,-0.0279125,0.017875,-0.0092124995
1680014649304,1194637659990172,-0.023924999,0.01485,-0.00825
1680014649307,1194637662492634,-0.0248875,0.0108624995,-0.006325
1680014649309,1194637664995019,-0.0229625,0.0059125,-0.0092124995
1680014649312,1194637667497249,-0.0209,0.0099,-0.006325
1680014649314,1194637669999634,-0.0169125,0.00495,-0.0042625
1680014649317,1194637672501865,-0.018975,0.0059125,-0.0042625
1680014649319,1194637675004249,-0.0180125,9.625E-4,-0.0033
1680014649323,1194637677506788,-0.0138875,-1.375E-4,-2.75E-4
1680014649326,1194637680009173,-0.0138875,-1.375E-4,0.0017875
1680014649327,1194637682511403,-0.0149875,-0.0031625,0.00275
1680014649329,1194637685013788,-0.01595,-0.0050875,0.004675
1680014649333,1194637687515995,-0.01595,-0.0081124995,0.005775
1680014649334,1194637690018379,-0.012925,-0.0100375,0.005775
1680014649337,1194637692520841,-0.0119624995,-0.0111375,0.005775
1680014649340,1194637695023058,-0.012925,-0.013062499,0.0077
1680014649343,1194637697525519,-0.012925,-0.014162499,0.0097624995
1680014649344,1194637700027904,-0.0138875,-0.015125,0.0077
1680014649347,1194637702530135,-0.0138875,-0.0191125,0.0077
1680014649349,1194637705032519,-0.0119624995,-0.01705,0.0097624995
1680014649353,1194637707534995,-0.0099,-0.01705,0.0097624995
1680014649355,1194637710037456,-0.0138875,-0.0240625,0.0077
1680014649357,1194637712539610,-0.01595,-0.0221375,0.0086624995
1680014649360,1194637715042072,-0.0169125,-0.020075,0.0086624995
1680014649364,1194637717544317,-0.01595,-0.0240625,0.0077
1680014649366,1194637720046702,-0.01595,-0.0251625,0.0077
1680014649367,1194637722549164,-0.018975,-0.01815,0.0067375
1680014649370,1194637725051394,-0.0169125,-0.0191125,0.0077
1680014649373,1194637727553856,-0.01595,-0.01815,0.0077
1680014649374,1194637730056241,-0.0169125,-0.0121,0.0077
1680014649377,1194637732558471,-0.0149875,-0.013062499,0.0077
1680014649379,1194637735060856,-0.0149875,-0.015125,0.0086624995
1680014649382,1194637737563342,-0.0119624995,-0.013062499,0.0067375
1680014649385,1194637740065572,-0.0119624995,-0.0121,0.0067375
1680014649389,1194637742567957,-0.0099,-0.0111375,0.0097624995
1680014649390,1194637745070418,-0.007975,-0.0111375,0.0077
1680014649393,1194637747572644,-0.00495,-0.0100375,0.0067375
1680014649394,1194637750075029,-0.0070125,-0.009075,0.005775
1680014649397,1194637752577490,-0.00495,-0.0111375,0.004675
1680014649401,1194637755079716,-0.0039875,-0.013062499,0.0067375
1680014649407,1194637757582101,-0.00495,-0.0160875,0.005775
1680014649407,1194637760084332,-0.0059125,-0.0111375,0.004675
1680014649408,1194637762586716,-0.00495,-0.009075,0.004675
1680014649410,1194637765089178,-0.0070125,-0.0111375,0.00275
1680014649413,1194637767591644,-0.0070125,-0.0160875,0.005775
1680014649414,1194637770093875,-0.0070125,-0.013062499,0.0037125
1680014649417,1194637772596260,-0.0089375,-0.0100375,-2.75E-4
1680014649420,1194637775098490,-0.0119624995,-0.013062499,-2.75E-4
1680014649423,1194637777600961,-0.012925,-0.0100375,0.0037125
1680014649424,1194637780103115,-0.0138875,-0.009075,0.00275
1680014649427,1194637782605807,-0.011,-0.0121,-2.75E-4
1680014649430,1194637785108038,-0.012925,-0.0160875,0.0037125
1680014649432,1194637787610433,-0.0149875,-0.013062499,0.004675
1680014649434,1194637790112663,-0.0119624995,-0.015125,0.005775
1680014649439,1194637792615048,-0.012925,-0.014162499,0.0116875
1680014649441,1194637795117279,-0.01595,-0.014162499,0.0127875
1680014649443,1194637797619735,-0.0180125,-0.015125,0.0116875
1680014649444,1194637800122197,-0.018975,-0.015125,0.0116875
1680014649447,1194637802624581,-0.01595,-0.0191125,0.0127875
1680014649450,1194637805126812,-0.0169125,-0.015125,0.014712499
1680014649452,1194637807629197,-0.0199375,-0.01705,0.0127875
1680014649455,1194637810131447,-0.0169125,-0.01705,0.014712499
1680014649457,1194637812634139,-0.0180125,-0.015125,0.010725
1680014649459,1194637815136370,-0.0180125,-0.014162499,0.010725
1680014649462,1194637817638754,-0.0199375,-0.0160875,0.010725
1680014649464,1194637820140995,-0.023924999,-0.01705,0.0097624995
1680014649467,1194637822643380,-0.0209,-0.0121,0.0097624995
1680014649470,1194637825145610,-0.022,-0.0111375,0.0097624995
1680014649473,1194637827648067,-0.0209,-0.01815,0.0086624995
1680014649476,1194637830150452,-0.022,-0.0121,0.0067375
1680014649477,1194637832652913,-0.0209,-0.0111375,0.0067375
1680014649480,1194637835155144,-0.022,-0.0100375,0.0077
1680014649483,1194637837657515,-0.022,-0.0111375,0.004675
1680014649485,1194637840159745,-0.0199375,-0.013062499,0.005775
1680014649487,1194637842662207,-0.0180125,-0.0121,0.005775
1680014649490,1194637845164592,-0.018975,-0.013062499,0.004675
1680014649492,1194637847666822,-0.0199375,-0.0100375,0.005775
1680014649495,1194637850169293,-0.0209,-0.0100375,0.0037125
1680014649497,1194637852671677,-0.0199375,-0.013062499,0.0037125
1680014649500,1194637855173908,-0.0180125,-0.0100375,0.0037125
1680014649503,1194637857676370,-0.0119624995,-0.0100375,0.004675
1680014649504,1194637860178754,-0.0119624995,-0.0111375,0.0067375
1680014649508,1194637862680985,-0.011,-0.014162499,0.0067375
1680014649510,1194637865183370,-0.0119624995,-0.0111375,0.005775
1680014649514,1194637867685831,-0.011,-0.009075,0.004675
1680014649516,1194637870188043,-0.011,-0.0111375,0.0067375
1680014649518,1194637872690505,-0.0070125,-0.015125,0.0067375
1680014649522,1194637875192889,-0.0059125,-0.0081124995,0.004675
1680014649524,1194637877695120,-0.00495,-0.004125,0.0067375
1680014649526,1194637880197495,-0.0039875,-0.00605,0.005775
1680014649528,1194637882699956,-0.0059125,-0.00715,0.004675
1680014649530,1194637885202110,-0.0039875,-0.0121,0.0037125
1680014649532,1194637887704649,-0.007975,-0.0111375,0.0077
1680014649535,1194637890207014,-0.0059125,-0.0100375,0.0077
1680014649538,1194637892709245,-0.00495,-0.009075,0.004675
1680014649540,1194637895211630,-0.0059125,-0.013062499,0.005775
1680014649543,1194637897713860,-0.007975,-0.013062499,0.0067375
1680014649544,1194637900216322,-0.011,-0.013062499,0.0037125
1680014649547,1194637902718712,-0.007975,-0.014162499,0.0037125
1680014649551,1194637905221173,-0.007975,-0.014162499,0.004675
1680014649554,1194637907723404,-0.0099,-0.015125,0.005775
1680014649555,1194637910225793,-0.0089375,-0.013062499,0.0067375
1680014649557,1194637912728024,-0.0119624995,-0.0160875,0.0037125
1680014649560,1194637915230409,-0.012925,-0.014162499,0.00275
1680014649563,1194637917732870,-0.0099,-0.014162499,0.004675
1680014649564,1194637920235332,-0.011,-0.01815,0.004675
1680014649567,1194637922737563,-0.0119624995,-0.01705,0.004675
1680014649570,1194637925239947,-0.011,-0.0160875,0.0037125
1680014649573,1194637927742178,-0.011,-0.013062499,0.004675
1680014649575,1194637930244563,-0.007975,-0.013062499,0.005775
1680014649577,1194637932746798,-0.011,-0.015125,0.0037125
1680014649580,1194637935249259,-0.0138875,-0.013062499,0.00275
1680014649582,1194637937751721,-0.0119624995,-0.0100375,0.0037125
1680014649585,1194637940254105,-0.0138875,-0.0121,0.0017875
1680014649589,1194637942756327,-0.0149875,-0.014162499,0.0017875
1680014649590,1194637945258712,-0.0138875,-0.0081124995,0.00275
1680014649593,1194637947760942,-0.0138875,-0.00605,0.004675
1680014649595,1194637950263635,-0.0149875,-0.0050875,0.0017875
1680014649597,1194637952765789,-0.0149875,-0.0050875,0.0017875
1680014649599,1194637955268259,-0.0149875,-0.00605,0.0017875
1680014649602,1194637957770490,-0.0180125,-0.004125,0.004675
1680014649605,1194637960272874,-0.01595,9.625E-4,0.005775
1680014649607,1194637962775105,-0.01595,9.625E-4,0.00275
1680014649611,1194637965277587,-0.01595,-1.375E-4,-2.75E-4
1680014649612,1194637967780048,-0.012925,9.625E-4,6.875E-4
1680014649615,1194637970282202,-0.0119624995,0.001925,-0.0012375
1680014649617,1194637972784664,-0.0138875,0.00385,-0.0012375
1680014649620,1194637975287048,-0.0138875,0.00385,6.875E-4
1680014649623,1194637977789279,-0.0119624995,0.0059125,0.0017875
1680014649627,1194637980291741,-0.011,0.00385,-0.0023375
1680014649628,1194637982794125,-0.012925,0.0028875,-0.005225
1680014649630,1194637985296587,-0.0099,0.00385,-0.0042625
1680014649632,1194637987798789,-0.007975,0.00385,-0.005225
1680014649635,1194637990301173,-0.011,0.0028875,-0.0042625
1680014649637,1194637992803404,-0.011,0.001925,-0.005225
1680014649641,1194637995305851,-0.0099,-0.0011,-0.006325
1680014649643,1194637997808235,-0.0089375,0.001925,-0.006325
1680014649644,1194638000310466,-0.007975,-1.375E-4,-0.0033
1680014649647,1194638002812851,-0.006875,9.625E-4,-0.0072875
1680014649649,1194638005315312,-0.007975,-0.0011,-0.005225
1680014649652,1194638007817490,-0.0089375,-0.004125,-0.0042625
1680014649656,1194638010320028,-0.0099,-0.0050875,-0.0042625
1680014649657,1194638012822413,-0.0089375,-0.0031625,-0.006325
1680014649660,1194638015324644,-0.007975,-0.00715,-0.00825
1680014649664,1194638017827028,-0.0089375,-0.009075,-0.00825
1680014649666,1194638020329259,-0.0089375,-0.009075,-0.006325
1680014649667,1194638022831721,-0.007975,-0.013062499,-0.006325
1680014649670,1194638025334182,-0.007975,-0.013062499,-0.0072875
1680014649673,1194638027836563,-0.007975,-0.0100375,-0.006325
1680014649678,1194638030338794,-0.007975,-0.0111375,-0.0023375
1680014649678,1194638032841178,-0.00495,-0.0160875,-0.006325
1680014649680,1194638035343409,-0.00495,-0.015125,-0.011275
1680014649687,1194638037845784,-0.0099,-0.0160875,-0.0072875
1680014649690,1194638040348322,-0.007975,-0.020075,-0.0023375
1680014649690,1194638042850707,-0.007975,-0.01705,-0.0042625
1680014649690,1194638045352938,-0.011,-0.0160875,-0.0012375
1680014649692,1194638047855332,-0.011,-0.01705,0.0037125
1680014649695,1194638050357563,-0.0059125,-0.020075,-0.0012375
1680014649697,1194638052859948,-0.0039875,-0.0221375,-0.0033
1680014649701,1194638055362486,-0.011,-0.020075,0.0017875
1680014649703,1194638057864890,-0.0099,-0.0191125,0.0037125
1680014649705,1194638060367121,-0.006875,-0.0240625,-2.75E-4
1680014649707,1194638062869505,-0.0089375,-0.0240625,6.875E-4
1680014649710,1194638065371736,-0.0099,-0.0221375,6.875E-4
1680014649712,1194638067874121,-0.0099,-0.0270875,0.00275
1680014649715,1194638070376562,-0.006875,-0.026124999,0.0037125
1680014649718,1194638072879024,-0.007975,-0.0251625,0.00275
1680014649720,1194638075381177,-0.0099,-0.026124999,0.0037125
1680014649723,1194638077883639,-0.0099,-0.0251625,0.0017875
1680014649725,1194638080385885,-0.006875,-0.026124999,0.0017875
1680014649728,1194638082888269,-0.0089375,-0.026124999,6.875E-4
1680014649731,1194638085390731,-0.0089375,-0.0221375,6.875E-4
1680014649732,1194638087892962,-0.0099,-0.020075,0.0037125
1680014649735,1194638090395423,-0.007975,-0.01705,6.875E-4
1680014649739,1194638092897813,-0.006875,-0.020075,-0.0023375
1680014649740,1194638095400044,-0.0089375,-0.0160875,-2.75E-4
1680014649743,1194638097902428,-0.011,-0.0160875,-0.0012375
1680014649745,1194638100404890,-0.0059125,-0.0160875,6.875E-4
1680014649748,1194638102907130,-0.0059125,-0.0160875,-2.75E-4
1680014649750,1194638105409514,-0.0089375,-0.0160875,-0.0023375
1680014649753,1194638107911976,-0.011,-0.014162499,-0.0023375
1680014649756,1194638110414198,-0.007975,-0.013062499,0.0037125
1680014649757,1194638112916582,-0.0089375,-0.013062499,0.0037125
1680014649760,1194638115419044,-0.0099,-0.0100375,0.00275
1680014649763,1194638117921274,-0.0089375,-0.013062499,0.004675
1680014649765,1194638120423659,-0.0099,-0.013062499,0.0037125
1680014649767,1194638122925894,-0.0119624995,-0.014162499,0.004675
1680014649770,1194638125428279,-0.012925,-0.0121,0.0037125
1680014649773,1194638127930740,-0.0099,-0.0031625,0.005775
1680014649776,1194638130433202,-0.011,-0.0050875,0.0067375
1680014649778,1194638132935413,-0.0119624995,-0.0081124995,0.0077
1680014649781,1194638135437798,-0.0149875,-0.009075,0.0086624995
1680014649784,1194638137940029,-0.012925,-0.00605,0.0097624995
1680014649785,1194638140442413,-0.011,-0.009075,0.0086624995
1680014649789,1194638142944634,-0.007975,-0.0111375,0.0097624995
1680014649789,1194638145447326,-0.0119624995,-0.0100375,0.010725
1680014649793,1194638147949557,-0.012925,-0.0100375,0.0086624995
1680014649795,1194638150451942,-0.007975,-0.004125,0.0086624995
1680014649798,1194638152954173,-0.0089375,-0.00715,0.0077
1680014649800,1194638155456572,-0.0099,-0.00605,0.0086624995
1680014649803,1194638157959034,-0.006875,-0.0050875,0.0077
1680014649805,1194638160461495,-0.007975,-0.00715,0.005775
1680014649808,1194638162963726,-0.0059125,-0.0050875,0.004675
1680014649810,1194638165466111,-0.0039875,-0.00605,0.0037125
1680014649815,1194638167968342,-0.001925,-0.00605,6.875E-4
1680014649816,1194638170470726,-0.0039875,-0.0050875,6.875E-4
1680014649818,1194638172972957,-0.0039875,-0.004125,-0.0012375
1680014649820,1194638175475418,-9.625E-4,-0.0050875,-0.0042625
1680014649823,1194638177977880,0.0,-0.00715,-0.0042625
1680014649825,1194638180480034,0.0,-0.009075,-0.005225
1680014649828,1194638182982495,-0.0039875,-0.0081124995,-0.005225
1680014649830,1194638185484880,-9.625E-4,-0.0100375,-0.0072875
1680014649833,1194638187987096,0.0,-0.009075,-0.0072875
1680014649835,1194638190489557,0.0011,-0.0111375,-0.0103124995
1680014649837,1194638192991942,0.0,-0.015125,-0.00825
1680014649840,1194638195494404,-0.001925,-0.0121,-0.0103124995
1680014649843,1194638197996668,-9.625E-4,-0.0121,-0.011275
1680014649845,1194638200499053,0.0,-0.015125,-0.0103124995
1680014649848,1194638203001284,-0.001925,-0.01705,-0.011275
1680014649853,1194638205503735,-0.00495,-0.01815,-0.0072875
1680014649856,1194638208006120,-0.0059125,-0.020075,-0.00825
1680014649856,1194638210508351,-0.00495,-0.0221375,-0.006325
1680014649857,1194638213010812,-0.0039875,-0.0270875,-0.005225
1680014649860,1194638215513197,-0.00495,-0.02805,-0.0033
1680014649864,1194638218015379,-0.006875,-0.02915,-2.75E-4
1680014649865,1194638220517840,-0.006875,-0.0331375,6.875E-4
1680014649869,1194638223020225,-0.007975,-0.0341,0.004675
1680014649871,1194638225522456,-0.006875,-0.0320375,0.004675
1680014649873,1194638228024840,-0.0059125,-0.0331375,0.0077
1680014649875,1194638230527273,-0.0089375,-0.0341,0.0077
1680014649878,1194638233029503,-0.011,-0.0350625,0.0086624995
1680014649880,1194638235531965,-0.0099,-0.0380875,0.0127875
1680014649882,1194638238034350,-0.0099,-0.039049998,0.0097624995
1680014649885,1194638240536604,-0.011,-0.0430375,0.0086624995
1680014649889,1194638243038989,-0.011,-0.039049998,0.0097624995
1680014649891,1194638245541451,-0.011,-0.0430375,0.0097624995
1680014649893,1194638248043604,-0.007975,-0.0411125,0.0097624995
1680014649895,1194638250546124,-0.006875,-0.0411125,0.0086624995
1680014649897,1194638253048509,-0.006875,-0.0441375,0.0067375
1680014649900,1194638255550739,-0.006875,-0.039049998,0.0077
1680014649902,1194638258053124,-0.0039875,-0.039049998,0.005775
1680014649905,1194638260555341,-0.00495,-0.0441375,0.005775
1680014649907,1194638263057802,-0.001925,-0.037125,0.0067375
1680014649910,1194638265560264,-0.0039875,-0.0331375,0.005775
1680014649913,1194638268062648,-0.006875,-0.0301125,0.0037125
1680014649915,1194638270564859,-0.001925,-0.026124999,0.004675
1680014649918,1194638273067244,-0.001925,-0.0240625,6.875E-4
1680014649920,1194638275569475,0.0,-0.0210375,6.875E-4
1680014649923,1194638278071859,0.0011,-0.01815,0.0017875
1680014649927,1194638280574345,0.0,-0.0160875,6.875E-4
1680014649928,1194638283076806,-9.625E-4,-0.0121,6.875E-4
1680014649930,1194638285579037,0.003025,-0.014162499,6.875E-4
1680014649933,1194638288081422,0.0011,-0.0121,-2.75E-4
1680014649936,1194638290583652,-9.625E-4,-0.0121,-0.0012375
1680014649938,1194638293086033,-9.625E-4,-0.009075,6.875E-4
1680014649940,1194638295588495,0.0011,-0.0031625,0.00275
1680014649943,1194638298090725,-0.001925,9.625E-4,6.875E-4
1680014649945,1194638300593187,-0.001925,-1.375E-4,-2.75E-4
1680014649948,1194638303095572,-0.00495,0.0028875,0.00275
1680014649951,1194638305597802,-0.0039875,0.0028875,0.0037125
1680014649953,1194638308100187,-0.0089375,0.0059125,0.00275
1680014649955,1194638310602648,-0.007975,0.0059125,0.0037125
1680014649958,1194638313105114,-0.006875,0.00385,0.004675
1680014649960,1194638315607268,-0.0089375,0.0028875,0.0037125
1680014649964,1194638318109729,-0.0089375,0.00385,0.00275
1680014649966,1194638320611960,-0.0099,9.625E-4,0.0017875
1680014649967,1194638323114345,-0.0138875,0.00495,0.0017875
1680014649970,1194638325616801,-0.0119624995,0.001925,-2.75E-4
1680014649973,1194638328119032,-0.0138875,0.00385,-2.75E-4
1680014649975,1194638330621494,-0.0138875,0.00385,-2.75E-4
1680014649978,1194638333123653,-0.012925,0.00385,-0.0033
1680014649980,1194638335626114,-0.012925,-1.375E-4,-0.0042625
1680014649983,1194638338128499,-0.0099,0.001925,-0.0042625
1680014649985,1194638340630960,-0.0119624995,0.0028875,-0.0042625
1680014649988,1194638343133177,-0.0119624995,0.001925,-0.0072875
1680014649990,1194638345635562,-0.0149875,-0.0031625,-0.0072875
1680014649993,1194638348137792,-0.0119624995,0.001925,-0.00825
1680014649995,1194638350640254,-0.011,0.0028875,-0.0092124995
1680014649997,1194638353142408,-0.012925,0.0028875,-0.0072875
1680014650001,1194638355645119,-0.01595,0.001925,-0.0103124995
1680014650004,1194638358147350,-0.0138875,0.00385,-0.0072875
1680014650005,1194638360649735,-0.0138875,9.625E-4,-0.0072875
1680014650008,1194638363151955,-0.012925,0.001925,-0.00825
1680014650010,1194638365654340,-0.01595,-0.0011,-0.00825
1680014650013,1194638368156801,-0.01595,9.625E-4,-0.00825
1680014650015,1194638370659263,-0.0149875,-1.375E-4,-0.006325
1680014650018,1194638373161494,-0.0138875,-0.0020625,-0.006325
1680014650020,1194638375663902,-0.0149875,-0.0031625,-0.0042625
1680014650023,1194638378166133,-0.012925,-0.0031625,-0.005225
1680014650025,1194638380668518,-0.0138875,-0.004125,-0.0042625
1680014650027,1194638383170749,-0.0149875,-0.00605,-0.0042625
1680014650031,1194638385673446,-0.0149875,-0.0050875,6.875E-4
1680014650033,1194638388175677,-0.022,-0.0081124995,6.875E-4
1680014650035,1194638390678061,-0.022,-0.0081124995,-0.0012375
1680014650039,1194638393180215,-0.0169125,-0.0081124995,6.875E-4
1680014650040,1194638395682754,-0.01595,-0.0100375,6.875E-4
1680014650043,1194638398185138,-0.01595,-0.0121,-2.75E-4
1680014650045,1194638400687369,-0.01595,-0.0111375,6.875E-4
1680014650048,1194638403189754,-0.01595,-0.0100375,6.875E-4
1680014650050,1194638405691955,-0.01595,-0.014162499,6.875E-4
1680014650053,1194638408194417,-0.01595,-0.0160875,6.875E-4
1680014650056,1194638410696802,-0.0149875,-0.0111375,0.0017875
1680014650058,1194638413199263,-0.012925,-0.01705,0.0017875
1680014650060,1194638415701494,-0.0138875,-0.01705,0.0017875
1680014650063,1194638418203889,-0.012925,-0.0160875,0.00275
1680014650065,1194638420706119,-0.012925,-0.0160875,0.00275
1680014650067,1194638423208504,-0.0119624995,-0.013062499,0.00275
1680014650070,1194638425710965,-0.011,-0.015125,6.875E-4
1680014650073,1194638428213441,-0.011,-0.014162499,6.875E-4
1680014650077,1194638430715595,-0.011,-0.0081124995,-2.75E-4
1680014650078,1194638433218056,-0.0099,-0.0121,-0.0012375
1680014650080,1194638435720287,-0.0039875,-0.0121,6.875E-4
1680014650083,1194638438222692,-0.0059125,-0.0081124995,6.875E-4
1680014650085,1194638440725153,-0.0089375,-0.00715,-2.75E-4
1680014650088,1194638443227384,-0.007975,-0.00605,0.0017875
1680014650090,1194638445729846,-0.007975,-0.00605,6.875E-4
1680014650093,1194638448232239,-0.0099,-0.0050875,-2.75E-4
1680014650095,1194638450734470,-0.0089375,-0.004125,-0.0012375
1680014650097,1194638453236855,-0.0059125,-0.0031625,-0.0033
1680014650100,1194638455739316,-0.0059125,-0.0031625,-0.0023375
1680014650102,1194638458241547,-0.0089375,-0.0020625,0.0017875
1680014650105,1194638460743932,-0.012925,0.0028875,-2.75E-4
1680014650108,1194638463246162,-0.0138875,0.001925,-0.0033
1680014650111,1194638465748624,-0.0099,0.0028875,-0.0033
1680014650115,1194638468251023,-0.0099,0.006875,-0.0012375
1680014650116,1194638470753484,-0.0119624995,0.00495,-0.0033
1680014650118,1194638473255715,-0.0138875,0.0059125,-0.005225
1680014650120,1194638475758099,-0.01595,0.0099,-0.0023375
1680014650123,1194638478260330,-0.0119624995,0.0078375,-0.0012375
1680014650125,1194638480762715,-0.0089375,0.0078375,-0.0042625
1680014650128,1194638483265176,-0.0119624995,0.0059125,-0.0033
1680014650130,1194638485767638,-0.011,0.0119624995,-0.0023375
1680014650133,1194638488269869,-0.0089375,0.0119624995,-0.0033
1680014650135,1194638490772268,-0.0089375,0.006875,-0.0042625
1680014650138,1194638493274499,-0.0089375,0.0078375,-0.0042625
1680014650140,1194638495776961,-0.0099,0.006875,-0.006325
1680014650143,1194638498279115,-0.011,0.0059125,-0.00825
1680014650145,1194638500781792,-0.0089375,0.0099,-0.0072875
1680014650148,1194638503284023,-0.0099,0.0078375,-0.0092124995
1680014650153,1194638505786407,-0.011,0.0059125,-0.0103124995
1680014650156,1194638508288638,-0.012925,0.0099,-0.0092124995
1680014650156,1194638510791018,-0.0119624995,0.006875,-0.0103124995
1680014650158,1194638513293479,-0.012925,0.0059125,-0.0092124995
1680014650160,1194638515795710,-0.0119624995,0.0078375,-0.0103124995
1680014650164,1194638518298095,-0.0099,0.00385,-0.0133375
1680014650165,1194638520800556,-0.0089375,9.625E-4,-0.0122375
1680014650169,1194638523302783,-0.0089375,-0.0020625,-0.0103124995
1680014650170,1194638525805168,-0.0089375,-1.375E-4,-0.011275
1680014650172,1194638528307398,-0.0089375,-0.0050875,-0.0072875
1680014650175,1194638530809783,-0.007975,-0.00605,-0.00825
1680014650177,1194638533312321,-0.011,-0.00715,-0.0072875
1680014650180,1194638535814484,-0.007975,-0.0100375,-0.006325
1680014650183,1194638538316946,-0.007975,-0.013062499,-0.0023375
1680014650185,1194638540819330,-0.007975,-0.015125,-2.75E-4
1680014650189,1194638543321561,-0.0099,-0.014162499,6.875E-4
1680014650191,1194638545823941,-0.0099,-0.014162499,0.0037125
1680014650193,1194638548326402,-0.0059125,-0.0160875,0.0037125
1680014650195,1194638550828864,-0.0059125,-0.0191125,0.0037125
1680014650198,1194638553331018,-0.0039875,-0.0221375,0.005775
1680014650200,1194638555833479,-0.0039875,-0.0240625,0.0067375
1680014650203,1194638558335750,-0.00495,-0.020075,0.0086624995
1680014650210,1194638560838135,-0.00495,-0.01705,0.0077
1680014650210,1194638563340596,-0.00495,-0.020075,0.0086624995
1680014650211,1194638565842827,-0.001925,-0.020075,0.0067375
1680014650213,1194638568345231,-0.001925,-0.0191125,0.005775
1680014650215,1194638570847692,-0.00495,-0.01705,0.0067375
1680014650218,1194638573349923,-0.0039875,-0.013062499,0.0037125
1680014650221,1194638575852308,-0.0039875,-0.014162499,0.0017875
1680014650223,1194638578354783,-0.0070125,-0.01705,0.0017875
1680014650227,1194638580857014,-0.0059125,-0.0111375,6.875E-4
1680014650228,1194638583359399,-0.00495,-0.00715,-0.0012375
1680014650230,1194638585861629,-0.0059125,-0.009075,-0.0012375
1680014650233,1194638588364087,-0.0089375,-0.0050875,-0.0033
1680014650236,1194638590866471,-0.011,-0.0100375,-0.0042625
1680014650238,1194638593368933,-0.007975,-0.004125,-0.005225
1680014650240,1194638595871164,-0.012925,-0.0020625,-0.006325
1680014650244,1194638598373553,-0.0169125,-0.0031625,-0.006325
1680014650245,1194638600875784,-0.011,-0.0011,-0.006325
1680014650248,1194638603378169,-0.0119624995,-0.0011,-0.00825
1680014650250,1194638605880400,-0.0149875,0.00385,-0.0072875
1680014650253,1194638608383092,-0.0169125,0.0028875,-0.0072875
1680014650255,1194638610885298,-0.0180125,0.00495,-0.00825
1680014650258,1194638613387682,-0.0138875,0.00495,-0.0103124995
1680014650260,1194638615889913,-0.0149875,0.0099,-0.00825
1680014650264,1194638618392298,-0.0138875,0.0119624995,-0.006325
1680014650266,1194638620894504,-0.01595,0.0108624995,-0.006325
1680014650269,1194638623396966,-0.0149875,0.0099,-0.0072875
1680014650270,1194638625899428,-0.0138875,0.0078375,-0.006325
1680014650273,1194638628401812,-0.012925,0.0119624995,-0.0023375
1680014650275,1194638630904043,-0.0119624995,0.0078375,-0.0033
1680014650278,1194638633406428,-0.011,0.0108624995,-0.0033
1680014650280,1194638635908658,-0.011,0.012925,-0.0033
1680014650283,1194638638411351,-0.007975,0.0059125,-0.0033
1680014650285,1194638640913505,-0.0089375,0.0059125,-0.0012375
1680014650288,1194638643415962,-0.0099,0.006875,-2.75E-4
1680014650291,1194638645918193,-0.0089375,0.00495,-0.0023375
1680014650293,1194638648420577,-0.007975,9.625E-4,-0.0023375
1680014650296,1194638650922808,-0.0059125,-0.0020625,-0.0042625
1680014650298,1194638653425279,-0.0070125,-0.0011,-0.0042625
1680014650302,1194638655927663,-0.0059125,-0.00605,-0.0042625
1680014650305,1194638658430125,-0.00495,-0.00715,-0.0033
1680014650306,1194638660932356,-0.0059125,-0.00605,-0.0042625
1680014650309,1194638663434740,-0.00495,-0.00605,-0.0042625
1680014650313,1194638665936976,-0.0059125,-0.0121,-0.0023375
1680014650313,1194638668439438,-0.00495,-0.015125,-0.0012375
1680014650315,1194638670941822,-0.0039875,-0.015125,-0.0012375
1680014650318,1194638673444053,-0.00495,-0.020075,-0.0023375
1680014650320,1194638675946525,-0.0059125,-0.026124999,-0.0023375
1680014650323,1194638678448678,-0.00495,-0.02915,-0.0012375
1680014650325,1194638680951140,-0.0059125,-0.031075,-0.0012375
1680014650328,1194638683453602,-0.00495,-0.0331375,-2.75E-4
1680014650330,1194638685955990,-0.0059125,-0.0331375,-0.0012375
1680014650333,1194638688458221,-0.0039875,-0.0430375,-2.75E-4
1680014650336,1194638690960606,-0.0039875,-0.0441375,0.0037125
1680014650340,1194638693463048,-0.0039875,-0.0430375,0.0017875
1680014650341,1194638695965279,0.0,-0.0451,0.00275
1680014650345,1194638698467663,0.0,-0.0451,0.004675
1680014650346,1194638700970125,-9.625E-4,-0.048125,0.0077
1680014650348,1194638703472356,-0.001925,-0.048125,0.0077
1680014650352,1194638705974706,0.0020625,-0.0490875,0.0077
1680014650353,1194638708476937,0.0,-0.05115,0.0067375
1680014650356,1194638710979322,-9.625E-4,-0.048125,0.0077
1680014650358,1194638713481860,-9.625E-4,-0.0490875,0.0116875
1680014650360,1194638715984014,-9.625E-4,-0.048125,0.0127875
1680014650364,1194638718486471,-0.0039875,-0.050049998,0.0116875
1680014650366,1194638720988855,-0.001925,-0.05115,0.0127875
1680014650369,1194638723491086,0.0,-0.0451,0.010725
1680014650373,1194638725993467,-0.0059125,-0.0451,0.010725
1680014650374,1194638728495928,-0.0039875,-0.0471625,0.0097624995
1680014650377,1194638730998390,-0.001925,-0.0441375,0.0077
1680014650378,1194638733500621,-0.001925,-0.0430375,0.0086624995
1680014650380,1194638736003005,-0.00495,-0.042075,0.0067375
1680014650384,1194638738505202,-0.00495,-0.039049998,0.005775
1680014650385,1194638741007587,-0.00495,-0.0361625,0.005775
1680014650388,1194638743510125,-0.0070125,-0.0361625,0.004675
1680014650391,1194638746012279,-0.007975,-0.0341,0.0067375
1680014650393,1194638748514740,-0.0070125,-0.0341,0.0067375
1680014650396,1194638751017125,-0.00495,-0.031075,0.0067375
1680014650398,1194638753519356,-0.0070125,-0.0301125,0.00275
1680014650400,1194638756021740,-0.0039875,-0.02915,0.00275
1680014650403,1194638758524202,-0.00495,-0.020075,0.00275
1680014650406,1194638761026433,-0.0039875,-0.0221375,0.00275
1680014650408,1194638763528894,-0.0070125,-0.020075,0.0017875
1680014650411,1194638766031048,-0.0089375,-0.01815,6.875E-4
1680014650415,1194638768533490,-0.0089375,-0.015125,-0.0012375
1680014650416,1194638771035874,-0.0119624995,-0.013062499,-0.0012375
1680014650418,1194638773538336,-0.0089375,-0.014162499,-2.75E-4
1680014650421,1194638776040567,-0.0099,-0.0100375,-0.0023375
1680014650423,1194638778542951,-0.0089375,-0.009075,-0.0042625
1680014650425,1194638781045409,-0.0119624995,-0.00605,-0.006325
1680014650428,1194638783547563,-0.012925,-0.00605,-0.006325
1680014650431,1194638786050024,-0.0138875,-0.00605,-0.0042625
1680014650433,1194638788552486,-0.0119624995,-1.375E-4,-0.0042625
1680014650439,1194638791054731,-0.0099,0.0028875,-0.0042625
1680014650440,1194638793557115,-0.0119624995,-1.375E-4,-0.006325
1680014650442,1194638796059346,-0.0119624995,-0.0020625,-0.006325
1680014650443,1194638798561731,-0.0138875,-0.0011,-0.005225
1680014650445,1194638801064192,-0.01595,-0.0031625,-0.0042625
1680014650448,1194638803566664,-0.0149875,-0.0020625,-0.0023375
1680014650452,1194638806068894,-0.0138875,-0.0050875,-0.0012375
1680014650454,1194638808571279,-0.01595,-0.00605,-2.75E-4
1680014650456,1194638811073510,-0.0169125,-0.0050875,-0.0033
1680014650458,1194638813575884,-0.01595,-0.0081124995,-0.0033
1680014650461,1194638816078115,-0.0180125,-0.0081124995,0.0017875
1680014650466,1194638818580808,-0.018975,-0.00605,-2.75E-4
1680014650466,1194638821082961,-0.0169125,-0.009075,-0.0042625
1680014650468,1194638823585409,-0.018975,-0.0081124995,-0.0033
1680014650473,1194638826087640,-0.018975,-0.0050875,-0.0023375
1680014650474,1194638828590024,-0.0180125,-0.0100375,-2.75E-4
1680014650476,1194638831092255,-0.01595,-0.0100375,0.0017875
1680014650478,1194638833594717,-0.0149875,-0.00715,0.0017875
1680014650481,1194638836097178,-0.0180125,-0.009075,-0.0012375
1680014650484,1194638838599563,-0.018975,-0.009075,6.875E-4
1680014650486,1194638841101794,-0.0169125,-0.0121,0.0017875
1680014650490,1194638843604168,-0.0169125,-0.013062499,-0.0023375
1680014650492,1194638846106399,-0.0169125,-0.0111375,0.0017875
1680014650494,1194638848608861,-0.0169125,-0.0121,0.0017875
1680014650496,1194638851111245,-0.012925,-0.015125,-2.75E-4
1680014650498,1194638853613476,-0.012925,-0.013062499,-2.75E-4
1680014650501,1194638856115942,-0.0149875,-0.0111375,6.875E-4
1680014650503,1194638858618327,-0.0149875,-0.0111375,0.0017875
1680014650506,1194638861120558,-0.0119624995,-0.0111375,-0.0033
1680014650508,1194638863623019,-0.0099,-0.0111375,-0.0023375
1680014650511,1194638866125423,-0.0119624995,-0.0121,-0.0023375
1680014650513,1194638868627654,-0.011,-0.0121,-0.0042625
1680014650518,1194638871130038,-0.011,-0.0121,-0.006325
1680014650519,1194638873632500,-0.0099,-0.0081124995,-0.0042625
1680014650522,1194638876134736,-0.011,-0.0050875,-0.0023375
1680014650524,1194638878637197,-0.0149875,-0.00605,-0.0023375
1680014650527,1194638881139582,-0.011,-0.0050875,-0.0033
1680014650529,1194638883641813,-0.011,-0.0031625,-0.0023375
1680014650531,1194638886144274,-0.0099,-0.004125,-0.0012375
1680014650533,1194638888646437,-0.0119624995,-0.0050875,-0.0033
1680014650536,1194638891148899,-0.0089375,-0.00605,-0.0012375
1680014650541,1194638893651360,-0.0099,-0.00715,-0.0012375
1680014650542,1194638896153745,-0.0089375,-0.004125,6.875E-4
1680014650544,1194638898655956,-0.0089375,-0.0081124995,-0.0023375
1680014650546,1194638901158340,-0.011,-0.0081124995,6.875E-4
1680014650548,1194638903660571,-0.0099,-0.0081124995,0.00275
1680014650551,1194638906163033,-0.0099,-0.00605,0.0037125
1680014650553,1194638908665533,-0.011,-0.0111375,0.0017875
1680014650556,1194638911167918,-0.0119624995,-0.0111375,-2.75E-4
1680014650558,1194638913670148,-0.0099,-0.0121,-2.75E-4
1680014650561,1194638916172533,-0.012925,-0.0111375,0.00275
1680014650566,1194638918674744,-0.012925,-0.0081124995,0.0037125
1680014650567,1194638921177128,-0.0138875,-0.0100375,0.0017875
1680014650569,1194638923679667,-0.0119624995,-0.0121,6.875E-4
1680014650573,1194638926182052,-0.0169125,-0.009075,-0.0012375
1680014650575,1194638928684282,-0.0199375,-0.0081124995,6.875E-4
1680014650576,1194638931186648,-0.018975,-0.0081124995,0.00275
1680014650578,1194638933688879,-0.0199375,-0.0050875,6.875E-4
1680014650581,1194638936191263,-0.0209,-0.0031625,-2.75E-4
1680014650584,1194638938693725,-0.0199375,-0.0050875,-0.0012375
1680014650586,1194638941196201,-0.018975,-0.0050875,-0.0023375
1680014650591,1194638943698432,-0.0209,-0.0031625,6.875E-4
1680014650593,1194638946200586,-0.0229625,-1.375E-4,-2.75E-4
1680014650595,1194638948703048,-0.0209,-0.004125,-2.75E-4
1680014650597,1194638951205436,-0.0229625,-0.0031625,6.875E-4
1680014650598,1194638953707898,-0.0229625,-0.0011,-0.0012375
1680014650603,1194638956210129,-0.0259875,-0.0031625,-0.0012375
1680014650606,1194638958712513,-0.023924999,-1.375E-4,-0.0012375
1680014650607,1194638961214970,-0.0229625,0.0028875,6.875E-4
1680014650608,1194638963717201,-0.023924999,-0.0020625,0.0017875
1680014650611,1194638966219585,-0.022,-0.0020625,-2.75E-4
1680014650613,1194638968722047,-0.023924999,0.001925,0.004675
1680014650616,1194638971224277,-0.0248875,0.00385,0.0037125
1680014650618,1194638973726711,-0.023924999,0.00495,0.0037125
1680014650621,1194638976228865,-0.0229625,0.001925,6.875E-4
1680014650625,1194638978731326,-0.018975,0.001925,-0.0023375
1680014650626,1194638981233711,-0.022,0.00385,0.0017875
1680014650628,1194638983736187,-0.022,0.0059125,0.00275
1680014650631,1194638986238417,-0.022,0.0059125,6.875E-4
1680014650633,1194638988740802,-0.023924999,0.006875,-2.75E-4
1680014650636,1194638991243033,-0.0259875,0.00385,-0.0023375
1680014650640,1194638993745422,-0.0248875,0.00495,6.875E-4
1680014650642,1194638996247884,-0.0248875,0.0059125,0.0017875
1680014650644,1194638998750345,-0.02585,0.007975,6.875E-4
1680014650646,1194639001252576,-0.0248875,0.006875,6.875E-4
1680014650648,1194639003754961,-0.02585,0.0108624995,-0.0012375
1680014650651,1194639006257177,-0.02585,0.007975,-0.0012375
1680014650653,1194639008759561,-0.0248875,0.007975,6.875E-4
1680014650656,1194639011262023,-0.023924999,0.0119624995,6.875E-4
1680014650658,1194639013764254,-0.028875,0.0108624995,0.0017875
1680014650661,1194639016266730,-0.029975,0.0138875,6.875E-4
1680014650663,1194639018769115,-0.0319,0.0138875,0.00275
1680014650666,1194639021271345,-0.0309375,0.0138875,0.0037125
1680014650668,1194639023773730,-0.0309375,0.012925,0.0037125
1680014650672,1194639026275956,-0.0328625,0.012925,0.005775
1680014650675,1194639028778417,-0.036849998,0.0119624995,0.004675
1680014650678,1194639031280802,-0.0389125,0.0108624995,0.0037125
1680014650679,1194639033783264,-0.040975,0.006875,0.0017875
1680014650681,1194639036285480,-0.0429,0.0059125,0.0037125
1680014650683,1194639038787865,-0.039875,0.012925,0.00275
1680014650686,1194639041290096,-0.040975,0.0059125,0.0017875
1680014650688,1194639043792557,-0.0389125,0.00495,0.0017875
1680014650691,1194639046294942,-0.039875,0.006875,0.00275
1680014650694,1194639048797417,-0.0389125,0.0059125,0.005775
1680014650696,1194639051299571,-0.0389125,0.007975,0.0037125
1680014650699,1194639053802033,-0.040975,0.0099,0.0017875
1680014650701,1194639056304264,-0.0419375,0.0099,0.0017875
1680014650704,1194639058806735,-0.0429,0.01485,0.0037125
1680014650706,1194639061309120,-0.0419375,0.01595,0.004675
1680014650708,1194639063811351,-0.0389125,0.0119624995,0.00275
1680014650711,1194639066313812,-0.0389125,0.0108624995,6.875E-4
1680014650715,1194639068816222,-0.03795,0.0138875,0.0017875
1680014650717,1194639071318453,-0.0389125,0.01485,0.0017875
1680014650719,1194639073820837,-0.0389125,0.01485,0.00275
1680014650721,1194639076323294,-0.0358875,0.0138875,0.00275
1680014650724,1194639078825524,-0.0328625,0.0119624995,-2.75E-4
1680014650726,1194639081327909,-0.0319,0.0138875,-2.75E-4
1680014650728,1194639083830140,-0.029975,0.01485,-0.0012375
1680014650732,1194639086332601,-0.02695,0.0138875,-0.0012375
1680014650733,1194639088835014,-0.02585,0.0138875,-2.75E-4
1680014650736,1194639091337476,-0.0229625,0.01485,-2.75E-4
1680014650739,1194639093839706,-0.0229625,0.01595,-2.75E-4
1680014650741,1194639096342091,-0.023924999,0.012925,-2.75E-4
1680014650744,1194639098844356,-0.0209,0.0138875,-0.0033
1680014650746,1194639101346740,-0.0199375,0.0138875,-0.0012375
1680014650748,1194639103849202,-0.0199375,0.0138875,6.875E-4
1680014650752,1194639106351653,-0.0199375,0.01485,-2.75E-4
1680014650755,1194639108853884,-0.0169125,0.0119624995,-2.75E-4
1680014650757,1194639111356269,-0.01595,0.0108624995,-0.0012375
1680014650758,1194639113858500,-0.0138875,0.0108624995,0.00275
1680014650761,1194639116360884,-0.017875,0.0059125,-0.0012375
1680014650764,1194639118863120,-0.018975,0.007975,-0.0012375
1680014650766,1194639121365582,-0.01595,0.0099,0.00275
1680014650768,1194639123868043,-0.01485,0.007975,0.0017875
1680014650771,1194639126370428,-0.01485,0.0059125,0.0017875
1680014650775,1194639128872674,-0.0138875,0.00385,0.0017875
1680014650778,1194639131375058,-0.0138875,0.0028875,0.0037125
1680014650780,1194639133877289,-0.01595,9.625E-4,0.004675
1680014650781,1194639136379981,-0.0169125,-0.0011,0.0017875
1680014650784,1194639138882135,-0.018975,-0.003025,0.0037125
1680014650786,1194639141384630,-0.0138875,-0.00715,0.00275
1680014650790,1194639143886860,-0.0169125,-0.009075,0.004675
1680014650792,1194639146389245,-0.01485,-0.009075,0.0017875
1680014650794,1194639148891476,-0.0138875,-0.013062499,0.0037125
1680014650797,1194639151393937,-0.018975,-0.0100375,0.0017875
1680014650799,1194639153896399,-0.0169125,-0.014025,0.0017875
1680014650802,1194639156398553,-0.0138875,-0.0160875,0.00275
1680014650805,1194639158901029,-0.0138875,-0.0160875,0.0037125
1680014650806,1194639161403414,-0.01485,-0.01705,0.00275
1680014650809,1194639163905645,-0.01595,-0.020075,0.0017875
1680014650812,1194639166408106,-0.0138875,-0.01705,-2.75E-4
1680014650814,1194639168910491,-0.0138875,-0.01815,0.0017875
1680014650817,1194639171412717,-0.0138875,-0.01815,0.0017875
1680014650819,1194639173915178,-0.0138875,-0.0160875,0.00275
1680014650822,1194639176417332,-0.0119624995,-0.01705,6.875E-4
1680014650823,1194639178919794,-0.0099,-0.0160875,-2.75E-4
1680014650829,1194639181422231,-0.0108624995,-0.01705,-0.0012375
1680014650829,1194639183924616,-0.0119624995,-0.0160875,-0.0012375
1680014650832,1194639186426846,-0.0099,-0.015125,6.875E-4
1680014650834,1194639188929231,-0.0108624995,-0.0121,0.0017875
1680014650836,1194639191431693,-0.012925,-0.013062499,0.0017875
1680014650840,1194639193933847,-0.0108624995,-0.01705,-2.75E-4
1680014650842,1194639196436385,-0.007975,-0.01815,-0.0012375
1680014650844,1194639198938770,-0.0089375,-0.01705,6.875E-4
1680014650846,1194639201441000,-0.012925,-0.0210375,-0.0012375
1680014650850,1194639203943409,-0.0119624995,-0.0240625,-0.0023375
1680014650852,1194639206445640,-0.0108624995,-0.0221375,-0.0012375
1680014650854,1194639208948024,-0.0099,-0.0210375,-0.0012375
1680014650856,1194639211450563,-0.0089375,-0.0210375,-0.0012375
1680014650859,1194639213952717,-0.0119624995,-0.026124999,6.875E-4
1680014650861,1194639216455178,-0.0108624995,-0.0270875,-2.75E-4
1680014650866,1194639218957563,-0.0099,-0.0270875,6.875E-4
1680014650867,1194639221459794,-0.0089375,-0.02805,0.0017875
1680014650869,1194639223962178,-0.007975,-0.02915,0.00275
1680014650871,1194639226464630,-0.007975,-0.0301125,0.0037125
1680014650874,1194639228967091,-0.0089375,-0.0301125,0.00275
1680014650876,1194639231469322,-0.006875,-0.02915,0.005775
1680014650878,1194639233971707,-0.00385,-0.0320375,0.004675
1680014650881,1194639236473913,-0.001925,-0.0320375,0.004675
1680014650884,1194639238976297,-0.00385,-0.0301125,0.0067375
1680014650886,1194639241478836,-0.0059125,-0.0301125,0.0067375
1680014650890,1194639243980989,-9.625E-4,-0.031075,0.005775
1680014650892,1194639246483364,-0.00495,-0.0301125,0.004675
1680014650894,1194639248985826,-0.006875,-0.02915,0.0037125
1680014650896,1194639251488056,-0.0089375,-0.02915,0.0097624995
1680014650899,1194639253990441,-0.007975,-0.0270875,0.0077
1680014650902,1194639256492884,-0.00495,-0.025024999,0.0017875
1680014650906,1194639258995114,1.375E-4,-0.025024999,0.00275
1680014650907,1194639261497499,-9.625E-4,-0.0210375,0.004675
1680014650908,1194639263999730,-0.0059125,-0.020075,0.0067375
1680014650911,1194639266502191,-0.0059125,-0.0210375,0.0067375
1680014650914,1194639269004562,-0.0059125,-0.020075,0.0037125
1680014650916,1194639271507023,-0.006875,-0.0191125,0.0067375
1680014650919,1194639274009254,-0.0089375,-0.01815,0.0077
1680014650921,1194639276511639,-0.0099,-0.015125,0.005775
1680014650923,1194639279013865,-0.0119624995,-0.015125,0.0077
1680014650926,1194639281516326,-0.012925,-0.014025,0.0077
1680014650929,1194639284018788,-0.0119624995,-0.0121,0.0037125
1680014650931,1194639286520942,-0.0119624995,-0.009075,0.004675
1680014650935,1194639289023403,-0.01485,-0.0111375,0.005775
1680014650943,1194639291525788,-0.0169125,-0.013062499,0.0037125
1680014650943,1194639294028019,-0.018975,-0.0081124995,0.005775
1680014650943,1194639296530480,-0.0169125,-0.004125,0.005775
1680014650944,1194639299032855,-0.01595,-0.0050875,6.875E-4
1680014650946,1194639301535316,-0.01595,-0.004125,6.875E-4
1680014650948,1194639304037470,-0.0199375,-0.0050875,0.00275
1680014650951,1194639306539932,-0.0199375,-1.375E-4,0.0037125
1680014650953,1194639309042162,-0.017875,-0.003025,0.00275
1680014650957,1194639311544600,-0.018975,0.00385,0.0037125
1680014650959,1194639314046985,-0.018975,0.0028875,0.00275
1680014650961,1194639316549215,-0.01485,0.001925,0.0017875
1680014650963,1194639319051600,-0.01485,9.625E-4,0.0037125
1680014650966,1194639321554077,-0.0169125,0.0028875,0.0017875
1680014650968,1194639324056230,-0.0169125,0.0028875,0.004675
1680014650971,1194639326558769,-0.0169125,0.0028875,0.005775
1680014650974,1194639329061153,-0.01485,0.00495,0.004675
1680014650978,1194639331563350,-0.018975,0.00385,0.0037125
1680014650979,1194639334065735,-0.01485,0.001925,0.0017875
1680014650981,1194639336567966,-0.012925,0.001925,0.0037125
1680014650984,1194639339070427,-0.0169125,-0.0020625,0.005775
1680014650986,1194639341572889,-0.0138875,-0.0020625,0.0037125
1680014650990,1194639344075268,-0.0089375,-0.0050875,0.004675
1680014650992,1194639346577499,-0.0099,-0.00715,0.005775
1680014650994,1194639349079884,-0.0119624995,-0.009075,0.004675
1680014650996,1194639351582115,-0.012925,-0.0121,0.0067375
1680014650999,1194639354084499,-0.0119624995,-0.014025,0.0067375
1680014651001,1194639356586980,-0.007975,-0.0160875,0.0067375
1680014651004,1194639359089441,-0.0059125,-0.01705,0.0086624995
1680014651006,1194639361591595,-0.0099,-0.01815,0.0077
1680014651009,1194639364094057,-0.0108624995,-0.020075,0.0097624995
1680014651012,1194639366596287,-0.0099,-0.0240625,0.010725
1680014651018,1194639369098672,-0.0108624995,-0.02805,0.0097624995
1680014651018,1194639371601134,-0.0119624995,-0.031075,0.0077
1680014651019,1194639374103364,-0.0119624995,-0.031075,0.0097624995
1680014651022,1194639376605817,-0.0108624995,-0.0301125,0.0097624995
1680014651024,1194639379108201,-0.0119624995,-0.0320375,0.0086624995
1680014651026,1194639381610432,-0.0108624995,-0.031075,0.0077
1680014651029,1194639384112817,-0.0099,-0.0341,0.0077
1680014651031,1194639386615287,-0.0108624995,-0.0301125,0.0077
1680014651034,1194639389117518,-0.012925,-0.0320375,0.0077
1680014651038,1194639391619903,-0.0119624995,-0.0320375,0.0067375
1680014651039,1194639394122134,-0.0089375,-0.0301125,0.005775
1680014651041,1194639396624586,-0.012925,-0.0301125,0.0067375
1680014651044,1194639399126971,-0.01595,-0.026124999,0.0037125
1680014651048,1194639401629432,-0.01485,-0.02805,-2.75E-4
1680014651049,1194639404131663,-0.0108624995,-0.0221375,-2.75E-4
1680014651054,1194639406634047,-0.012925,-0.0160875,-2.75E-4
1680014651057,1194639409136508,-0.017875,-0.015125,-0.0033
1680014651058,1194639411638662,-0.0138875,-0.014025,-0.0042625
1680014651059,1194639414141124,-0.0138875,-0.0100375,-0.005225
1680014651061,1194639416643585,-0.01485,-0.009075,-0.006325
1680014651064,1194639419145812,-0.0138875,-0.00605,-0.0072875
1680014651068,1194639421648197,-0.0138875,-0.004125,-0.0072875
1680014651069,1194639424150427,-0.01595,-0.0020625,-0.0072875
1680014651071,1194639426652812,-0.0169125,9.625E-4,-0.00825
1680014651074,1194639429155033,-0.0138875,9.625E-4,-0.011275
1680014651076,1194639431657725,-0.01595,0.001925,-0.011275
1680014651079,1194639434159956,-0.0169125,9.625E-4,-0.011275
1680014651081,1194639436662340,-0.0138875,0.0059125,-0.011275
1680014651084,1194639439164571,-0.0169125,0.007975,-0.0092124995
1680014651086,1194639441666956,-0.0138875,0.00385,-0.0092124995
1680014651090,1194639444169187,-0.01595,0.00495,-0.00825
1680014651093,1194639446671879,-0.01595,0.00385,-0.006325
1680014651094,1194639449174047,-0.01485,0.006875,-0.0072875
1680014651096,1194639451676508,-0.0138875,0.001925,-0.005225
1680014651099,1194639454178739,-0.0138875,0.0028875,-0.0042625
1680014651101,1194639456681124,-0.012925,0.00385,-0.0033
1680014651104,1194639459183355,-0.0119624995,9.625E-4,-0.0023375
1680014651106,1194639461685816,-0.0108624995,-0.0020625,-0.0033
1680014651109,1194639464188278,-0.0119624995,-0.004125,-2.75E-4
1680014651111,1194639466690431,-0.0138875,-0.004125,-2.75E-4
1680014651114,1194639469192889,-0.012925,-0.004125,0.0017875
1680014651116,1194639471695274,-0.0138875,-0.004125,0.0037125
1680014651119,1194639474197504,-0.012925,-0.0111375,0.004675
1680014651121,1194639476699966,-0.01485,-0.013062499,0.0067375
1680014651126,1194639479202351,-0.01485,-0.014025,0.0067375
1680014651128,1194639481704595,-0.0138875,-0.013062499,0.0077
1680014651129,1194639484207057,-0.0138875,-0.0191125,0.0077
1680014651131,1194639486709211,-0.01485,-0.0160875,0.0086624995
1680014651134,1194639489211672,-0.01485,-0.0191125,0.010725
1680014651137,1194639491714100,-0.01595,-0.0270875,0.0086624995
1680014651139,1194639494216484,-0.0169125,-0.0240625,0.0086624995
1680014651141,1194639496718715,-0.01595,-0.026124999,0.0077
1680014651144,1194639499221100,-0.0149875,-0.02805,0.0097624995
1680014651146,1194639501723580,-0.0138875,-0.02805,0.010725
1680014651149,1194639504225811,-0.0119624995,-0.0301125,0.0086624995
1680014651152,1194639506728273,-0.0119624995,-0.02805,0.0077
1680014651154,1194639509230657,-0.0149875,-0.0301125,0.0097624995
1680014651157,1194639511732903,-0.0169125,-0.0270875,0.004675
1680014651159,1194639514235288,-0.01595,-0.025024999,6.875E-4
1680014651163,1194639516737519,-0.0169125,-0.026124999,-0.0012375
1680014651165,1194639519239903,-0.0149875,-0.02805,0.00275
1680014651167,1194639521742456,-0.0149875,-0.0240625,6.875E-4
1680014651169,1194639524244609,-0.01595,-0.0191125,-0.0023375
1680014651173,1194639526747071,-0.01595,-0.020075,-0.0012375
1680014651174,1194639529249456,-0.01595,-0.020075,-0.0033
1680014651176,1194639531751686,-0.0149875,-0.0191125,-0.0012375
1680014651179,1194639534254062,-0.012925,-0.01705,-0.0023375
1680014651184,1194639536756524,-0.0149875,-0.013062499,-0.0042625
1680014651186,1194639539258985,-0.0138875,-0.0100375,-0.0092124995
1680014651187,1194639541761216,-0.0138875,-0.0100375,-0.005225
1680014651189,1194639544263581,-0.0138875,-0.0111375,-0.0012375
1680014651192,1194639546765811,-0.0089375,-0.0111375,-0.0033
1680014651195,1194639549268196,-0.0099,-0.009075,-0.0023375
1680014651197,1194639551770657,-0.0089375,-0.009075,-0.0012375
1680014651199,1194639554272888,-0.0099,-0.0081124995,-2.75E-4
1680014651205,1194639556775273,-0.0108624995,-0.00715,0.00275
1680014651210,1194639559277734,-0.0099,-0.00605,0.004675
1680014651211,1194639561779965,-0.0089375,-0.004125,0.0037125
1680014651211,1194639564282350,-0.0108624995,-0.00605,0.0067375
1680014651214,1194639566784811,-0.0099,-0.0081124995,0.0077
1680014651215,1194639569287042,-0.012925,-0.009075,0.004675
1680014651217,1194639571789427,-0.0149875,-0.0081124995,0.004675
1680014651219,1194639574291673,-0.0199375,-0.0100375,0.0067375
1680014651224,1194639576794135,-0.0218625,-0.0121,0.005775
1680014651226,1194639579296520,-0.0218625,-0.014025,0.005775
1680014651228,1194639581798981,-0.0209,-0.01705,0.0077
1680014651229,1194639584301221,-0.0248875,-0.015125,0.010725
1680014651232,1194639586803606,-0.0248875,-0.01705,0.0097624995
1680014651234,1194639589305836,-0.02695,-0.020075,0.0086624995
1680014651236,1194639591808221,-0.028875,-0.0240625,0.0086624995
1680014651241,1194639594310442,-0.0339625,-0.026124999,0.01375
1680014651243,1194639596813134,-0.0328625,-0.02915,0.014712499
1680014651245,1194639599315365,-0.0358875,-0.031075,0.014712499
1680014651246,1194639601817749,-0.0339625,-0.031075,0.014712499
1680014651249,1194639604319980,-0.0339625,-0.0341,0.0196625
1680014651252,1194639606822365,-0.039875,-0.0380875,0.0237875
1680014651254,1194639609324826,-0.045925,-0.039049998,0.0237875
1680014651256,1194639611827057,-0.0429,-0.039049998,0.026675
1680014651259,1194639614329519,-0.0419375,-0.0430375,0.0297
1680014651263,1194639616831903,-0.0429,-0.0460625,0.0297
1680014651264,1194639619334134,-0.0438625,-0.0521125,0.032725
1680014651266,1194639621836519,-0.040975,-0.0540375,0.032725
1680014651269,1194639624338750,-0.039875,-0.059125,0.032725
1680014651273,1194639626841211,-0.0369875,-0.0631125,0.0367125
1680014651275,1194639629343596,-0.0339625,-0.0671,0.0367125
1680014651278,1194639631846057,-0.0339625,-0.069025,0.03575
1680014651279,1194639634348288,-0.0319,-0.078099996,0.038775
1680014651283,1194639636850678,-0.02695,-0.081125,0.0397375
1680014651285,1194639639352908,-0.0248875,-0.0851125,0.0367125
1680014651287,1194639641855370,-0.0229625,-0.0900625,0.037675
1680014651289,1194639644357755,-0.0169125,-0.09405,0.0367125
1680014651292,1194639646860211,-0.0149875,-0.100099996,0.037675
1680014651294,1194639649362365,-0.007975,-0.10505,0.03575
1680014651296,1194639651864827,-0.00495,-0.109037496,0.0336875
1680014651299,1194639654367057,-0.001925,-0.1101375,0.0336875
1680014651302,1194639656869519,0.00605,-0.11605,0.032725
1680014651304,1194639659371903,0.0111375,-0.119075,0.0336875
1680014651306,1194639661874134,0.013062499,-0.122099996,0.037675
1680014651309,1194639664376519,0.013062499,-0.124025,0.0336875
1680014651312,1194639666878980,0.0160875,-0.12705,0.0317625
1680014651316,1194639669381134,0.0180125,-0.1291125,0.0367125
1680014651317,1194639671883673,0.0210375,-0.1310375,0.0336875
1680014651319,1194639674386057,0.0240625,-0.135025,0.0306625
1680014651323,1194639676888288,0.0231,-0.13805,0.0317625
1680014651324,1194639679390687,0.0240625,-0.146025,0.0317625
1680014651326,1194639681892918,0.025024999,-0.147125,0.0367125
1680014651329,1194639684395379,0.026124999,-0.1511125,0.0336875
1680014651332,1194639686897764,0.0290125,-0.15413749,0.032725
1680014651334,1194639689400202,0.02805,-0.157025,0.03575
1680014651337,1194639691902433,0.026124999,-0.1621125,0.038775
1680014651339,1194639694404818,0.0290125,-0.1640375,0.0397375
1680014651342,1194639696907048,0.02805,-0.1661,0.0407
1680014651344,1194639699409437,0.025024999,-0.1700875,0.043725
1680014651347,1194639701911899,0.0270875,-0.1771,0.0457875
1680014651349,1194639704414360,0.02805,-0.1750375,0.04675
1680014651353,1194639706916514,0.02805,-0.17105,0.0477125
1680014651355,1194639709418981,0.025024999,-0.1771,0.048675
1680014651357,1194639711921211,0.0221375,-0.17613749,0.049775
1680014651358,1194639714423596,0.0210375,-0.1780625,0.0517
1680014651362,1194639716925827,0.0231,-0.180125,0.0526625
1680014651364,1194639719428288,0.0231,-0.180125,0.054725
1680014651366,1194639721930736,0.0191125,-0.179025,0.0526625
1680014651369,1194639724433120,0.0191125,-0.1771,0.054725
1680014651374,1194639726935351,0.015125,-0.1780625,0.0567875
1680014651375,1194639729437736,0.0111375,-0.1750375,0.05775
1680014651376,1194639731939981,0.0070125,-0.1750375,0.05775
1680014651379,1194639734442442,1.375E-4,-0.1771,0.060775
1680014651382,1194639736944827,0.0011,-0.1731125,0.05775
1680014651384,1194639739447058,1.375E-4,-0.17105,0.05775
1680014651386,1194639741949514,-0.0039875,-0.1661,0.059675
1680014651391,1194639744451668,-0.0039875,-0.163075,0.0587125
1680014651393,1194639746954129,-0.00495,-0.1651375,0.060775
1680014651395,1194639749456591,-0.007975,-0.157025,0.0556875
1680014651396,1194639751958976,-0.0089375,-0.152075,0.0526625
1680014651398,1194639754461191,-0.0059125,-0.1511125,0.0567875
1680014651403,1194639756963576,-0.006875,-0.15015,0.0526625
1680014651404,1194639759466038,-0.007975,-0.1450625,0.0477125
1680014651406,1194639761968268,-0.007975,-0.135025,0.0446875
1680014651409,1194639764470754,-0.0089375,-0.13213749,0.0427625
1680014651412,1194639766973138,-0.0108624995,-0.125125,0.0416625
1680014651413,1194639769475369,-0.0099,-0.119075,0.038775
1680014651416,1194639771977754,-0.0089375,-0.1120625,0.03575
1680014651419,1194639774480000,-0.0099,-0.10505,0.0306625
1680014651422,1194639776982384,-0.0119624995,-0.0991375,0.032725
1680014651424,1194639779484923,-0.0099,-0.09515,0.0317625
1680014651427,1194639781987077,-0.0119624995,-0.087037496,0.0287375
1680014651429,1194639784489538,-0.012925,-0.08415,0.0257125
1680014651432,1194639786991923,-0.0119624995,-0.080025,0.0226875
1680014651434,1194639789494154,-0.0119624995,-0.0710875,0.0207625
1680014651436,1194639791996538,-0.0108624995,-0.070125,0.016775
1680014651438,1194639794499000,-0.0108624995,-0.069025,0.015675
1680014651443,1194639797001446,-0.012925,-0.06215,0.014712499
1680014651444,1194639799503677,-0.01595,-0.061049998,0.0127875
1680014651446,1194639802006062,-0.0149875,-0.058025,0.0077
1680014651449,1194639804508292,-0.0119624995,-0.0540375,0.0077
1680014651452,1194639807010643,-0.0149875,-0.0490875,0.004675
1680014651454,1194639809513105,-0.0149875,-0.047025,0.00275
1680014651456,1194639812015335,-0.0199375,-0.048125,6.875E-4
1680014651460,1194639814517720,-0.017875,-0.0430375,-0.0023375
1680014651463,1194639817020163,-0.0199375,-0.042075,-0.0023375
1680014651466,1194639819522393,-0.017875,-0.0380875,-0.0033
1680014651467,1194639822024778,-0.0229625,-0.0350625,-0.0023375
1680014651469,1194639824527239,-0.0229625,-0.042075,-0.0042625
1680014651473,1194639827029470,-0.0218625,-0.039049998,-0.005225
1680014651474,1194639829531874,-0.0209,-0.039049998,-0.0042625
1680014651477,1194639832034105,-0.0218625,-0.0380875,-0.0033
1680014651480,1194639834536566,-0.018975,-0.037125,-0.0023375
1680014651483,1194639837038951,-0.0259875,-0.037125,-0.0033
1680014651487,1194639839541412,-0.0218625,-0.0331375,-2.75E-4
1680014651488,1194639842043643,-0.023924999,-0.0341,0.0037125
1680014651490,1194639844546028,-0.0229625,-0.0350625,0.0037125
1680014651493,1194639847048259,-0.0199375,-0.0331375,0.0017875
1680014651493,1194639849550624,-0.017875,-0.0320375,0.005775
1680014651496,1194639852052855,-0.017875,-0.0331375,0.0097624995
1680014651499,1194639854555547,-0.0199375,-0.0331375,0.0086624995
1680014651504,1194639857057783,-0.0209,-0.031075,0.010725
1680014651505,1194639859560168,-0.018975,-0.02915,0.010725
1680014651507,1194639862062398,-0.0209,-0.02805,0.0116875
1680014651509,1194639864564783,-0.0229625,-0.025024999,0.014712499
1680014651512,1194639867067014,-0.0218625,-0.0240625,0.01375
1680014651515,1194639869569475,-0.02695,-0.0221375,0.015675
1680014651517,1194639872071860,-0.0259875,-0.0191125,0.016775
1680014651520,1194639874574322,-0.02695,-0.0191125,0.016775
1680014651523,1194639877076552,-0.0309375,-0.014025,0.016775
1680014651525,1194639879578946,-0.0328625,-0.013062499,0.016775
1680014651526,1194639882081177,-0.0369875,-0.009075,0.0196625
1680014651529,1194639884583638,-0.0369875,-0.003025,0.014712499
1680014651532,1194639887086100,-0.03795,-0.004125,0.0127875
1680014651534,1194639889588254,-0.039875,9.625E-4,0.016775
1680014651537,1194639892090734,-0.0389125,0.0028875,0.016775
1680014651541,1194639894593119,-0.0389125,0.0099,0.015675
1680014651544,1194639897095350,-0.0419375,0.018975,0.0116875
1680014651546,1194639899597821,-0.0438625,0.0218625,0.0116875
1680014651547,1194639902100206,-0.040975,0.0218625,0.0097624995
1680014651549,1194639904602437,-0.0438625,0.0279125,0.0086624995
1680014651553,1194639907104821,-0.0438625,0.0328625,0.0097624995
1680014651555,1194639909607052,-0.0429,0.0389125,0.005775
1680014651556,1194639912109523,-0.0429,0.0429,0.005775
1680014651560,1194639914611985,-0.040975,0.0468875,0.00275
1680014651566,1194639917114370,-0.040975,0.050875,0.00275
1680014651566,1194639919616600,-0.040975,0.0529375,0.0037125
1680014651566,1194639922119000,-0.0389125,0.056925,0.0037125
1680014651569,1194639924621462,-0.0369875,0.0609125,0.0037125
1680014651572,1194639927123615,-0.0358875,0.061875,6.875E-4
1680014651574,1194639929626154,-0.0309375,0.064899996,6.875E-4
1680014651577,1194639932128558,-0.029975,0.062975,-0.0012375
1680014651579,1194639934630788,-0.029975,0.062975,-0.0012375
1680014651582,1194639937133173,-0.029975,0.064899996,-0.0023375
1680014651584,1194639939635404,-0.0259875,0.0639375,-0.0042625
1680014651586,1194639942137788,-0.0248875,0.05995,-0.005225
1680014651589,1194639944640250,-0.023924999,0.0578875,-0.0042625
1680014651592,1194639947142481,-0.0259875,0.056925,-0.00825
1680014651594,1194639949644942,-0.023924999,0.0539,-0.00825
1680014651596,1194639952147327,-0.0209,0.0499125,-0.011275
1680014651599,1194639954649543,-0.0199375,0.0468875,-0.0122375
1680014651602,1194639957151927,-0.017875,0.047849998,-0.0133375
1680014651604,1194639959654389,-0.01595,0.045925,-0.0133375
1680014651607,1194639962156850,-0.017875,0.0438625,-0.016224999
1680014651609,1194639964659004,-0.017875,0.039875,-0.016224999
1680014651612,1194639967161255,-0.0149875,0.0389125,-0.016224999
1680014651615,1194639969663716,-0.0119624995,0.034925,-0.017324999
1680014651617,1194639972166101,-0.0138875,0.0328625,-0.0182875
1680014651618,1194639974668563,-0.012925,0.028875,-0.0182875
1680014651623,1194639977170831,-0.012925,0.0279125,-0.017324999
1680014651624,1194639979673216,-0.0089375,0.028875,-0.016224999
1680014651626,1194639982175678,-0.0099,0.023924999,-0.017324999
1680014651629,1194639984677831,-0.0089375,0.018975,-0.0182875
1680014651632,1194639987180303,-0.0089375,0.01595,-0.016224999
1680014651634,1194639989682764,-0.007975,0.012925,-0.011275
1680014651636,1194639992184995,-0.0089375,0.0099,-0.0103124995
1680014651640,1194639994687360,-0.0089375,0.006875,-0.0092124995
1680014651643,1194639997189591,-0.0089375,0.0059125,-0.0072875
1680014651644,1194639999692052,-0.0089375,0.0028875,-0.00825
1680014651646,1194640002194206,-0.011,-0.0011,-0.0042625
1680014651649,1194640004696668,-0.012925,-0.0031625,-0.0012375
1680014651653,1194640007199129,-0.0169125,-0.00605,6.875E-4
1680014651655,1194640009701514,-0.018975,-0.0100375,0.00275
1680014651657,1194640012203745,-0.0199375,-0.0160875,0.005775
1680014651659,1194640014706129,-0.018975,-0.015125,0.0077
1680014651662,1194640017208370,-0.018975,-0.0160875,0.0116875
1680014651664,1194640019711062,-0.022,-0.015125,0.0187
1680014651666,1194640022213216,-0.0248875,-0.0270875,0.0187
1680014651669,1194640024715678,-0.0259875,-0.0240625,0.0196625
1680014651672,1194640027217889,-0.0229625,-0.0221375,0.0207625
1680014651674,1194640029720274,-0.0259875,-0.0270875,0.0237875
1680014651676,1194640032222505,-0.02695,-0.02915,0.0257125
1680014651679,1194640034724966,-0.0259875,-0.02915,0.02475
1680014651682,1194640037227336,-0.022,-0.0331375,0.02475
1680014651684,1194640039729798,-0.0209,-0.0331375,0.02475
1680014651687,1194640042231951,-0.022,-0.0350625,0.0257125
1680014651691,1194640044734413,-0.017875,-0.0331375,0.02475
1680014651693,1194640047236649,-0.017875,-0.031075,0.0257125
1680014651695,1194640049739110,-0.0149875,-0.0331375,0.0237875
1680014651696,1194640052241495,-0.0149875,-0.0301125,0.0237875
1680014651699,1194640054743726,-0.012925,-0.0320375,0.0257125
1680014651702,1194640057246187,-0.011,-0.0331375,0.0237875
1680014651704,1194640059748317,-0.0089375,-0.0320375,0.0196625
1680014651706,1194640062250779,-0.0059125,-0.031075,0.016775
1680014651709,1194640064753240,-9.625E-4,-0.031075,0.0127875
1680014651712,1194640067255625,0.003025,-0.0301125,0.010725
1680014651714,1194640069757842,0.0011,-0.0331375,0.0127875
1680014651717,1194640072260226,0.004125,-0.031075,0.0097624995
1680014651719,1194640074762457,0.0081124995,-0.0301125,0.005775
1680014651722,1194640077264918,0.011,-0.0320375,0.0067375
1680014651724,1194640079767303,0.0160875,-0.0341,0.005775
1680014651728,1194640082269774,0.0231,-0.0320375,0.0077
1680014651730,1194640084772004,0.022,-0.02915,0.00275
1680014651732,1194640087274389,0.0231,-0.026124999,0.0017875
1680014651735,1194640089776620,0.026124999,-0.0301125,-0.0033
1680014651736,1194640092279014,0.025024999,-0.026124999,-0.0023375
1680014651739,1194640094781553,0.02805,-0.0270875,-0.005225
1680014651742,1194640097283938,0.0270875,-0.02915,-0.005225
1680014651744,1194640099786168,0.0290125,-0.02915,-0.0072875
1680014651746,1194640102288548,0.025024999,-0.02805,-0.0092124995
1680014651749,1194640104790779,0.0240625,-0.026124999,-0.0092124995
1680014651752,1194640107293163,0.0231,-0.02805,-0.00825
1680014651754,1194640109795625,0.025024999,-0.026124999,-0.0092124995
1680014651756,1194640112297842,0.0231,-0.02805,-0.0092124995
1680014651759,1194640114800303,0.025024999,-0.02915,-0.0122375
1680014651763,1194640117302457,0.026124999,-0.02915,-0.011275
1680014651765,1194640119804919,0.022,-0.026124999,-0.0092124995
1680014651767,1194640122307317,0.0191125,-0.0240625,-0.006325
1680014651769,1194640124809779,0.015125,-0.0240625,-0.0042625
1680014651772,1194640127312010,0.013062499,-0.0240625,-0.00825
1680014651774,1194640129814394,0.0100375,-0.020075,-0.0072875
1680014651776,1194640132316856,0.0100375,-0.01705,-0.0072875
1680014651779,1194640134819086,0.009075,-0.015125,-0.0072875
1680014651782,1194640137321471,0.003025,-0.014162499,-0.00825
1680014651784,1194640139823933,0.0,-0.014162499,-0.00825
1680014651787,1194640142326163,-9.625E-4,-0.0100375,-0.0072875
1680014651789,1194640144828548,-0.007975,-0.009075,-0.0072875
1680014651792,1194640147330784,-0.0119624995,-0.00715,-0.0042625
1680014651794,1194640149833168,-0.0119624995,-0.0031625,-0.006325
1680014651797,1194640152335630,-0.012925,0.001925,-0.00825
1680014651799,1194640154837870,-0.012925,-1.375E-4,-0.0092124995
1680014651804,1194640157340254,-0.01595,0.00385,-0.0092124995
1680014651805,1194640159842485,-0.017875,0.0078375,-0.0133375
1680014651807,1194640162344947,-0.0209,0.0059125,-0.0122375
1680014651809,1194640164847331,-0.0199375,0.0119624995,-0.0133375
1680014651812,1194640167349827,-0.018975,0.01485,-0.00825
1680014651814,1194640169852058,-0.0209,0.0188375,-0.0103124995
1680014651816,1194640172354442,-0.018975,0.0199375,-0.01925
1680014651819,1194640174856673,-0.018975,0.0218625,-0.016224999
1680014651822,1194640177359058,-0.018975,0.0218625,-0.016224999
1680014651824,1194640179861596,-0.0209,0.02695,-0.0202125
1680014651826,1194640182363981,-0.0199375,0.023924999,-0.0202125
1680014651829,1194640184866211,-0.0169125,0.0309375,-0.022275
1680014651832,1194640187368605,-0.0149875,0.0339625,-0.022275
1680014651834,1194640189870836,-0.012925,0.0328625,-0.0232375
1680014651836,1194640192373221,-0.012925,0.0339625,-0.0243375
1680014651844,1194640194875711,-0.012925,0.0358875,-0.0253
1680014651845,1194640197377942,-0.0138875,0.0358875,-0.0262625
1680014651845,1194640199880403,-0.006875,0.036849998,-0.0253
1680014651846,1194640202382788,-0.0089375,0.039875,-0.0262625
1680014651850,1194640204885019,-0.00495,0.039875,-0.03025
1680014651852,1194640207387418,0.0,0.0429,-0.027224999
1680014651854,1194640209889880,-0.0039875,0.0358875,-0.027224999
1680014651856,1194640212392111,-0.0059125,0.0358875,-0.0243375
1680014651859,1194640214894495,-0.00495,0.0358875,-0.0213125
1680014651862,1194640217396706,-0.0039875,0.0389125,-0.0232375
1680014651864,1194640219899168,0.0,0.03795,-0.022275
1680014651867,1194640222401552,0.0,0.036849998,-0.0243375
1680014651869,1194640224904014,-0.0039875,0.0358875,-0.0202125
1680014651872,1194640227406255,0.0011,0.0319,-0.0182875
1680014651874,1194640229908639,0.0,0.0328625,-0.0182875
1680014651878,1194640232410870,-9.625E-4,0.028875,-0.0133375
1680014651880,1194640234913255,-0.0039875,0.028875,-0.00825
1680014651882,1194640237415730,-9.625E-4,0.028875,-0.0092124995
1680014651884,1194640239918192,-0.001925,0.02695,-0.0072875
1680014651887,1194640242420422,-0.00495,0.0248875,-0.005225
1680014651889,1194640244922807,-0.0059125,0.0248875,-0.0033
1680014651892,1194640247425038,-0.0099,0.023924999,6.875E-4
1680014651894,1194640249927417,-0.007975,0.0199375,0.0037125
1680014651897,1194640252429648,-0.0099,0.0188375,0.0067375
1680014651899,1194640254932110,-0.017875,0.0199375,0.010725
1680014651902,1194640257434571,-0.018975,0.0169125,0.0116875
1680014651904,1194640259936947,-0.022,0.0138875,0.01375
1680014651906,1194640262439178,-0.0229625,0.01485,0.0196625
1680014651909,1194640264941562,-0.0259875,0.0138875,0.021724999
1680014651912,1194640267443793,-0.0279125,0.0108624995,0.0207625
1680014651915,1194640269946480,-0.02695,0.006875,0.0237875
1680014651917,1194640272448634,-0.028875,0.00385,0.026675
1680014651919,1194640274951096,-0.0309375,9.625E-4,0.027775
1680014651923,1194640277453327,-0.028875,-0.0031625,0.0306625
1680014651924,1194640279955711,-0.029975,-0.004125,0.0287375
1680014651926,1194640282457956,-0.033,-0.0031625,0.027775
1680014651929,1194640284960418,-0.0319,-0.0050875,0.0306625
1680014651932,1194640287462802,-0.0259875,-0.0031625,0.027775
1680014651934,1194640289965033,-0.02695,-0.00715,0.0257125
1680014651937,1194640292467433,-0.0259875,-0.00605,0.0257125
1680014651939,1194640294969894,-0.0229625,-0.00605,0.0237875
1680014651942,1194640297472125,-0.022,-0.0081124995,0.0207625
1680014651944,1194640299974586,-0.018975,-0.00715,0.016775
1680014651946,1194640302476971,-0.0169125,-0.0081124995,0.014712499
1680014651949,1194640304979202,-0.0149875,-0.00605,0.010725
1680014651953,1194640307481586,-0.0099,-0.0100375,0.0067375
1680014651955,1194640309983817,-0.0039875,-0.00715,0.004675
1680014651957,1194640312486202,-0.001925,-0.00715,6.875E-4
1680014651960,1194640314988740,-0.001925,-0.0081124995,-0.0023375
1680014651963,1194640317491125,0.0081124995,-0.0111375,-0.006325
1680014651964,1194640319993356,0.0121,-0.0100375,-0.0103124995
1680014651966,1194640322495740,0.01705,-0.0121,-0.016224999
1680014651969,1194640324997966,0.0180125,-0.015125,-0.01925
1680014651972,1194640327500351,0.022,-0.0160875,-0.022275
1680014651974,1194640330002812,0.026124999,-0.015125,-0.0243375
1680014651977,1194640332505274,0.02805,-0.015125,-0.027224999
1680014651979,1194640335007471,0.02805,-0.014162499,-0.028324999
1680014651983,1194640337509855,0.031075,-0.0121,-0.03025
1680014651984,1194640340012086,0.02805,-0.014162499,-0.03025
1680014651987,1194640342514471,0.031075,-0.0100375,-0.0323125
1680014651991,1194640345016923,0.025024999,-0.0100375,-0.0353375
1680014651993,1194640347519154,0.0270875,-0.009075,-0.0323125
1680014651995,1194640350021539,0.0270875,-0.0081124995,-0.03025
1680014651996,1194640352524000,0.026124999,-0.00605,-0.0342375
1680014651999,1194640355026231,0.01705,-0.0081124995,-0.028324999
1680014652002,1194640357528597,0.0191125,-0.0081124995,-0.0253
1680014652004,1194640360030827,0.01705,-0.00605,-0.0243375
1680014652007,1194640362533289,0.0121,-0.00605,-0.0243375
1680014652010,1194640365035750,0.00605,-0.0050875,-0.01925
1680014652013,1194640367537913,0.003025,-0.004125,-0.0122375
1680014652014,1194640370040375,-0.0039875,-0.0050875,-0.0103124995
1680014652017,1194640372542759,-0.006875,-0.0020625,-0.006325
1680014652019,1194640375044990,-0.007975,-0.0050875,-0.005225
1680014652022,1194640377547462,-0.01595,-0.00605,-0.0012375
1680014652024,1194640380049846,-0.017875,-0.00715,0.004675
1680014652028,1194640382552077,-0.0209,-0.00715,0.0067375
1680014652030,1194640385054462,-0.0259875,-0.00605,0.010725
1680014652033,1194640387556707,-0.028875,-0.0111375,0.0086624995
1680014652034,1194640390059168,-0.0309375,-0.0081124995,0.0127875
1680014652037,1194640392561630,-0.0339625,-0.00715,0.0127875
1680014652039,1194640395064014,-0.0369875,-0.004125,0.014712499
1680014652042,1194640397566245,-0.033,-0.0031625,0.016775
1680014652044,1194640400068630,-0.039875,-0.0020625,0.014712499
1680014652047,1194640402570860,-0.0389125,-0.0020625,0.01375
1680014652049,1194640405073245,-0.040975,9.625E-4,0.015675
1680014652052,1194640407575707,-0.0429,0.0059125,0.015675
1680014652054,1194640410078144,-0.0389125,0.00495,0.014712499
1680014652056,1194640412580375,-0.040975,0.0078375,0.015675
1680014652059,1194640415082760,-0.040975,0.01595,0.01375
1680014652062,1194640417584990,-0.0369875,0.0119624995,0.01375
1680014652066,1194640420087370,-0.0358875,0.01485,0.0116875
1680014652067,1194640422589831,-0.0389125,0.0199375,0.0127875
1680014652069,1194640425092062,-0.03795,0.0218625,0.010725
1680014652072,1194640427594524,-0.0309375,0.0199375,0.010725
1680014652074,1194640430096908,-0.029975,0.02695,0.010725
1680014652077,1194640432599153,-0.028875,0.0328625,0.0086624995
1680014652079,1194640435101538,-0.0259875,0.0298375,0.0077
1680014652082,1194640437603999,-0.0259875,0.0328625,0.004675
1680014652085,1194640440106230,-0.0229625,0.0319,0.0067375
1680014652087,1194640442608615,-0.0209,0.0339625,0.0077
1680014652090,1194640445110845,-0.0209,0.036849998,0.0067375
1680014652094,1194640447613307,-0.0199375,0.0339625,0.0067375
1680014652095,1194640450115692,-0.022,0.034925,0.004675
1680014652098,1194640452618153,-0.0199375,0.0389125,0.004675
1680014652099,1194640455120384,-0.018975,0.039875,0.004675
1680014652104,1194640457622769,-0.0199375,0.036849998,0.004675
1680014652105,1194640460124999,-0.0169125,0.036849998,0.005775
1680014652107,1194640462627384,-0.017875,0.0309375,0.0086624995
1680014652109,1194640465129615,-0.017875,0.0339625,0.010725
1680014652112,1194640467632307,-0.017875,0.0339625,0.010725
1680014652114,1194640470134538,-0.017875,0.0298375,0.0116875
1680014652117,1194640472636917,-0.018975,0.02695,0.010725
1680014652119,1194640475139148,-0.0169125,0.0218625,0.0127875
1680014652124,1194640477641533,-0.0169125,0.0209,0.015675
1680014652125,1194640480143994,-0.01595,0.017875,0.0187
1680014652127,1194640482646225,-0.01595,0.0138875,0.0196625
1680014652129,1194640485148683,-0.018975,0.0099,0.016775
1680014652132,1194640487651067,-0.017875,0.0059125,0.0226875
1680014652134,1194640490153298,-0.018975,0.0028875,0.0226875
1680014652136,1194640492655683,-0.018975,0.0028875,0.0207625
1680014652141,1194640495157918,-0.0169125,-1.375E-4,0.021724999
1680014652143,1194640497660379,-0.017875,-0.004125,0.0237875
1680014652145,1194640500162764,-0.0199375,-0.0050875,0.0237875
1680014652147,1194640502664994,-0.018975,-0.0081124995,0.021724999
1680014652149,1194640505167456,-0.018975,-0.0121,0.021724999
1680014652152,1194640507669860,-0.0229625,-0.013062499,0.02475
1680014652154,1194640510172090,-0.023924999,-0.013062499,0.0237875
1680014652156,1194640512674552,-0.023924999,-0.0160875,0.0226875
1680014652159,1194640515176937,-0.023924999,-0.01705,0.021724999
1680014652162,1194640517679181,-0.023924999,-0.020075,0.0226875
1680014652165,1194640520181566,-0.02695,-0.020075,0.0226875
1680014652167,1194640522683797,-0.0279125,-0.01815,0.0226875
1680014652169,1194640525186258,-0.02695,-0.01815,0.021724999
1680014652172,1194640527688725,-0.02695,-0.0240625,0.0187
1680014652174,1194640530191109,-0.0279125,-0.0240625,0.0207625
1680014652178,1194640532693340,-0.0248875,-0.0210375,0.0207625
1680014652180,1194640535195725,-0.0248875,-0.025024999,0.0226875
1680014652182,1194640537697942,-0.02695,-0.02805,0.0187
1680014652186,1194640540200326,-0.0218625,-0.02915,0.0187
1680014652190,1194640542702865,-0.0229625,-0.031075,0.0187
1680014652190,1194640545205249,-0.0218625,-0.02915,0.0187
1680014652192,1194640547707480,-0.018975,-0.026124999,0.01375
1680014652194,1194640550209832,-0.01595,-0.0270875,0.016775
1680014652197,1194640552712063,-0.0119624995,-0.026124999,0.016775
1680014652199,1194640555214447,-0.0099,-0.0270875,0.016775
1680014652202,1194640557716909,-0.0119624995,-0.026124999,0.010725
1680014652205,1194640560219125,-0.0089375,-0.025024999,0.0097624995
1680014652207,1194640562721587,-0.007975,-0.0191125,0.0086624995
1680014652210,1194640565223972,-0.0099,-0.0210375,0.0077
1680014652212,1194640567726202,-0.0099,-0.0221375,0.005775
1680014652215,1194640570228601,-0.006875,-0.01815,6.875E-4
1680014652217,1194640572731063,-0.006875,-0.01705,-2.75E-4
1680014652219,1194640575233524,-0.006875,-0.01815,6.875E-4
1680014652222,1194640577735678,-0.007975,-0.0160875,-0.0023375
1680014652224,1194640580237909,-0.0059125,-0.0191125,-0.0012375
1680014652227,1194640582740365,-0.0059125,-0.020075,-0.0012375
1680014652229,1194640585242750,-0.001925,-0.01815,-0.0033
1680014652232,1194640587745211,-0.00385,-0.01705,-0.0023375
1680014652235,1194640590247442,-0.0059125,-0.01815,6.875E-4
1680014652236,1194640592749827,-0.00495,-0.01815,-0.0012375
1680014652239,1194640595252058,-0.001925,-0.01815,-0.0012375
1680014652242,1194640597754442,-0.00385,-0.0191125,-0.0012375
1680014652244,1194640600256904,-0.00495,-0.0191125,0.0037125
1680014652247,1194640602759365,-0.006875,-0.01705,0.0077
1680014652249,1194640605261582,-0.007975,-0.0160875,0.0067375
1680014652253,1194640607763967,-0.0059125,-0.015125,0.0097624995
1680014652255,1194640610266198,-0.006875,-0.0221375,0.0127875
1680014652257,1194640612768572,-0.0089375,-0.020075,0.01375
1680014652259,1194640615270803,-0.006875,-0.020075,0.0127875
1680014652262,1194640617773264,-0.007975,-0.0191125,0.015675
1680014652264,1194640620275726,-0.0089375,-0.0221375,0.0196625
1680014652267,1194640622778125,-0.007975,-0.020075,0.021724999
1680014652270,1194640625280355,-0.0099,-0.0240625,0.0226875
1680014652272,1194640627782740,-0.0119624995,-0.02915,0.02475
1680014652275,1194640630284971,-0.0108624995,-0.02915,0.02475
1680014652276,1194640632787432,-0.0099,-0.0270875,0.0257125
1680014652279,1194640635289803,-0.0099,-0.02805,0.026675
1680014652282,1194640637792034,-0.0119624995,-0.031075,0.0306625
1680014652285,1194640640294495,-0.0119624995,-0.02805,0.0287375
1680014652287,1194640642796880,-0.01485,-0.0341,0.0297
1680014652291,1194640645299111,-0.01485,-0.037125,0.0287375
1680014652293,1194640647801572,-0.018975,-0.037125,0.032725
1680014652295,1194640650303957,-0.0119624995,-0.0441375,0.037675
1680014652297,1194640652806188,-0.012925,-0.0430375,0.0317625
1680014652299,1194640655308582,-0.018975,-0.0430375,0.03575
1680014652302,1194640657811044,-0.0199375,-0.050049998,0.0367125
1680014652304,1194640660313275,-0.0199375,-0.05115,0.03575
1680014652307,1194640662815659,-0.0199375,-0.0521125,0.03575
1680014652309,1194640665318120,-0.0199375,-0.0521125,0.0367125
1680014652312,1194640667820350,-0.017875,-0.050049998,0.037675
1680014652314,1194640670322735,-0.0169125,-0.05115,0.032725
1680014652317,1194640672824966,-0.018975,-0.05115,0.0336875
1680014652319,1194640675327351,-0.017875,-0.0521125,0.0336875
1680014652323,1194640677829889,-0.01595,-0.048125,0.032725
1680014652324,1194640680332274,-0.018975,-0.0441375,0.03575
1680014652328,1194640682834504,-0.0199375,-0.042075,0.0317625
1680014652330,1194640685336875,-0.0209,-0.0411125,0.0317625
1680014652332,1194640687839106,-0.018975,-0.0411125,0.032725
1680014652335,1194640690341490,-0.018975,-0.0441375,0.0306625
1680014652337,1194640692843952,-0.0209,-0.0430375,0.0306625
1680014652340,1194640695346168,-0.0199375,-0.0380875,0.0297
1680014652342,1194640697848629,-0.018975,-0.037125,0.0287375
1680014652344,1194640700350783,-0.0138875,-0.042075,0.027775
1680014652347,1194640702853245,-0.0138875,-0.0451,0.0287375
1680014652350,1194640705355629,-0.01485,-0.0441375,0.027775
1680014652352,1194640707858111,-0.0119624995,-0.0451,0.0287375
1680014652354,1194640710360342,-0.0099,-0.0460625,0.027775
1680014652357,1194640712862726,-0.0119624995,-0.0460625,0.0297
1680014652359,1194640715365188,-0.0089375,-0.0451,0.027775
1680014652362,1194640717867452,-0.006875,-0.0451,0.026675
1680014652366,1194640720369836,-0.006875,-0.0441375,0.027775
1680014652367,1194640722872298,-0.0059125,-0.0521125,0.027775
1680014652369,1194640725374528,-0.001925,-0.0490875,0.026675
1680014652372,1194640727876936,-0.00385,-0.048125,0.02475
1680014652374,1194640730379167,-0.001925,-0.0521125,0.0237875
1680014652377,1194640732881551,0.0020625,-0.0551375,0.0226875
1680014652379,1194640735384013,0.0011,-0.0521125,0.0207625
1680014652382,1194640737886461,0.0011,-0.0521125,0.0207625
1680014652385,1194640740388691,0.003025,-0.05115,0.0196625
1680014652387,1194640742891076,0.003025,-0.0521125,0.021724999
1680014652389,1194640745393307,0.003025,-0.0540375,0.021724999
1680014652392,1194640747895691,0.00605,-0.0551375,0.0196625
1680014652394,1194640750397922,0.004125,-0.05115,0.0187
1680014652397,1194640752900384,0.0020625,-0.053075,0.0187
1680014652399,1194640755402845,0.0050875,-0.0490875,0.016775
1680014652404,1194640757905009,0.003025,-0.047025,0.016775
1680014652405,1194640760407471,1.375E-4,-0.0451,0.015675
1680014652407,1194640762909855,0.0020625,-0.0460625,0.014712499
1680014652410,1194640765412086,1.375E-4,-0.0490875,0.015675
1680014652412,1194640767914548,0.003025,-0.0490875,0.01375
1680014652414,1194640770416932,-9.625E-4,-0.048125,0.014712499
1680014652419,1194640772919163,-0.00385,-0.0460625,0.014712499
1680014652420,1194640775421625,-0.0059125,-0.0441375,0.014712499
1680014652422,1194640777923778,-0.007975,-0.0441375,0.0116875
1680014652424,1194640780426245,-0.0089375,-0.0441375,0.010725
1680014652427,1194640782928706,-0.0108624995,-0.042075,0.010725
1680014652430,1194640785431091,-0.01595,-0.0411125,0.0116875
1680014652432,1194640787933322,-0.01485,-0.036025,0.010725
1680014652434,1194640790435697,-0.0138875,-0.0320375,0.0086624995
1680014652437,1194640792937928,-0.018975,-0.0331375,0.0086624995
1680014652441,1194640795440390,-0.0199375,-0.0301125,0.0067375
1680014652444,1194640797942851,-0.0209,-0.025024999,0.005775
1680014652445,1194640800445236,-0.0199375,-0.0240625,0.0077
1680014652447,1194640802947467,-0.0199375,-0.0191125,0.004675
1680014652449,1194640805449851,-0.01595,-0.0160875,0.004675
1680014652452,1194640807952082,-0.0169125,-0.014025,0.005775
1680014652455,1194640810454467,-0.01595,-0.0111375,0.005775
1680014652457,1194640812957014,-0.0138875,-0.009075,0.0037125
1680014652460,1194640815459168,-0.0099,-0.00715,0.00275
1680014652462,1194640817961630,-0.0108624995,-0.00715,0.0017875
1680014652464,1194640820464014,-0.0089375,-0.004125,6.875E-4
1680014652467,1194640822966231,-0.007975,-0.0020625,-0.0012375
1680014652470,1194640825468616,-0.00495,-0.0011,-0.0023375
1680014652472,1194640827971077,-0.00495,-0.0050875,-0.0023375
1680014652474,1194640830473308,-0.00385,-0.0020625,-0.0033
1680014652478,1194640832975765,-0.001925,-1.375E-4,-0.0042625
1680014652480,1194640835477918,1.375E-4,-1.375E-4,-0.006325
1680014652483,1194640837980380,0.003025,-0.0011,-0.0072875
1680014652484,1194640840482765,0.004125,0.001925,-0.006325
1680014652487,1194640842985226,0.003025,0.001925,-0.0092124995
1680014652489,1194640845487443,0.003025,0.00495,-0.005225
1680014652492,1194640847989827,0.003025,0.00385,-0.005225
1680014652494,1194640850492058,0.003025,0.00495,-0.0072875
1680014652497,1194640852994443,0.0050875,0.0099,-0.005225
1680014652499,1194640855496678,0.0020625,0.0059125,-0.0033
1680014652502,1194640857999370,0.0020625,-0.0011,-0.0023375
1680014652505,1194640860501601,0.0050875,9.625E-4,-0.0012375
1680014652507,1194640863003985,-0.00385,0.0028875,-2.75E-4
1680014652509,1194640865506245,-0.00495,-0.003025,0.0017875
1680014652512,1194640868008630,-0.00495,0.00495,0.0017875
1680014652516,1194640870511091,-0.0108624995,0.007975,6.875E-4
1680014652518,1194640873013322,-0.0138875,0.00385,0.0037125
1680014652520,1194640875515770,-0.01595,0.006875,0.0077
1680014652523,1194640878018154,-0.0169125,0.00385,0.005775
1680014652525,1194640880520385,-0.0209,0.0099,0.0067375
1680014652527,1194640883022770,-0.02695,0.0028875,0.0086624995
1680014652529,1194640885525000,-0.02585,0.0059125,0.010725
1680014652532,1194640888027394,-0.0279125,0.0059125,0.010725
1680014652535,1194640890529932,-0.029975,0.001925,0.0127875
1680014652537,1194640893032086,-0.0339625,0.00495,0.015675
1680014652539,1194640895534548,-0.0389125,9.625E-4,0.015675
1680014652542,1194640898036938,-0.039875,0.001925,0.015675
1680014652545,1194640900539168,-0.03795,0.00495,0.016775
1680014652547,1194640903041553,-0.0389125,0.001925,0.0187
1680014652550,1194640905544014,-0.039875,0.001925,0.0187
1680014652554,1194640908046476,-0.03795,0.001925,0.0187
1680014652556,1194640910548707,-0.0389125,-0.0011,0.016775
1680014652557,1194640913050861,-0.036849998,-0.0011,0.015675
1680014652559,1194640915553322,-0.03795,-0.003025,0.01375
1680014652562,1194640918055707,-0.0389125,-0.0011,0.014712499
1680014652565,1194640920558197,-0.0339625,-0.0020625,0.0127875
1680014652567,1194640923060428,-0.0328625,-0.0011,0.0127875
1680014652569,1194640925562813,-0.0309375,-0.0050875,0.010725
1680014652572,1194640928065043,-0.028875,-0.0050875,0.0097624995
1680014652574,1194640930567408,-0.02585,-0.0050875,0.0067375
1680014652577,1194640933069870,-0.0209,-0.00605,0.0077
1680014652579,1194640935572331,-0.0209,-0.0081124995,0.0067375
1680014652582,1194640938074562,-0.017875,-0.0081124995,0.0077
1680014652585,1194640940576947,-0.0138875,-0.00715,0.0086624995
1680014652588,1194640943079177,-0.01595,-0.0100375,0.005775
1680014652591,1194640945581562,-0.0119624995,-0.0121,0.00275
1680014652594,1194640948084024,-0.0119624995,-0.014025,0.0067375
1680014652595,1194640950586253,-0.006875,-0.013062499,0.0067375
1680014652597,1194640953088715,-0.00495,-0.0160875,0.00275
1680014652600,1194640955591099,-9.625E-4,-0.0160875,0.004675
1680014652603,1194640958093330,1.375E-4,-0.0160875,0.005775
1680014652605,1194640960595715,0.0020625,-0.01705,0.004675
1680014652607,1194640963097951,0.003025,-0.0210375,0.0077
1680014652610,1194640965600412,0.004125,-0.020075,0.0077
1680014652613,1194640968102797,0.009075,-0.0240625,0.0086624995
1680014652615,1194640970605028,0.00715,-0.02915,0.0086624995
1680014652617,1194640973107465,0.0081124995,-0.02915,0.0067375
1680014652620,1194640975609850,0.0111375,-0.0320375,0.0077
1680014652623,1194640978112081,0.0100375,-0.0301125,0.0097624995
1680014652625,1194640980614542,0.0081124995,-0.0270875,0.010725
1680014652629,1194640983116922,0.00605,-0.02805,0.010725
1680014652630,1194640985619383,0.004125,-0.031075,0.0116875
1680014652632,1194640988121537,0.0050875,-0.0320375,0.0097624995
1680014652635,1194640990623999,-9.625E-4,-0.0331375,0.0116875
1680014652638,1194640993126229,-9.625E-4,-0.036025,0.010725
1680014652641,1194640995628706,-9.625E-4,-0.0380875,0.0116875
1680014652643,1194640998131091,-0.00385,-0.039049998,0.0127875
1680014652645,1194641000633321,-0.006875,-0.047025,0.015675
1680014652648,1194641003135706,-0.0089375,-0.050049998,0.015675
1680014652650,1194641005638168,-0.007975,-0.05115,0.0187
1680014652652,1194641008140321,-0.0089375,-0.0521125,0.0187
1680014652656,1194641010642860,-0.0099,-0.053075,0.0196625
1680014652657,1194641013145244,-0.0099,-0.0540375,0.0196625
1680014652660,1194641015647475,-0.0119624995,-0.059125,0.0226875
1680014652663,1194641018149874,-0.0138875,-0.0551375,0.0237875
1680014652667,1194641020652335,-0.0169125,-0.0551375,0.0237875
1680014652668,1194641023154566,-0.0199375,-0.0570625,0.0237875
1680014652670,1194641025656951,-0.0199375,-0.0540375,0.0237875
1680014652673,1194641028159187,-0.0199375,-0.058025,0.0257125
1680014652675,1194641030661571,-0.018975,-0.0570625,0.0287375
1680014652677,1194641033163802,-0.0229625,-0.0490875,0.0297
1680014652680,1194641035666475,-0.0199375,-0.0490875,0.027775
1680014652683,1194641038168706,-0.023924999,-0.0540375,0.0287375
1680014652685,1194641040671091,-0.0229625,-0.0521125,0.027775
1680014652688,1194641043173321,-0.023924999,-0.05115,0.0297
1680014652690,1194641045675691,-0.0218625,-0.0451,0.0297
1680014652693,1194641048177922,-0.0229625,-0.039049998,0.0287375
1680014652696,1194641050680383,-0.0229625,-0.036025,0.027775
1680014652698,1194641053182768,-0.0229625,-0.039049998,0.027775
1680014652700,1194641055685230,-0.0218625,-0.036025,0.026675
1680014652704,1194641058187436,-0.0199375,-0.0341,0.0287375
1680014652705,1194641060689821,-0.017875,-0.0331375,0.027775
1680014652708,1194641063192052,-0.017875,-0.02915,0.027775
1680014652710,1194641065694513,-0.01595,-0.0221375,0.0287375
1680014652713,1194641068196961,-0.017875,-0.0191125,0.0257125
1680014652715,1194641070699115,-0.0138875,-0.01815,0.0237875
1680014652719,1194641073201576,-0.0099,-0.01705,0.0237875
1680014652720,1194641075703961,-0.0138875,-0.01705,0.0226875
1680014652723,1194641078206129,-0.0108624995,-0.0160875,0.0226875
1680014652725,1194641080708667,-0.0108624995,-0.01705,0.0226875
1680014652728,1194641083211052,-0.0138875,-0.0210375,0.0237875
1680014652730,1194641085713283,-0.007975,-0.0210375,0.021724999
1680014652733,1194641088215653,-0.007975,-0.020075,0.0226875
1680014652735,1194641090717884,-0.0108624995,-0.020075,0.0257125
1680014652739,1194641093220346,-0.0108624995,-0.01815,0.02475
1680014652742,1194641095722807,-0.007975,-0.01705,0.02475
1680014652744,1194641098225202,-0.0099,-0.025024999,0.0257125
1680014652746,1194641100727432,-0.0119624995,-0.0270875,0.0257125
1680014652748,1194641103229817,-0.0138875,-0.0270875,0.0287375
1680014652750,1194641105732048,-0.0108624995,-0.0240625,0.0287375
1680014652753,1194641108234437,-0.0099,-0.025024999,0.0297
1680014652756,1194641110736899,-0.0119624995,-0.0270875,0.0287375
1680014652758,1194641113239361,-0.01595,-0.02805,0.0306625
1680014652761,1194641115741591,-0.0169125,-0.0350625,0.0306625
1680014652763,1194641118243976,-0.017875,-0.036025,0.0306625
1680014652766,1194641120746212,-0.018975,-0.0350625,0.0306625
1680014652768,1194641123248596,-0.0218625,-0.0350625,0.0336875
1680014652771,1194641125751058,-0.0218625,-0.036025,0.0336875
1680014652773,1194641128253289,-0.023924999,-0.0341,0.0336875
1680014652775,1194641130755755,-0.02585,-0.0341,0.03575
1680014652779,1194641133258140,-0.0248875,-0.036025,0.0397375
1680014652781,1194641135760371,-0.023924999,-0.036025,0.037675
1680014652783,1194641138262755,-0.0279125,-0.0380875,0.0367125
1680014652785,1194641140765240,-0.0319,-0.039049998,0.0336875
1680014652788,1194641143267471,-0.0309375,-0.037125,0.032725
1680014652791,1194641145769855,-0.0248875,-0.039049998,0.0367125
1680014652793,1194641148272086,-0.028875,-0.0380875,0.038775
1680014652796,1194641150774537,-0.0319,-0.037125,0.0367125
1680014652798,1194641153276922,-0.029975,-0.039049998,0.0336875
1680014652800,1194641155779384,-0.029975,-0.039049998,0.03575
1680014652803,1194641158281614,-0.0279125,-0.0350625,0.0336875
1680014652805,1194641160783999,-0.0248875,-0.036025,0.032725
1680014652808,1194641163286212,-0.0248875,-0.0411125,0.032725
1680014652811,1194641165788596,-0.02695,-0.0411125,0.0306625
1680014652824,1194641168290827,-0.02585,-0.0430375,0.0317625
1680014652824,1194641170793529,-0.0229625,-0.0411125,0.027775
1680014652824,1194641173295682,-0.0229625,-0.0430375,0.027775
1680014652824,1194641175798144,-0.0218625,-0.042075,0.027775
1680014652824,1194641178300375,-0.0209,-0.0380875,0.026675
1680014652825,1194641180802759,-0.0218625,-0.0411125,0.027775
1680014652827,1194641183304981,-0.0209,-0.0380875,0.027775
1680014652830,1194641185807443,-0.01485,-0.042075,0.0257125
1680014652833,1194641188309827,-0.018975,-0.0430375,0.021724999
1680014652835,1194641190812289,-0.0199375,-0.0460625,0.021724999
1680014652838,1194641193314443,-0.0169125,-0.048125,0.021724999
1680014652840,1194641195816904,-0.017875,-0.0521125,0.0237875
1680014652842,1194641198319135,-0.0138875,-0.0540375,0.0237875
1680014652845,1194641200821597,-0.0119624995,-0.0570625,0.021724999
1680014652847,1194641203323981,-0.0108624995,-0.0600875,0.0237875
1680014652850,1194641205826202,-0.0089375,-0.061049998,0.0237875
1680014652855,1194641208328663,-0.0059125,-0.0600875,0.0237875
1680014652856,1194641210831048,-0.007975,-0.06215,0.0237875
1680014652858,1194641213333279,-0.0059125,-0.06215,0.0257125
1680014652860,1194641215835759,1.375E-4,-0.0631125,0.0257125
1680014652863,1194641218338144,0.0011,-0.0671,0.0226875
1680014652865,1194641220840375,0.0020625,-0.064075,0.02475
1680014652868,1194641223342773,-0.00495,-0.0661375,0.02475
1680014652870,1194641225845004,0.0011,-0.0680625,0.0237875
1680014652873,1194641228347466,1.375E-4,-0.064075,0.021724999
1680014652875,1194641230849927,0.0011,-0.0671,0.021724999
1680014652878,1194641233352312,0.0020625,-0.0650375,0.021724999
1680014652880,1194641235854547,0.004125,-0.064075,0.0226875
1680014652883,1194641238356931,0.0020625,-0.061049998,0.0226875
1680014652885,1194641240859162,-9.625E-4,-0.0600875,0.021724999
1680014652889,1194641243361524,-9.625E-4,-0.058025,0.0207625
1680014652891,1194641245863985,-0.00385,-0.0600875,0.0187
1680014652894,1194641248366447,-0.006875,-0.061049998,0.021724999
1680014652896,1194641250868601,-0.0108624995,-0.0631125,0.0237875
1680014652898,1194641253371062,-0.0119624995,-0.061049998,0.0207625
1680014652900,1194641255873289,-0.01485,-0.0600875,0.0196625
1680014652903,1194641258375674,-0.0169125,-0.0570625,0.0207625
1680014652905,1194641260878135,-0.0169125,-0.0570625,0.016775
1680014652908,1194641263380366,-0.0169125,-0.0570625,0.016775
1680014652910,1194641265882750,-0.0199375,-0.0551375,0.016775
1680014652913,1194641268385211,-0.0209,-0.0551375,0.015675
1680014652916,1194641270887442,-0.0229625,-0.048125,0.0116875
1680014652918,1194641273389826,-0.018975,-0.053075,0.014712499
1680014652921,1194641275892269,-0.0209,-0.050049998,0.01375
1680014652923,1194641278394500,-0.0218625,-0.048125,0.0127875
1680014652925,1194641280896884,-0.023924999,-0.050049998,0.014712499
1680014652930,1194641283399115,-0.0229625,-0.05115,0.01375
1680014652931,1194641285901582,-0.0209,-0.05115,0.0127875
1680014652934,1194641288403736,-0.0218625,-0.0490875,0.0116875
1680014652935,1194641290906428,-0.0218625,-0.048125,0.01375
1680014652938,1194641293408659,-0.0199375,-0.0460625,0.0116875
1680014652940,1194641295911043,-0.01485,-0.0460625,0.0097624995
1680014652943,1194641298413260,-0.01595,-0.0460625,0.0097624995
1680014652946,1194641300915645,-0.0169125,-0.0430375,0.005775
1680014652948,1194641303417875,-0.018975,-0.0441375,0.005775
1680014652950,1194641305920568,-0.018975,-0.0441375,0.0067375
1680014652953,1194641308422712,-0.0138875,-0.0411125,0.005775
1680014652956,1194641310925173,-0.01595,-0.039049998,0.005775
1680014652958,1194641313427404,-0.0138875,-0.037125,0.00275
1680014652960,1194641315929789,-0.0138875,-0.037125,0.0077
1680014652963,1194641318432038,-0.0138875,-0.036025,0.005775
1680014652967,1194641320934500,-0.0099,-0.0350625,0.00275
1680014652968,1194641323436885,-0.0108624995,-0.0350625,0.004675
1680014652971,1194641325939346,-0.012925,-0.0331375,0.0067375
1680014652973,1194641328441495,-0.0138875,-0.0350625,0.0037125
1680014652976,1194641330943956,-0.0099,-0.0341,0.004675
1680014652978,1194641333446187,-0.012925,-0.0350625,0.0037125
1680014652980,1194641335948649,-0.012925,-0.0350625,0.00275
1680014652983,1194641338451033,-0.012925,-0.0380875,0.004675
1680014652986,1194641340953259,-0.0119624995,-0.037125,0.0067375
1680014652988,1194641343455644,-0.0108624995,-0.0331375,0.004675
1680014652990,1194641345957875,-0.0108624995,-0.036025,0.005775
1680014652993,1194641348460336,-0.0119624995,-0.0350625,0.00275
1680014652995,1194641350962808,-0.012925,-0.031075,0.0077
1680014652998,1194641353465192,-0.0108624995,-0.0301125,0.0067375
1680014653000,1194641355967423,-0.006875,-0.0331375,0.005775
1680014653005,1194641358469808,-0.0099,-0.0350625,0.0067375
1680014653006,1194641360972038,-0.0108624995,-0.037125,0.00275
1680014653008,1194641363474500,-0.0108624995,-0.039049998,0.0017875
1680014653010,1194641365976885,-0.007975,-0.0411125,0.004675
1680014653013,1194641368479346,-0.0059125,-0.039049998,0.0017875
1680014653015,1194641370981591,-0.0059125,-0.037125,6.875E-4
1680014653018,1194641373483976,-0.006875,-0.0441375,-2.75E-4
1680014653020,1194641375986206,-0.007975,-0.0460625,-0.0033
1680014653023,1194641378488591,-0.0099,-0.0441375,-0.0033
1680014653025,1194641380991028,-0.007975,-0.0460625,-0.0023375
1680014653028,1194641383493490,-0.0059125,-0.0490875,-0.005225
1680014653031,1194641385995644,-0.00385,-0.047025,-0.0042625
1680014653033,1194641388498105,-0.00385,-0.0451,-0.005225
1680014653035,1194641391000332,-0.001925,-0.0490875,-0.005225
1680014653038,1194641393502717,1.375E-4,-0.047025,-0.0072875
1680014653042,1194641396005178,0.0020625,-0.0451,-0.006325
1680014653044,1194641398507409,1.375E-4,-0.0490875,-0.0023375
1680014653046,1194641401009808,1.375E-4,-0.0460625,-0.0012375
1680014653048,1194641403512039,0.003025,-0.047025,-0.0042625
1680014653050,1194641406014423,0.0020625,-0.0441375,-0.0033
1680014653053,1194641408516885,0.0020625,-0.042075,-0.0042625
1680014653055,1194641411019346,0.0020625,-0.0411125,-0.0033
1680014653058,1194641413521586,0.003025,-0.039049998,-2.75E-4
1680014653060,1194641416023971,0.004125,-0.0380875,-0.0023375
1680014653063,1194641418526201,0.004125,-0.0380875,6.875E-4
1680014653065,1194641421028586,0.00605,-0.036025,-2.75E-4
1680014653068,1194641423530827,0.004125,-0.0341,6.875E-4
1680014653070,1194641426033288,0.00605,-0.0341,0.0017875
1680014653073,1194641428535750,0.00715,-0.0320375,0.00275
1680014653075,1194641431038135,0.00605,-0.02915,6.875E-4
1680014653079,1194641433540350,0.0050875,-0.02915,0.004675
1680014653081,1194641436042735,0.0050875,-0.02915,0.005775
1680014653084,1194641438544966,0.00605,-0.0301125,0.0017875
1680014653086,1194641441047658,0.004125,-0.026124999,0.0017875
1680014653088,1194641443549812,0.0050875,-0.0240625,6.875E-4
1680014653090,1194641446052282,0.0020625,-0.020075,0.0017875
1680014653093,1194641448554513,0.004125,-0.0191125,0.0017875
1680014653095,1194641451056898,0.0011,-0.015125,-0.0023375
1680014653097,1194641453559129,0.0011,-0.013062499,-0.0012375
1680014653100,1194641456061581,-0.001925,-0.014025,-0.0023375
1680014653103,1194641458563966,-9.625E-4,-0.013062499,-0.0033
1680014653105,1194641461066197,0.0011,-0.0111375,-0.006325
1680014653108,1194641463568581,-9.625E-4,-0.0121,-0.006325
1680014653111,1194641466071043,-9.625E-4,-0.0111375,-0.0072875
1680014653113,1194641468573273,-9.625E-4,-0.009075,-0.0072875
1680014653117,1194641471075735,-9.625E-4,-0.00715,-0.005225
1680014653119,1194641473578120,-0.001925,-0.0100375,-0.0072875
1680014653121,1194641476080340,-9.625E-4,-0.0121,-0.0092124995
1680014653124,1194641478582725,0.0011,-0.0121,-0.00825
1680014653125,1194641481084956,0.004125,-0.0121,-0.011275
1680014653128,1194641483587340,0.0020625,-0.014025,-0.0133375
1680014653130,1194641486089879,-9.625E-4,-0.0111375,-0.015262499
1680014653133,1194641488592254,0.0020625,-0.0121,-0.017324999
1680014653135,1194641491094484,0.0050875,-0.014025,-0.015262499
1680014653138,1194641493596869,0.0081124995,-0.0121,-0.0133375
1680014653140,1194641496099100,0.0111375,-0.015125,-0.0133375
1680014653143,1194641498601499,0.0121,-0.01705,-0.015262499
1680014653146,1194641501103961,0.0121,-0.014025,-0.016224999
1680014653148,1194641503606192,0.0121,-0.013062499,-0.017324999
1680014653150,1194641506108653,0.015125,-0.01815,-0.017324999
1680014653154,1194641508610812,0.020075,-0.0221375,-0.015262499
1680014653156,1194641511113274,0.01705,-0.014025,-0.016224999
1680014653158,1194641513615658,0.0160875,-0.013062499,-0.017324999
1680014653161,1194641516118120,0.015125,-0.01815,-0.016224999
1680014653163,1194641518620351,0.01815,-0.014025,-0.016224999
1680014653165,1194641521122749,0.01705,-0.0111375,-0.0182875
1680014653168,1194641523624980,0.0121,-0.0111375,-0.0213125
1680014653170,1194641526127441,0.013062499,-0.0121,-0.0213125
1680014653173,1194641528629595,0.013062499,-0.0160875,-0.0232375
1680014653175,1194641531132071,0.0111375,-0.0121,-0.0232375
1680014653178,1194641533634532,0.009075,-0.0111375,-0.022275
1680014653181,1194641536136917,0.0100375,-0.0121,-0.0232375
1680014653183,1194641538639148,0.0111375,-0.0121,-0.0243375
1680014653186,1194641541141532,0.015125,-0.0081124995,-0.022275
1680014653188,1194641543643994,0.009075,-0.0081124995,-0.0243375
1680014653192,1194641546146225,0.0100375,-0.0081124995,-0.0243375
1680014653194,1194641548648686,0.0100375,-0.0100375,-0.0243375
1680014653196,1194641551151091,0.0111375,-0.0081124995,-0.0243375
1680014653198,1194641553653322,0.0111375,-0.0111375,-0.0232375
1680014653201,1194641556155706,0.00605,-0.0100375,-0.0262625
1680014653203,1194641558657937,0.00605,-0.0121,-0.0232375
1680014653206,1194641561160322,0.00715,-0.0121,-0.0243375
1680014653208,1194641563662855,0.0050875,-0.0111375,-0.0243375
1680014653211,1194641566165009,0.0020625,-0.0100375,-0.022275
1680014653213,1194641568667471,0.0020625,-0.00715,-0.0213125
1680014653215,1194641571169855,0.0020625,-0.00715,-0.0243375
1680014653218,1194641573672071,1.375E-4,-0.009075,-0.0232375
1680014653221,1194641576174456,-0.00385,-0.009075,-0.0182875
1680014653223,1194641578676917,-0.001925,-0.0100375,-0.022275
1680014653226,1194641581179148,-0.00385,-0.0081124995,-0.0202125
1680014653230,1194641583681604,-0.007975,-0.00715,-0.0182875
1680014653231,1194641586183758,-0.0108624995,-0.0050875,-0.0213125
1680014653234,1194641588686220,-0.0108624995,-0.004125,-0.0202125
1680014653236,1194641591188604,-0.0108624995,-0.00715,-0.0182875
1680014653238,1194641593691066,-0.0119624995,-0.0050875,-0.0182875
1680014653241,1194641596193278,-0.01485,-0.00715,-0.016224999
1680014653243,1194641598695662,-0.012925,-0.00715,-0.015262499
1680014653246,1194641601197893,-0.012925,-0.0081124995,-0.016224999
1680014653248,1194641603700355,-0.0099,-0.0081124995,-0.0122375
1680014653251,1194641606202490,-0.0119624995,-0.0121,-0.0122375
1680014653255,1194641608705182,-0.0108624995,-0.009075,-0.0103124995
1680014653258,1194641611207413,-0.0099,-0.014025,-0.0103124995
1680014653259,1194641613709797,-0.007975,-0.0160875,-0.0103124995
1680014653261,1194641616212033,-0.00495,-0.015125,-0.011275
1680014653263,1194641618714418,-0.00495,-0.0160875,-0.0103124995
1680014653267,1194641621216648,-0.001925,-0.015125,-0.0103124995
1680014653269,1194641623719110,0.0020625,-0.01705,-0.0092124995
1680014653270,1194641626221495,0.0011,-0.020075,-0.00825
1680014653273,1194641628723970,0.003025,-0.020075,-0.00825
1680014653275,1194641631226201,0.004125,-0.0191125,-0.0103124995
1680014653278,1194641633728586,0.003025,-0.0240625,-0.0103124995
1680014653282,1194641636230816,0.004125,-0.025024999,-0.0103124995
1680014653284,1194641638733273,0.004125,-0.0221375,-0.011275
1680014653286,1194641641235658,0.0111375,-0.025024999,-0.0103124995
1680014653288,1194641643737888,0.0111375,-0.0221375,-0.0103124995
1680014653291,1194641646240350,0.0121,-0.0210375,-0.011275
1680014653293,1194641648742739,0.01705,-0.01705,-0.0103124995
1680014653296,1194641651244970,0.0191125,-0.0221375,-0.00825
1680014653299,1194641653747432,0.01815,-0.0240625,-0.0092124995
1680014653301,1194641656249816,0.01815,-0.026124999,-0.0122375
1680014653305,1194641658752033,0.0210375,-0.0240625,-0.0092124995
1680014653306,1194641661254418,0.020075,-0.025024999,-0.0103124995
1680014653308,1194641663756649,0.025024999,-0.026124999,-0.0133375
1680014653310,1194641666259110,0.026124999,-0.0240625,-0.0122375
1680014653313,1194641668761557,0.0231,-0.02805,-0.00825
1680014653316,1194641671263941,0.026124999,-0.025024999,-0.0103124995
1680014653318,1194641673766172,0.02805,-0.02915,-0.011275
1680014653321,1194641676268543,0.0270875,-0.02915,-0.0092124995
1680014653324,1194641678770773,0.02915,-0.0221375,-0.005225
1680014653326,1194641681273158,0.02805,-0.0240625,-0.00825
