system_ts_ms, sensor_ts_ns, accX, accY, accZ
1680014648443,1194636789170110,0.102000006,8.40495,5.214
1680014648443,1194636791672341,0.13995,8.271001,5.04405
1680014648443,1194636794174793,0.23295002,8.20605,5.06295
1680014648444,1194636796677254,0.19800001,8.17305,4.998
1680014648444,1194636799179408,0.14205001,8.139,5.046
1680014648457,1194636801681870,0.15705001,8.13405,5.05305
1680014648458,1194636804184244,0.186,8.17305,5.06295
1680014648459,1194636806686475,0.21900001,8.179951,5.07705
1680014648459,1194636809188937,0.15195,8.115001,5.07495
1680014648460,1194636811691321,0.19305001,8.14395,4.8520503
1680014648460,1194636814193783,0.15,8.0119505,4.94805
1680014648462,1194636816696019,0.28395,8.139,4.92105
1680014648471,1194636819198403,0.18300001,8.079,4.8900003
1680014648471,1194636821700634,0.21405001,8.142,4.88805
1680014648471,1194636824203096,0.24795002,8.106,4.9759502
1680014648471,1194636826705562,0.16395001,8.067,4.9690504
1680014648473,1194636829207716,0.126,8.10795,4.833
1680014648476,1194636831710177,0.13305001,8.167951,4.75605
1680014648478,1194636834212562,0.11895001,8.161051,4.8040504
1680014648484,1194636836714803,0.08505,8.154,4.881
1680014648484,1194636839217264,0.09,8.199,4.8109503
1680014648486,1194636841719649,0.087000005,8.200951,4.84005
1680014648488,1194636844221880,0.043950003,8.20905,4.8450003
1680014648491,1194636846724278,0.07095,8.13,4.81395
1680014648493,1194636849226740,-0.063,8.36205,4.953
1680014648500,1194636851728971,-0.07095,8.235001,4.8690004
1680014648500,1194636854231432,-0.109050006,8.316,4.78305
1680014648502,1194636856733807,-0.078,8.26095,4.9120502
1680014648504,1194636859236038,-0.066,8.26095,4.8570004
1680014648506,1194636861738499,-0.19005,8.20905,4.833
1680014648508,1194636864240884,-0.16905001,8.307,4.8970504
1680014648511,1194636866743115,-0.15405001,8.41005,4.90005
1680014648516,1194636869245561,-0.13305001,8.371051,4.8520503
1680014648517,1194636871747946,-0.15195,8.391001,4.998
1680014648519,1194636874250177,-0.15900001,8.40495,4.91895
1680014648522,1194636876752561,-0.20505,8.484,4.97895
1680014648524,1194636879254773,-0.11400001,8.47395,4.938
1680014648526,1194636881757235,-0.18300001,8.47395,5.0560503
1680014648528,1194636884259619,-0.09900001,8.51295,4.9960504
1680014648533,1194636886762081,-0.09195001,8.500951,4.99095
1680014648533,1194636889264311,-0.09900001,8.49405,4.854
1680014648537,1194636891766686,-0.09705,8.503051,5.0790005
1680014648539,1194636894268917,-0.06105,8.52,5.151
1680014648541,1194636896771302,-0.147,8.56095,5.06505
1680014648543,1194636899273840,-0.006,8.53905,5.07495
1680014648550,1194636901776220,-0.079950005,8.44305,5.07705
1680014648550,1194636904278450,-0.07095,8.509951,5.08395
1680014648552,1194636906780835,-0.0010500001,8.553,5.0479503
1680014648553,1194636909283066,0.016050002,8.54205,5.12505
1680014648556,1194636911785513,-0.03195,8.553,5.06505
1680014648558,1194636914287898,-0.07305,8.503051,5.00295
1680014648562,1194636916790359,-0.07095,8.451,5.07705
1680014648567,1194636919292590,-0.09,8.48595,5.2210503
1680014648567,1194636921794975,-0.06105,8.51295,5.05095
1680014648568,1194636924297206,-0.01305,8.52,5.0940003
1680014648572,1194636926799590,-0.063,8.467051,4.9999504
1680014648575,1194636929302105,-0.09,8.436001,5.13495
1680014648577,1194636931804489,-0.03195,8.415,5.0410504
1680014648579,1194636934306720,-0.006,8.391001,5.0599504
1680014648583,1194636936809105,-0.15705001,8.496,4.9669504
1680014648584,1194636939311336,-0.08505,8.332951,4.99095
1680014648586,1194636941813782,-0.13800001,8.467051,5.046
1680014648589,1194636944316167,-0.123,8.436001,5.0560503
1680014648592,1194636946818628,-0.15195,8.38095,5.0340004
1680014648594,1194636949320859,-0.11400001,8.479051,5.0080504
1680014648596,1194636951823244,-0.13995,8.26605,5.0340004
1680014648602,1194636954325460,-0.17400001,8.36205,5.0220003
1680014648603,1194636956827845,-0.16605,8.280001,5.0410504
1680014648604,1194636959330383,-0.16905001,8.403001,5.0940003
1680014648606,1194636961832537,-0.10695001,8.295,4.9879503
1680014648608,1194636964334994,-0.13095,8.331,4.9879503
1680014648616,1194636966837379,-0.00405,8.364,5.03595
1680014648617,1194636969339609,-0.049050003,8.34,5.1060004
1680014648617,1194636971842023,-0.028050002,8.304001,5.07705
1680014648619,1194636974344484,-0.054,8.338051,5.0560503
1680014648622,1194636976846946,-0.025050001,8.344951,5.0560503
1680014648623,1194636979349177,0.022950001,8.458051,5.0220003
1680014648626,1194636981851561,0.01305,8.40495,4.9690504
1680014648628,1194636984353806,0.079950005,8.326051,5.046
1680014648635,1194636986856191,0.054,8.391001,5.03595
1680014648636,1194636989358652,0.030000001,8.427,4.99095
1680014648637,1194636991860883,0.06795,8.311951,4.9410005
1680014648638,1194636994363345,0.09705,8.35005,5.046
1680014648642,1194636996865734,0.087000005,8.464951,5.1010504
1680014648644,1194636999367965,0.17400001,8.37405,5.0560503
1680014648650,1194637001870350,0.11100001,8.434051,5.1010504
1680014648650,1194637004372792,0.087000005,8.3880005,5.0340004
1680014648653,1194637006875254,0.08505,8.436001,5.03595
1680014648654,1194637009377408,0.07305,8.403001,5.02005
1680014648656,1194637011879638,0.17400001,8.40495,4.97895
1680014648658,1194637014382100,0.15,8.424001,5.1319504
1680014648662,1194637016884480,0.07305,8.3880005,5.091
1680014648670,1194637019386941,0.075,8.412001,5.0149503
1680014648671,1194637021889172,0.018000001,8.436001,4.9740005
1680014648672,1194637024391556,0.03705,8.436001,5.0080504
1680014648673,1194637026894018,0.06105,8.3880005,4.97895
1680014648674,1194637029396249,0.01995,8.36205,5.0410504
1680014648676,1194637031898633,0.010950001,8.376,4.986
1680014648679,1194637034401095,-0.04695,8.38605,4.9999504
1680014648684,1194637036903557,-0.034950003,8.412001,5.046
1680014648685,1194637039405715,0.025050001,8.472,4.93305
1680014648688,1194637041907946,-0.010950001,8.448,5.00505
1680014648689,1194637044410408,0.01995,8.400001,4.9999504
1680014648692,1194637046912792,-0.01995,8.39805,5.0220003
1680014648694,1194637049415282,-0.109050006,8.39505,5.05095
1680014648701,1194637051917513,-0.049050003,8.458051,4.9429502
1680014648701,1194637054419897,-0.049050003,8.400001,4.97895
1680014648702,1194637056922128,-0.07095,8.41005,5.03595
1680014648704,1194637059424489,-0.09705,8.46,5.0149503
1680014648706,1194637061926950,-0.01305,8.451,5.0149503
1680014648708,1194637064429412,-0.07305,8.29695,4.98105
1680014648712,1194637066931643,-0.11595,8.556001,4.9500003
1680014648717,1194637069434023,-0.058950003,8.4529505,4.8900003
1680014648718,1194637071936254,-0.01995,8.3550005,4.8900003
1680014648719,1194637074438715,-0.040050004,8.49405,4.97895
1680014648722,1194637076940869,-0.075,8.40705,5.0080504
1680014648725,1194637079443542,-0.078,8.403001,4.9879503
1680014648726,1194637081945772,-0.028050002,8.40705,4.9960504
1680014648728,1194637084448157,-0.06795,8.439,5.046
1680014648733,1194637086950388,0.016050002,8.42895,5.13
1680014648734,1194637089452772,-0.03195,8.451,5.103
1680014648736,1194637091955206,0.04695,8.46,5.08395
1680014648738,1194637094457668,-0.043950003,8.427,5.0599504
1680014648742,1194637096959898,-0.094950005,8.335951,4.9690504
1680014648744,1194637099462283,0.018000001,8.427,5.091
1680014648749,1194637101964547,0.016050002,8.53695,5.0269504
1680014648750,1194637104467008,-0.042000003,8.424001,5.1270003
1680014648752,1194637106969162,-0.03705,8.436001,5.02395
1680014648754,1194637109471854,0.051000003,8.42205,5.02005
1680014648756,1194637111974085,-0.00405,8.51805,4.9879503
1680014648758,1194637114476484,0.043950003,8.47395,5.00505
1680014648768,1194637116978715,0.01995,8.508,4.98105
1680014648770,1194637119481099,-0.07095,8.496,5.058
1680014648772,1194637121983557,0.03195,8.42205,4.953
1680014648773,1194637124485788,-0.042000003,8.41695,4.866
1680014648774,1194637126988249,-0.054,8.476951,4.998
1680014648775,1194637129490634,0.03705,8.451,5.02005
1680014648776,1194637131992864,-0.042000003,8.458051,5.0080504
1680014648779,1194637134495258,-0.016050002,8.476951,4.9879503
1680014648786,1194637136997489,0.09705,8.434051,4.842
1680014648788,1194637139500181,0.07305,8.479051,4.9759502
1680014648789,1194637142002412,-0.052050002,8.497951,5.00505
1680014648790,1194637144504778,0.010950001,8.39505,4.9740005
1680014648792,1194637147007008,0.049050003,8.496,5.00505
1680014648794,1194637149509393,0.049050003,8.458051,4.998
1680014648801,1194637152011854,0.102000006,8.464951,4.9450502
1680014648801,1194637154514067,0.00795,8.364,4.9669504
1680014648803,1194637157016529,-0.022950001,8.439,4.938
1680014648806,1194637159518913,-0.018000001,8.44095,5.058
1680014648806,1194637162021144,-0.040050004,8.446051,5.0989504
1680014648809,1194637164523529,0.034950003,8.424001,4.9620004
1680014648812,1194637167025768,0.03195,8.42895,5.03205
1680014648816,1194637169528460,0.034950003,8.488951,4.9879503
1680014648818,1194637172030614,0.10695001,8.509951,4.9759502
1680014648819,1194637174533075,0.022950001,8.43105,4.986
1680014648822,1194637177035316,-0.022950001,8.48205,4.9410005
1680014648824,1194637179537701,0.07305,8.412001,4.91895
1680014648826,1194637182039931,0.094950005,8.323951,4.9759502
1680014648829,1194637184542393,0.109050006,8.40705,5.05305
1680014648833,1194637187044778,0.030000001,8.424001,5.0340004
1680014648834,1194637189547234,0.09,8.427,5.0080504
1680014648839,1194637192049465,0.126,8.412001,5.0869503
1680014648840,1194637194551850,0.10395,8.37405,5.0269504
1680014648842,1194637197054080,0.171,8.42895,4.986
1680014648844,1194637199556552,0.102000006,8.379001,5.103
1680014648846,1194637202058937,0.109050006,8.338051,4.9690504
1680014648849,1194637204561398,0.078,8.40705,4.9960504
1680014648852,1194637207063629,0.06105,8.343,5.0790005
1680014648855,1194637209566003,0.135,8.368951,5.0340004
1680014648856,1194637212068234,0.066,8.40705,5.0389504
1680014648858,1194637214570696,0.13995,8.391001,4.97895
1680014648862,1194637217073080,0.16905001,8.371051,4.9879503
1680014648864,1194637219575301,0.043950003,8.40495,5.1540003
1680014648866,1194637222077686,0.049050003,8.36205,5.00505
1680014648868,1194637224580147,0.063,8.344951,4.986
1680014648872,1194637227082378,0.08295,8.434051,5.03595
1680014648875,1194637229584874,0.08295,8.39505,5.1060004
1680014648876,1194637232087258,0.04695,8.36205,5.0080504
1680014648879,1194637234589489,0.006,8.323951,5.0989504
1680014648882,1194637237091951,0.04695,8.38605,5.103
1680014648884,1194637239594104,0.09,8.335951,5.1060004
1680014648887,1194637242096566,0.102000006,8.38605,5.2180505
1680014648889,1194637244599028,0.11895001,8.36205,5.1109505
1680014648892,1194637247101412,0.09195001,8.41695,5.19
1680014648894,1194637249603643,0.07095,8.48595,5.18505
1680014648896,1194637252106028,0.186,8.40705,5.2380004
1680014648899,1194637254608494,0.11100001,8.42895,5.13705
1680014648902,1194637257110725,0.135,8.45505,5.2780504
1680014648906,1194637259613110,0.10695001,8.484,5.2210503
1680014648906,1194637262115571,0.11400001,8.379001,5.235
1680014648909,1194637264617831,0.15705001,8.52705,5.103
1680014648914,1194637267120215,0.19800001,8.436001,5.2180505
1680014648915,1194637269622446,0.13095,8.544001,5.0290504
1680014648917,1194637272124893,0.11100001,8.46,5.1540003
1680014648919,1194637274627277,0.14205001,8.40495,5.1589503
1680014648922,1194637277129739,0.20205002,8.53005,5.08395
1680014648924,1194637279631970,0.13995,8.47395,5.091
1680014648926,1194637282134354,0.09705,8.57505,5.1060004
1680014648929,1194637284636807,0.11895001,8.46195,5.07
1680014648932,1194637287138961,0.06105,8.51805,5.1610503
1680014648934,1194637289641422,0.10395,8.51295,5.1390004
1680014648938,1194637292143884,0.07305,8.509951,5.1780005
1680014648940,1194637294646129,0.09705,8.52705,5.0719504
1680014648942,1194637297148513,0.11895001,8.500951,5.091
1680014648944,1194637299650744,0.06795,8.53695,5.06295
1680014648946,1194637302153129,-0.058950003,8.476951,5.06505
1680014648952,1194637304655571,-0.006,8.491051,5.01
1680014648953,1194637307158033,0.030000001,8.368951,5.0269504
1680014648955,1194637309660263,0.03195,8.43105,5.0719504
1680014648957,1194637312162648,0.06105,8.40705,5.03205
1680014648959,1194637314665110,0.03705,8.328,5.0989504
1680014648962,1194637317167264,-0.034950003,8.4529505,5.0479503
1680014648964,1194637319669725,-0.087000005,8.41695,5.06505
1680014648966,1194637322172187,-0.034950003,8.331,4.9429502
1680014648969,1194637324674417,0.03705,8.424001,5.04405
1680014648972,1194637327176811,0.058950003,8.344951,5.0410504
1680014648974,1194637329679042,-0.01305,8.43105,4.87095
1680014648976,1194637332181426,0.010950001,8.316,4.9879503
1680014648979,1194637334683657,-0.022950001,8.40495,5.0560503
1680014648982,1194637337186330,-0.066,8.332951,4.905
1680014648984,1194637339688561,-0.09900001,8.316,4.99305
1680014648988,1194637342190946,-0.010950001,8.400001,4.9429502
1680014648989,1194637344693177,-0.018000001,8.38095,4.9759502
1680014648992,1194637347195571,-0.03195,8.307,4.93095
1680014648994,1194637349697802,-0.022950001,8.359051,5.03595
1680014648996,1194637352200494,0.025050001,8.352,4.9570503
1680014648999,1194637354702648,-0.03195,8.36205,4.9669504
1680014649002,1194637357205110,-0.010950001,8.319,4.998
1680014649004,1194637359707345,-0.01305,8.328,5.0269504
1680014649006,1194637362209729,-0.01995,8.41695,4.9620004
1680014649008,1194637364711960,0.025050001,8.36205,4.9620004
1680014649012,1194637367214421,0.0010500001,8.352,4.9669504
1680014649014,1194637369716879,0.11895001,8.39295,4.90695
1680014649016,1194637372219033,0.00405,8.424001,4.8450003
1680014649019,1194637374721494,0.11595,8.332951,4.9500003
1680014649022,1194637377223879,0.066,8.364,4.9120502
1680014649025,1194637379726110,0.058950003,8.371051,4.9669504
1680014649027,1194637382228571,0.040050004,8.44305,4.965
1680014649029,1194637384730956,-0.018000001,8.367001,4.8690004
1680014649032,1194637387233418,-0.016050002,8.412001,5.046
1680014649034,1194637389735643,-0.028050002,8.400001,4.9570503
1680014649036,1194637392238028,-0.03195,8.458051,4.9879503
1680014649038,1194637394740259,0.066,8.43105,4.97205
1680014649042,1194637397242720,0.022950001,8.472,4.91895
1680014649044,1194637399745167,0.00795,8.424001,4.8829503
1680014649046,1194637402247321,0.0010500001,8.352,4.9290004
1680014649049,1194637404749782,-0.010950001,8.3880005,4.94805
1680014649052,1194637407252167,-0.00405,8.509951,4.965
1680014649054,1194637409754403,0.010950001,8.427,4.9290004
1680014649056,1194637412256864,-0.040050004,8.496,4.98105
1680014649063,1194637414759249,-0.054,8.508,5.03205
1680014649063,1194637417261480,-0.006,8.470051,4.8690004
1680014649065,1194637419763955,-0.025050001,8.488951,4.9690504
1680014649067,1194637422266340,-0.006,8.42205,4.9500003
1680014649069,1194637424768570,-0.049050003,8.51805,4.8690004
1680014649072,1194637427271032,-0.00795,8.472,4.98105
1680014649074,1194637429773398,-0.03195,8.39505,4.9570503
1680014649076,1194637432275628,-0.028050002,8.41695,4.9020004
1680014649079,1194637434778013,0.0010500001,8.458051,5.05095
1680014649082,1194637437280475,0.025050001,8.45505,4.893
1680014649084,1194637439782676,-0.01995,8.36205,4.9549503
1680014649087,1194637442285138,0.05595,8.503051,4.986
1680014649089,1194637444787522,0.066,8.359051,4.926
1680014649092,1194637447289753,-0.07305,8.3880005,4.93095
1680014649094,1194637449792138,0.010950001,8.491051,5.01195
1680014649096,1194637452294384,-0.12795001,8.41695,4.99305
1680014649100,1194637454796845,-0.08505,8.491051,4.9690504
1680014649103,1194637457299307,-0.087000005,8.415,4.9570503
1680014649106,1194637459801696,-0.006,8.41695,4.87095
1680014649107,1194637462303927,-0.094950005,8.391001,4.91895
1680014649109,1194637464806312,-0.058950003,8.451,4.82805
1680014649112,1194637467308773,-0.03195,8.44305,4.90695
1680014649114,1194637469810927,-0.01305,8.39295,4.914
1680014649117,1194637472313485,-0.052050002,8.39295,4.9669504
1680014649120,1194637474815869,-0.052050002,8.41905,4.986
1680014649123,1194637477318100,0.006,8.38095,4.97895
1680014649124,1194637479820485,-0.049050003,8.46195,4.9429502
1680014649126,1194637482322715,-0.075,8.412001,5.0560503
1680014649129,1194637484825167,-0.123,8.45505,5.05095
1680014649132,1194637487327552,-0.09,8.43105,4.9669504
1680014649134,1194637489830013,-0.01995,8.412001,5.06295
1680014649138,1194637492332244,0.00795,8.439,5.04405
1680014649140,1194637494834653,0.040050004,8.451,5.06295
1680014649142,1194637497336883,-0.018000001,8.43105,5.0479503
1680014649144,1194637499839268,0.0010500001,8.553,4.94805
1680014649147,1194637502341806,0.03195,8.49405,5.03595
1680014649150,1194637504843979,0.058950003,8.54205,4.99095
1680014649153,1194637507346441,0.11895001,8.54205,5.00505
1680014649155,1194637509848825,0.12105001,8.52,4.986
1680014649157,1194637512351287,-0.00405,8.427,5.0410504
1680014649159,1194637514853518,0.07095,8.446051,5.05305
1680014649163,1194637517355917,-0.01305,8.508,5.00505
1680014649164,1194637519858148,0.078,8.47395,5.0170503
1680014649167,1194637522360533,0.03705,8.488951,5.13
1680014649169,1194637524862994,-0.06105,8.43105,4.9620004
1680014649172,1194637527365460,-0.042000003,8.451,4.9500003
1680014649175,1194637529867691,0.058950003,8.38605,5.0940003
1680014649177,1194637532370075,0.03195,8.41905,5.0410504
1680014649179,1194637534872306,-0.010950001,8.46195,5.1150002
1680014649182,1194637537374691,-0.0010500001,8.44095,4.9450502
1680014649184,1194637539876921,0.00795,8.42895,5.0599504
1680014649189,1194637542379614,-0.00795,8.38305,5.0479503
1680014649190,1194637544881845,0.00405,8.458051,5.0389504
1680014649192,1194637547384229,-0.08505,8.503051,5.05305
1680014649196,1194637549886475,0.022950001,8.4529505,5.07495
1680014649197,1194637552388860,0.028050002,8.51295,5.0479503
1680014649199,1194637554891090,0.0010500001,8.509951,5.0479503
1680014649203,1194637557393802,0.075,8.46,5.1109505
1680014649207,1194637559895955,0.03705,8.424001,5.06295
1680014649207,1194637562398417,-0.05595,8.509951,5.06505
1680014649209,1194637564900648,0.051000003,8.44305,5.04405
1680014649214,1194637567403027,0.01305,8.439,5.1060004
1680014649215,1194637569905258,0.03195,8.472,5.0989504
1680014649217,1194637572407720,-0.022950001,8.508,4.8829503
1680014649220,1194637574910181,0.01305,8.434051,5.04405
1680014649223,1194637577412566,-0.022950001,8.508,5.0790005
1680014649224,1194637579914783,0.051000003,8.48595,5.0940003
1680014649227,1194637582417167,0.034950003,8.491051,5.0820003
1680014649229,1194637584919398,0.00795,8.451,5.103
1680014649232,1194637587421860,0.018000001,8.467051,5.118
1680014649234,1194637589924244,-0.05595,8.40495,5.0820003
1680014649237,1194637592426706,0.00405,8.40705,5.19
1680014649239,1194637594928937,-0.00795,8.434051,5.058
1680014649242,1194637597431321,-0.018000001,8.41695,5.0680504
1680014649244,1194637599933552,-0.006,8.427,5.1270003
1680014649247,1194637602436027,0.010950001,8.46,5.03205
1680014649251,1194637604938412,-0.01995,8.46,5.058
1680014649253,1194637607440643,-0.078,8.470051,5.06295
1680014649255,1194637609943119,0.058950003,8.352,5.0149503
1680014649257,1194637612445504,0.00795,8.344951,5.07495
1680014649259,1194637614947735,0.034950003,8.464951,5.0680504
1680014649262,1194637617450196,0.05595,8.40495,5.0220003
1680014649264,1194637619952581,-0.01995,8.424001,5.0989504
1680014649267,1194637622454792,0.058950003,8.500951,5.00295
1680014649269,1194637624957253,-0.00405,8.42205,4.94805
1680014649272,1194637627459407,-0.058950003,8.42205,5.06505
1680014649274,1194637629961869,0.07095,8.476951,4.9690504
1680014649277,1194637632464321,0.049050003,8.356951,4.9759502
1680014649279,1194637634966706,-0.058950003,8.379001,5.0269504
1680014649282,1194637637468937,-0.034950003,8.368951,5.0290504
1680014649284,1194637639971321,-0.079950005,8.35005,4.9410005
1680014649289,1194637642473773,-0.03195,8.391001,4.9960504
1680014649290,1194637644975927,-0.01305,8.356951,5.01195
1680014649292,1194637647478465,-0.066,8.391001,4.97895
1680014649294,1194637649980850,-0.063,8.41005,5.02005
1680014649296,1194637652483081,-0.05595,8.319,4.9500003
1680014649299,1194637654985480,-0.040050004,8.335951,4.926
1680014649302,1194637657487711,-0.030000001,8.314051,4.98105
1680014649304,1194637659990172,-0.126,8.46,4.9429502
1680014649307,1194637662492634,-0.123,8.39505,5.0290504
1680014649309,1194637664995019,-0.06105,8.508,4.9500003
1680014649312,1194637667497249,-0.040050004,8.496,4.986
1680014649314,1194637669999634,-0.078,8.35005,4.8619504
1680014649317,1194637672501865,-0.087000005,8.391001,4.9360504
1680014649319,1194637675004249,-0.00795,8.379001,4.9669504
1680014649322,1194637677506788,-0.087000005,8.48595,4.9620004
1680014649326,1194637680009173,-0.09,8.39505,4.926
1680014649327,1194637682511403,-0.030000001,8.43105,5.03205
1680014649329,1194637685013788,-0.01995,8.45505,4.96005
1680014649332,1194637687515995,-0.054,8.48205,5.0269504
1680014649334,1194637690018379,-0.102000006,8.476951,5.0080504
1680014649337,1194637692520841,0.030000001,8.403001,4.9840503
1680014649339,1194637695023072,-0.00795,8.331,4.9360504
1680014649342,1194637697525519,-0.034950003,8.364,4.90695
1680014649344,1194637700027904,-0.00405,8.391001,5.00505
1680014649347,1194637702530135,-0.040050004,8.38095,4.9759502
1680014649349,1194637705032519,-0.040050004,8.458051,5.0269504
1680014649352,1194637707534995,0.04695,8.467051,4.9759502
1680014649355,1194637710037456,-0.054,8.434051,4.8520503
1680014649357,1194637712539610,-0.043950003,8.476951,4.8900003
1680014649359,1194637715042072,0.0010500001,8.491051,4.8640504
1680014649364,1194637717544317,-0.087000005,8.311951,5.0149503
1680014649366,1194637720046702,-0.043950003,8.36205,5.02395
1680014649367,1194637722549164,-0.01995,8.42895,4.938
1680014649369,1194637725051394,-0.049050003,8.328,4.9840503
1680014649372,1194637727553856,0.075,8.364,5.03595
1680014649374,1194637730056241,0.07095,8.319,5.06505
1680014649376,1194637732558471,0.06795,8.40705,5.0790005
1680014649379,1194637735060856,-0.01305,8.3550005,4.9500003
1680014649382,1194637737563342,0.03195,8.403001,4.986
1680014649385,1194637740065572,0.022950001,8.3880005,5.01
1680014649387,1194637742567957,0.0010500001,8.311951,5.03595
1680014649389,1194637745070418,0.028050002,8.448,5.058
1680014649392,1194637747572644,0.022950001,8.43105,5.0719504
1680014649394,1194637750075029,0.08505,8.434051,5.0389504
1680014649397,1194637752577490,0.079950005,8.367001,4.9669504
1680014649401,1194637755079716,0.09,8.49405,4.9170003
1680014649404,1194637757582101,0.058950003,8.464951,4.99305
1680014649407,1194637760084332,0.06795,8.415,4.8970504
1680014649408,1194637762586716,0.03705,8.472,4.9360504
1680014649409,1194637765089178,0.006,8.446051,4.96005
1680014649412,1194637767591644,0.01305,8.44095,4.91895
1680014649414,1194637770093875,-0.042000003,8.52,5.06505
1680014649417,1194637772596260,-0.0010500001,8.503051,4.9410005
1680014649419,1194637775098490,0.01305,8.45505,4.9290004
1680014649422,1194637777600961,-0.063,8.49405,4.9429502
1680014649424,1194637780103115,0.07095,8.415,5.0220003
1680014649427,1194637782605807,-0.054,8.479051,5.01195
1680014649429,1194637785108038,-0.016050002,8.424001,5.03595
1680014649432,1194637787610433,-0.028050002,8.434051,4.9120502
1680014649434,1194637790112663,-0.00405,8.51295,5.0890503
1680014649439,1194637792615048,0.018000001,8.44305,5.0560503
1680014649440,1194637795117279,-0.006,8.439,5.07495
1680014649443,1194637797619735,-0.066,8.448,4.99095
1680014649444,1194637800122197,0.01995,8.47395,5.0080504
1680014649447,1194637802624581,0.06795,8.40495,5.00295
1680014649449,1194637805126812,0.016050002,8.479051,5.00295
1680014649452,1194637807629197,-0.01995,8.470051,5.0479503
1680014649455,1194637810131447,0.043950003,8.47395,5.07
1680014649457,1194637812634139,0.03195,8.42205,4.9879503
1680014649459,1194637815136370,0.030000001,8.40705,5.06505
1680014649462,1194637817638754,0.043950003,8.39295,5.09595
1680014649464,1194637820140995,0.016050002,8.359051,4.9879503
1680014649467,1194637822643380,-0.018000001,8.46,5.09595
1680014649469,1194637825145610,0.087000005,8.458051,5.02005
1680014649472,1194637827648072,0.09705,8.44095,5.103
1680014649476,1194637830150452,0.075,8.44095,5.0820003
1680014649477,1194637832652913,0.123,8.38605,5.1010504
1680014649479,1194637835155144,-0.010950001,8.46195,5.00505
1680014649483,1194637837657515,0.051000003,8.412001,4.986
1680014649485,1194637840159745,-0.0010500001,8.37405,5.02005
1680014649487,1194637842662207,0.040050004,8.48595,5.03595
1680014649489,1194637845164592,-0.025050001,8.470051,5.1199503
1680014649492,1194637847666822,0.054,8.488951,5.0269504
1680014649494,1194637850169293,0.03195,8.476951,5.0170503
1680014649497,1194637852671677,0.03705,8.448,5.0290504
1680014649499,1194637855173908,0.042000003,8.472,5.0989504
1680014649502,1194637857676370,-0.018000001,8.48205,4.9740005
1680014649504,1194637860178754,0.010950001,8.439,5.0290504
1680014649507,1194637862680985,0.11595,8.332951,5.0170503
1680014649509,1194637865183370,0.06105,8.48595,5.08395
1680014649514,1194637867685831,0.010950001,8.51805,5.1439505
1680014649516,1194637870188043,0.043950003,8.3880005,5.0560503
1680014649518,1194637872690505,0.016050002,8.503051,5.0680504
1680014649522,1194637875192889,0.018000001,8.39295,4.8949504
1680014649524,1194637877695120,-0.00795,8.4529505,4.998
1680014649526,1194637880197495,0.07305,8.412001,4.93305
1680014649528,1194637882699956,0.09195001,8.38305,5.0149503
1680014649529,1194637885202110,0.063,8.467051,4.9960504
1680014649532,1194637887704649,0.04695,8.307,5.0680504
1680014649534,1194637890207033,0.066,8.38095,5.0080504
1680014649537,1194637892709245,0.09900001,8.464951,4.90005
1680014649539,1194637895211630,0.11100001,8.40705,5.046
1680014649542,1194637897713860,0.08295,8.451,4.9840503
1680014649544,1194637900216322,0.063,8.42895,4.9240503
1680014649547,1194637902718712,0.03705,8.356951,4.998
1680014649551,1194637905221173,0.022950001,8.3880005,5.10795
1680014649553,1194637907723404,0.006,8.467051,5.1439505
1680014649555,1194637910225793,0.028050002,8.359051,4.9740005
1680014649557,1194637912728024,0.040050004,8.36205,4.9360504
1680014649559,1194637915230409,0.028050002,8.451,5.09595
1680014649562,1194637917732870,-0.010950001,8.34,5.0680504
1680014649564,1194637920235332,-0.058950003,8.42205,4.9740005
1680014649567,1194637922737563,-0.022950001,8.344951,5.1199503
1680014649569,1194637925239947,0.07305,8.41905,5.00295
1680014649572,1194637927742178,0.028050002,8.43105,5.13705
1680014649574,1194637930244563,0.058950003,8.352,4.986
1680014649577,1194637932746798,0.018000001,8.400001,5.00295
1680014649579,1194637935249259,-0.049050003,8.371051,4.94805
1680014649582,1194637937751721,0.0010500001,8.470051,4.9840503
1680014649584,1194637940254105,0.034950003,8.45505,5.1270003
1680014649588,1194637942756327,-0.01305,8.467051,4.9549503
1680014649590,1194637945258712,-0.018000001,8.45505,5.03205
1680014649593,1194637947760942,-0.00405,8.39805,5.0389504
1680014649595,1194637950263635,0.054,8.434051,5.0479503
1680014649596,1194637952765789,0.0010500001,8.470051,5.0820003
1680014649599,1194637955268259,0.018000001,8.44305,5.12505
1680014649602,1194637957770490,0.03195,8.42895,5.02005
1680014649605,1194637960272874,0.043950003,8.316,5.07
1680014649607,1194637962775105,0.063,8.39805,5.02395
1680014649610,1194637965277587,0.03195,8.39505,5.0719504
1680014649612,1194637967780048,0.034950003,8.458051,5.05095
1680014649614,1194637970282202,0.016050002,8.446051,5.1060004
1680014649617,1194637972784664,0.03195,8.46,5.1060004
1680014649619,1194637975287048,0.066,8.364,5.0989504
1680014649622,1194637977789279,-0.03195,8.458051,5.05305
1680014649626,1194637980291741,0.030000001,8.39295,5.1319504
1680014649628,1194637982794125,0.00405,8.39505,5.0290504
1680014649629,1194637985296587,0.034950003,8.424001,5.0340004
1680014649632,1194637987798789,0.06795,8.434051,5.046
1680014649634,1194637990301173,0.05595,8.40705,4.99095
1680014649637,1194637992803404,-0.079950005,8.39505,4.9879503
1680014649640,1194637995305866,-0.028050002,8.379001,4.9500003
1680014649643,1194637997808235,-0.03705,8.3880005,4.986
1680014649644,1194638000310466,0.006,8.42205,5.0149503
1680014649647,1194638002812851,-0.006,8.356951,5.07495
1680014649649,1194638005315312,0.03705,8.335951,4.965
1680014649652,1194638007817490,-0.042000003,8.41005,5.10795
1680014649656,1194638010320028,0.054,8.391001,5.03595
1680014649657,1194638012822413,0.016050002,8.400001,5.05095
1680014649660,1194638015324644,-0.042000003,8.39505,5.0479503
1680014649664,1194638017827028,-0.01995,8.500951,5.0080504
1680014649666,1194638020329259,-0.05595,8.40705,5.03595
1680014649667,1194638022831721,0.006,8.42205,5.07
1680014649670,1194638025334182,-0.0010500001,8.42895,5.02005
1680014649673,1194638027836563,-0.0010500001,8.464951,5.0940003
1680014649678,1194638030338794,-0.08505,8.42205,4.99305
1680014649678,1194638032841178,-0.022950001,8.391001,4.998
1680014649679,1194638035343409,-0.042000003,8.352,4.9669504
1680014649682,1194638037845784,-0.03705,8.434051,4.9960504
1680014649690,1194638040348322,-0.016050002,8.42205,5.0869503
1680014649690,1194638042850707,-0.102000006,8.415,4.9500003
1680014649690,1194638045352938,0.043950003,8.439,5.0389504
1680014649692,1194638047855322,0.025050001,8.38305,5.03205
1680014649694,1194638050357563,0.010950001,8.367001,5.0269504
1680014649697,1194638052859948,0.0010500001,8.43105,5.07
1680014649701,1194638055362486,-0.06105,8.44095,4.938
1680014649703,1194638057864890,0.06105,8.448,4.9410005
1680014649705,1194638060367121,0.051000003,8.464951,5.09595
1680014649707,1194638062869505,-0.025050001,8.464951,5.00295
1680014649709,1194638065371736,0.087000005,8.3880005,5.0940003
1680014649712,1194638067874121,0.043950003,8.451,5.0269504
1680014649715,1194638070376562,0.040050004,8.42205,5.02005
1680014649717,1194638072879024,0.08295,8.43105,5.0479503
1680014649720,1194638075381177,0.018000001,8.44305,5.103
1680014649722,1194638077883639,0.06105,8.344951,5.1109505
1680014649724,1194638080385870,0.058950003,8.46,5.0890503
1680014649727,1194638082888269,0.066,8.403001,5.05305
1680014649731,1194638085390731,-0.03195,8.376,5.0220003
1680014649732,1194638087892962,0.03195,8.470051,5.04405
1680014649735,1194638090395423,0.010950001,8.40495,5.0560503
1680014649738,1194638092897813,0.054,8.521951,5.0599504
1680014649740,1194638095400044,0.063,8.302051,5.0680504
1680014649743,1194638097902428,-0.01305,8.3880005,4.97895
1680014649745,1194638100404890,-0.028050002,8.3880005,5.18505
1680014649748,1194638102907130,-0.08505,8.328,5.0820003
1680014649750,1194638105409514,0.022950001,8.359051,4.9549503
1680014649752,1194638107911976,0.058950003,8.415,5.0410504
1680014649756,1194638110414198,0.028050002,8.46,5.05095
1680014649757,1194638112916582,-0.08505,8.446051,4.9999504
1680014649759,1194638115419044,-0.08295,8.458051,4.9429502
1680014649763,1194638117921274,0.018000001,8.497951,4.87095
1680014649765,1194638120423659,0.04695,8.451,4.88805
1680014649767,1194638122925894,0.030000001,8.464951,4.881
1680014649770,1194638125428279,-0.010950001,8.367001,5.0599504
1680014649773,1194638127930740,-0.016050002,8.448,4.9669504
1680014649776,1194638130433202,0.0010500001,8.34,4.9020004
1680014649778,1194638132935413,0.006,8.307,5.118
1680014649780,1194638135437798,0.0010500001,8.476951,5.046
1680014649783,1194638137940029,0.018000001,8.36205,5.0290504
1680014649785,1194638140442413,0.054,8.39295,4.97895
1680014649788,1194638142944644,0.07095,8.3550005,4.986
1680014649789,1194638145447326,-0.016050002,8.415,5.0599504
1680014649792,1194638147949557,0.022950001,8.43105,5.0389504
1680014649795,1194638150451942,0.006,8.38095,5.07495
1680014649797,1194638152954173,0.028050002,8.376,4.99305
1680014649800,1194638155456572,0.022950001,8.39295,5.046
1680014649803,1194638157959034,0.075,8.43105,4.9840503
1680014649804,1194638160461495,0.126,8.38095,5.06295
1680014649807,1194638162963726,0.11895001,8.38605,4.9879503
1680014649810,1194638165466111,0.01995,8.332951,5.0680504
1680014649814,1194638167968342,0.102000006,8.3880005,5.06295
1680014649815,1194638170470726,0.087000005,8.331,5.0790005
1680014649817,1194638172972957,0.066,8.2900505,5.0149503
1680014649820,1194638175475418,0.066,8.316,5.00505
1680014649823,1194638177977880,0.09705,8.323951,5.08395
1680014649824,1194638180480034,0.08505,8.302051,4.98105
1680014649827,1194638182982495,0.07305,8.356951,5.0389504
1680014649830,1194638185484880,0.10395,8.44095,5.09595
1680014649832,1194638187987096,0.08295,8.39805,5.1130505
1680014649835,1194638190489557,0.054,8.34795,5.00295
1680014649837,1194638192991942,0.040050004,8.38095,5.00505
1680014649840,1194638195494404,-0.018000001,8.472,5.0820003
1680014649842,1194638197996668,0.09705,8.544001,4.90005
1680014649845,1194638200499053,0.040050004,8.54895,4.9759502
1680014649847,1194638203001284,-0.016050002,8.556001,4.9360504
1680014649852,1194638205503735,0.03195,8.500951,4.9090505
1680014649855,1194638208006120,-0.058950003,8.491051,4.9669504
1680014649856,1194638210508351,-0.049050003,8.49405,4.986
1680014649857,1194638213010812,-0.054,8.44305,4.953
1680014649860,1194638215513197,0.0010500001,8.556001,5.01195
1680014649864,1194638218015379,-0.010950001,8.439,4.9170003
1680014649865,1194638220517840,-0.058950003,8.467051,5.01
1680014649868,1194638223020225,-0.03705,8.39805,5.12295
1680014649871,1194638225522456,-0.01305,8.52705,5.01
1680014649872,1194638228024840,-0.066,8.472,5.02395
1680014649875,1194638230527273,0.010950001,8.39505,5.0820003
1680014649877,1194638233029503,0.09,8.476951,5.05305
1680014649880,1194638235531965,0.09,8.470051,4.938
1680014649882,1194638238034350,0.102000006,8.434051,4.986
1680014649885,1194638240536604,0.054,8.3880005,4.953
1680014649889,1194638243038989,0.07305,8.4529505,5.1199503
1680014649891,1194638245541451,0.06105,8.44095,4.9360504
1680014649893,1194638248043604,0.11595,8.434051,5.0080504
1680014649895,1194638250546124,0.13095,8.436001,4.998
1680014649897,1194638253048509,0.16905001,8.509951,5.1730504
1680014649899,1194638255550739,0.11895001,8.458051,5.05305
1680014649902,1194638258053124,0.15900001,8.439,5.1199503
1680014649904,1194638260555341,0.20505,8.39505,5.1109505
1680014649907,1194638263057802,0.13095,8.48205,5.02395
1680014649909,1194638265560264,0.15405001,8.497951,4.9620004
1680014649912,1194638268062648,0.12795001,8.415,5.06505
1680014649914,1194638270564879,0.147,8.40705,5.0680504
1680014649917,1194638273067244,0.109050006,8.424001,5.00295
1680014649920,1194638275569475,0.17595,8.45505,5.10795
1680014649923,1194638278071859,0.08505,8.48595,5.00505
1680014649926,1194638280574345,0.15,8.412001,5.08395
1680014649928,1194638283076806,0.043950003,8.427,5.04405
1680014649930,1194638285579037,-0.022950001,8.48595,5.0599504
1680014649932,1194638288081422,0.12795001,8.553,5.04405
1680014649935,1194638290583652,0.123,8.391001,5.08395
1680014649937,1194638293086033,0.109050006,8.53905,4.99305
1680014649940,1194638295588495,0.094950005,8.48595,5.0790005
1680014649943,1194638298090725,0.075,8.412001,5.05095
1680014649945,1194638300593187,0.09195001,8.352,5.0080504
1680014649947,1194638303095572,0.11100001,8.3880005,5.12295
1680014649950,1194638305597802,0.054,8.44095,4.99305
1680014649953,1194638308100187,0.06795,8.38305,5.0389504
1680014649955,1194638310602648,0.07095,8.4529505,5.06505
1680014649957,1194638313105114,0.058950003,8.35005,5.1130505
1680014649960,1194638315607268,0.006,8.39805,5.02005
1680014649964,1194638318109729,0.066,8.50605,4.998
1680014649966,1194638320611960,0.14205001,8.446051,5.08395
1680014649967,1194638323114345,0.010950001,8.37405,5.00505
1680014649970,1194638325616801,0.06795,8.37405,4.9500003
1680014649973,1194638328119032,0.14505,8.415,4.998
1680014649975,1194638330621494,0.126,8.424001,5.02005
1680014649977,1194638333123648,0.07305,8.43105,5.06505
1680014649980,1194638335626114,0.022950001,8.39505,5.06295
1680014649983,1194638338128499,0.051000003,8.436001,5.0340004
1680014649985,1194638340630960,0.049050003,8.42895,4.93095
1680014649988,1194638343133191,0.058950003,8.49405,4.9090505
1680014649990,1194638345635562,0.10395,8.448,5.0080504
1680014649993,1194638348137792,-0.06105,8.451,5.0890503
1680014649995,1194638350640254,0.123,8.439,4.914
1680014649997,1194638353142408,0.03195,8.472,5.05305
1680014650001,1194638355645119,-0.042000003,8.476951,4.97895
1680014650004,1194638358147350,0.042000003,8.434051,5.09595
1680014650005,1194638360649735,0.018000001,8.49405,4.9960504
1680014650007,1194638363151965,-0.010950001,8.508,5.0560503
1680014650010,1194638365654340,0.010950001,8.427,4.9500003
1680014650012,1194638368156801,-0.018000001,8.46195,5.1109505
1680014650015,1194638370659263,0.01305,8.43105,5.02005
1680014650017,1194638373161494,0.0010500001,8.424001,5.05305
1680014650020,1194638375663902,-0.006,8.451,4.965
1680014650023,1194638378166133,0.03195,8.464951,5.01195
1680014650025,1194638380668518,-0.018000001,8.436001,5.0340004
1680014650027,1194638383170749,0.04695,8.40705,5.0290504
1680014650031,1194638385673446,0.025050001,8.41905,5.0290504
1680014650033,1194638388175677,0.01305,8.51505,5.0080504
1680014650035,1194638390678061,0.051000003,8.415,4.9669504
1680014650039,1194638393180215,-0.030000001,8.458051,5.06295
1680014650040,1194638395682754,0.043950003,8.424001,4.8970504
1680014650043,1194638398185138,0.034950003,8.434051,4.9120502
1680014650045,1194638400687369,-0.016050002,8.379001,5.0269504
1680014650048,1194638403189754,0.06795,8.44095,4.986
1680014650050,1194638405691984,-0.00795,8.479051,4.986
1680014650053,1194638408194417,0.042000003,8.379001,4.99095
1680014650056,1194638410696802,0.03705,8.484,5.06505
1680014650057,1194638413199263,0.040050004,8.46195,5.0820003
1680014650060,1194638415701494,0.04695,8.34795,4.90005
1680014650063,1194638418203889,0.07095,8.356951,5.05305
1680014650065,1194638420706119,-0.01305,8.415,4.9879503
1680014650067,1194638423208504,0.06795,8.472,4.998
1680014650070,1194638425710965,0.11400001,8.42205,4.9840503
1680014650072,1194638428213441,0.08295,8.451,4.9690504
1680014650076,1194638430715595,0.058950003,8.323951,4.9740005
1680014650078,1194638433218056,0.15195,8.434051,4.87605
1680014650080,1194638435720287,0.123,8.439,5.0599504
1680014650083,1194638438222692,0.13095,8.48595,4.986
1680014650085,1194638440725153,0.09195001,8.467051,5.06505
1680014650087,1194638443227384,0.09,8.436001,5.0080504
1680014650090,1194638445729846,0.040050004,8.436001,5.06505
1680014650092,1194638448232239,0.09705,8.470051,5.04405
1680014650095,1194638450734470,0.0010500001,8.458051,4.9570503
1680014650097,1194638453236855,0.13305001,8.39295,4.9960504
1680014650100,1194638455739316,0.12105001,8.43105,5.0340004
1680014650102,1194638458241547,0.0010500001,8.39505,5.0820003
1680014650105,1194638460743932,0.109050006,8.53005,5.01
1680014650107,1194638463246162,0.079950005,8.470051,5.0220003
1680014650111,1194638465748624,0.058950003,8.44095,5.0410504
1680014650114,1194638468251023,0.126,8.376,4.9690504
1680014650116,1194638470753484,0.078,8.44305,4.9500003
1680014650118,1194638473255715,0.10395,8.39805,5.13495
1680014650120,1194638475758099,0.09900001,8.379001,5.02395
1680014650123,1194638478260330,0.126,8.50605,5.1109505
1680014650125,1194638480762715,0.13305001,8.41695,5.0290504
1680014650127,1194638483265176,0.14505,8.451,5.1610503
1680014650130,1194638485767638,0.028050002,8.458051,5.0680504
1680014650133,1194638488269869,0.07095,8.439,5.06505
1680014650135,1194638490772268,0.06795,8.467051,5.03595
1680014650137,1194638493274499,0.15405001,8.415,5.02395
1680014650140,1194638495776961,0.11595,8.338051,4.9960504
1680014650143,1194638498279115,0.06105,8.446051,5.00295
1680014650145,1194638500781792,0.08295,8.42205,5.09595
1680014650148,1194638503284023,0.08295,8.30895,5.0560503
1680014650152,1194638505786407,0.054,8.39505,5.08395
1680014650156,1194638508288638,-0.01995,8.38305,5.0170503
1680014650156,1194638510791018,0.102000006,8.39505,5.058
1680014650158,1194638513293479,-0.00405,8.38605,4.938
1680014650160,1194638515795710,-0.01995,8.503051,5.07
1680014650163,1194638518298095,-0.034950003,8.48595,4.9120502
1680014650165,1194638520800556,-0.010950001,8.484,4.99305
1680014650169,1194638523302783,-0.063,8.44095,4.97895
1680014650170,1194638525805168,-0.12795001,8.343,4.998
1680014650172,1194638528307398,-0.12795001,8.415,4.9410005
1680014650175,1194638530809783,-0.06795,8.48205,4.9690504
1680014650177,1194638533312321,-0.075,8.48595,4.965
1680014650180,1194638535814484,-0.034950003,8.439,5.0080504
1680014650183,1194638538316946,-0.049050003,8.470051,5.0269504
1680014650185,1194638540819330,-0.063,8.52705,4.8780003
1680014650189,1194638543321561,-0.087000005,8.500951,4.99095
1680014650191,1194638545823941,-0.06795,8.500951,4.94805
1680014650193,1194638548326402,-0.03195,8.451,5.0080504
1680014650195,1194638550828864,-0.06105,8.40705,5.0479503
1680014650198,1194638553331018,-0.08505,8.497951,5.0560503
1680014650200,1194638555833479,0.010950001,8.44095,5.0869503
1680014650203,1194638558335750,0.09705,8.368951,5.1610503
1680014650210,1194638560838135,0.09705,8.43105,5.118
1680014650210,1194638563340596,0.126,8.364,5.07705
1680014650211,1194638565842827,0.11400001,8.371051,5.12295
1680014650213,1194638568345231,0.11100001,8.45505,5.103
1680014650215,1194638570847692,0.10395,8.376,5.0940003
1680014650217,1194638573349923,0.17805001,8.41695,5.13
1680014650220,1194638575852308,0.15,8.44305,5.091
1680014650223,1194638578354783,0.147,8.39505,5.17005
1680014650226,1194638580857014,0.15,8.44095,5.02395
1680014650228,1194638583359399,0.19305001,8.446051,5.03595
1680014650230,1194638585861629,0.171,8.46195,5.02395
1680014650232,1194638588364091,0.09705,8.467051,5.0340004
1680014650235,1194638590866471,0.14505,8.424001,5.00505
1680014650238,1194638593368933,0.10395,8.359051,5.07
1680014650240,1194638595871164,0.11595,8.427,5.058
1680014650243,1194638598373548,0.09900001,8.415,5.00295
1680014650245,1194638600875784,0.15195,8.509951,5.0599504
1680014650248,1194638603378169,0.07305,8.476951,5.04405
1680014650250,1194638605880400,0.10695001,8.47395,4.9570503
1680014650252,1194638608383092,0.018000001,8.446051,5.03595
1680014650255,1194638610885298,0.075,8.39505,5.0869503
1680014650258,1194638613387682,0.11895001,8.53695,5.0269504
1680014650260,1194638615889913,0.040050004,8.509951,5.0940003
1680014650264,1194638618392298,0.03705,8.3550005,5.0080504
1680014650266,1194638620894504,-0.07095,8.40705,5.08395
1680014650267,1194638623396966,-0.01995,8.424001,5.0170503
1680014650270,1194638625899428,0.03195,8.434051,5.1130505
1680014650272,1194638628401812,0.03195,8.302051,5.0340004
1680014650275,1194638630904043,0.09705,8.472,5.0290504
1680014650277,1194638633406428,0.00405,8.434051,5.0599504
1680014650280,1194638635908658,0.040050004,8.424001,5.091
1680014650283,1194638638411351,0.075,8.27295,5.00505
1680014650285,1194638640913505,0.034950003,8.451,5.1199503
1680014650288,1194638643415962,0.00795,8.403001,4.9570503
1680014650290,1194638645918193,-0.028050002,8.42895,4.93095
1680014650293,1194638648420577,0.016050002,8.323951,4.9240503
1680014650295,1194638650922808,-0.028050002,8.434051,4.9669504
1680014650298,1194638653425270,0.06795,8.41005,4.96005
1680014650302,1194638655927663,0.049050003,8.403001,4.9669504
1680014650304,1194638658430125,0.018000001,8.371051,4.96005
1680014650306,1194638660932356,-0.028050002,8.415,4.9120502
1680014650308,1194638663434740,-0.022950001,8.40495,4.854
1680014650313,1194638665936976,0.0010500001,8.40495,4.8619504
1680014650313,1194638668439438,-0.07305,8.379001,4.965
1680014650315,1194638670941822,-0.018000001,8.42205,4.96005
1680014650318,1194638673444053,-0.030000001,8.415,4.9840503
1680014650320,1194638675946525,-0.08505,8.400001,4.9090505
1680014650323,1194638678448678,-0.03705,8.371051,4.84005
1680014650325,1194638680951140,0.016050002,8.403001,4.90005
1680014650327,1194638683453602,-0.102000006,8.41695,4.905
1680014650330,1194638685955990,-0.010950001,8.40495,4.881
1680014650333,1194638688458221,-0.05595,8.403001,4.9500003
1680014650335,1194638690960606,0.00405,8.40705,4.9549503
1680014650340,1194638693463048,0.022950001,8.415,5.01
1680014650341,1194638695965279,-0.11100001,8.38095,4.953
1680014650344,1194638698467663,-0.09195001,8.38095,5.00505
1680014650346,1194638700970125,0.03705,8.439,4.9999504
1680014650348,1194638703472356,0.042000003,8.46,5.01195
1680014650351,1194638705974706,-0.034950003,8.436001,5.0080504
1680014650353,1194638708476937,0.11595,8.41905,5.05095
1680014650355,1194638710979322,0.030000001,8.509951,4.9960504
1680014650358,1194638713481860,0.03195,8.43105,5.0389504
1680014650360,1194638715984014,0.09,8.484,5.00505
1680014650363,1194638718486471,0.109050006,8.509951,5.02005
1680014650365,1194638720988855,0.04695,8.391001,5.0719504
1680014650369,1194638723491086,0.12105001,8.497951,5.0149503
1680014650372,1194638725993471,0.13800001,8.491051,4.9170003
1680014650374,1194638728495928,0.12105001,8.47395,5.0940003
1680014650377,1194638730998390,0.171,8.39505,4.9759502
1680014650378,1194638733500621,0.11895001,8.48205,4.9120502
1680014650380,1194638736003005,0.109050006,8.50605,5.0719504
1680014650383,1194638738505202,0.135,8.476951,5.0080504
1680014650385,1194638741007587,0.078,8.439,5.118
1680014650388,1194638743510125,0.135,8.48205,5.0940003
1680014650390,1194638746012279,0.10695001,8.451,5.05305
1680014650392,1194638748514740,0.10395,8.58195,5.151
1680014650395,1194638751017125,0.075,8.532001,5.05095
1680014650398,1194638753519356,0.15195,8.41695,5.103
1680014650400,1194638756021740,0.09900001,8.508,5.1010504
1680014650403,1194638758524202,0.13305001,8.533951,5.02395
1680014650405,1194638761026433,0.126,8.521951,5.07495
1680014650407,1194638763528894,0.09900001,8.500951,5.118
1680014650410,1194638766031048,0.17805001,8.47395,5.0820003
1680014650414,1194638768533490,0.051000003,8.497951,5.0790005
1680014650416,1194638771035874,0.126,8.556001,5.01195
1680014650418,1194638773538336,0.13095,8.49405,4.98105
1680014650420,1194638776040567,0.14205001,8.54895,5.046
1680014650423,1194638778542951,0.08505,8.479051,4.998
1680014650425,1194638781045409,0.06105,8.500951,5.0719504
1680014650428,1194638783547563,0.11100001,8.484,4.998
1680014650430,1194638786050024,0.09,8.56305,4.9290004
1680014650433,1194638788552486,0.00795,8.46,4.953
1680014650437,1194638791054731,0.054,8.470051,5.03595
1680014650440,1194638793557115,0.109050006,8.500951,5.02395
1680014650441,1194638796059346,0.07305,8.601001,4.9620004
1680014650443,1194638798561731,0.09195001,8.376,4.9570503
1680014650445,1194638801064192,-0.022950001,8.42205,5.0389504
1680014650448,1194638803566664,-0.03195,8.491051,5.02395
1680014650452,1194638806068894,0.051000003,8.41005,5.03205
1680014650454,1194638808571279,-0.016050002,8.451,4.9740005
1680014650456,1194638811073510,-0.043950003,8.46,4.9690504
1680014650458,1194638813575884,0.12795001,8.42895,4.9740005
1680014650460,1194638816078115,0.10395,8.448,5.05305
1680014650465,1194638818580808,0.06105,8.35005,4.905
1680014650466,1194638821082961,-0.066,8.42895,4.99305
1680014650468,1194638823585409,0.079950005,8.352,5.04405
1680014650472,1194638826087640,0.01995,8.3880005,5.03595
1680014650474,1194638828590024,0.08295,8.40705,5.0479503
1680014650475,1194638831092255,0.042000003,8.3550005,4.998
1680014650478,1194638833594717,0.075,8.40495,4.998
1680014650480,1194638836097178,0.016050002,8.43105,4.97205
1680014650484,1194638838599563,0.058950003,8.458051,4.9450502
1680014650486,1194638841101794,0.10395,8.49405,5.0149503
1680014650489,1194638843604168,-0.00405,8.371051,4.9570503
1680014650492,1194638846106399,0.03195,8.35005,4.94805
1680014650494,1194638848608861,0.04695,8.38605,5.0719504
1680014650495,1194638851111245,0.022950001,8.45505,5.03595
1680014650498,1194638853613476,0.15,8.42895,5.07495
1680014650500,1194638856115942,0.05595,8.415,4.97895
1680014650503,1194638858618327,0.08505,8.48595,5.00295
1680014650505,1194638861120558,0.14505,8.44305,4.9620004
1680014650508,1194638863623019,0.15900001,8.403001,4.9360504
1680014650510,1194638866125404,0.10395,8.53695,5.00505
1680014650513,1194638868627654,0.066,8.40495,4.986
1680014650515,1194638871130038,0.15705001,8.4529505,4.8520503
1680014650519,1194638873632500,0.135,8.458051,5.03205
1680014650521,1194638876134731,0.13995,8.451,4.9879503
1680014650523,1194638878637197,0.11100001,8.44095,4.9669504
1680014650527,1194638881139582,0.126,8.391001,5.0080504
1680014650528,1194638883641813,0.087000005,8.40495,4.8829503
1680014650530,1194638886144274,0.11400001,8.48595,4.914
1680014650533,1194638888646437,0.102000006,8.436001,4.9570503
1680014650536,1194638891148899,0.03705,8.44305,5.0170503
1680014650538,1194638893651360,0.09705,8.484,4.9840503
1680014650542,1194638896153745,0.0010500001,8.464951,4.9759502
1680014650544,1194638898655956,0.03705,8.464951,4.965
1680014650545,1194638901158340,0.06105,8.48205,4.96005
1680014650548,1194638903660571,0.08295,8.41905,4.9690504
1680014650550,1194638906163033,0.040050004,8.53005,5.0820003
1680014650553,1194638908665533,0.08295,8.488951,4.926
1680014650555,1194638911167918,0.12795001,8.41005,4.9999504
1680014650558,1194638913670148,0.12795001,8.521951,5.05305
1680014650560,1194638916172533,0.09,8.496,4.97895
1680014650566,1194638918674744,0.08295,8.446051,4.93305
1680014650567,1194638921177128,0.14205001,8.470051,5.0790005
1680014650569,1194638923679667,0.051000003,8.415,4.94805
1680014650571,1194638926182052,0.09705,8.400001,4.9410005
1680014650574,1194638928684282,0.11895001,8.484,4.9879503
1680014650576,1194638931186648,0.12795001,8.39805,5.02005
1680014650578,1194638933688879,0.06105,8.458051,4.9410005
1680014650581,1194638936191263,0.15,8.53905,4.8900003
1680014650584,1194638938693725,0.07095,8.476951,4.998
1680014650586,1194638941196201,0.11895001,8.458051,5.12295
1680014650590,1194638943698432,0.11400001,8.509951,4.998
1680014650592,1194638946200586,0.123,8.472,4.9450502
1680014650594,1194638948703048,0.087000005,8.48595,5.05095
1680014650596,1194638951205432,0.063,8.458051,5.0410504
1680014650598,1194638953707898,0.079950005,8.470051,5.0170503
1680014650603,1194638956210129,0.078,8.488951,5.13495
1680014650606,1194638958712513,0.094950005,8.52705,5.0340004
1680014650607,1194638961214970,0.063,8.51295,5.0080504
1680014650608,1194638963717201,0.09,8.46195,5.0680504
1680014650611,1194638966219585,0.06105,8.497951,5.1109505
1680014650613,1194638968722047,0.06795,8.496,5.0389504
1680014650616,1194638971224277,0.12105001,8.38305,5.04405
1680014650618,1194638973726711,0.126,8.48205,5.0869503
1680014650620,1194638976228865,0.079950005,8.44305,5.1199503
1680014650624,1194638978731326,0.030000001,8.49405,4.986
1680014650626,1194638981233711,0.058950003,8.46,5.06505
1680014650628,1194638983736187,0.030000001,8.46,5.0560503
1680014650630,1194638986238417,0.13095,8.4529505,5.01
1680014650633,1194638988740802,0.07305,8.464951,5.07
1680014650636,1194638991243033,0.058950003,8.46,5.1010504
1680014650639,1194638993745422,0.022950001,8.39805,5.13705
1680014650642,1194638996247884,0.034950003,8.40705,5.0940003
1680014650644,1194638998750345,0.03195,8.44095,5.118
1680014650646,1194639001252576,-0.00405,8.46,5.091
1680014650648,1194639003754961,0.022950001,8.49405,5.0410504
1680014650651,1194639006257177,0.11895001,8.38605,5.13
1680014650653,1194639008759561,0.01995,8.448,5.07495
1680014650655,1194639011262023,-0.01305,8.48205,5.103
1680014650658,1194639013764254,0.010950001,8.476951,5.0790005
1680014650660,1194639016266730,0.049050003,8.379001,5.10795
1680014650663,1194639018769115,0.03705,8.48595,5.01
1680014650665,1194639021271345,0.018000001,8.484,5.1109505
1680014650668,1194639023773730,0.040050004,8.368951,5.06505
1680014650670,1194639026275956,0.13095,8.38095,5.046
1680014650675,1194639028778417,0.03195,8.311951,5.00505
1680014650677,1194639031280802,0.06795,8.476951,4.96005
1680014650679,1194639033783264,0.043950003,8.47395,4.9690504
1680014650680,1194639036285494,0.06105,8.4529505,5.0149503
1680014650683,1194639038787865,0.09,8.467051,4.9410005
1680014650686,1194639041290096,0.11100001,8.439,4.9429502
1680014650688,1194639043792557,0.10395,8.38305,4.9840503
1680014650691,1194639046294942,0.11895001,8.488951,5.0149503
1680014650693,1194639048797417,0.10395,8.44305,4.9740005
1680014650695,1194639051299571,0.13995,8.424001,4.9740005
1680014650698,1194639053802033,0.09195001,8.446051,5.07495
1680014650701,1194639056304264,0.18795002,8.371051,5.02005
1680014650703,1194639058806735,0.11400001,8.39505,5.091
1680014650706,1194639061309120,0.15405001,8.356951,4.94805
1680014650708,1194639063811351,0.14205001,8.44095,5.0719504
1680014650711,1194639066313812,0.11100001,8.40705,4.99095
1680014650715,1194639068816222,0.13305001,8.3550005,5.10795
1680014650717,1194639071318453,0.15,8.26605,5.01195
1680014650719,1194639073820837,0.15,8.400001,5.05095
1680014650721,1194639076323294,0.13305001,8.491051,4.998
1680014650724,1194639078825524,0.147,8.458051,5.03595
1680014650725,1194639081327909,0.12105001,8.38095,4.94805
1680014650728,1194639083830140,0.075,8.41905,5.08395
1680014650731,1194639086332601,0.162,8.415,5.01
1680014650733,1194639088835014,0.028050002,8.3880005,5.0269504
1680014650736,1194639091337476,0.06795,8.368951,4.9620004
1680014650738,1194639093839706,0.06795,8.434051,5.0479503
1680014650741,1194639096342091,0.028050002,8.391001,4.9999504
1680014650743,1194639098844356,0.11895001,8.467051,5.06295
1680014650746,1194639101346740,0.06795,8.415,5.0599504
1680014650748,1194639103849202,0.13800001,8.352,4.9840503
1680014650752,1194639106351653,-0.00405,8.391001,4.9549503
1680014650754,1194639108853884,0.010950001,8.448,4.9690504
1680014650756,1194639111356269,0.018000001,8.39295,4.9549503
1680014650758,1194639113858500,0.01995,8.503051,4.9740005
1680014650761,1194639116360884,0.07305,8.467051,4.9429502
1680014650763,1194639118863120,-0.043950003,8.476951,4.96005
1680014650766,1194639121365582,0.022950001,8.458051,4.9410005
1680014650768,1194639123868043,0.025050001,8.451,5.0599504
1680014650771,1194639126370428,0.040050004,8.40495,4.9549503
1680014650773,1194639128872659,-0.010950001,8.42205,5.0080504
1680014650778,1194639131375058,0.030000001,8.42205,4.93095
1680014650779,1194639133877289,0.043950003,8.47395,4.9669504
1680014650781,1194639136379981,0.06105,8.359051,4.9410005
1680014650784,1194639138882135,0.054,8.4529505,5.03205
1680014650786,1194639141384630,-0.016050002,8.451,4.8829503
1680014650790,1194639143886860,0.063,8.46,4.9090505
1680014650792,1194639146389245,0.022950001,8.479051,4.87395
1680014650794,1194639148891476,0.051000003,8.40705,4.8349504
1680014650797,1194639151393937,0.054,8.38305,5.00505
1680014650799,1194639153896399,0.051000003,8.508,4.93095
1680014650802,1194639156398553,0.102000006,8.391001,4.9429502
1680014650804,1194639158901014,0.09705,8.42205,5.0220003
1680014650806,1194639161403414,0.063,8.44305,4.99095
1680014650808,1194639163905645,0.066,8.451,5.05305
1680014650812,1194639166408106,0.04695,8.42205,4.99305
1680014650814,1194639168910491,0.06105,8.464951,4.9690504
1680014650817,1194639171412717,0.040050004,8.403001,5.00295
1680014650818,1194639173915178,0.06105,8.43105,4.9360504
1680014650821,1194639176417332,0.051000003,8.344951,5.02005
1680014650823,1194639178919794,0.051000003,8.34795,5.0869503
1680014650828,1194639181422231,0.063,8.42205,4.9620004
1680014650829,1194639183924616,0.040050004,8.26395,4.99305
1680014650831,1194639186426846,0.03195,8.34795,5.0410504
1680014650834,1194639188929231,0.03705,8.44095,4.9290004
1680014650836,1194639191431693,0.075,8.3550005,5.07495
1680014650839,1194639193933847,0.043950003,8.367001,5.12505
1680014650841,1194639196436385,0.016050002,8.343,5.05095
1680014650844,1194639198938770,-0.049050003,8.34795,4.9570503
1680014650846,1194639201441000,0.01305,8.36205,5.0170503
1680014650849,1194639203943409,-0.0010500001,8.439,4.9410005
1680014650851,1194639206445640,0.09,8.42205,5.0340004
1680014650853,1194639208948024,0.06105,8.41905,5.00295
1680014650856,1194639211450563,0.06795,8.368951,4.99305
1680014650859,1194639213952717,0.06105,8.45505,4.99095
1680014650861,1194639216455178,0.010950001,8.439,5.0479503
1680014650865,1194639218957563,0.04695,8.48205,5.046
1680014650867,1194639221459794,0.09705,8.47395,5.03595
1680014650868,1194639223962178,0.07305,8.42895,5.1150002
1680014650871,1194639226464630,-0.00795,8.503051,5.0989504
1680014650873,1194639228967091,0.034950003,8.503051,5.1870003
1680014650876,1194639231469322,0.043950003,8.44095,5.03205
1680014650878,1194639233971707,0.10695001,8.479051,5.1390004
1680014650881,1194639236473913,0.10395,8.472,5.04405
1680014650883,1194639238976297,0.054,8.415,5.07495
1680014650886,1194639241478836,0.051000003,8.38305,5.1109505
1680014650889,1194639243980989,0.109050006,8.368951,5.1130505
1680014650891,1194639246483364,0.12105001,8.439,5.0340004
1680014650893,1194639248985826,0.08505,8.46195,5.0940003
1680014650896,1194639251488056,0.109050006,8.503051,5.15595
1680014650898,1194639253990441,0.051000003,8.48595,5.02005
1680014650902,1194639256492884,0.109050006,8.38095,5.0790005
1680014650906,1194639258995114,0.109050006,8.472,5.18205
1680014650907,1194639261497499,0.08505,8.352,5.02395
1680014650908,1194639263999730,0.14205001,8.46,5.0940003
1680014650911,1194639266502191,0.102000006,8.39805,5.07495
1680014650913,1194639269004562,0.17805001,8.44095,5.06295
1680014650916,1194639271507023,0.13995,8.476951,5.12295
1680014650918,1194639274009254,0.054,8.446051,5.0269504
1680014650921,1194639276511639,0.11100001,8.521951,5.1060004
1680014650923,1194639279013865,0.17595,8.51295,5.12295
1680014650926,1194639281516326,0.11595,8.4529505,5.06295
1680014650928,1194639284018788,0.16605,8.39295,5.103
1680014650931,1194639286520942,0.135,8.415,5.02395
1680014650934,1194639289023403,0.126,8.42205,4.9960504
1680014650943,1194639291525788,0.14505,8.47395,5.09595
1680014650943,1194639294028019,0.13800001,8.479051,4.99095
1680014650943,1194639296530480,0.17400001,8.500951,5.05305
1680014650944,1194639299032855,0.11400001,8.41695,5.08395
1680014650946,1194639301535316,0.11895001,8.42205,5.0680504
1680014650948,1194639304037470,0.126,8.467051,5.0890503
1680014650951,1194639306539932,0.12795001,8.472,4.9429502
1680014650953,1194639309042162,0.08505,8.44305,4.99095
1680014650956,1194639311544600,0.12105001,8.476951,5.07705
1680014650958,1194639314046985,0.058950003,8.52705,5.1469502
1680014650961,1194639316549215,0.06105,8.379001,5.02005
1680014650963,1194639319051600,0.12105001,8.391001,5.10795
1680014650966,1194639321554062,0.043950003,8.49405,5.03205
1680014650968,1194639324056230,0.04695,8.39295,5.0890503
1680014650971,1194639326558769,0.03195,8.326051,5.07495
1680014650974,1194639329061153,0.087000005,8.434051,5.02005
1680014650977,1194639331563350,0.07305,8.424001,5.0890503
1680014650979,1194639334065735,-0.07095,8.403001,5.1130505
1680014650981,1194639336567966,0.06795,8.42205,4.99095
1680014650984,1194639339070427,0.010950001,8.39805,5.06505
1680014650986,1194639341572889,-0.028050002,8.53905,4.9999504
1680014650989,1194639344075268,-0.028050002,8.3880005,5.0269504
1680014650992,1194639346577499,-0.034950003,8.39505,4.9960504
1680014650994,1194639349079884,0.01305,8.427,5.0479503
1680014650996,1194639351582115,-0.034950003,8.326051,5.0680504
1680014650998,1194639354084499,-0.042000003,8.448,5.046
1680014651001,1194639356586980,0.006,8.43105,4.99095
1680014651004,1194639359089441,-0.010950001,8.415,5.0599504
1680014651006,1194639361591595,-0.018000001,8.44305,5.1109505
1680014651008,1194639364094057,0.054,8.412001,5.05305
1680014651012,1194639366596287,0.079950005,8.39505,5.03205
1680014651018,1194639369098672,0.075,8.403001,5.05305
1680014651018,1194639371601134,-0.01305,8.46,5.06295
1680014651019,1194639374103364,0.09900001,8.41695,4.9669504
1680014651022,1194639376605817,0.12105001,8.451,4.9740005
1680014651023,1194639379108201,0.11895001,8.379001,5.0149503
1680014651026,1194639381610432,0.109050006,8.43105,4.9690504
1680014651028,1194639384112817,0.051000003,8.371051,4.986
1680014651031,1194639386615287,0.04695,8.40705,5.0340004
1680014651033,1194639389117518,0.13995,8.41695,4.9759502
1680014651037,1194639391619903,0.08295,8.565001,4.986
1680014651039,1194639394122134,0.20205002,8.376,5.12295
1680014651041,1194639396624586,0.08295,8.40495,5.03595
1680014651044,1194639399126971,0.147,8.34,5.0790005
1680014651047,1194639401629432,0.162,8.44095,5.046
1680014651048,1194639404131663,0.26205,8.38095,5.1870003
1680014651054,1194639406634047,0.22905001,8.391001,4.9620004
1680014651057,1194639409136508,0.10395,8.41905,5.0940003
1680014651057,1194639411638662,0.171,8.476951,5.0869503
1680014651058,1194639414141124,0.22200002,8.41695,5.1439505
1680014651061,1194639416643585,0.19995001,8.42205,5.07705
1680014651064,1194639419145812,0.17595,8.368951,5.0560503
1680014651068,1194639421648197,0.21195,8.56995,5.118
1680014651069,1194639424150427,0.17595,8.467051,5.08395
1680014651071,1194639426652812,0.094950005,8.503051,5.1270003
1680014651074,1194639429155043,0.162,8.46,5.00505
1680014651076,1194639431657725,0.11100001,8.48205,5.118
1680014651079,1194639434159956,0.12795001,8.496,5.03205
1680014651081,1194639436662340,0.123,8.41905,5.1730504
1680014651084,1194639439164571,0.11400001,8.39805,5.07705
1680014651086,1194639441666956,-0.00795,8.458051,5.1610503
1680014651090,1194639444169187,0.03195,8.42205,5.0389504
1680014651092,1194639446671879,0.07095,8.42895,5.0269504
1680014651094,1194639449174033,0.075,8.38095,5.0389504
1680014651096,1194639451676508,0.042000003,8.364,5.091
1680014651099,1194639454178739,0.054,8.295,5.0389504
1680014651101,1194639456681124,-0.016050002,8.314051,5.07
1680014651104,1194639459183355,0.0010500001,8.335951,5.17995
1680014651106,1194639461685816,0.03705,8.21595,5.0820003
1680014651109,1194639464188278,-0.006,8.307,5.03595
1680014651111,1194639466690431,-0.01305,8.344951,5.0340004
1680014651114,1194639469192893,-0.016050002,8.3880005,4.9020004
1680014651116,1194639471695274,-0.03195,8.34795,5.01195
1680014651119,1194639474197504,0.054,8.343,5.00295
1680014651121,1194639476699966,-0.01995,8.509951,5.1150002
1680014651126,1194639479202351,-0.043950003,8.48595,4.9999504
1680014651127,1194639481704595,0.051000003,8.46,5.0410504
1680014651129,1194639484207057,0.03195,8.503051,4.97895
1680014651131,1194639486709211,0.006,8.424001,5.058
1680014651134,1194639489211672,0.04695,8.42205,4.965
1680014651136,1194639491714100,0.04695,8.4529505,5.0340004
1680014651139,1194639494216484,0.11100001,8.368951,5.103
1680014651141,1194639496718715,0.043950003,8.400001,5.03595
1680014651144,1194639499221100,0.17400001,8.37405,5.0890503
1680014651146,1194639501723580,0.135,8.35005,5.03205
1680014651149,1194639504225811,0.102000006,8.367001,5.142
1680014651152,1194639506728273,0.09705,8.427,4.9360504
1680014651154,1194639509230657,0.14205001,8.40495,5.0340004
1680014651156,1194639511732888,0.21195,8.40495,5.0410504
1680014651158,1194639514235288,0.13800001,8.47395,5.0269504
1680014651162,1194639516737519,0.14505,8.427,5.1439505
1680014651165,1194639519239903,0.13305001,8.352,5.0389504
1680014651167,1194639521742456,0.21705002,8.40705,5.1109505
1680014651168,1194639524244609,0.15195,8.451,5.07705
1680014651172,1194639526747071,0.32700002,8.46195,5.05305
1680014651174,1194639529249456,0.23595001,8.424001,5.1270003
1680014651176,1194639531751686,0.17805001,8.533951,5.0290504
1680014651178,1194639534254062,0.16395001,8.521951,5.08395
1680014651182,1194639536756524,0.15,8.4529505,4.97205
1680014651186,1194639539258985,0.13800001,8.470051,5.08395
1680014651187,1194639541761216,0.147,8.589001,5.13
1680014651188,1194639544263581,0.123,8.509951,5.03595
1680014651192,1194639546765811,0.07095,8.51295,5.0269504
1680014651195,1194639549268196,0.13995,8.613001,5.0340004
1680014651196,1194639551770657,0.12105001,8.49405,5.06295
1680014651199,1194639554272888,0.14205001,8.476951,5.058
1680014651204,1194639556775273,0.126,8.56095,4.9740005
1680014651210,1194639559277734,0.094950005,8.496,5.03595
1680014651210,1194639561779965,0.05595,8.458051,4.9620004
1680014651210,1194639564282350,0.079950005,8.415,5.01
1680014651213,1194639566784811,0.109050006,8.577001,5.0080504
1680014651215,1194639569287042,0.087000005,8.48205,4.8949504
1680014651216,1194639571789427,0.06795,8.476951,4.8970504
1680014651219,1194639574291673,0.06105,8.44095,5.05095
1680014651222,1194639576794135,-0.07305,8.42205,4.91895
1680014651225,1194639579296520,-0.01305,8.42895,4.9960504
1680014651228,1194639581798981,-0.025050001,8.451,5.0290504
1680014651229,1194639584301212,-0.028050002,8.446051,4.88805
1680014651232,1194639586803606,-0.042000003,8.476951,4.9120502
1680014651234,1194639589305836,-0.126,8.464951,4.7590504
1680014651236,1194639591808221,-0.034950003,8.611051,4.8570004
1680014651240,1194639594310442,-0.12105001,8.458051,4.8829503
1680014651243,1194639596813134,-0.05595,8.53005,4.8499503
1680014651244,1194639599315365,-0.078,8.379001,4.8019505
1680014651246,1194639601817749,-0.10695001,8.3550005,4.97895
1680014651248,1194639604319980,-0.15405001,8.434051,4.82595
1680014651252,1194639606822365,-0.11595,8.43105,4.893
1680014651254,1194639609324826,-0.19800001,8.46195,4.8949504
1680014651256,1194639611827057,-0.14505,8.36205,4.76595
1680014651258,1194639614329519,-0.15195,8.316,4.94805
1680014651262,1194639616831903,-0.049050003,8.451,4.866
1680014651264,1194639619334134,-0.13800001,8.391001,4.881
1680014651266,1194639621836519,-0.09900001,8.316,4.82805
1680014651268,1194639624338750,-0.10395,8.27595,4.90695
1680014651273,1194639626841211,-0.00795,8.302051,4.8829503
1680014651275,1194639629343596,-0.058950003,8.343,4.8349504
1680014651277,1194639631846057,-0.102000006,8.328,4.75605
1680014651279,1194639634348288,0.028050002,8.22105,4.92105
1680014651283,1194639636850678,0.09705,8.38095,4.8829503
1680014651284,1194639639352908,0.025050001,8.344951,5.02395
1680014651286,1194639641855370,0.09,8.352,4.7710505
1680014651288,1194639644357755,0.11100001,8.314051,4.9020004
1680014651292,1194639646860216,0.049050003,8.307,4.76595
1680014651294,1194639649362365,0.12105001,8.34,4.87095
1680014651296,1194639651864827,0.05595,8.23305,4.9500003
1680014651298,1194639654367057,0.051000003,8.36205,4.842
1680014651302,1194639656869519,0.126,8.328,4.97895
1680014651304,1194639659371903,0.15,8.28495,4.938
1680014651306,1194639661874134,0.123,8.34,4.8570004
1680014651308,1194639664376519,0.11595,8.40705,4.8970504
1680014651312,1194639666878980,0.162,8.3880005,4.9020004
1680014651315,1194639669381134,0.11895001,8.488951,4.7920504
1680014651317,1194639671883673,0.19305001,8.307,4.93095
1680014651319,1194639674386057,0.102000006,8.451,4.82805
1680014651323,1194639676888288,0.10695001,8.415,4.90695
1680014651324,1194639679390687,0.21000001,8.36205,4.87395
1680014651326,1194639681892918,0.19305001,8.458051,4.866
1680014651328,1194639684395379,0.162,8.470051,4.809
1680014651332,1194639686897764,0.12795001,8.415,4.82595
1680014651333,1194639689400202,0.126,8.46,4.9020004
1680014651337,1194639691902433,0.20700002,8.53695,4.93095
1680014651338,1194639694404818,0.13305001,8.56995,4.88805
1680014651342,1194639696907048,0.15195,8.446051,4.93095
1680014651343,1194639699409437,0.11100001,8.44305,5.05305
1680014651346,1194639701911899,0.094950005,8.53695,4.893
1680014651348,1194639704414360,0.12105001,8.434051,4.914
1680014651353,1194639706916514,0.13095,8.544001,4.9020004
1680014651355,1194639709418981,0.17595,8.509951,4.9020004
1680014651356,1194639711921211,0.087000005,8.52495,5.00295
1680014651358,1194639714423596,0.10395,8.39505,5.07705
1680014651362,1194639716925827,0.126,8.565001,5.0080504
1680014651364,1194639719428288,0.12795001,8.4529505,5.0220003
1680014651366,1194639721930736,0.08505,8.47395,4.98105
1680014651369,1194639724433120,0.15705001,8.521951,5.08395
1680014651372,1194639726935351,0.17805001,8.53695,5.02395
1680014651375,1194639729437736,0.24300002,8.532001,5.17005
1680014651376,1194639731939981,0.24795002,8.53005,5.0389504
1680014651379,1194639734442442,0.231,8.42205,5.09595
1680014651382,1194639736944827,0.32895002,8.472,5.103
1680014651384,1194639739447058,0.33900002,8.467051,5.1390004
1680014651386,1194639741949514,0.31500003,8.565001,5.103
1680014651390,1194639744451668,0.28395,8.42205,5.163
1680014651393,1194639746954129,0.33600003,8.379001,5.1060004
1680014651394,1194639749456591,0.34395,8.40705,5.1439505
1680014651396,1194639751958976,0.41295,8.42895,5.1730504
1680014651398,1194639754461191,0.42705002,8.49405,5.13495
1680014651402,1194639756963576,0.38205,8.343,5.1589503
1680014651403,1194639759466038,0.35295,8.352,5.10795
1680014651406,1194639761968268,0.27195,8.259001,5.2180505
1680014651408,1194639764470754,0.34800002,8.39295,5.2759504
1680014651412,1194639766973138,0.39600003,8.376,5.1940503
1680014651413,1194639769475369,0.40605003,8.458051,5.1390004
1680014651416,1194639771977754,0.43905002,8.41005,5.1610503
1680014651419,1194639774480000,0.492,8.39805,5.2210503
1680014651422,1194639776982384,0.37995002,8.415,5.1610503
1680014651423,1194639779484923,0.31005,8.391001,5.091
1680014651427,1194639781987077,0.35805002,8.40705,5.28105
1680014651429,1194639784489538,0.39195,8.439,5.2590003
1680014651432,1194639786991923,0.32505003,8.472,5.1660004
1680014651433,1194639789494154,0.35295,8.39805,5.30205
1680014651436,1194639791996538,0.37500003,8.479051,5.163
1680014651438,1194639794499000,0.432,8.50605,5.1730504
1680014651442,1194639797001446,0.34095,8.491051,5.13495
1680014651444,1194639799503677,0.31695002,8.446051,5.2759504
1680014651446,1194639802006062,0.39600003,8.4529505,5.1589503
1680014651449,1194639804508292,0.33195,8.53695,5.2210503
1680014651452,1194639807010643,0.43695003,8.42205,5.13
1680014651454,1194639809513105,0.32505003,8.42895,5.17995
1680014651456,1194639812015335,0.29805002,8.45505,5.2450504
1680014651460,1194639814517720,0.36495003,8.47395,5.16795
1680014651462,1194639817020163,0.39900002,8.458051,5.20905
1680014651465,1194639819522393,0.39405003,8.41905,5.20905
1680014651467,1194639822024778,0.32700002,8.434051,5.2110004
1680014651468,1194639824527239,0.34605002,8.464951,5.17995
1680014651472,1194639827029470,0.28605002,8.521951,5.22795
1680014651474,1194639829531874,0.351,8.41905,5.1780005
1680014651477,1194639832034105,0.37500003,8.448,5.1780005
1680014651480,1194639834536566,0.39195,8.343,5.14905
1680014651482,1194639837038951,0.32700002,8.371051,5.10795
1680014651487,1194639839541412,0.24795002,8.3880005,5.0719504
1680014651488,1194639842043643,0.40095,8.391001,5.1990004
1680014651490,1194639844546028,0.411,8.467051,5.1010504
1680014651492,1194639847048259,0.34800002,8.39295,5.18205
1680014651493,1194639849550624,0.32205,8.40705,5.1010504
1680014651496,1194639852052855,0.34605002,8.43105,5.2260003
1680014651499,1194639854555547,0.43695003,8.368951,5.14905
1680014651504,1194639857057778,0.33405003,8.352,5.1390004
1680014651505,1194639859560168,0.384,8.307,5.10795
1680014651506,1194639862062398,0.38700002,8.352,5.08395
1680014651509,1194639864564783,0.38895002,8.359051,5.103
1680014651512,1194639867067014,0.36795002,8.40495,5.12295
1680014651515,1194639869569475,0.54495,8.436001,5.1319504
1680014651516,1194639872071860,0.40605003,8.37405,5.1589503
1680014651520,1194639874574322,0.39600003,8.38305,5.1130505
1680014651523,1194639877076552,0.411,8.41005,5.1589503
1680014651525,1194639879578946,0.423,8.40705,5.151
1680014651526,1194639882081177,0.37500003,8.356951,5.13495
1680014651529,1194639884583638,0.44895002,8.39805,5.13
1680014651532,1194639887086100,0.41805002,8.470051,5.118
1680014651534,1194639889588254,0.42000002,8.52705,5.1109505
1680014651537,1194639892090734,0.43005002,8.467051,5.13705
1680014651540,1194639894593119,0.32895002,8.467051,5.1319504
1680014651544,1194639897095350,0.30795002,8.467051,5.1919503
1680014651545,1194639899597821,0.37005,8.51505,5.23005
1680014651547,1194639902100206,0.37695003,8.41695,5.19705
1680014651548,1194639904602437,0.34095,8.508,5.247
1680014651552,1194639907104821,0.35595003,8.436001,5.13495
1680014651555,1194639909607052,0.279,8.491051,5.36205
1680014651556,1194639912109523,0.231,8.484,5.2639503
1680014651559,1194639914611985,0.31995,8.48595,5.2060504
1680014651566,1194639917114370,0.303,8.472,5.262
1680014651566,1194639919616600,0.24105,8.47395,5.32095
1680014651566,1194639922119000,0.24105,8.424001,5.2780504
1680014651569,1194639924621462,0.21405001,8.403001,5.25705
1680014651572,1194639927123615,0.30795002,8.439,5.1199503
1680014651574,1194639929626154,0.21405001,8.48205,5.1130505
1680014651577,1194639932128558,0.34095,8.40705,5.20905
1680014651579,1194639934630788,0.27195,8.427,5.2060504
1680014651582,1194639937133173,0.26505002,8.283,5.202
1680014651584,1194639939635404,0.35295,8.503051,5.04405
1680014651586,1194639942137788,0.32505003,8.41005,5.103
1680014651588,1194639944640250,0.31005,8.464951,5.091
1680014651592,1194639947142481,0.279,8.41005,5.2380004
1680014651593,1194639949644942,0.27405003,8.43105,5.1610503
1680014651596,1194639952147327,0.24495001,8.38605,5.12295
1680014651599,1194639954649558,0.31500003,8.3880005,5.091
1680014651602,1194639957151927,0.30795002,8.40705,5.118
1680014651604,1194639959654389,0.372,8.497951,5.06295
1680014651606,1194639962156850,0.39600003,8.344951,5.0290504
1680014651608,1194639964659004,0.28095,8.41695,5.0940003
1680014651612,1194639967161255,0.24300002,8.38095,4.98105
1680014651615,1194639969663716,0.31695002,8.38605,5.0479503
1680014651617,1194639972166101,0.31005,8.424001,5.0680504
1680014651618,1194639974668563,0.33600003,8.326051,4.99095
1680014651622,1194639977170831,0.32505003,8.40495,4.9429502
1680014651624,1194639979673216,0.303,8.446051,4.9690504
1680014651626,1194639982175678,0.25695002,8.49405,4.8640504
1680014651629,1194639984677831,0.25695002,8.368951,4.9290004
1680014651632,1194639987180303,0.25695002,8.344951,4.90005
1680014651633,1194639989682764,0.30495003,8.34795,4.93095
1680014651636,1194639992184995,0.22605,8.41905,4.8900003
1680014651639,1194639994687380,0.25695002,8.39805,4.82595
1680014651642,1194639997189591,0.18105,8.434051,4.9290004
1680014651644,1194639999692052,0.20700002,8.476951,4.8970504
1680014651646,1194640002194206,0.22395001,8.326051,4.794
1680014651648,1194640004696668,0.23595001,8.412001,4.81395
1680014651653,1194640007199129,0.22905001,8.42205,4.8349504
1680014651655,1194640009701514,0.19995001,8.2900505,4.9020004
1680014651657,1194640012203745,0.135,8.39805,4.8520503
1680014651659,1194640014706129,0.19995001,8.299951,4.9240503
1680014651662,1194640017208370,0.18300001,8.27295,4.8520503
1680014651664,1194640019711062,0.24300002,8.367001,4.84695
1680014651666,1194640022213216,0.15405001,8.338051,4.9759502
1680014651669,1194640024715678,0.31695002,8.27295,4.9570503
1680014651672,1194640027217889,0.171,8.356951,4.9669504
1680014651674,1194640029720274,0.28905,8.328,4.91895
1680014651676,1194640032222505,0.21405001,8.352,4.92105
1680014651679,1194640034724966,0.26505002,8.30895,4.8780003
1680014651682,1194640037227336,0.27195,8.328,5.0269504
1680014651684,1194640039729798,0.26505002,8.400001,5.1060004
1680014651686,1194640042231951,0.231,8.24505,5.0680504
1680014651690,1194640044734413,0.29295,8.319,4.9429502
1680014651693,1194640047236649,0.252,8.21805,5.00505
1680014651695,1194640049739110,0.32700002,8.38605,5.00295
1680014651696,1194640052241495,0.35805002,8.3880005,5.1150002
1680014651699,1194640054743726,0.26895002,8.224951,5.103
1680014651702,1194640057246187,0.28905,8.338051,5.0080504
1680014651704,1194640059748317,0.29595003,8.304001,5.0479503
1680014651706,1194640062250779,0.34800002,8.259001,5.058
1680014651709,1194640064753240,0.32205,8.38605,5.0410504
1680014651712,1194640067255625,0.32700002,8.352,5.13705
1680014651714,1194640069757842,0.31005,8.292001,5.2210503
1680014651716,1194640072260226,0.25995,8.34795,5.0890503
1680014651719,1194640074762457,0.32700002,8.2900505,5.15595
1680014651722,1194640077264918,0.384,8.311951,5.26905
1680014651724,1194640079767303,0.39195,8.391001,5.14905
1680014651728,1194640082269774,0.32505003,8.344951,5.12295
1680014651729,1194640084772004,0.38205,8.415,5.235
1680014651732,1194640087274389,0.34095,8.400001,5.1390004
1680014651734,1194640089776620,0.43905002,8.39505,5.1610503
1680014651736,1194640092279014,0.39900002,8.39805,5.235
1680014651739,1194640094781553,0.29595003,8.503051,5.0560503
1680014651742,1194640097283938,0.30495003,8.53905,5.142
1680014651744,1194640099786168,0.40800002,8.51295,5.02005
1680014651746,1194640102288548,0.34605002,8.577001,5.1390004
1680014651749,1194640104790779,0.35595003,8.56995,5.202
1680014651752,1194640107293163,0.35295,8.51295,5.1109505
1680014651754,1194640109795625,0.34605002,8.611051,5.07705
1680014651756,1194640112297842,0.231,8.5990505,5.14905
1680014651759,1194640114800303,0.32205,8.544001,5.23005
1680014651762,1194640117302457,0.33900002,8.635051,5.2110004
1680014651765,1194640119804919,0.38700002,8.54205,5.20905
1680014651767,1194640122307317,0.34605002,8.613001,5.1540003
1680014651769,1194640124809779,0.38895002,8.51805,5.103
1680014651772,1194640127312010,0.26895002,8.580001,5.1919503
1680014651774,1194640129814394,0.31305,8.623051,5.0269504
1680014651776,1194640132316856,0.34395,8.46,5.2110004
1680014651779,1194640134819086,0.33195,8.54205,5.22795
1680014651782,1194640137321471,0.29295,8.611051,5.2519503
1680014651784,1194640139823933,0.34395,8.503051,5.1319504
1680014651787,1194640142326163,0.41295,8.500951,5.2330503
1680014651789,1194640144828548,0.42495003,8.500951,5.35995
1680014651792,1194640147330784,0.35595003,8.40705,5.2969503
1680014651794,1194640149833168,0.34800002,8.48595,5.2260003
1680014651796,1194640152335630,0.40605003,8.49405,5.29005
1680014651799,1194640154837861,0.38205,8.472,5.29995
1680014651803,1194640157340254,0.41295,8.448,5.1940503
1680014651805,1194640159842485,0.34800002,8.434051,5.2060504
1680014651807,1194640162344947,0.44895002,8.338051,5.15595
1680014651809,1194640164847331,0.34605002,8.400001,5.1130505
1680014651812,1194640167349827,0.33405003,8.41005,5.17005
1680014651814,1194640169852058,0.36,8.38305,5.12295
1680014651816,1194640172354442,0.31500003,8.364,5.1730504
1680014651819,1194640174856673,0.41295,8.344951,5.1870003
1680014651822,1194640177359058,0.35595003,8.427,5.091
1680014651824,1194640179861596,0.31695002,8.42895,5.103
1680014651826,1194640182363981,0.37500003,8.302051,5.0560503
1680014651829,1194640184866211,0.31005,8.344951,5.1130505
1680014651832,1194640187368605,0.30105,8.39505,5.0560503
1680014651834,1194640189870836,0.31305,8.40495,5.08395
1680014651836,1194640192373221,0.33195,8.41695,5.1610503
1680014651844,1194640194875711,0.29295,8.29695,4.9500003
1680014651844,1194640197377942,0.28905,8.39805,5.0340004
1680014651844,1194640199880403,0.25005,8.46,5.0719504
1680014651846,1194640202382788,0.34095,8.323951,4.9120502
1680014651850,1194640204885019,0.303,8.311951,5.0269504
1680014651852,1194640207387418,0.22200002,8.364,4.9879503
1680014651854,1194640209889880,0.19500001,8.488951,4.98105
1680014651856,1194640212392111,0.26205,8.49405,5.02395
1680014651859,1194640214894495,0.17805001,8.484,4.9879503
1680014651862,1194640217396706,0.25500003,8.467051,4.9410005
1680014651864,1194640219899168,0.27195,8.436001,4.9840503
1680014651866,1194640222401552,0.21000001,8.52,4.93305
1680014651869,1194640224904014,0.24300002,8.479051,4.9960504
1680014651872,1194640227406245,0.22395001,8.54895,4.9759502
1680014651874,1194640229908639,0.15705001,8.496,4.9410005
1680014651878,1194640232410870,0.21195,8.629951,4.953
1680014651879,1194640234913255,0.16905001,8.50605,4.9360504
1680014651882,1194640237415716,0.23595001,8.625,4.8900003
1680014651884,1194640239918192,0.186,8.58495,4.9620004
1680014651886,1194640242420422,0.087000005,8.53905,4.9020004
1680014651889,1194640244922807,0.11100001,8.6640005,4.8040504
1680014651892,1194640247425038,0.171,8.556001,4.842
1680014651894,1194640249927417,0.079950005,8.613001,4.87095
1680014651896,1194640252429648,0.13305001,8.49405,4.90005
1680014651899,1194640254932110,0.15195,8.56995,4.75605
1680014651902,1194640257434571,0.20505,8.592,4.794
1680014651904,1194640259936947,0.16395001,8.58195,4.78305
1680014651906,1194640262439178,0.09,8.49405,4.90005
1680014651909,1194640264941562,0.09705,8.43105,4.7970004
1680014651912,1194640267443793,0.19995001,8.42895,4.9450502
1680014651915,1194640269946480,0.09705,8.45505,4.8829503
1680014651917,1194640272448634,0.16905001,8.491051,4.893
1680014651919,1194640274951096,0.11400001,8.403001,4.84695
1680014651922,1194640277453327,0.11100001,8.39505,4.8949504
1680014651924,1194640279955711,0.19005,8.35005,4.8949504
1680014651926,1194640282457956,0.087000005,8.37405,4.9620004
1680014651929,1194640284960418,0.19500001,8.30895,4.926
1680014651932,1194640287462802,0.21705002,8.28495,4.9500003
1680014651934,1194640289965033,0.19005,8.323951,5.118
1680014651936,1194640292467433,0.171,8.23995,5.00295
1680014651939,1194640294969894,0.19005,8.292001,4.96005
1680014651942,1194640297472125,0.22200002,8.20905,4.9090505
1680014651944,1194640299974586,0.27195,8.23305,4.965
1680014651946,1194640302476971,0.29295,8.235001,5.1109505
1680014651949,1194640304979202,0.31305,8.17695,5.04405
1680014651953,1194640307481586,0.31005,8.16495,5.0820003
1680014651955,1194640309983817,0.29805002,8.139,5.0820003
1680014651956,1194640312486202,0.31695002,8.20905,5.16795
1680014651959,1194640314988740,0.26505002,8.24505,5.18505
1680014651962,1194640317491125,0.29295,8.26395,5.1610503
1680014651964,1194640319993356,0.28905,8.40705,5.1610503
1680014651966,1194640322495740,0.29295,8.2570505,5.05305
1680014651969,1194640324997966,0.32895002,8.371051,5.1199503
1680014651972,1194640327500351,0.35805002,8.391001,5.247
1680014651974,1194640330002812,0.34800002,8.343,5.1319504
1680014651976,1194640332505274,0.35295,8.49405,5.13705
1680014651979,1194640335007505,0.35805002,8.50605,5.0940003
1680014651982,1194640337509855,0.31695002,8.503051,5.12505
1680014651984,1194640340012086,0.23295002,8.53695,5.07495
1680014651986,1194640342514471,0.36,8.5990505,5.1990004
1680014651990,1194640345016923,0.32505003,8.58195,5.2330503
1680014651993,1194640347519154,0.32205,8.592,5.046
1680014651994,1194640350021539,0.33195,8.589001,5.06505
1680014651996,1194640352524000,0.303,8.580001,5.0790005
1680014651999,1194640355026231,0.33195,8.61795,5.0989504
1680014652002,1194640357528597,0.32505003,8.577001,5.1990004
1680014652004,1194640360030827,0.32505003,8.71905,5.12295
1680014652006,1194640362533289,0.231,8.677951,5.175
1680014652009,1194640365035750,0.25005,8.652,5.0869503
1680014652013,1194640367537913,0.26700002,8.70705,5.1060004
1680014652014,1194640370040375,0.24795002,8.709001,5.0940003
1680014652016,1194640372542759,0.27405003,8.652,5.0290504
1680014652019,1194640375044990,0.35805002,8.635051,5.151
1680014652022,1194640377547452,0.33195,8.632951,5.06505
1680014652024,1194640380049846,0.25500003,8.604,5.03595
1680014652028,1194640382552077,0.303,8.577001,4.9740005
1680014652029,1194640385054462,0.34605002,8.503051,5.0479503
1680014652032,1194640387556693,0.40395,8.48205,5.0340004
1680014652034,1194640390059168,0.35805002,8.51805,5.0719504
1680014652036,1194640392561630,0.39600003,8.448,5.0599504
1680014652039,1194640395064014,0.45105,8.41695,5.05305
1680014652042,1194640397566245,0.44205,8.344951,5.163
1680014652044,1194640400068630,0.43905002,8.335951,5.1319504
1680014652046,1194640402570860,0.35595003,8.400001,5.06295
1680014652049,1194640405073245,0.44895002,8.3880005,5.07495
1680014652052,1194640407575707,0.411,8.304001,5.10795
1680014652054,1194640410078144,0.372,8.37405,5.05305
1680014652056,1194640412580375,0.43905002,8.283,5.091
1680014652059,1194640415082760,0.37005,8.2879505,5.0220003
1680014652062,1194640417584990,0.43005002,8.34795,5.0170503
1680014652065,1194640420087370,0.42705002,8.259001,5.046
1680014652067,1194640422589831,0.372,8.332951,4.9690504
1680014652069,1194640425092062,0.44205,8.344951,5.0080504
1680014652072,1194640427594524,0.31305,8.39805,5.04405
1680014652074,1194640430096908,0.37500003,8.319,4.97895
1680014652076,1194640432599153,0.35295,8.38095,4.9020004
1680014652079,1194640435101538,0.29595003,8.343,4.97895
1680014652082,1194640437603999,0.36795002,8.376,4.926
1680014652084,1194640440106230,0.34395,8.328,4.9840503
1680014652087,1194640442608615,0.33405003,8.36205,5.03595
1680014652089,1194640445110845,0.28095,8.379001,4.9669504
1680014652092,1194640447613307,0.30495003,8.400001,4.9840503
1680014652095,1194640450115692,0.35295,8.439,4.9549503
1680014652098,1194640452618153,0.20205002,8.479051,4.9690504
1680014652099,1194640455120384,0.22395001,8.424001,4.9410005
1680014652103,1194640457622769,0.20205002,8.39505,4.9690504
1680014652105,1194640460124999,0.15195,8.52705,4.9620004
1680014652107,1194640462627384,0.279,8.451,4.9570503
1680014652109,1194640465129615,0.17400001,8.47395,5.0220003
1680014652112,1194640467632307,0.13995,8.496,4.9240503
1680014652114,1194640470134538,0.15195,8.484,4.9360504
1680014652117,1194640472636922,0.12105001,8.50605,5.0599504
1680014652119,1194640475139148,0.079950005,8.556001,5.0340004
1680014652124,1194640477641533,0.15900001,8.51505,4.9999504
1680014652124,1194640480143994,0.17400001,8.54595,5.0989504
1680014652126,1194640482646225,0.17400001,8.592,4.9570503
1680014652129,1194640485148683,0.162,8.49405,5.00505
1680014652132,1194640487651067,0.15405001,8.54895,5.03595
1680014652134,1194640490153298,0.21900001,8.57295,4.99095
1680014652136,1194640492655683,0.10695001,8.48205,4.9020004
1680014652140,1194640495157918,0.10695001,8.532001,5.0410504
1680014652143,1194640497660379,0.123,8.48205,4.93095
1680014652144,1194640500162764,0.21000001,8.46,4.953
1680014652147,1194640502664994,0.21195,8.46,4.9500003
1680014652149,1194640505167456,0.063,8.503051,4.9620004
1680014652152,1194640507669860,0.11895001,8.40495,5.00505
1680014652154,1194640510172090,0.109050006,8.503051,4.99095
1680014652156,1194640512674552,0.15900001,8.43105,4.9500003
1680014652159,1194640515176937,0.13305001,8.42895,4.9360504
1680014652162,1194640517679181,0.186,8.42895,5.046
1680014652164,1194640520181566,0.25695002,8.448,4.9410005
1680014652167,1194640522683797,0.18300001,8.40705,5.04405
1680014652169,1194640525186258,0.11100001,8.307,5.02395
1680014652172,1194640527688725,0.16605,8.331,4.98105
1680014652174,1194640530191109,0.21405001,8.27805,5.0680504
1680014652178,1194640532693340,0.23595001,8.39505,5.05305
1680014652180,1194640535195725,0.17595,8.352,5.0479503
1680014652182,1194640537697942,0.15705001,8.311951,5.046
1680014652184,1194640540200326,0.19005,8.23005,5.1010504
1680014652190,1194640542702865,0.20205002,8.295,4.9879503
1680014652190,1194640545205249,0.25500003,8.23695,5.0479503
1680014652192,1194640547707480,0.27405003,8.22105,5.1130505
1680014652194,1194640550209832,0.22905001,8.302051,5.103
1680014652197,1194640552712063,0.279,8.323951,5.0680504
1680014652199,1194640555214447,0.26205,8.280001,5.0269504
1680014652202,1194640557716909,0.31500003,8.24895,5.1660004
1680014652204,1194640560219125,0.39600003,8.161051,5.08395
1680014652206,1194640562721587,0.36,8.26095,5.0940003
1680014652209,1194640565223972,0.33900002,8.343,5.06505
1680014652212,1194640567726202,0.37695003,8.24895,5.21595
1680014652215,1194640570228601,0.35805002,8.2900505,5.01195
1680014652217,1194640572731063,0.38895002,8.376,5.0940003
1680014652219,1194640575233524,0.411,8.43105,5.091
1680014652222,1194640577735678,0.291,8.39505,5.0560503
1680014652224,1194640580237909,0.32505003,8.479051,5.202
1680014652227,1194640582740365,0.37005,8.40495,5.01195
1680014652229,1194640585242750,0.34605002,8.48205,5.0560503
1680014652232,1194640587745211,0.36495003,8.43105,5.07495
1680014652234,1194640590247442,0.303,8.479051,5.12505
1680014652236,1194640592749827,0.33195,8.565001,5.0869503
1680014652239,1194640595252058,0.31995,8.44095,5.1589503
1680014652242,1194640597754442,0.31005,8.47395,5.103
1680014652244,1194640600256904,0.27195,8.467051,5.151
1680014652246,1194640602759365,0.31305,8.521951,5.1990004
1680014652249,1194640605261582,0.24300002,8.51295,5.05305
1680014652253,1194640607763967,0.34605002,8.57505,5.09595
1680014652255,1194640610266198,0.19500001,8.53005,5.1390004
1680014652256,1194640612768582,0.21195,8.544001,5.15595
1680014652259,1194640615270803,0.22905001,8.484,5.2210503
1680014652262,1194640617773264,0.20205002,8.448,5.22795
1680014652264,1194640620275726,0.25005,8.484,5.22795
1680014652267,1194640622778111,0.20205002,8.503051,5.1660004
1680014652270,1194640625280355,0.15195,8.434051,5.13705
1680014652272,1194640627782740,0.24795002,8.451,5.1270003
1680014652274,1194640630284971,0.19305001,8.359051,5.17995
1680014652276,1194640632787432,0.24300002,8.44305,5.13705
1680014652279,1194640635289803,0.22395001,8.39805,5.0940003
1680014652282,1194640637792034,0.303,8.35005,5.12295
1680014652284,1194640640294495,0.25005,8.316,5.1610503
1680014652287,1194640642796880,0.26505002,8.359051,5.04405
1680014652291,1194640645299111,0.22200002,8.368951,5.1199503
1680014652293,1194640647801572,0.21000001,8.427,5.03205
1680014652295,1194640650303957,0.28905,8.38605,5.06295
1680014652296,1194640652806188,0.34395,8.364,5.0719504
1680014652299,1194640655308582,0.22200002,8.46,5.12295
1680014652302,1194640657811044,0.22605,8.307,5.1199503
1680014652304,1194640660313275,0.432,8.34795,5.0290504
1680014652307,1194640662815659,0.25995,8.37405,5.0410504
1680014652309,1194640665318120,0.40605003,8.29695,5.0989504
1680014652312,1194640667820350,0.38895002,8.368951,5.0989504
1680014652314,1194640670322735,0.33900002,8.43105,4.9620004
1680014652317,1194640672824966,0.34395,8.439,5.0940003
1680014652319,1194640675327351,0.46605003,8.533951,4.965
1680014652323,1194640677829889,0.45105,8.488951,4.9960504
1680014652324,1194640680332274,0.40800002,8.44095,5.03595
1680014652328,1194640682834504,0.432,8.509951,4.9759502
1680014652330,1194640685336875,0.37695003,8.497951,5.0410504
1680014652332,1194640687839106,0.38205,8.47395,4.9669504
1680014652335,1194640690341490,0.411,8.39505,4.9429502
1680014652337,1194640692843952,0.40800002,8.39505,5.00505
1680014652339,1194640695346183,0.47100002,8.46195,4.953
1680014652342,1194640697848629,0.38700002,8.448,4.9669504
1680014652344,1194640700350783,0.38895002,8.39805,5.0290504
1680014652347,1194640702853245,0.37005,8.427,4.986
1680014652349,1194640705355629,0.33195,8.352,4.9879503
1680014652352,1194640707858111,0.37005,8.36205,5.0719504
1680014652354,1194640710360342,0.38205,8.331,5.00505
1680014652357,1194640712862726,0.35295,8.332951,5.06295
1680014652359,1194640715365188,0.31695002,8.359051,5.02005
1680014652362,1194640717867452,0.40605003,8.470051,4.998
1680014652366,1194640720369836,0.40395,8.283,5.0719504
1680014652367,1194640722872298,0.351,8.319,5.0890503
1680014652369,1194640725374528,0.33900002,8.356951,5.151
1680014652372,1194640727876936,0.36,8.40495,5.07705
1680014652374,1194640730379167,0.33600003,8.403001,5.0560503
1680014652377,1194640732881551,0.34395,8.424001,5.058
1680014652379,1194640735384013,0.33195,8.470051,5.18205
1680014652382,1194640737886461,0.31500003,8.46195,5.0479503
1680014652384,1194640740388691,0.303,8.458051,5.1610503
1680014652387,1194640742891076,0.291,8.42895,5.151
1680014652389,1194640745393307,0.372,8.497951,5.1610503
1680014652392,1194640747895691,0.32700002,8.58495,5.06505
1680014652394,1194640750397922,0.31995,8.508,5.0599504
1680014652397,1194640752900384,0.25695002,8.58495,5.13705
1680014652399,1194640755402845,0.26895002,8.451,5.0560503
1680014652404,1194640757905009,0.20505,8.51805,5.13705
1680014652405,1194640760407471,0.29805002,8.601001,5.1469502
1680014652407,1194640762909855,0.28605002,8.64,5.0869503
1680014652409,1194640765412086,0.25005,8.57295,5.058
1680014652412,1194640767914548,0.31695002,8.668051,5.05095
1680014652414,1194640770416932,0.40605003,8.601001,5.0340004
1680014652419,1194640772919163,0.38700002,8.604,5.0080504
1680014652420,1194640775421625,0.34395,8.53695,5.06505
1680014652422,1194640777923778,0.33405003,8.509951,5.0890503
1680014652424,1194640780426245,0.303,8.51295,5.00505
1680014652427,1194640782928706,0.38895002,8.491051,4.9960504
1680014652429,1194640785431091,0.35805002,8.3880005,5.05305
1680014652432,1194640787933322,0.45405003,8.56095,5.1199503
1680014652434,1194640790435697,0.384,8.38605,5.1010504
1680014652437,1194640792937928,0.43005002,8.476951,5.04405
1680014652441,1194640795440390,0.37005,8.364,5.16795
1680014652444,1194640797942851,0.52095,8.415,5.1780005
1680014652445,1194640800445236,0.37695003,8.40705,5.13705
1680014652447,1194640802947467,0.39405003,8.364,5.1870003
1680014652449,1194640805449851,0.39405003,8.36205,5.2330503
1680014652452,1194640807952082,0.42495003,8.307,5.1469502
1680014652454,1194640810454467,0.411,8.335951,5.13495
1680014652457,1194640812957014,0.45405003,8.42205,5.1439505
1680014652459,1194640815459168,0.46305,8.352,5.1199503
1680014652462,1194640817961630,0.43005002,8.268001,5.262
1680014652464,1194640820464014,0.411,8.34,5.2039504
1680014652467,1194640822966231,0.40395,8.2570505,5.1130505
1680014652469,1194640825468616,0.411,8.3880005,5.15595
1680014652472,1194640827971077,0.37695003,8.356951,5.23005
1680014652474,1194640830473308,0.39600003,8.299951,5.151
1680014652478,1194640832975765,0.45900002,8.356951,5.163
1680014652480,1194640835477918,0.42495003,8.323951,5.0410504
1680014652482,1194640837980380,0.37005,8.427,5.2039504
1680014652484,1194640840482765,0.43695003,8.359051,5.17005
1680014652487,1194640842985226,0.42495003,8.48205,5.12505
1680014652489,1194640845487443,0.44895002,8.448,5.0080504
1680014652492,1194640847989827,0.45600003,8.55105,5.0599504
1680014652494,1194640850492058,0.44205,8.41905,5.08395
1680014652497,1194640852994443,0.38205,8.479051,5.118
1680014652499,1194640855496678,0.38895002,8.47395,5.046
1680014652502,1194640857999370,0.31305,8.544001,5.03205
1680014652505,1194640860501601,0.43500003,8.508,5.0290504
1680014652507,1194640863003985,0.41595003,8.544001,5.0719504
1680014652509,1194640865506245,0.32505003,8.596951,5.0389504
1680014652512,1194640868008630,0.27405003,8.464951,5.046
1680014652516,1194640870511091,0.39900002,8.625,5.14905
1680014652518,1194640873013322,0.29295,8.53005,5.0220003
1680014652520,1194640875515770,0.38895002,8.51295,5.0389504
1680014652523,1194640878018154,0.40395,8.592,4.99095
1680014652525,1194640880520385,0.384,8.58495,4.965
1680014652527,1194640883022770,0.34800002,8.500951,4.96005
1680014652529,1194640885525000,0.32505003,8.556001,5.0869503
1680014652532,1194640888027394,0.38205,8.58195,5.07
1680014652535,1194640890529932,0.38895002,8.56995,5.02395
1680014652537,1194640893032086,0.32505003,8.553,5.0170503
1680014652539,1194640895534548,0.36795002,8.500951,4.9960504
1680014652542,1194640898036938,0.37500003,8.57295,5.08395
1680014652545,1194640900539168,0.33195,8.448,5.1319504
1680014652547,1194640903041553,0.36,8.379001,5.02395
1680014652550,1194640905544014,0.28905,8.467051,5.046
1680014652554,1194640908046476,0.33600003,8.48595,5.01195
1680014652555,1194640910548707,0.351,8.3880005,5.142
1680014652557,1194640913050861,0.29595003,8.391001,5.0680504
1680014652559,1194640915553322,0.40605003,8.40495,5.0560503
1680014652562,1194640918055707,0.30495003,8.283,5.0680504
1680014652565,1194640920558197,0.32700002,8.40705,5.07705
1680014652567,1194640923060428,0.363,8.25405,5.058
1680014652569,1194640925562813,0.37995002,8.26605,4.953
1680014652572,1194640928065043,0.35805002,8.41695,5.05305
1680014652574,1194640930567408,0.35295,8.268001,5.06505
1680014652577,1194640933069870,0.31005,8.36205,5.02395
1680014652579,1194640935572331,0.32505003,8.343,5.03595
1680014652582,1194640938074562,0.41295,8.316,5.046
1680014652585,1194640940576947,0.33195,8.280001,4.9500003
1680014652588,1194640943079177,0.32700002,8.344951,5.0479503
1680014652591,1194640945581562,0.31005,8.323951,4.97895
1680014652593,1194640948084024,0.36,8.3880005,4.9759502
1680014652595,1194640950586253,0.38205,8.316,4.986
1680014652597,1194640953088715,0.32895002,8.400001,4.998
1680014652600,1194640955591099,0.30795002,8.223001,4.9960504
1680014652603,1194640958093330,0.38700002,8.3209505,4.99095
1680014652604,1194640960595715,0.34395,8.2900505,4.93095
1680014652607,1194640963097951,0.252,8.299951,4.9570503
1680014652610,1194640965600412,0.25695002,8.42205,4.9879503
1680014652612,1194640968102797,0.32895002,8.376,5.046
1680014652615,1194640970605028,0.35295,8.44095,4.965
1680014652617,1194640973107465,0.22395001,8.4529505,4.94805
1680014652620,1194640975609850,0.31005,8.39505,4.9879503
1680014652623,1194640978112081,0.29805002,8.39505,4.893
1680014652625,1194640980614542,0.30105,8.434051,4.9690504
1680014652629,1194640983116922,0.27405003,8.344951,4.8900003
1680014652630,1194640985619383,0.33405003,8.40495,5.0220003
1680014652632,1194640988121537,0.32205,8.39295,5.02395
1680014652635,1194640990623999,0.38205,8.458051,4.938
1680014652637,1194640993126229,0.279,8.412001,4.986
1680014652641,1194640995628706,0.36795002,8.46,4.97895
1680014652642,1194640998131091,0.25695002,8.51295,5.0340004
1680014652645,1194641000633321,0.35295,8.45505,5.0340004
1680014652647,1194641003135706,0.40095,8.53905,5.0340004
1680014652650,1194641005638168,0.28095,8.51805,5.0220003
1680014652652,1194641008140321,0.33195,8.44305,4.938
1680014652655,1194641010642860,0.33900002,8.53005,4.9759502
1680014652657,1194641013145244,0.29595003,8.464951,5.0410504
1680014652659,1194641015647475,0.33405003,8.47395,4.9620004
1680014652663,1194641018149874,0.33900002,8.60595,5.06295
1680014652666,1194641020652335,0.32505003,8.565001,5.02395
1680014652668,1194641023154566,0.36,8.51505,5.0599504
1680014652669,1194641025656951,0.35805002,8.604,5.1010504
1680014652672,1194641028159187,0.37500003,8.59395,5.0989504
1680014652675,1194641030661571,0.37695003,8.53905,5.1319504
1680014652677,1194641033163802,0.49695003,8.577001,5.0890503
1680014652680,1194641035666494,0.41595003,8.64,5.0410504
1680014652682,1194641038168706,0.43500003,8.601001,5.0220003
1680014652685,1194641040671091,0.38700002,8.580001,5.091
1680014652687,1194641043173321,0.37695003,8.596951,5.07705
1680014652690,1194641045675706,0.50100005,8.625,5.16795
1680014652693,1194641048177922,0.44700003,8.53695,5.0940003
1680014652695,1194641050680383,0.51000005,8.53695,5.06505
1680014652698,1194641053182768,0.492,8.556001,5.1199503
1680014652700,1194641055685230,0.36,8.45505,5.07495
1680014652704,1194641058187436,0.43695003,8.52495,5.103
1680014652705,1194641060689821,0.40095,8.39805,5.07
1680014652708,1194641063192052,0.45600003,8.41905,5.163
1680014652710,1194641065694513,0.46305,8.464951,5.1439505
1680014652713,1194641068196961,0.37695003,8.40705,5.09595
1680014652715,1194641070699115,0.44895002,8.43105,5.058
1680014652718,1194641073201576,0.35595003,8.467051,5.0940003
1680014652720,1194641075703961,0.40605003,8.292001,5.118
1680014652723,1194641078206129,0.432,8.3209505,5.0389504
1680014652725,1194641080708667,0.363,8.3880005,5.03205
1680014652727,1194641083211052,0.34395,8.35005,5.0869503
1680014652730,1194641085713283,0.35595003,8.323951,5.0560503
1680014652732,1194641088215653,0.37695003,8.292001,5.103
1680014652735,1194641090717884,0.363,8.328,5.06295
1680014652737,1194641093220346,0.31005,8.331,5.0389504
1680014652741,1194641095722807,0.31005,8.2879505,4.98105
1680014652744,1194641098225202,0.384,8.29695,4.9290004
1680014652746,1194641100727432,0.37695003,8.30895,4.99095
1680014652747,1194641103229817,0.32895002,8.316,4.91895
1680014652750,1194641105732048,0.30495003,8.307,4.986
1680014652753,1194641108234432,0.43500003,8.37405,4.97205
1680014652756,1194641110736899,0.41295,8.30895,5.0389504
1680014652757,1194641113239361,0.384,8.51505,5.046
1680014652760,1194641115741591,0.43005002,8.391001,4.965
1680014652763,1194641118243976,0.39900002,8.41695,5.00295
1680014652765,1194641120746212,0.36795002,8.371051,5.0170503
1680014652767,1194641123248596,0.33900002,8.451,4.9620004
1680014652770,1194641125751058,0.363,8.491051,4.99305
1680014652773,1194641128253289,0.32205,8.467051,5.0479503
1680014652775,1194641130755755,0.46605003,8.589001,5.07705
1680014652779,1194641133258140,0.40800002,8.45505,5.07705
1680014652780,1194641135760371,0.44205,8.54205,5.0719504
1680014652783,1194641138262755,0.44205,8.451,5.0940003
1680014652785,1194641140765240,0.41595003,8.479051,4.9840503
1680014652788,1194641143267471,0.40605003,8.48595,4.9759502
1680014652790,1194641145769855,0.45105,8.50605,5.05305
1680014652792,1194641148272086,0.36,8.448,5.09595
1680014652796,1194641150774537,0.40605003,8.503051,5.04405
1680014652798,1194641153276922,0.39600003,8.479051,4.953
1680014652800,1194641155779384,0.36,8.53905,5.12295
1680014652803,1194641158281614,0.36795002,8.48595,4.9500003
1680014652805,1194641160783999,0.47100002,8.344951,5.03595
1680014652808,1194641163286212,0.40095,8.49405,4.938
1680014652810,1194641165788596,0.43695003,8.42895,5.00505
1680014652824,1194641168290827,0.40605003,8.424001,4.9429502
1680014652824,1194641170793529,0.39600003,8.316,5.01
1680014652824,1194641173295682,0.46305,8.491051,4.96005
1680014652824,1194641175798144,0.423,8.476951,5.103
1680014652824,1194641178300375,0.38205,8.41905,5.03205
1680014652825,1194641180802759,0.39195,8.415,4.9120502
1680014652827,1194641183304981,0.33195,8.39505,4.9840503
1680014652830,1194641185807443,0.39195,8.40495,4.9549503
1680014652832,1194641188309827,0.363,8.39295,5.0410504
1680014652835,1194641190812289,0.46800002,8.43105,5.1130505
1680014652837,1194641193314443,0.46605003,8.41695,5.0790005
1680014652840,1194641195816904,0.504,8.415,4.97205
1680014652842,1194641198319135,0.45405003,8.52,4.986
1680014652845,1194641200821597,0.44400004,8.40495,5.02005
1680014652847,1194641203323981,0.47100002,8.35005,4.9669504
1680014652850,1194641205826202,0.43500003,8.27805,5.0290504
1680014652854,1194641208328663,0.492,8.400001,5.0989504
1680014652856,1194641210831048,0.42000002,8.319,5.0890503
1680014652857,1194641213333279,0.52605003,8.403001,5.091
1680014652860,1194641215835759,0.47295,8.371051,5.0269504
1680014652862,1194641218338144,0.49500003,8.458051,5.07
1680014652865,1194641220840375,0.48495004,8.41695,5.0410504
1680014652867,1194641223342759,0.51405,8.424001,5.06505
1680014652870,1194641225845004,0.52995,8.379001,5.1109505
1680014652872,1194641228347466,0.47505003,8.38095,5.05305
1680014652875,1194641230849927,0.55395,8.439,5.07705
1680014652877,1194641233352312,0.46305,8.371051,5.03205
1680014652880,1194641235854547,0.53295004,8.434051,5.13705
1680014652883,1194641238356931,0.57405,8.37405,5.0820003
1680014652885,1194641240859162,0.588,8.54595,5.0869503
1680014652887,1194641243361547,0.588,8.48595,5.0940003
1680014652891,1194641245863985,0.58095,8.39295,5.18505
1680014652894,1194641248366447,0.59505004,8.46195,5.0220003
1680014652895,1194641250868601,0.62895006,8.415,5.0790005
1680014652897,1194641253371062,0.54495,8.43105,4.94805
1680014652900,1194641255873289,0.588,8.4529505,5.103
1680014652902,1194641258375674,0.56895,8.44095,5.07495
1680014652905,1194641260878135,0.624,8.367001,5.17005
1680014652907,1194641263380366,0.528,8.41695,5.1390004
1680014652910,1194641265882750,0.62895006,8.344951,5.1010504
1680014652913,1194641268385211,0.68895006,8.46195,5.1940503
1680014652915,1194641270887442,0.55005,8.3550005,5.1730504
1680014652918,1194641273389826,0.61200005,8.352,5.0719504
1680014652920,1194641275892269,0.66495,8.356951,5.046
1680014652923,1194641278394500,0.62100005,8.451,5.13
1680014652925,1194641280896884,0.58995,8.3209505,5.2540503
1680014652929,1194641283399115,0.61005,8.39505,5.19705
1680014652931,1194641285901582,0.58995,8.43105,5.21595
1680014652933,1194641288403736,0.52995,8.403001,5.17995
1680014652935,1194641290906428,0.62895006,8.28495,5.2180505
1680014652938,1194641293408659,0.62100005,8.38605,5.19
1680014652940,1194641295911043,0.47100002,8.371051,5.2060504
1680014652943,1194641298413260,0.59295005,8.307,5.18505
1680014652945,1194641300915645,0.50100005,8.328,5.22795
1680014652948,1194641303417875,0.49500003,8.40705,5.2039504
1680014652950,1194641305920568,0.52995,8.458051,5.21595
1680014652953,1194641308422712,0.58095,8.47395,5.13705
1680014652956,1194641310925173,0.57795,8.424001,5.19705
1680014652958,1194641313427404,0.483,8.39505,5.0790005
1680014652960,1194641315929789,0.50895,8.46,5.07495
1680014652962,1194641318432019,0.63795,8.49405,5.1130505
1680014652966,1194641320934500,0.52995,8.436001,5.247
1680014652968,1194641323436885,0.54495,8.451,5.151
1680014652970,1194641325939346,0.51900005,8.470051,5.0940003
1680014652973,1194641328441500,0.53295004,8.4529505,5.12295
1680014652975,1194641330943956,0.54195005,8.46,5.1130505
1680014652977,1194641333446187,0.48000002,8.52495,5.0940003
1680014652980,1194641335948649,0.588,8.500951,5.06295
1680014652983,1194641338451033,0.52305,8.41905,5.02395
1680014652985,1194641340953259,0.50100005,8.500951,5.1010504
1680014652987,1194641343455644,0.54195005,8.467051,5.046
1680014652990,1194641345957875,0.48705003,8.3880005,5.1150002
1680014652993,1194641348460336,0.57105005,8.424001,5.12505
1680014652995,1194641350962808,0.54495,8.3880005,5.0479503
1680014652998,1194641353465192,0.46305,8.415,5.05095
1680014653000,1194641355967423,0.51405,8.41695,5.1130505
1680014653004,1194641358469808,0.45105,8.412001,5.05305
1680014653006,1194641360972038,0.483,8.352,5.09595
1680014653008,1194641363474500,0.588,8.29695,5.118
1680014653010,1194641365976885,0.52605003,8.391001,5.07495
1680014653012,1194641368479346,0.51405,8.359051,5.08395
1680014653015,1194641370981591,0.47805002,8.403001,5.0719504
1680014653018,1194641373483976,0.47805002,8.4529505,5.103
1680014653020,1194641375986206,0.50100005,8.42205,5.091
1680014653023,1194641378488591,0.61395,8.436001,5.21595
1680014653025,1194641380991028,0.47805002,8.484,5.0989504
1680014653028,1194641383493490,0.56595004,8.28495,5.1610503
1680014653030,1194641385995644,0.423,8.38605,5.118
1680014653032,1194641388498105,0.45600003,8.42205,5.15595
1680014653035,1194641391000332,0.54195005,8.37405,5.17005
1680014653037,1194641393502717,0.51405,8.326051,5.1319504
1680014653042,1194641396005178,0.55005,8.40705,5.0820003
1680014653044,1194641398507409,0.528,8.39295,4.9960504
1680014653046,1194641401009808,0.55200005,8.43105,5.16795
1680014653047,1194641403512039,0.53295004,8.335951,5.1870003
1680014653050,1194641406014423,0.633,8.43105,5.0560503
1680014653053,1194641408516885,0.62895006,8.39505,5.091
1680014653055,1194641411019346,0.63105005,8.379001,5.0680504
1680014653058,1194641413521586,0.66495,8.488951,5.1270003
1680014653060,1194641416023971,0.50895,8.328,5.103
1680014653062,1194641418526201,0.648,8.3880005,5.142
1680014653065,1194641421028586,0.72705,8.43105,4.99095
1680014653067,1194641423530827,0.65505004,8.500951,5.1199503
1680014653070,1194641426033288,0.60195005,8.458051,5.14905
1680014653072,1194641428535750,0.68100005,8.439,5.05305
1680014653075,1194641431038135,0.65505004,8.38605,5.1130505
1680014653079,1194641433540350,0.69105005,8.46,5.1990004
1680014653080,1194641436042735,0.75600004,8.484,5.1660004
1680014653083,1194641438544966,0.66,8.458051,5.058
1680014653086,1194641441047658,0.669,8.57505,5.06505
1680014653087,1194641443549812,0.79200006,8.49405,5.103
1680014653090,1194641446052282,0.76500005,8.46195,5.046
1680014653093,1194641448554513,0.67395,8.472,5.1589503
1680014653095,1194641451056898,0.6,8.479051,5.12505
1680014653097,1194641453559129,0.60705,8.56305,5.0149503
1680014653100,1194641456061581,0.564,8.39505,5.0599504
1680014653103,1194641458563966,0.63795,8.458051,5.1060004
1680014653105,1194641461066197,0.61905,8.476951,5.04405
1680014653107,1194641463568581,0.63105005,8.451,5.06295
1680014653110,1194641466071043,0.64095,8.488951,5.1270003
1680014653113,1194641468573273,0.56895,8.42205,5.0290504
1680014653116,1194641471075735,0.57405,8.44095,5.118
1680014653119,1194641473578120,0.55905,8.412001,5.1439505
1680014653121,1194641476080340,0.52305,8.367001,5.0290504
1680014653123,1194641478582725,0.57600003,8.39505,5.19
1680014653125,1194641481084956,0.63600004,8.316,5.2759504
1680014653127,1194641483587340,0.59505004,8.3880005,5.163
1680014653130,1194641486089879,0.55200005,8.39505,5.19705
1680014653133,1194641488592254,0.528,8.424001,5.1660004
1680014653135,1194641491094484,0.44400004,8.379001,5.14905
1680014653137,1194641493596869,0.59805006,8.332951,5.19
1680014653140,1194641496099100,0.50100005,8.323951,5.25705
1680014653143,1194641498601499,0.51000005,8.311951,5.23005
1680014653145,1194641501103961,0.52605003,8.323951,5.2110004
1680014653148,1194641503606192,0.44895002,8.356951,5.1540003
1680014653150,1194641506108653,0.53505003,8.368951,5.2060504
1680014653154,1194641508610812,0.49905002,8.292001,5.21595
1680014653156,1194641511113274,0.46605003,8.3880005,5.20905
1680014653158,1194641513615658,0.57105005,8.3550005,5.151
1680014653160,1194641516118120,0.56205004,8.40495,5.1469502
1680014653163,1194641518620351,0.58605003,8.458051,5.235
1680014653165,1194641521122749,0.58995,8.403001,5.1780005
1680014653168,1194641523624980,0.528,8.41695,5.2110004
1680014653170,1194641526127441,0.53295004,8.331,5.14905
1680014653173,1194641528629595,0.56895,8.467051,5.1199503
1680014653175,1194641531132071,0.56595004,8.39805,5.142
1680014653178,1194641533634532,0.52095,8.332951,5.1319504
1680014653180,1194641536136917,0.564,8.376,5.1150002
1680014653183,1194641538639148,0.6,8.484,5.0820003
1680014653186,1194641541141532,0.60195005,8.38095,5.2210503
1680014653188,1194641543643994,0.492,8.48205,5.13
1680014653192,1194641546146225,0.648,8.43105,5.0269504
1680014653194,1194641548648686,0.57405,8.458051,5.0340004
1680014653196,1194641551151091,0.61005,8.427,5.0989504
1680014653198,1194641553653322,0.71295005,8.488951,5.0719504
1680014653200,1194641556155706,0.57105005,8.497951,5.09595
1680014653203,1194641558657937,0.55395,8.496,4.9570503
1680014653206,1194641561160322,0.56595004,8.472,4.9879503
1680014653208,1194641563662855,0.52605003,8.521951,4.9410005
1680014653210,1194641566165009,0.56205004,8.53005,4.9570503
1680014653213,1194641568667471,0.50895,8.508,5.0290504
1680014653215,1194641571169855,0.51405,8.556001,5.1199503
1680014653218,1194641573672071,0.62100005,8.51295,5.103
1680014653220,1194641576174456,0.54195005,8.556001,5.0080504
1680014653223,1194641578676917,0.648,8.42205,5.07
1680014653225,1194641581179148,0.54705,8.620951,5.03595
1680014653229,1194641583681604,0.51900005,8.497951,5.05305
1680014653231,1194641586183758,0.58605003,8.53905,5.03595
1680014653233,1194641588686220,0.52995,8.44305,5.00295
1680014653235,1194641591188604,0.57405,8.436001,5.0340004
1680014653238,1194641593691066,0.55695003,8.484,5.07705
1680014653240,1194641596193278,0.46305,8.503051,5.03595
1680014653243,1194641598695662,0.51600003,8.467051,5.03595
1680014653245,1194641601197893,0.39600003,8.434051,5.0340004
1680014653248,1194641603700355,0.46095002,8.41695,5.0080504
1680014653251,1194641606202490,0.47505003,8.467051,5.00295
1680014653255,1194641608705182,0.47100002,8.496,4.9360504
1680014653256,1194641611207413,0.52095,8.49405,5.0560503
1680014653258,1194641613709797,0.37005,8.436001,5.0269504
1680014653260,1194641616212028,0.43005002,8.41905,4.9740005
1680014653263,1194641618714418,0.47295,8.434051,4.9620004
1680014653267,1194641621216648,0.57795,8.39505,4.9120502
1680014653269,1194641623719110,0.43005002,8.391001,4.9360504
1680014653270,1194641626221495,0.46800002,8.371051,4.98105
1680014653273,1194641628723970,0.44205,8.3880005,4.9879503
1680014653275,1194641631226201,0.54495,8.439,4.8850503
1680014653277,1194641633728586,0.52305,8.304001,4.96005
1680014653282,1194641636230816,0.46095002,8.367001,4.9290004
1680014653283,1194641638733273,0.54195005,8.352,4.9450502
1680014653286,1194641641235658,0.55395,8.38305,4.893
1680014653288,1194641643737888,0.52095,8.268001,4.9120502
1680014653291,1194641646240350,0.52305,8.42895,4.8040504
1680014653293,1194641648742739,0.46305,8.356951,4.9090505
1680014653295,1194641651244970,0.48495004,8.41695,4.8019505
1680014653298,1194641653747432,0.48495004,8.335951,4.8619504
1680014653300,1194641656249816,0.504,8.356951,4.8829503
1680014653304,1194641658752033,0.55395,8.436001,4.93095
1680014653306,1194641661254418,0.52305,8.335951,4.926
1680014653308,1194641663756649,0.47295,8.38305,4.87605
1680014653310,1194641666259110,0.47100002,8.367001,4.905
1680014653313,1194641668761557,0.50895,8.3880005,4.93305
1680014653316,1194641671263941,0.46605003,8.500951,4.881
1680014653318,1194641673766172,0.36495003,8.30895,4.8640504
1680014653321,1194641676268557,0.372,8.302051,4.8109503
1680014653323,1194641678770773,0.39600003,8.412001,4.81605
1680014653325,1194641681273158,0.52305,8.35005,4.9429502
1680014653328,1194641683775620,0.56595004,8.51295,4.9450502
1680014653330,1194641686278081,0.55200005,8.436001,4.905
1680014653333,1194641688780293,0.504,8.44095,4.87395
1680014653335,1194641691282678,0.492,8.479051,4.8970504
1680014653338,1194641693784908,0.60705,8.46195,4.8640504
1680014653342,1194641696287259,0.58095,8.41905,4.986
1680014653344,1194641698789720,0.52305,8.52705,4.93095
1680014653346,1194641701291951,0.57405,8.48595,4.9410005
1680014653348,1194641703794336,0.49695003,8.509951,5.02005
1680014653350,1194641706296797,0.55200005,8.56305,4.9360504
1680014653353,1194641708799013,0.58095,8.41905,4.8229504
1680014653356,1194641711301398,0.624,8.509951,4.8019505
1680014653358,1194641713803859,0.58095,8.54895,4.953
1680014653360,1194641716306090,0.54495,8.51505,4.8300004
1680014653363,1194641718808475,0.54495,8.46195,4.8949504
1680014653365,1194641721310721,0.54495,8.54895,4.93095
1680014653368,1194641723813105,0.528,8.49405,4.8570004
1680014653371,1194641726315567,0.52305,8.484,4.9290004
1680014653373,1194641728817797,0.54705,8.53905,4.88805
1680014653375,1194641731320254,0.57405,8.467051,4.914
1680014653379,1194641733822639,0.45900002,8.491051,4.821
1680014653381,1194641736324869,0.59505004,8.556001,4.881
1680014653384,1194641738827254,0.60195005,8.635051,4.7970004
1680014653385,1194641741329485,0.55200005,8.42205,4.82805
1680014653388,1194641743831946,0.48705003,8.51805,4.8520503
1680014653390,1194641746334408,0.47100002,8.44305,4.87095
1680014653393,1194641748836562,0.492,8.50605,4.8970504
1680014653395,1194641751339028,0.54495,8.46,4.82595
1680014653398,1194641753841413,0.51000005,8.467051,4.8780003
1680014653400,1194641756343644,0.48495004,8.448,4.7629504
1680014653403,1194641758846105,0.57600003,8.41005,4.833
1680014653405,1194641761348485,0.57105005,8.3880005,4.8690004
1680014653408,1194641763850946,0.60195005,8.30895,4.8349504
1680014653410,1194641766353100,0.528,8.28495,4.8829503
1680014653413,1194641768855562,0.56595004,8.424001,4.866
1680014653417,1194641771357837,0.55695003,8.38095,4.9020004
1680014653418,1194641773860298,0.47295,8.42205,4.9500003
1680014653420,1194641776362683,0.50100005,8.335951,4.90005
1680014653423,1194641778864914,0.51900005,8.391001,4.90695
1680014653425,1194641781367298,0.51000005,8.352,4.7470503
1680014653428,1194641783869770,0.51000005,8.415,4.8690004
1680014653430,1194641786371924,0.43905002,8.41695,4.9020004
1680014653433,1194641788874462,0.504,8.42205,4.9240503
1680014653435,1194641791376847,0.46800002,8.391001,4.986
1680014653445,1194641793879062,0.43695003,8.39295,4.9410005
1680014653445,1194641796381447,0.483,8.472,4.8949504
1680014653445,1194641798883678,0.53295004,8.491051,4.9669504
1680014653445,1194641801386062,0.56595004,8.484,5.0790005
1680014653448,1194641803888592,0.59505004,8.54895,4.965
1680014653450,1194641806390746,0.50100005,8.484,5.1109505
1680014653454,1194641808893207,0.55395,8.53905,5.0869503
1680014653456,1194641811395592,0.53505003,8.580001,5.103
1680014653458,1194641813897851,0.53505003,8.592,5.151
1680014653460,1194641816400235,0.62100005,8.58705,5.17995
1680014653463,1194641818902697,0.63105005,8.677951,5.07705
1680014653465,1194641821404928,0.50895,8.661,5.1199503
1680014653468,1194641823907312,0.56595004,8.58495,5.0290504
1680014653470,1194641826409563,0.669,8.641951,5.118
1680014653473,1194641828912025,0.64095,8.592,5.07705
1680014653475,1194641831414409,0.62895006,8.668051,4.986
1680014653478,1194641833916871,0.67695004,8.596951,5.03595
1680014653481,1194641836419097,0.72195005,8.620951,5.1130505
1680014653483,1194641838921481,0.76995003,8.677951,5.01195
1680014653486,1194641841423712,0.73395,8.745001,5.0149503
1680014653488,1194641843926097,0.72195005,8.647051,5.0719504
1680014653492,1194641846428539,0.72900003,8.589001,5.05305
1680014653494,1194641848931001,0.813,8.56095,5.05095
1680014653496,1194641851433231,0.77205,8.568001,4.94805
1680014653498,1194641853935616,0.77205,8.56305,4.9290004
1680014653501,1194641856437847,0.72195005,8.500951,5.0149503
1680014653503,1194641858940235,0.73905003,8.500951,4.9290004
1680014653505,1194641861442466,0.73905003,8.508,4.96005
1680014653508,1194641863944928,0.72,8.52,5.01195
1680014653511,1194641866447312,0.648,8.52705,4.97205
1680014653513,1194641868949794,0.64995,8.40705,4.93095
1680014653516,1194641871452025,0.62100005,8.508,4.85895
1680014653518,1194641873954409,0.52995,8.46,4.84695
1680014653521,1194641876456640,0.53805,8.434051,4.9090505
1680014653524,1194641878959102,0.41295,8.49405,4.9090505
1680014653526,1194641881461250,0.49905002,8.39805,4.8450003
1680014653529,1194641883963712,0.43005002,8.268001,4.9690504
1680014653532,1194641886466097,0.423,8.39505,4.9120502
1680014653533,1194641888968539,0.432,8.41695,4.9240503
1680014653535,1194641891470770,0.37995002,8.4529505,5.04405
1680014653538,1194641893973155,0.41595003,8.332951,4.93095
1680014653540,1194641896475616,0.33405003,8.484,4.97205
1680014653543,1194641898977847,0.31995,8.403001,4.90005
1680014653545,1194641901480246,0.37005,8.40495,4.881
1680014653548,1194641903982707,0.44205,8.415,4.9879503
1680014653551,1194641906484938,0.37005,8.367001,4.7920504
1680014653553,1194641908987322,0.42495003,8.47395,4.9170003
1680014653556,1194641911489553,0.36495003,8.47395,4.9170003
1680014653558,1194641913991938,0.41805002,8.51805,4.866
1680014653560,1194641916494399,0.48495004,8.3880005,4.87095
1680014653563,1194641918996861,0.46605003,8.40495,4.8640504
1680014653567,1194641921499077,0.44205,8.38605,4.93095
1680014653569,1194641924001461,0.50895,8.45505,4.94805
1680014653571,1194641926503692,0.55005,8.41905,4.91895
1680014653573,1194641929006077,0.54705,8.424001,4.97895
1680014653575,1194641931508308,0.507,8.4529505,5.0820003
1680014653578,1194641934010798,0.49500003,8.44305,5.0220003
1680014653580,1194641936513260,0.52995,8.484,5.0080504
1680014653583,1194641939015413,0.66,8.476951,5.1390004
1680014653586,1194641941517875,0.669,8.472,5.07705
1680014653589,1194641944020250,0.6,8.52495,5.18505
1680014653591,1194641946522480,0.657,8.509951,5.07705
1680014653594,1194641949024942,0.71295005,8.596951,5.151
1680014653596,1194641951527327,0.73200005,8.60595,5.1060004
1680014653598,1194641954029557,0.73605,8.53005,5.13495
1680014653601,1194641956532005,0.72705,8.577001,5.1780005
1680014653605,1194641959034159,0.72705,8.556001,5.1540003
1680014653607,1194641961536620,0.79395,8.6640005,5.23005
1680014653608,1194641964039082,0.753,8.70195,5.18505
1680014653611,1194641966541471,0.84705,8.644951,5.2180505
1680014653613,1194641969043702,0.78900003,8.70705,5.2969503
1680014653616,1194641971546087,0.81495005,8.745001,5.2660503
1680014653618,1194641974048318,0.813,8.661,5.3479505
1680014653621,1194641976550793,0.83895004,8.721001,5.2380004
1680014653624,1194641979053178,0.76995003,8.635051,5.19
1680014653626,1194641981555639,0.85095006,8.7310505,5.2260003
1680014653628,1194641984057870,0.79200006,8.6640005,5.22795
1680014653632,1194641986560236,0.76995003,8.629951,5.2110004
1680014653633,1194641989062466,0.80595005,8.649,5.2380004
1680014653635,1194641991564851,0.73395,8.721001,5.1109505
1680014653639,1194641994067313,0.79395,8.637,5.10795
1680014653642,1194641996569548,0.76305,8.53005,5.08395
1680014653650,1194641999071933,0.64995,8.61795,5.12505
1680014653650,1194642001574395,0.69600004,8.61795,5.07
1680014653650,1194642004076625,0.693,8.629951,4.9879503
1680014653654,1194642006579010,0.58305,8.57295,5.0940003
1680014653654,1194642009081472,0.48705003,8.601001,5.151
1680014653656,1194642011583702,0.57795,8.49405,5.214
1680014653658,1194642014086087,0.52305,8.470051,5.0869503
1680014653661,1194642016588318,0.54195005,8.3550005,5.0269504
1680014653663,1194642019090726,0.52095,8.39505,5.05095
1680014653666,1194642021593188,0.64500004,8.488951,4.9960504
