system_ts_ms, sensor_ts_ns, accX, accY, accZ
1679995480773,1175469124752489,0.31305,7.3180504,6.7939506
1679995480774,1175469127254566,0.20700002,7.3369503,6.7440004
1679995480775,1175469129756720,0.32205,7.32705,6.7819505
1679995480776,1175469132258643,0.40605003,7.3440003,6.61005
1679995480779,1175469134760725,0.55905,7.2960005,6.6769505
1679995480781,1175469137262648,0.58305,7.3369503,6.6649504
1679995480791,1175469139764801,0.74100006,7.31295,6.6460505
1679995480791,1175469142266955,0.67395,7.287,6.7990503
1679995480791,1175469144769032,0.87105006,7.3660502,6.7540503
1679995480791,1175469147270945,0.837,7.2430506,6.6270003
1679995480794,1175469149773099,0.92505,7.2390003,6.74205
1679995480796,1175469152275176,0.84405005,7.2340503,6.675
1679995480799,1175469154777099,0.82695,7.176,6.5839505
1679995480802,1175469157279195,0.873,7.2310505,6.59595
1679995480805,1175469159781349,0.86595005,7.3369503,6.6600003
1679995480807,1175469162283503,0.73200005,7.2649503,6.7219505
1679995480809,1175469164785426,0.75105006,7.2580504,6.6580505
1679995480812,1175469167287494,0.65295005,7.3030505,6.5839505
1679995480814,1175469169789648,0.65295005,7.29405,6.636
1679995480816,1175469172291571,0.57600003,7.2960005,6.61005
1679995480820,1175469174793725,0.57795,7.25505,6.6220503
1679995480822,1175469177295802,0.51405,7.35405,6.50895
1679995480824,1175469179797740,0.42000002,7.2720003,6.5809503
1679995480827,1175469182299817,0.432,7.3819504,6.4609504
1679995480830,1175469184801740,0.22395001,7.4089503,6.663
1679995480831,1175469187304124,0.16395001,7.3609505,6.60795
1679995480839,1175469189806047,0.09,7.3369503,6.6600003
1679995480839,1175469192308110,0.054,7.4089503,6.50895
1679995480840,1175469194810033,0.0010500001,7.32,6.5119505
1679995480843,1175469197312187,-0.010950001,7.3219504,6.5190005
1679995480845,1175469199814268,0.06795,7.3489504,6.5449505
1679995480847,1175469202316422,0.11595,7.3680005,6.49305
1679995480850,1175469204818345,0.10695001,7.3180504,6.4999504
1679995480855,1175469207320499,0.11595,7.3939505,6.4999504
1679995480856,1175469209822576,0.171,7.31295,6.62895
1679995480857,1175469212324499,0.27705002,7.38705,6.675
1679995480859,1175469214826576,0.18105,7.2720003,6.5599504
1679995480862,1175469217328730,0.22395001,7.2960005,6.6870003
1679995480864,1175469219830884,0.28605002,7.29405,6.6990004
1679995480867,1175469222332831,0.30495003,7.2750006,6.7219505
1679995480872,1175469224834908,0.28605002,7.2289505,6.55695
1679995480872,1175469227337061,0.37500003,7.3369503,6.6910505
1679995480874,1175469229838985,0.303,7.3099504,6.5790005
1679995480877,1175469232341071,0.411,7.3300505,6.4950004
1679995480881,1175469234843225,0.34605002,7.31505,6.5860505
1679995480883,1175469237345379,0.39600003,7.2889504,6.6940503
1679995480888,1175469239847302,0.384,7.2670503,6.6649504
1679995480889,1175469242349360,0.33195,7.3609505,6.64305
1679995480891,1175469244851283,0.10695001,7.425,6.78
1679995480893,1175469247353437,0.03195,7.4449506,6.5809503
1679995480895,1175469249855514,0.07095,7.3819504,6.4729505
1679995480897,1175469252357668,0.00795,7.3699503,6.5880003
1679995480899,1175469254859591,0.087000005,7.42995,6.4230003
1679995480904,1175469257361745,0.11895001,7.4400005,6.5449505
1679995480905,1175469259863822,0.27195,7.2510004,6.5400004
1679995480907,1175469262365745,0.24105,7.2840004,6.4350004
1679995480910,1175469264867831,0.33195,7.2390003,6.5449505
1679995480912,1175469267369985,0.39600003,7.3320003,6.6120005
1679995480914,1175469269872138,0.411,7.3219504,6.5449505
1679995480920,1175469272374081,0.49005002,7.25505,6.636
1679995480921,1175469274876157,0.59295005,7.2120004,6.6120005
1679995480923,1175469277378311,0.50100005,7.3180504,6.6840005
1679995480927,1175469279880234,0.47295,7.2070503,6.6720004
1679995480928,1175469282382311,0.47805002,7.2700505,6.6910505
1679995480930,1175469284884432,0.44205,7.3609505,6.64095
1679995480933,1175469287386586,0.31995,7.2910504,6.59805
1679995480938,1175469289888509,0.43905002,7.3009505,6.6580505
1679995480939,1175469292390586,0.42000002,7.3420506,6.6720004
1679995480939,1175469294892509,0.38205,7.39905,6.6550503
1679995480942,1175469297394663,0.37500003,7.3009505,6.5929503
1679995480944,1175469299896740,0.351,7.35405,6.70095
1679995480947,1175469302398894,0.31305,7.41795,6.6120005
1679995480950,1175469304900802,0.29595003,7.392,6.6169505
1679995480956,1175469307402956,0.231,7.392,6.64305
1679995480957,1175469309905033,0.22200002,7.35795,6.663
1679995480957,1175469312406956,0.25500003,7.3420506,6.6169505
1679995480961,1175469314909009,0.24300002,7.4059505,6.6169505
1679995480962,1175469317411163,0.24495001,7.3060503,6.576
1679995480964,1175469319913316,0.19800001,7.3630505,6.5719504
1679995480967,1175469322415239,0.26205,7.3080006,6.52605
1679995480971,1175469324917316,0.19305001,7.32,6.6220503
1679995480972,1175469327419432,0.21405001,7.3780503,6.6550503
1679995480974,1175469329921355,0.31305,7.3339505,6.5500503
1679995480977,1175469332423432,0.26895002,7.32705,6.5280004
1679995480980,1175469334925586,0.37005,7.3489504,6.4830003
1679995480981,1175469337427509,0.40605003,7.227,6.5119505
1679995480990,1175469339929672,0.39405003,7.2120004,6.5790005
1679995480991,1175469342431749,0.34800002,7.34595,6.50895
1679995480992,1175469344933672,0.44205,7.2769504,6.5500503
1679995480994,1175469347435749,0.37995002,7.3510504,6.543
1679995480995,1175469349937883,0.43005002,7.3489504,6.55695
1679995480997,1175469352440037,0.43005002,7.2510004,6.6340504
1679995481000,1175469354941960,0.46800002,7.3660502,6.564
1679995481005,1175469357444037,0.45600003,7.3660502,6.5550003
1679995481005,1175469359946191,0.46305,7.3939505,6.5070004
1679995481007,1175469362448143,0.528,7.2700505,6.5790005
1679995481010,1175469364950296,0.55695003,7.3060503,6.5599504
1679995481012,1175469367452373,0.48495004,7.2700505,6.543
1679995481015,1175469369954527,0.46800002,7.2889504,6.4300504
1679995481017,1175469372456368,0.47805002,7.35405,6.5670004
1679995481022,1175469374958522,0.54495,7.287,6.6460505
1679995481023,1175469377460445,0.55395,7.35405,6.6150002
1679995481024,1175469379962830,0.48705003,7.3060503,6.6910505
1679995481027,1175469382464666,0.48000002,7.32705,6.5209503
1679995481032,1175469384966820,0.40605003,7.3680005,6.5190005
1679995481033,1175469387468743,0.46605003,7.3180504,6.62895
1679995481037,1175469389970820,0.43005002,7.3180504,6.6529503
1679995481037,1175469392472743,0.432,7.3819504,6.56895
1679995481039,1175469394975100,0.45600003,7.392,6.4810505
1679995481042,1175469397477023,0.38205,7.392,6.564
1679995481044,1175469399979100,0.40605003,7.3609505,6.5809503
1679995481047,1175469402480994,0.36495003,7.3750505,6.6340504
1679995481049,1175469404983148,0.37695003,7.4419503,6.6169505
1679995481054,1175469407485225,0.31005,7.4130006,6.60795
1679995481055,1175469409987148,0.28605002,7.3320003,6.6600003
1679995481057,1175469412489302,0.24105,7.3729506,6.543
1679995481059,1175469414991464,0.29295,7.3939505,6.6240005
1679995481062,1175469417493541,0.27405003,7.4419503,6.5520005
1679995481064,1175469419995464,0.25695002,7.3819504,6.6460505
1679995481074,1175469422497546,0.17400001,7.3560004,6.5479503
1679995481076,1175469424999700,0.24105,7.3390503,6.6460505
1679995481077,1175469427501623,0.13305001,7.3969502,6.55695
1679995481078,1175469430003777,0.186,7.3780503,6.55695
1679995481080,1175469432505854,0.162,7.3560004,6.62895
1679995481081,1175469435007979,0.15405001,7.3369503,6.5719504
1679995481082,1175469437509902,0.21405001,7.35405,6.5839505
1679995481087,1175469440011979,0.21405001,7.34595,6.4300504
1679995481088,1175469442513902,0.126,7.4490004,6.62895
1679995481090,1175469445016282,0.135,7.2649503,6.5860505
1679995481093,1175469447518205,0.15,7.3939505,6.6720004
1679995481094,1175469450020282,0.09705,7.3609505,6.6340504
1679995481097,1175469452522205,0.12795001,7.2769504,6.5500503
1679995481100,1175469455024364,0.16905001,7.41795,6.4849505
1679995481104,1175469457526440,0.09,7.3510504,6.59595
1679995481106,1175469460028364,0.15,7.3180504,6.543
1679995481110,1175469462530517,0.08295,7.3609505,6.6340504
1679995481111,1175469465032676,0.171,7.4230504,6.49305
1679995481112,1175469467534753,0.19305001,7.28205,6.4759502
1679995481114,1175469470036676,0.16395001,7.3780503,6.6670504
1679995481117,1175469472538753,0.21195,7.38,6.5880003
1679995481121,1175469475040902,0.19305001,7.392,6.6460505
1679995481122,1175469477543056,0.22200002,7.3099504,6.636
1679995481124,1175469480044979,0.26505002,7.3060503,6.62895
1679995481127,1175469482547056,0.27195,7.3969502,6.59805
1679995481130,1175469485049210,0.27195,7.3819504,6.5809503
1679995481132,1175469487551152,0.25500003,7.3420506,6.56895
1679995481137,1175469490053229,0.29295,7.3390503,6.5500503
1679995481138,1175469492555152,0.28095,7.3339505,6.70305
1679995481139,1175469495057536,0.29595003,7.2990003,6.6190505
1679995481143,1175469497559475,0.34800002,7.4539504,6.6240005
1679995481145,1175469500061551,0.35595003,7.34595,6.5670004
1679995481147,1175469502563475,0.38895002,7.3099504,6.531
1679995481151,1175469505065551,0.46305,7.1959505,6.6649504
1679995481156,1175469507567700,0.39405003,7.3009505,6.6480002
1679995481156,1175469510069623,0.53805,7.4089503,6.64095
1679995481157,1175469512571777,0.48000002,7.3729506,6.61005
1679995481159,1175469515073854,0.42705002,7.3009505,6.531
1679995481162,1175469517576008,0.48705003,7.3510504,6.5280004
1679995481164,1175469520077940,0.49695003,7.41795,6.5209503
1679995481167,1175469522580017,0.63795,7.3969502,6.6169505
1679995481169,1175469525081940,0.53805,7.3320003,6.52605
1679995481172,1175469527584293,0.48000002,7.3780503,6.67005
1679995481174,1175469530086216,0.51405,7.35795,6.55695
1679995481177,1175469532588293,0.507,7.2910504,6.64095
1679995481181,1175469535090216,0.45405003,7.3560004,6.6240005
1679995481183,1175469537592393,0.45600003,7.2840004,6.5209503
1679995481185,1175469540094470,0.39405003,7.29405,6.62895
1679995481187,1175469542596393,0.35295,7.3489504,6.52395
1679995481189,1175469545098547,0.33900002,7.3560004,6.5500503
1679995481192,1175469547600700,0.46605003,7.3300505,6.4540505
1679995481194,1175469550102791,0.36,7.31295,6.5520005
1679995481197,1175469552604714,0.26505002,7.4449506,6.5449505
1679995481200,1175469555106791,0.31005,7.2769504,6.46605
1679995481202,1175469557608945,0.31695002,7.3440003,6.52605
1679995481205,1175469560110863,0.351,7.2289505,6.5119505
1679995481208,1175469562613017,0.303,7.4010005,6.5929503
1679995481210,1175469565115094,0.31005,7.32,6.591
1679995481213,1175469567617017,0.34605002,7.3560004,6.6480002
1679995481215,1175469570119094,0.252,7.3630505,6.5740504
1679995481219,1175469572621263,0.28395,7.3060503,6.5500503
1679995481221,1175469575123417,0.22905001,7.3390503,6.56895
1679995481224,1175469577625340,0.21000001,7.4809504,6.6550503
1679995481227,1175469580127426,0.23295002,7.4539504,6.5740504
1679995481228,1175469582629349,0.21405001,7.392,6.5790005
1679995481231,1175469585131503,0.25005,7.3750505,6.64305
1679995481232,1175469587633657,0.24795002,7.3660502,6.62895
1679995481234,1175469590135734,0.303,7.32,6.5620503
1679995481237,1175469592637657,0.20505,7.35795,6.5209503
1679995481240,1175469595139810,0.26205,7.452,6.4950004
1679995481243,1175469597641887,0.16395001,7.3939505,6.60795
1679995481245,1175469600143810,0.075,7.45905,6.5190005
1679995481247,1175469602645911,0.13095,7.3390503,6.63105
1679995481250,1175469605148142,0.171,7.2510004,6.5550003
1679995481253,1175469607650219,0.19800001,7.4040003,6.5479503
1679995481257,1175469610152142,0.11100001,7.35795,6.6150002
1679995481259,1175469612654219,0.11400001,7.4470506,6.45195
1679995481261,1175469615156373,0.06795,7.3750505,6.52605
1679995481263,1175469617658296,0.11595,7.4130006,6.6240005
1679995481265,1175469620160373,0.135,7.485,6.6340504
1679995481267,1175469622662527,0.09195001,7.4370003,6.6000004
1679995481270,1175469625164681,0.16395001,7.4040003,6.52605
1679995481272,1175469627666604,0.102000006,7.39905,6.6990004
1679995481275,1175469630168681,0.13305001,7.45905,6.64305
1679995481277,1175469632670604,0.058950003,7.3440003,6.6550503
1679995481280,1175469635172758,0.05595,7.4329505,6.5520005
1679995481283,1175469637674907,0.135,7.4230504,6.71295
1679995481285,1175469640176983,0.15705001,7.38,6.60795
1679995481287,1175469642678907,0.10695001,7.2750006,6.63105
1679995481290,1175469645181060,0.15195,7.4490004,6.6340504
1679995481295,1175469647683142,0.20205002,7.2310505,6.6649504
1679995481296,1175469650185065,0.22605,7.2750006,6.59805
1679995481299,1175469652687142,0.29805002,7.4449506,6.6889505
1679995481301,1175469655189359,0.31995,7.3099504,6.5209503
1679995481303,1175469657691436,0.22905001,7.3939505,6.5790005
1679995481305,1175469660193359,0.27705002,7.2840004,6.5550003
1679995481307,1175469662695436,0.34395,7.2510004,6.55695
1679995481310,1175469665197590,0.33405003,7.3339505,6.60795
1679995481312,1175469667699546,0.33600003,7.2840004,6.5280004
1679995481315,1175469670201623,0.32505003,7.2510004,6.53805
1679995481317,1175469672703777,0.384,7.32705,6.4849505
1679995481320,1175469675205931,0.37995002,7.29405,6.47805
1679995481323,1175469677707782,0.37995002,7.3009505,6.59595
1679995481325,1175469680209936,0.34395,7.2670503,6.636
1679995481328,1175469682711859,0.44895002,7.3440003,6.5140505
1679995481332,1175469685214013,0.42705002,7.32495,6.5190005
1679995481334,1175469687716100,0.37695003,7.3560004,6.52395
1679995481336,1175469690218254,0.43500003,7.4350505,6.5809503
1679995481339,1175469692720177,0.49005002,7.3099504,6.5160003
1679995481341,1175469695222331,0.42000002,7.3680005,6.4879503
1679995481343,1175469697724422,0.36795002,7.3660502,6.708
1679995481345,1175469700226345,0.40605003,7.3390503,6.5119505
1679995481347,1175469702728422,0.46095002,7.3369503,6.636
1679995481352,1175469705230653,0.411,7.3320003,6.6049504
1679995481352,1175469707732475,0.38895002,7.392,6.5550003
1679995481355,1175469710234629,0.36,7.3180504,6.663
1679995481357,1175469712736706,0.363,7.4040003,6.56895
1679995481359,1175469715238860,0.30105,7.3969502,6.5809503
1679995481362,1175469717740706,0.31005,7.4610004,6.7200003
1679995481364,1175469720242951,0.25695002,7.38705,6.531
1679995481368,1175469722745028,0.26700002,7.41795,6.6150002
1679995481371,1175469725246951,0.25500003,7.3699503,6.636
1679995481374,1175469727749052,0.21000001,7.38,6.6510005
1679995481375,1175469730251205,0.24105,7.4059505,6.636
1679995481377,1175469732753129,0.16605,7.3900504,6.6270003
1679995481380,1175469735255206,0.17595,7.3099504,6.5809503
1679995481382,1175469737757359,0.13305001,7.392,6.6460505
1679995481384,1175469740259504,0.19995001,7.4490004,6.53805
1679995481387,1175469742761427,0.15,7.4329505,6.5400004
1679995481390,1175469745263504,0.16905001,7.4089503,6.55695
1679995481393,1175469747765427,0.18300001,7.3180504,6.5160003
1679995481402,1175469750267586,0.11100001,7.3420506,6.5500503
1679995481402,1175469752769663,0.102000006,7.4209504,6.5280004
1679995481402,1175469755271817,0.15900001,7.4089503,6.6240005
1679995481402,1175469757773740,0.11595,7.4059505,6.53805
1679995481406,1175469760275908,0.11595,7.2769504,6.6510005
1679995481409,1175469762777985,0.19995001,7.3699503,6.6270003
1679995481411,1175469765280139,0.12105001,7.3099504,6.5670004
1679995481413,1175469767782062,0.14205001,7.42995,6.5670004
1679995481415,1175469770284139,0.171,7.3609505,6.6000004
1679995481417,1175469772786288,0.15405001,7.32,6.71295
1679995481420,1175469775288211,0.19305001,7.4110503,6.5500503
1679995481422,1175469777790288,0.16605,7.4089503,6.53805
1679995481424,1175469780292441,0.252,7.35405,6.6120005
1679995481427,1175469782794595,0.22605,7.464,6.5209503
1679995481430,1175469785296518,0.26505002,7.3900504,6.4570503
1679995481432,1175469787798595,0.21000001,7.3489504,6.5599504
1679995481435,1175469790300518,0.27195,7.3630505,6.6169505
1679995481437,1175469792802672,0.23595001,7.35795,6.6150002
1679995481440,1175469795304773,0.15,7.3969502,6.5929503
1679995481444,1175469797806927,0.22605,7.3729506,6.5670004
1679995481445,1175469800308850,0.20205002,7.38,6.62895
1679995481447,1175469802811004,0.102000006,7.3699503,6.5190005
1679995481450,1175469805313072,0.24495001,7.3510504,6.576
1679995481453,1175469807814995,0.14205001,7.34595,6.6510005
1679995481455,1175469810317072,0.18795002,7.4689503,6.5449505
1679995481457,1175469812819226,0.23805001,7.29405,6.49305
1679995481460,1175469815321398,0.21405001,7.32495,6.576
1679995481462,1175469817823321,0.16605,7.31295,6.5719504
1679995481464,1175469820325398,0.21195,7.3660502,6.5329504
1679995481467,1175469822827551,0.31305,7.3630505,6.5449505
1679995481470,1175469825329407,0.22395001,7.4040003,6.4999504
1679995481472,1175469827831560,0.303,7.35795,6.6000004
1679995481474,1175469830333714,0.17400001,7.3780503,6.5599504
1679995481477,1175469832835868,0.25995,7.3819504,6.5860505
1679995481482,1175469835337682,0.25695002,7.2910504,6.5190005
1679995481484,1175469837839836,0.28905,7.3009505,6.4999504
1679995481486,1175469840341759,0.35295,7.3750505,6.5929503
1679995481489,1175469842843913,0.38205,7.35795,6.6270003
1679995481491,1175469845345759,0.37695003,7.3060503,6.49305
1679995481494,1175469847848144,0.32505003,7.3030505,6.5449505
1679995481496,1175469850350067,0.30495003,7.3440003,6.6460505
1679995481498,1175469852852221,0.34605002,7.2840004,6.603
1679995481500,1175469855354067,0.35295,7.3369503,6.5280004
1679995481502,1175469857856215,0.38205,7.3510504,6.6220503
1679995481505,1175469860358292,0.34095,7.26,6.6550503
1679995481508,1175469862860446,0.372,7.38,6.5670004
1679995481510,1175469865362369,0.29595003,7.2580504,6.5790005
1679995481512,1175469867864523,0.33600003,7.3060503,6.61005
1679995481515,1175469870366599,0.40605003,7.2360005,6.5860505
1679995481519,1175469872868753,0.40605003,7.29405,6.64095
1679995481524,1175469875369665,0.36495003,7.22205,6.6270003
1679995481524,1175469877870590,0.40605003,7.31295,6.636
1679995481527,1175469880374897,0.36495003,7.28205,6.55695
1679995481529,1175469882877051,0.36795002,7.24095,6.6169505
1679995481531,1175469885378897,0.42000002,7.3030505,6.63105
1679995481534,1175469887881051,0.34395,7.38495,6.6670504
1679995481535,1175469890382955,0.34605002,7.2700505,6.42105
1679995481537,1175469892885032,0.34800002,7.2990003,6.5929503
1679995481540,1175469895386955,0.384,7.4059505,6.6340504
1679995481543,1175469897889340,0.26700002,7.26,6.55695
1679995481545,1175469900391235,0.31695002,7.392,6.5860505
1679995481547,1175469902893312,0.33195,7.3060503,6.6840005
1679995481550,1175469905395235,0.26505002,7.4419503,6.5839505
1679995481552,1175469907897389,0.22605,7.35405,6.6460505
1679995481556,1175469910399471,0.29295,7.3180504,6.636
1679995481560,1175469912901394,0.25695002,7.3819504,6.5790005
1679995481561,1175469915403778,0.26205,7.4400005,6.5670004
1679995481563,1175469917905701,0.21705002,7.3489504,6.6120005
1679995481565,1175469920407778,0.19005,7.31295,6.564
1679995481567,1175469922909681,0.079950005,7.26,6.63105
1679995481570,1175469925411758,0.13095,7.2990003,6.5670004
1679995481573,1175469927913912,0.135,7.42995,6.4999504
1679995481576,1175469930416066,0.24495001,7.3729506,6.52395
1679995481577,1175469932917946,0.13800001,7.3060503,6.49305
1679995481580,1175469935420023,0.20700002,7.2990003,6.4420505
1679995481582,1175469937922177,0.11895001,7.3440003,6.5880003
1679995481585,1175469940424100,0.18300001,7.35405,6.5500503
1679995481587,1175469942926177,0.15405001,7.31295,6.5190005
1679995481590,1175469945428091,0.22605,7.2840004,6.4729505
1679995481595,1175469947930476,0.23595001,7.4130006,6.531
1679995481596,1175469950432399,0.20205002,7.4470506,6.6000004
1679995481599,1175469952934466,0.14505,7.3609505,6.5070004
1679995481601,1175469955436389,0.24495001,7.38,6.60795
1679995481602,1175469957938543,0.28905,7.32,6.46395
1679995481605,1175469960440389,0.24495001,7.3729506,6.5860505
1679995481607,1175469962942773,0.25695002,7.4089503,6.52395
1679995481610,1175469965444701,0.21000001,7.3969502,6.564
1679995481613,1175469967946778,0.25005,7.3080006,6.50895
1679995481615,1175469970448701,0.29595003,7.3819504,6.5740504
1679995481618,1175469972950778,0.22605,7.2649503,6.6510005
1679995481620,1175469975453023,0.23595001,7.34595,6.59595
1679995481623,1175469977955100,0.19500001,7.4230504,6.4570503
1679995481625,1175469980457023,0.22200002,7.3560004,6.564
1679995481628,1175469982959100,0.186,7.34595,6.5809503
1679995481634,1175469985461225,0.291,7.3729506,6.5479503
1679995481636,1175469987963148,0.22200002,7.3939505,6.55695
1679995481637,1175469990465302,0.20700002,7.3729506,6.61005
1679995481638,1175469992967379,0.25005,7.48995,6.49695
1679995481641,1175469995469533,0.21405001,7.3030505,6.7510505
1679995481645,1175469997971447,0.26205,7.3969502,6.61005
1679995481646,1175470000473524,0.252,7.49205,6.6649504
1679995481648,1175470002975447,0.25995,7.4010005,6.6000004
1679995481651,1175470005477601,0.26895002,7.4230504,6.5929503
1679995481653,1175470007979754,0.26505002,7.38705,6.53805
1679995481655,1175470010481850,0.31305,7.4230504,6.6150002
1679995481658,1175470012983773,0.32700002,7.3729506,6.663
1679995481660,1175470015485927,0.31500003,7.4059505,6.5520005
1679995481662,1175470017988004,0.31695002,7.38,6.6150002
1679995481665,1175470020489917,0.37500003,7.34595,6.5020504
1679995481669,1175470022992071,0.31305,7.3030505,6.59595
1679995481672,1175470025494225,0.38895002,7.3699503,6.6480002
1679995481673,1175470027996302,0.40605003,7.2840004,6.5809503
1679995481675,1175470030498240,0.32505003,7.4329505,6.591
1679995481678,1175470033000317,0.42000002,7.3440003,6.5520005
1679995481680,1175470035502471,0.36,7.38705,6.5479503
1679995481683,1175470038004317,0.35295,7.32705,6.5209503
1679995481685,1175470040506548,0.32505003,7.2750006,6.576
1679995481688,1175470043008629,0.26700002,7.3300505,6.4999504
1679995481690,1175470045510552,0.33600003,7.2790504,6.591
1679995481693,1175470048012706,0.39405003,7.3219504,6.46395
1679995481695,1175470050514783,0.41805002,7.22205,6.576
1679995481698,1175470053016721,0.411,7.3390503,6.543
1679995481700,1175470055518874,0.38205,7.26,6.5719504
1679995481703,1175470058021028,0.35295,7.32,6.543
1679995481707,1175470060523105,0.41595003,7.3440003,6.543
1679995481710,1175470063025033,0.32700002,7.3180504,6.5809503
1679995481711,1175470065527110,0.36,7.3680005,6.5449505
1679995481713,1175470068029033,0.37500003,7.31295,6.5860505
1679995481716,1175470070531187,0.36,7.2700505,6.5620503
1679995481717,1175470073033341,0.279,7.32,6.5160003
1679995481720,1175470075535437,0.31695002,7.3369503,6.5719504
1679995481722,1175470078037591,0.37500003,7.41795,6.59595
1679995481725,1175470080539514,0.28395,7.2240005,6.52605
1679995481727,1175470083041591,0.19995001,7.31295,6.6240005
1679995481730,1175470085543509,0.26700002,7.3180504,6.5190005
1679995481733,1175470088045586,0.28905,7.3819504,6.564
1679995481735,1175470090547817,0.22395001,7.3300505,6.4540505
1679995481737,1175470093049894,0.25005,7.41795,6.5119505
1679995481740,1175470095551841,0.17805001,7.4040003,6.5809503
1679995481744,1175470098053918,0.29595003,7.3699503,6.5500503
1679995481746,1175470100556071,0.26700002,7.42995,6.5119505
1679995481748,1175470103057995,0.21405001,7.4710503,6.576
1679995481751,1175470105560081,0.19305001,7.3440003,6.4230003
1679995481753,1175470108062235,0.30495003,7.3699503,6.4729505
1679995481756,1175470110564389,0.22605,7.3900504,6.5860505
1679995481758,1175470113066312,0.21000001,7.38495,6.49305
1679995481760,1175470115568384,0.24300002,7.4040003,6.543
1679995481763,1175470118070307,0.24795002,7.2889504,6.5400004
1679995481765,1175470120572461,0.23595001,7.3729506,6.46395
1679995481768,1175470123074615,0.26505002,7.2960005,6.5449505
1679995481771,1175470125576701,0.25695002,7.3080006,6.531
1679995481774,1175470128078624,0.26895002,7.32705,6.543
1679995481775,1175470130580778,0.27195,7.3369503,6.53805
1679995481777,1175470133082855,0.35805002,7.3750505,6.5599504
1679995481782,1175470135584990,0.31695002,7.3560004,6.5140505
1679995481784,1175470138086836,0.37005,7.3699503,6.4999504
1679995481785,1175470140589067,0.38895002,7.4160004,6.5160003
1679995481787,1175470143091143,0.39600003,7.3900504,6.5449505
1679995481790,1175470145593067,0.35295,7.35405,6.5790005
1679995481794,1175470148095143,0.41295,7.32705,6.61005
1679995481795,1175470150597297,0.35805002,7.392,6.5839505
1679995481798,1175470153099220,0.46095002,7.3080006,6.5140505
1679995481800,1175470155601297,0.36,7.4400005,6.53805
1679995481804,1175470158103451,0.42495003,7.4350505,6.5880003
1679995481806,1175470160605374,0.46305,7.38,6.5020504
1679995481808,1175470163107528,0.47805002,7.3080006,6.5520005
1679995481810,1175470165609374,0.46305,7.2700505,6.5190005
1679995481813,1175470168111759,0.47100002,7.4449506,6.5599504
1679995481815,1175470170613706,0.47295,7.3369503,6.4729505
1679995481821,1175470173115860,0.43905002,7.3699503,6.52395
1679995481823,1175470175617706,0.46095002,7.3489504,6.5449505
1679995481825,1175470178139552,0.41295,7.3660502,6.5599504
1679995481827,1175470180621951,0.44205,7.3630505,6.59805
1679995481829,1175470183124182,0.42705002,7.464,6.5449505
1679995481831,1175470185626028,0.40095,7.4689503,6.5209503
1679995481833,1175470188128182,0.44205,7.4610004,6.4300504
1679995481835,1175470190630259,0.37005,7.3969502,6.50895
1679995481838,1175470193132422,0.28095,7.51905,6.4729505
1679995481840,1175470195634269,0.303,7.4209504,6.5790005
1679995481844,1175470198136422,0.23595001,7.3900504,6.46605
1679995481845,1175470200638576,0.24795002,7.5210004,6.5190005
1679995481848,1175470203140474,0.33195,7.4610004,6.5620503
1679995481851,1175470205642551,0.21405001,7.4010005,6.6270003
1679995481853,1175470208144705,0.34095,7.4329505,6.591
1679995481857,1175470210646628,0.28095,7.4370003,6.5140505
1679995481861,1175470213148705,0.30795002,7.4880004,6.64095
1679995481862,1175470215650628,0.162,7.4280005,6.60795
1679995481863,1175470218153013,0.22605,7.3699503,6.591
1679995481865,1175470220654936,0.21705002,7.5040503,6.4759502
1679995481868,1175470223157013,0.252,7.4419503,6.5860505
1679995481870,1175470225658936,0.22605,7.5160503,6.5070004
1679995481873,1175470228161090,0.13305001,7.5210004,6.6550503
1679995481875,1175470230663167,0.186,7.452,6.6169505
1679995481878,1175470233165306,0.24300002,7.5210004,6.5520005
1679995481880,1175470235667229,0.17595,7.4809504,6.603
1679995481883,1175470238169382,0.20505,7.5330005,6.6270003
1679995481886,1175470240671459,0.30105,7.5139503,6.5719504
1679995481887,1175470243173397,0.21405001,7.5070505,6.56895
1679995481891,1175470245675474,0.14205001,7.54995,6.5400004
1679995481895,1175470248177628,0.186,7.4610004,6.56895
1679995481897,1175470250679782,0.231,7.4730005,6.59805
1679995481899,1175470253181719,0.126,7.4830503,6.603
1679995481901,1175470255683796,0.17400001,7.38705,6.5119505
1679995481903,1175470258185950,0.16395001,7.38705,6.5790005
1679995481905,1175470260687873,0.19995001,7.5120006,6.56895
1679995481908,1175470263189950,0.162,7.497,6.636
1679995481910,1175470265691859,0.17805001,7.3900504,6.5400004
1679995481913,1175470268194244,0.27705002,7.4110503,6.7320004
1679995481915,1175470270696167,0.15405001,7.3320003,6.543
1679995481918,1175470273198244,0.10395,7.4160004,6.52605
1679995481921,1175470275700171,0.231,7.4010005,6.5670004
1679995481923,1175470278202325,0.171,7.3900504,6.5880003
1679995481926,1175470280704402,0.15,7.3900504,6.6580505
1679995481927,1175470283206555,0.18795002,7.3369503,6.5400004
1679995481932,1175470285708489,0.25005,7.3300505,6.53595
1679995481934,1175470288210642,0.22395001,7.464,6.5719504
1679995481936,1175470290712719,0.22395001,7.3660502,6.53805
1679995481939,1175470293214642,0.22395001,7.3660502,6.4879503
1679995481941,1175470295716719,0.36495003,7.3390503,6.5160003
1679995481943,1175470298218873,0.31695002,7.32495,6.50505
1679995481945,1175470300720796,0.34395,7.2910504,6.4729505
1679995481948,1175470303222950,0.29595003,7.3699503,6.4810505
1679995481950,1175470305725032,0.363,7.3699503,6.4279504
1679995481952,1175470308227186,0.31695002,7.287,6.4230003
1679995481955,1175470310729032,0.36795002,7.3180504,6.52605
1679995481958,1175470313231186,0.372,7.2240005,6.4420505
1679995481960,1175470315733340,0.38205,7.248,6.4020004
1679995481962,1175470318235263,0.351,7.35405,6.4690504
1679995481965,1175470320737417,0.423,7.32705,6.4950004
1679995481970,1175470323239508,0.351,7.2460504,6.3850503
1679995481972,1175470325741431,0.35595003,7.2649503,6.471
1679995481974,1175470328243508,0.31995,7.3099504,6.42495
1679995481977,1175470330745431,0.411,7.2750006,6.4090505
1679995481978,1175470333247815,0.41295,7.2790504,6.4399505
1679995481980,1175470335749705,0.37695003,7.2670503,6.3510003
1679995481983,1175470338251782,0.33600003,7.2670503,6.40605
1679995481985,1175470340753936,0.32700002,7.2769504,6.5020504
1679995481989,1175470343255859,0.40395,7.2790504,6.4950004
1679995481991,1175470345757936,0.34095,7.3009505,6.4450502
1679995481993,1175470348259839,0.31305,7.3750505,6.49305
1679995481995,1175470350761993,0.33405003,7.3369503,6.43695
1679995481999,1175470353264147,0.37695003,7.2670503,6.387
1679995482000,1175470355766224,0.38700002,7.35795,6.46605
1679995482003,1175470358268142,0.33195,7.287,6.40395
1679995482007,1175470360770296,0.21405001,7.392,6.4180503
1679995482010,1175470363272373,0.30795002,7.3099504,6.4900503
1679995482012,1175470365774543,0.28905,7.2889504,6.471
1679995482014,1175470368276466,0.30105,7.2240005,6.49695
1679995482016,1175470370778543,0.24495001,7.2910504,6.3900003
1679995482018,1175470373280466,0.33405003,7.28205,6.2770505
1679995482024,1175470375782620,0.252,7.3560004,6.4849505
1679995482024,1175470378284773,0.23595001,7.3420506,6.4399505
1679995482025,1175470380786850,0.21195,7.3300505,6.3820505
1679995482028,1175470383288773,0.22200002,7.3680005,6.3780003
1679995482031,1175470385790850,0.18105,7.4059505,6.399
1679995482033,1175470388293004,0.171,7.3009505,6.366
1679995482035,1175470390794927,0.25995,7.3510504,6.47805
1679995482038,1175470393297081,0.23595001,7.3609505,6.4180503
1679995482041,1175470395799158,0.21405001,7.3939505,6.47805
1679995482044,1175470398301307,0.17595,7.3420506,6.4159503
1679995482046,1175470400803230,0.31695002,7.35405,6.4350004
1679995482049,1175470403305307,0.16905001,7.3699503,6.4470005
1679995482051,1175470405807230,0.15195,7.38705,6.4759502
1679995482055,1175470408309292,0.19995001,7.3780503,6.339
1679995482056,1175470410811523,0.25005,7.2769504,6.4159503
1679995482062,1175470413313600,0.19305001,7.4329505,6.4090505
1679995482064,1175470415815523,0.20505,7.5040503,6.4140005
1679995482066,1175470418317653,0.23595001,7.2430506,6.3180003
1679995482067,1175470420819730,0.25500003,7.4329505,6.4230003
1679995482069,1175470423321653,0.21195,7.2700505,6.2839503
1679995482071,1175470425823806,0.21405001,7.3339505,6.3750005
1679995482073,1175470428325883,0.21000001,7.32705,6.29895
1679995482075,1175470430828037,0.29595003,7.34595,6.2719502
1679995482079,1175470433329960,0.19005,7.3900504,6.29895
1679995482082,1175470435832037,0.15705001,7.3699503,6.28695
1679995482085,1175470438333960,0.16395001,7.38,6.3700504
1679995482090,1175470440836090,0.28905,7.34595,6.3780003
1679995482091,1175470443338244,0.25005,7.2910504,6.2790003
1679995482094,1175470445840321,0.34800002,7.143,6.21705
1679995482095,1175470448342475,0.279,7.0639505,6.2080503
1679995482097,1175470450844398,0.19800001,7.09005,6.234
1679995482102,1175470453346456,0.26205,6.9700503,6.13605
1679995482102,1175470455848379,0.32505003,7.248,6.2430005
1679995482104,1175470458350456,0.34605002,7.35795,6.43305
1679995482106,1175470460852687,0.25695002,7.425,6.3780003
1679995482110,1175470463354764,0.24495001,7.4830503,6.3490505
1679995482112,1175470465856673,0.31005,7.4689503,6.3490505
1679995482113,1175470468358750,0.37695003,7.3660502,6.2050505
1679995482115,1175470470860903,0.37005,7.3900504,6.22905
1679995482120,1175470473362826,0.36795002,7.3780503,6.18795
1679995482123,1175470475863883,0.49695003,7.42995,6.2719502
1679995482123,1175470478364960,0.54195005,7.45905,6.2650504
1679995482127,1175470480869191,0.483,7.4470506,6.2460003
1679995482128,1175470483371114,0.52995,7.41795,6.2650504
1679995482131,1175470485873187,0.54495,7.4130006,6.1740003
1679995482134,1175470488375110,0.51600003,7.4490004,6.2029505
1679995482135,1175470490877187,0.43005002,7.5070505,6.18795
1679995482139,1175470493379418,0.53805,7.3099504,6.19605
1679995482141,1175470495881504,0.48495004,7.524,6.2959504
1679995482143,1175470498383427,0.52095,7.497,6.234
1679995482145,1175470500885504,0.50895,7.45905,6.3030005
1679995482149,1175470503387658,0.52305,7.4830503,6.306
1679995482151,1175470505889581,0.53805,7.51905,6.2910004
1679995482153,1175470508391673,0.46605003,7.51905,6.2430005
1679995482157,1175470510893827,0.46800002,7.5430503,6.222
1679995482160,1175470513395980,0.57105005,7.53105,6.13605
1679995482161,1175470515897904,0.372,7.4089503,6.33195
1679995482163,1175470518399975,0.44205,7.3939505,6.2839503
1679995482165,1175470520901899,0.38895002,7.38495,6.3030005
1679995482168,1175470523404052,0.45600003,7.3939505,6.1720505
1679995482171,1175470525906206,0.34605002,7.497,6.2119503
1679995482174,1175470528408273,0.36,7.38705,6.2790003
1679995482177,1175470530910196,0.43905002,7.3729506,6.2029505
1679995482179,1175470533412350,0.27195,7.425,6.2080503
1679995482181,1175470535914427,0.40395,7.5430503,6.2100005
1679995482184,1175470538416350,0.31995,7.3630505,6.3300004
1679995482186,1175470540918427,0.363,7.5480003,6.2460003
1679995482189,1175470543420658,0.26895002,7.4160004,6.2050505
1679995482191,1175470545922735,0.31995,7.4689503,6.117
1679995482195,1175470548424639,0.25995,7.4419503,6.1399503
1679995482196,1175470550926716,0.291,7.5160503,6.22905
1679995482199,1175470553428870,0.363,7.5430503,6.1639504
1679995482201,1175470555930793,0.28395,7.4230504,6.2910004
1679995482203,1175470558432947,0.22605,7.5600004,6.1069503
1679995482205,1175470560935028,0.23595001,7.497,6.2050505
1679995482211,1175470563437182,0.22395001,7.5840006,6.1810503
1679995482211,1175470565939105,0.29595003,7.5600004,6.32205
1679995482214,1175470568441182,0.24300002,7.6120505,6.2050505
1679995482216,1175470570943369,0.21000001,7.6189504,6.234
1679995482219,1175470573445292,0.20700002,7.5019503,6.28905
1679995482221,1175470575947369,0.13305001,7.6099505,6.36105
1679995482223,1175470578449523,0.21900001,7.6120505,6.3150005
1679995482227,1175470580951432,0.21195,7.63395,6.306
1679995482229,1175470583453509,0.23595001,7.7220006,6.2530503
1679995482234,1175470585955740,0.231,7.62405,6.3300004
1679995482235,1175470588457817,0.123,7.6150503,6.3580503
1679995482236,1175470590959745,0.09705,7.59105,6.3370504
1679995482241,1175470593461822,0.15195,7.62195,6.4159503
1679995482242,1175470595963745,0.022950001,7.6720505,6.2719502
1679995482243,1175470598465899,0.078,7.6789503,6.3820505
1679995482246,1175470600967976,0.147,7.6099505,6.399
1679995482249,1175470603470129,0.075,7.6720505,6.4180503
1679995482251,1175470605972053,0.09,7.69395,6.4540505
1679995482253,1175470608474206,0.11595,7.8160505,6.4020004
1679995482255,1175470610976283,0.058950003,7.7800503,6.339
1679995482259,1175470613478230,0.079950005,7.6390505,6.2650504
1679995482261,1175470615980307,0.022950001,7.6309505,6.11205
1679995482263,1175470618482538,-0.025050001,7.5480003,6.30105
1679995482266,1175470620984615,0.08295,7.629,6.2580004
1679995482272,1175470623486542,0.08295,7.629,6.4540505
1679995482273,1175470625988619,0.102000006,7.7970004,6.4729505
1679995482274,1175470628490773,0.13995,7.7869506,6.42495
1679995482277,1175470630992696,0.054,7.8160505,6.46395
1679995482280,1175470633494773,0.123,7.76595,6.50895
1679995482281,1175470635996927,0.11100001,7.7800503,6.40395
1679995482284,1175470638499091,0.102000006,7.8949504,6.4420505
1679995482287,1175470641001014,0.09,7.8370504,6.45195
1679995482289,1175470643503091,0.123,7.87095,6.354
1679995482291,1175470646005014,0.186,7.85895,6.3700504
1679995482295,1175470648507110,0.16905001,7.76805,6.1930504
1679995482296,1175470651009264,0.17805001,7.84005,6.255
1679995482299,1175470653511417,0.18300001,7.833,6.15705
1679995482301,1175470656013340,0.13305001,7.84005,6.2100005
1679995482303,1175470658515417,0.19800001,7.7059503,6.2910004
1679995482308,1175470661017566,0.15900001,7.7370005,6.1759505
1679995482311,1175470663519489,0.13305001,7.833,6.2790003
1679995482312,1175470666021566,0.13995,7.6819506,6.16695
1679995482313,1175470668523720,0.25695002,7.7779503,6.15495
1679995482315,1175470671025870,0.23295002,7.7869506,6.2389503
1679995482318,1175470673527793,0.19995001,7.7299504,6.1260004
1679995482320,1175470676029870,0.21195,7.7539506,6.2629504
1679995482323,1175470678531793,0.18300001,7.8640504,6.117
1679995482325,1175470681033956,0.24300002,7.6909504,6.129
1679995482329,1175470683536033,0.252,7.7779503,6.1189504
1679995482331,1175470686038187,0.25695002,7.8520503,6.129
1679995482334,1175470688540110,0.29805002,7.7059503,6.129
1679995482336,1175470691042269,0.19800001,7.6459503,6.1450505
1679995482339,1175470693544346,0.41295,7.65495,6.0400505
1679995482341,1175470696046269,0.35595003,7.6530004,6.12405
1679995482345,1175470698548346,0.33195,7.5520506,5.9749503
1679995482347,1175470701050504,0.32505003,7.6309505,6.0490503
1679995482350,1175470703552658,0.37695003,7.7890506,6.16905
1679995482351,1175470706054581,0.34800002,7.7440505,6.3370504
1679995482353,1175470708556658,0.32895002,7.82805,6.3370504
1679995482356,1175470711058812,0.33600003,7.8370504,6.1260004
1679995482361,1175470713560705,0.33195,7.8160505,6.24795
1679995482361,1175470716062782,0.351,7.87095,6.31995
1679995482363,1175470718564936,0.41595003,7.8229504,6.282
1679995482365,1175470721067090,0.33195,7.7970004,6.2100005
1679995482369,1175470723569013,0.40605003,7.7779503,6.222
1679995482371,1175470726071090,0.32700002,7.85895,6.2410502
1679995482373,1175470728573013,0.38205,7.82805,6.3079505
1679995482377,1175470731075167,0.42705002,7.8090005,6.2700005
1679995482379,1175470733577244,0.32505003,7.794,6.3079505
1679995482382,1175470736079374,0.34605002,7.7580004,6.3030005
1679995482384,1175470738581297,0.25995,7.7800503,6.1740003
1679995482386,1175470741083451,0.31695002,7.7700005,6.222
1679995482388,1175470743585297,0.28605002,7.76805,6.2959504
1679995482391,1175470746087451,0.25695002,7.7220006,6.19995
1679995482393,1175470748589493,0.31305,7.7080503,6.21495
1679995482395,1175470751091647,0.14205001,7.7509503,6.2239504
1679995482399,1175470753593570,0.08295,7.69395,6.15705
1679995482401,1175470756095724,0.11895001,7.6650004,6.14295
1679995482403,1175470758597815,0.162,7.7179503,6.1380005
1679995482405,1175470761099969,0.16905001,7.72695,6.2310004
1679995482409,1175470763601815,0.126,7.734,6.0589504
1679995482410,1175470766103969,0.162,7.7149506,6.2580004
1679995482414,1175470768606138,0.10395,7.7490005,5.985
1679995482416,1175470771108061,0.16395001,7.7560506,6.0660005
1679995482420,1175470773610138,0.04695,7.6840506,6.1930504
1679995482422,1175470776112061,0.11895001,7.7299504,6.0810003
1679995482424,1175470778614451,0.09705,7.8300004,6.13605
1679995482427,1175470781116374,0.087000005,7.7440505,6.09
1679995482429,1175470783618451,0.13995,7.8040504,6.03
1679995482431,1175470786120374,0.15705001,7.8570004,6.09705
1679995482433,1175470788622528,0.058950003,7.8250504,6.129
1679995482435,1175470791124613,0.14505,7.794,6.0139503
1679995482440,1175470793626537,0.05595,7.87305,6.09705
1679995482441,1175470796128690,0.15,7.7580004,6.0349503
1679995482444,1175470798630844,0.13305001,7.7970004,6.018
1679995482446,1175470801132941,0.09705,7.8799505,6.057
1679995482449,1175470803634864,0.13800001,7.82805,6.0760503
1679995482451,1175470806136941,0.186,7.7730002,6.0259504
1679995482454,1175470808639095,0.126,7.66305,5.8890004
1679995482458,1175470811140912,0.08505,7.6650004,5.9490004
1679995482461,1175470813643143,0.094950005,7.6770005,5.985
1679995482462,1175470816145220,0.10395,7.6480503,5.90805
1679995482464,1175470818647374,0.079950005,7.7419505,5.9680505
1679995482465,1175470821149220,-0.01995,7.6530004,6.102
1679995482469,1175470823651374,0.03705,7.6770005,6.0280504
1679995482471,1175470826153297,0.06105,7.7629504,6.0259504
1679995482473,1175470828655681,0.07095,7.7560506,6.1759505
1679995482477,1175470831157528,0.051000003,7.8130503,5.9749503
1679995482479,1175470833659677,0.11100001,7.833,6.12405
1679995482481,1175470836161600,0.21195,7.8610506,5.98005
1679995482484,1175470838663753,0.18300001,7.8540006,6.0469503
1679995482486,1175470841165600,0.15900001,7.9210505,6.0019503
1679995482489,1175470843667753,0.18300001,7.8640504,5.958
1679995482491,1175470846169907,0.17805001,7.8570004,5.997
1679995482495,1175470848672061,0.21000001,7.9879503,5.9419503
1679995482498,1175470851173907,0.15405001,7.8490505,5.925
1679995482500,1175470853676066,0.21195,7.9120502,6.0019503
1679995482501,1175470856178143,0.26700002,7.8540006,5.9350505
1679995482503,1175470858680297,0.25695002,7.8919506,5.98005
1679995482505,1175470861182220,0.24495001,7.87095,5.9680505
1679995482509,1175470863684374,0.17595,7.8420005,6.0400505
1679995482511,1175470866186441,0.279,7.8040504,5.89905
1679995482513,1175470868688364,0.31005,7.8210006,5.973
1679995482516,1175470871190441,0.26505002,7.8949504,6.0330005
1679995482518,1175470873692595,0.21000001,7.806,6.0400505
1679995482522,1175470876194513,0.31500003,7.7820005,6.0349503
1679995482524,1175470878696667,0.19800001,7.8520503,5.9539504
1679995482526,1175470881198744,0.22605,7.806,5.86005
1679995482529,1175470883700897,0.21405001,7.85895,5.8960505
1679995482533,1175470886202830,0.25995,7.8690004,5.89095
1679995482536,1175470888704907,0.31005,7.8610506,5.9230504
1679995482537,1175470891206830,0.21405001,7.76595,5.8819504
1679995482540,1175470893708984,0.18300001,7.8570004,5.89905
1679995482541,1175470896211138,0.23805001,7.82805,5.8819504
1679995482544,1175470898713234,0.279,7.8180003,5.8630505
1679995482545,1175470901215157,0.24495001,7.79895,5.9010005
1679995482549,1175470903717311,0.13305001,7.8469505,5.9370003
1679995482551,1175470906219388,0.13995,7.8300004,5.8890004
1679995482553,1175470908721311,0.17400001,7.87095,6.0019503
1679995482556,1175470911223489,0.21405001,7.8799505,6.0040503
1679995482560,1175470913725643,0.11400001,7.8829503,5.973
1679995482561,1175470916227720,0.13305001,7.8109503,5.9749503
1679995482563,1175470918729643,0.07305,7.7700005,5.9659505
1679995482566,1175470921231734,0.18300001,7.90395,6.0730505
1679995482571,1175470923733888,0.14205001,7.7779503,5.8669505
1679995482573,1175470926235811,0.078,7.806,5.9350505
1679995482576,1175470928737975,0.054,7.9480505,5.9560504
1679995482578,1175470931240051,-0.022950001,7.7970004,5.8770003
1679995482580,1175470933742205,-0.01305,7.8690004,6.129
1679995482582,1175470936244128,-0.01305,7.9020004,6.0810003
1679995482584,1175470938746205,0.030000001,7.8469505,5.9989505
1679995482586,1175470941248128,-0.025050001,7.8300004,5.97795
1679995482589,1175470943750267,0.043950003,7.9020004,5.9370003
1679995482593,1175470946252421,-0.09,7.90005,6.0400505
1679995482595,1175470948754498,-0.028050002,7.8760505,6.0060005
1679995482596,1175470951256431,-0.025050001,7.90005,5.985
1679995482599,1175470953758585,-0.025050001,7.9260006,5.9539504
1679995482601,1175470956260662,-0.01995,7.9450502,5.9560504
1679995482603,1175470958762585,-0.05595,7.8780003,5.9440503
1679995482608,1175470961264725,-0.03705,7.90005,5.90595
1679995482610,1175470963766879,-0.094950005,8.019,6.0139503
1679995482612,1175470966268956,-0.11595,7.90395,5.9869504
1679995482614,1175470968770802,-0.079950005,7.85895,6.0019503
1679995482616,1175470971273033,-0.043950003,7.8780003,5.9110503
1679995482619,1175470973775094,-0.052050002,7.9519506,5.973
1679995482621,1175470976277248,-0.13800001,7.93305,6.0420003
1679995482623,1175470978779094,0.00795,7.9189506,5.9539504
1679995482627,1175470981281248,-0.006,7.8690004,6.018
1679995482629,1175470983783214,-0.0010500001,8.005051,6.02295
1679995482631,1175470986285368,0.09195001,7.8640504,5.91795
1679995482633,1175470988787445,0.066,7.8780003,5.9869504
1679995482636,1175470991289599,0.054,7.90005,5.973
1679995482639,1175470993791518,0.016050002,7.8850503,5.90595
1679995482640,1175470996293672,0.10695001,7.97205,5.8290005
1679995482645,1175470998795518,0.051000003,7.9360504,5.89905
1679995482649,1175471001297672,0.06795,7.9399505,5.88705
1679995482649,1175471003799768,0.126,7.8640504,5.90805
1679995482651,1175471006301922,0.079950005,7.90395,5.82
1679995482654,1175471008803845,0.075,7.9240503,6.0469503
1679995482656,1175471011305999,0.126,7.9189506,5.8669505
1679995482659,1175471013808076,0.13305001,7.9279504,5.8669505
1679995482661,1175471016310229,0.09705,8.007,5.9560504
1679995482664,1175471018812076,0.09195001,7.8229504,5.9269505
1679995482666,1175471021314306,0.13800001,7.806,5.87505
1679995482669,1175471023816397,0.21405001,7.8570004,5.9350505
1679995482671,1175471026318551,0.15195,7.9549503,5.8939505
1679995482674,1175471028820397,0.17805001,7.8540006,5.9230504
1679995482675,1175471031322551,0.19305001,7.9279504,5.9539504
1679995482679,1175471033824474,0.186,7.9020004,5.9370003
1679995482682,1175471036326551,0.17400001,7.8799505,5.8770003
1679995482684,1175471038828705,0.21000001,7.8469505,5.736
1679995482686,1175471041330859,0.19005,7.8850503,5.9230504
1679995482689,1175471043832782,0.22395001,7.8450003,6.018
1679995482692,1175471046334859,0.19800001,7.90395,5.83395
1679995482694,1175471048836782,0.303,7.8210006,5.89095
1679995482696,1175471051338936,0.23805001,7.8160505,5.8720503
1679995482700,1175471053841013,0.23295002,7.8610506,5.85795
1679995482701,1175471056343172,0.21705002,7.8760505,5.87895
1679995482703,1175471058845095,0.22200002,7.9069505,5.8510504
1679995482705,1175471061347249,0.25005,7.9210505,5.80305
1679995482710,1175471063849326,0.16905001,7.8160505,5.7790504
1679995482711,1175471066351249,0.24795002,7.93095,5.89905
1679995482713,1175471068853326,0.25005,7.8349504,5.91795
1679995482716,1175471071355556,0.15705001,7.8229504,5.781
1679995482720,1175471073857633,0.303,7.9240503,5.7049503
1679995482724,1175471076359556,0.11595,7.8760505,5.8720503
1679995482725,1175471078861633,0.15705001,7.8090005,5.8840504
1679995482727,1175471081363787,0.15900001,7.7749505,5.9110503
1679995482730,1175471083865710,0.11595,7.9210505,5.8650002
1679995482732,1175471086367787,0.15405001,7.8300004,5.8840504
1679995482734,1175471088869941,0.18300001,7.833,5.92005
1679995482736,1175471091372095,0.15405001,7.8370504,5.80305
1679995482739,1175471093874018,0.162,7.8799505,5.9659505
1679995482741,1175471096376095,0.034950003,7.794,5.925
1679995482744,1175471098878008,0.109050006,7.8799505,5.913
1679995482746,1175471101380162,0.043950003,7.7700005,5.985
1679995482749,1175471103882316,0.079950005,7.8490505,6.0760503
1679995482751,1175471106384393,0.11400001,7.8610506,5.90595
1679995482753,1175471108886321,0.042000003,7.806,5.90805
1679995482757,1175471111388474,-0.03195,7.79895,5.9820004
1679995482760,1175471113890551,0.00795,7.7920504,5.946
1679995482762,1175471116392474,-0.00405,7.8250504,5.973
1679995482764,1175471118894532,-0.04695,7.7869506,5.946
1679995482766,1175471121396763,0.022950001,7.8229504,5.89905
1679995482769,1175471123898840,-0.006,7.8850503,5.9029503
1679995482771,1175471126400763,-0.063,7.87305,5.925
1679995482774,1175471128902849,-0.042000003,7.82805,5.9269505
1679995482776,1175471131404772,-0.030000001,7.7490005,5.9010005
1679995482780,1175471133906926,0.01995,7.7539506,5.8939505
1679995482781,1175471136409003,-0.01305,7.80105,5.9269505
1679995482785,1175471138911172,-0.00405,7.794,5.89905
1679995482787,1175471141413095,0.102000006,7.90005,5.88705
1679995482789,1175471143915249,0.06795,7.7700005,5.808
1679995482791,1175471146417326,0.08505,7.7869506,5.86005
1679995482795,1175471148919234,0.10695001,7.7560506,5.841
1679995482797,1175471151421311,0.109050006,7.7580004,5.7840004
1679995482800,1175471153923542,0.078,7.7179503,5.77605
1679995482801,1175471156425618,0.066,7.7820005,5.77395
1679995482804,1175471158927542,0.11895001,7.8469505,5.78595
1679995482806,1175471161429613,0.20700002,7.8090005,5.82
1679995482809,1175471163931767,0.15,7.833,5.7670503
1679995482811,1175471166433690,0.26505002,7.8490505,5.68305
1679995482813,1175471168935844,0.21900001,7.76805,5.82705
1679995482816,1175471171437912,0.15405001,7.806,5.82705
1679995482819,1175471173939835,0.26505002,7.8420005,5.7570004
1679995482821,1175471176441912,0.126,7.8919506,5.721
1679995482823,1175471178944066,0.19305001,7.794,5.7379503
1679995482825,1175471181446220,0.13305001,7.8229504,5.83395
1679995482829,1175471183948148,0.162,7.8180003,5.7240005
1679995482833,1175471186450225,0.25005,7.8420005,5.84595
1679995482835,1175471188952148,0.13095,7.8490505,5.688
1679995482837,1175471191454287,0.18795002,7.7580004,5.8170004
1679995482841,1175471193956364,0.19500001,7.7440505,5.649
1679995482844,1175471196458287,0.14505,7.7029505,5.664
1679995482845,1175471198960441,0.25500003,7.5480003,5.676
1679995482846,1175471201462595,0.15705001,7.5400505,5.5420504
1679995482849,1175471203964647,0.135,7.5090003,5.5350003
1679995482851,1175471206466571,0.171,7.60305,5.6260505
1679995482855,1175471208968647,0.126,7.7800503,5.8770003
1679995482856,1175471211470801,0.079950005,7.9519506,5.946
1679995482859,1175471213972960,0.11100001,7.9830003,5.9029503
1679995482861,1175471216474883,0.14505,8.083051,5.9010005
1679995482863,1175471218976960,0.075,7.9830003,6.0090003
1679995482866,1175471221479114,0.14205001,8.097,5.8630505
1679995482871,1175471223981052,0.135,8.062051,5.8939505
1679995482873,1175471226483129,0.17595,8.014951,5.6929502
1679995482875,1175471228985052,0.17595,7.9810505,5.7049503
1679995482877,1175471231487437,0.16905001,7.9999504,5.68095
1679995482879,1175471233989360,0.21900001,7.9549503,5.6779504
1679995482881,1175471236491423,0.13305001,7.8490505,5.75505
1679995482885,1175471238993346,0.30105,7.7200503,5.7910504
1679995482888,1175471241495500,0.24495001,7.8640504,5.7070503
1679995482889,1175471243997577,0.23295002,7.8850503,5.6059504
1679995482892,1175471246499481,0.28605002,7.82805,5.7450004
1679995482895,1175471249001635,0.28605002,7.8540006,5.748
1679995482896,1175471251503788,0.28905,7.794,5.75505
1679995482899,1175471254005865,0.31695002,7.8490505,5.75505
1679995482901,1175471256507788,0.25995,7.7820005,5.7330003
1679995482904,1175471259009869,0.32205,7.8370504,5.8000503
1679995482908,1175471261512023,0.37695003,7.8850503,5.6659503
1679995482911,1175471264014177,0.31305,7.90005,5.8000503
1679995482912,1175471266516105,0.35295,7.8349504,5.81505
1679995482914,1175471269018182,0.38895002,7.9669504,5.8630505
1679995482916,1175471271520336,0.432,7.9570503,5.7640505
1679995482919,1175471274022259,0.39405003,8.0119505,5.77395
1679995482922,1175471276524336,0.35295,8.002951,5.721
1679995482924,1175471279026274,0.45900002,7.96395,5.808
1679995482927,1175471281528659,0.423,8.026951,5.8960505
1679995482929,1175471284030582,0.43500003,8.019,5.77395
1679995482931,1175471286532659,0.48495004,8.068951,5.83395
1679995482934,1175471289034606,0.32895002,8.068951,5.6899505
1679995482936,1175471291536760,0.384,8.068951,5.8320003
1679995482941,1175471294038837,0.35595003,8.10105,5.82705
1679995482942,1175471296540760,0.39600003,8.064,5.736
1679995482946,1175471299042908,0.411,7.9879503,5.8240504
1679995482947,1175471301545062,0.23295002,8.050051,5.8630505
1679995482949,1175471304046908,0.30795002,8.071051,5.84805
1679995482951,1175471306549062,0.28605002,8.106,5.7000003
1679995482953,1175471309051139,0.23805001,8.13195,5.90805
1679995482956,1175471311553273,0.24300002,8.064,5.8320003
1679995482959,1175471314055196,0.27405003,8.17695,5.83395
1679995482961,1175471316557350,0.32505003,8.014951,5.8120503
1679995482964,1175471319059427,0.27705002,8.11305,5.82
1679995482966,1175471321561572,0.25695002,8.0449505,5.90595
1679995482969,1175471324063418,0.21705002,8.05305,5.7379503
1679995482971,1175471326565572,0.162,8.08605,5.793
1679995482974,1175471329067495,0.16395001,8.097,5.8939505
1679995482976,1175471331569875,0.14505,8.188951,5.8360505
1679995482979,1175471334071721,0.042000003,8.109,5.8510504
1679995482983,1175471336573875,0.054,8.13405,5.78595
1679995482984,1175471339075798,0.06105,8.151,5.8939505
1679995482986,1175471341577951,0.016050002,8.170051,5.8669505
1679995482989,1175471344079817,0.03195,8.137051,5.85795
1679995482991,1175471346581970,0.01305,8.076,5.8390503
1679995482995,1175471349084124,0.11100001,8.142,5.8669505
1679995482996,1175471351586201,0.049050003,8.083051,5.84805
1679995482999,1175471354088124,-0.08505,8.08605,5.8890004
1679995483001,1175471356590278,0.063,8.109,5.7520504
1679995483004,1175471359092355,-0.010950001,8.125051,5.91795
1679995483006,1175471361594278,-0.040050004,8.022,5.8429503
1679995483010,1175471364096446,0.06795,8.031,5.8240504
1679995483012,1175471366598600,0.03195,8.017051,5.89905
1679995483015,1175471369100677,-0.006,8.121,5.83395
1679995483016,1175471371602600,-0.01995,8.094001,5.90805
1679995483022,1175471374104778,-0.08295,8.097,5.76
1679995483024,1175471376606855,-0.010950001,8.137051,5.87505
1679995483025,1175471379109009,0.078,8.019,5.793
1679995483027,1175471381610928,-0.06795,8.031,5.8219504
1679995483030,1175471384113005,0.025050001,8.071051,5.81505
1679995483032,1175471386614928,0.042000003,8.05305,5.793
1679995483033,1175471389117082,-0.03195,8.064,5.8320003
1679995483036,1175471391619235,0.10395,7.9759502,5.66895
1679995483039,1175471394121312,0.040050004,8.088,5.8960505
1679995483043,1175471396623235,0.10395,8.125051,5.808
1679995483044,1175471399125389,0.147,8.035951,5.8320003
1679995483046,1175471401627466,0.15195,8.068951,5.71395
1679995483049,1175471404129408,0.186,8.154,5.7379503
1679995483051,1175471406631485,0.11895001,8.118,5.84595
1679995483055,1175471409133716,0.231,8.095051,5.8240504
1679995483061,1175471411635798,0.20205002,8.188951,5.7240005
1679995483063,1175471414137721,0.23805001,8.161051,5.8650002
1679995483064,1175471416639798,0.24795002,8.211,5.75505
1679995483065,1175471419141952,0.26700002,8.22105,5.7049503
1679995483067,1175471421643875,0.28905,8.079,5.7289505
1679995483069,1175471424146033,0.28905,8.142,5.7979503
1679995483071,1175471426648110,0.34800002,8.082001,5.8170004
1679995483074,1175471429150263,0.363,8.142,5.7910504
1679995483076,1175471431652187,0.34605002,8.137051,5.7240005
1679995483079,1175471434154263,0.36495003,8.088,5.7840004
1679995483081,1175471436656187,0.252,8.08605,5.74095
1679995483083,1175471439158340,0.32700002,8.068951,5.8939505
1679995483086,1175471441660494,0.33900002,8.079,5.6659503
1679995483089,1175471444162571,0.44400004,8.034,5.6850004
1679995483091,1175471446664480,0.31005,7.998,5.7049503
1679995483096,1175471449166634,0.36,8.068951,5.67105
1679995483097,1175471451668711,0.33195,8.071051,5.6850004
1679995483100,1175471454170624,0.31695002,8.139,5.62995
1679995483102,1175471456672778,0.28605002,8.01,5.688
1679995483104,1175471459174932,0.363,7.96395,5.5729504
1679995483106,1175471461676778,0.39900002,7.9740005,5.6590505
1679995483109,1175471464178932,0.37005,7.8420005,5.5729504
1679995483111,1175471466681024,0.303,7.6909504,5.56995
1679995483113,1175471469183178,0.291,7.8919506,5.61105
1679995483116,1175471471685024,0.25995,8.059951,5.75505
1679995483119,1175471474187255,0.39195,7.9860005,5.649
1679995483122,1175471476689351,0.26205,8.038051,5.68305
1679995483124,1175471479191504,0.28095,8.187,5.721
1679995483127,1175471481693351,0.30795002,8.106,5.62995
1679995483129,1175471484195504,0.34605002,7.9930506,5.6950502
1679995483133,1175471486697427,0.37995002,8.17695,5.7619505
1679995483136,1175471489199504,0.31695002,8.125051,5.676
1679995483137,1175471491701658,0.40605003,8.08605,5.5800004
1679995483140,1175471494203812,0.39405003,8.038051,5.5939503
1679995483142,1175471496705735,0.35595003,8.094001,5.5680003
1679995483144,1175471499207898,0.351,8.064,5.56605
1679995483146,1175471501709744,0.33900002,8.01,5.52495
1679995483149,1175471504211898,0.29595003,8.139,5.59905
1679995483151,1175471506714052,0.36,7.9909506,5.61105
1679995483154,1175471509216129,0.32700002,8.0119505,5.5470004
1679995483156,1175471511718038,0.25695002,7.93095,5.65395
1679995483159,1175471514220192,0.26700002,8.005051,5.56605
1679995483161,1175471516722269,0.20700002,8.07405,5.6520004
1679995483164,1175471519224192,0.30105,7.9260006,5.676
1679995483166,1175471521726279,0.22200002,8.031,5.676
1679995483171,1175471524228509,0.28905,7.9549503,5.6950502
1679995483173,1175471526730586,0.147,7.9879503,5.688
1679995483176,1175471529232460,0.19500001,7.93095,5.6470504
1679995483179,1175471531734537,0.25005,8.064,5.6059504
1679995483180,1175471534236691,0.21195,7.9620004,5.676
1679995483182,1175471536738614,0.18105,7.9909506,5.7120004
1679995483184,1175471539240691,0.126,7.9519506,5.7379503
1679995483186,1175471541742860,0.087000005,7.8850503,5.65395
1679995483189,1175471544245014,0.15705001,7.9519506,5.66895
1679995483191,1175471546746937,0.13095,8.026951,5.59905
1679995483194,1175471549249014,0.13095,7.9360504,5.4820504
1679995483196,1175471551750937,0.20700002,8.026951,5.62305
1679995483199,1175471554253091,0.16395001,8.023951,5.6280003
1679995483201,1175471556755245,0.15,8.005051,5.52495
1679995483205,1175471559257322,0.23595001,8.017051,5.58195
1679995483208,1175471561759250,0.19995001,8.094001,5.55105
1679995483211,1175471564261404,0.20205002,8.109,5.5350003
1679995483213,1175471566763481,0.09900001,8.095051,5.47695
1679995483215,1175471569265634,0.21705002,8.109,5.6260505
1679995483217,1175471571767557,0.22605,8.0449505,5.4910502
1679995483220,1175471574269629,0.25695002,8.05305,5.5080004
1679995483222,1175471576771553,0.20205002,8.182051,5.44395
1679995483224,1175471579273629,0.22905001,8.035951,5.5540504
1679995483226,1175471581775783,0.22905001,8.068951,5.5230002
1679995483229,1175471584277951,0.231,8.13195,5.5420504
1679995483232,1175471586779874,0.22200002,8.115001,5.4289503
1679995483234,1175471589281951,0.31005,8.14395,5.472
1679995483236,1175471591784105,0.22605,8.13,5.53905
1679995483239,1175471594286009,0.24495001,8.083051,5.46495
1679995483241,1175471596788086,0.26505002,8.029051,5.5230002
1679995483246,1175471599290009,0.30795002,8.038051,5.439
1679995483247,1175471601792394,0.31695002,8.022,5.3689504
1679995483250,1175471604294298,0.25995,8.125051,5.4700503
1679995483252,1175471606796375,0.34605002,7.9999504,5.3359504
1679995483255,1175471609298298,0.28605002,7.9429502,5.37405
1679995483257,1175471611800452,0.21000001,8.014951,5.32095
1679995483260,1175471614302529,0.27405003,7.9830003,5.36205
1679995483261,1175471616804677,0.39900002,8.082001,5.3260503
1679995483264,1175471619306601,0.29595003,8.055,5.33295
1679995483266,1175471621808754,0.26205,8.035951,5.3479505
1679995483269,1175471624310831,0.37500003,7.9189506,5.427
1679995483280,1175471626812744,0.33900002,8.047951,5.4240003
1679995483281,1175471629314821,0.37695003,8.002951,5.50605
1679995483281,1175471631816975,0.36,8.055,5.46705
1679995483281,1175471634319129,0.46095002,8.076,5.4559503
1679995483283,1175471636821038,0.41595003,8.023951,5.5129504
1679995483285,1175471639323115,0.41805002,8.019,5.59695
1679995483288,1175471641825269,0.384,8.071051,5.5270505
1679995483290,1175471644327192,0.507,8.095051,5.4750004
1679995483293,1175471646829269,0.42705002,8.089951,5.5030503
1679995483295,1175471649331158,0.38895002,8.139,5.6059504
1679995483297,1175471651833543,0.37005,8.017051,5.55105
1679995483299,1175471654335466,0.34800002,8.21805,5.5579505
1679995483302,1175471656837543,0.363,8.125051,5.5200005
1679995483304,1175471659339466,0.29295,8.101951,5.4559503
1679995483306,1175471661841634,0.25695002,8.149051,5.4559503
1679995483309,1175471664343710,0.30495003,8.211,5.5300503
1679995483311,1175471666845864,0.25005,8.125051,5.51805
1679995483314,1175471669347787,0.29805002,8.082001,5.52495
1679995483316,1175471671849941,0.31500003,8.21595,5.4559503
1679995483321,1175471674352018,0.279,8.155951,5.5750504
1679995483323,1175471676853941,0.171,8.121,5.62995
1679995483325,1175471679356018,0.22905001,8.19705,5.5630503
1679995483328,1175471681858182,0.23805001,8.106,5.59905
1679995483330,1175471684360336,0.22605,8.13195,5.62995
1679995483332,1175471686862259,0.19995001,8.163,5.6730003
1679995483335,1175471689364336,0.19500001,8.047951,5.6020503
1679995483337,1175471691866259,0.231,8.106,5.5750504
1679995483339,1175471694368403,0.19305001,8.194051,5.57805
1679995483341,1175471696870480,0.13305001,8.188951,5.46495
1679995483344,1175471699372634,0.123,8.155951,5.5200005
1679995483346,1175471701874557,0.102000006,8.17695,5.46
1679995483349,1175471704376740,0.08295,8.13405,5.50605
1679995483352,1175471706878817,0.109050006,8.26605,5.439
1679995483354,1175471709380740,0.15900001,8.20395,5.44395
1679995483358,1175471711882817,0.11895001,8.200951,5.59695
1679995483360,1175471714384970,0.123,8.271001,5.5870504
1679995483362,1175471716887124,0.03705,8.158051,5.55105
1679995483364,1175471719389047,0.094950005,8.280001,5.4820504
1679995483366,1175471721891124,0.079950005,8.095051,5.47695
1679995483372,1175471724393254,0.09195001,8.067,5.32095
1679995483373,1175471726895177,0.102000006,8.07405,5.3640003
1679995483375,1175471729397254,0.043950003,7.8919506,5.32905
1679995483377,1175471731899177,0.14205001,7.866,5.3959503
1679995483380,1175471734401562,0.13995,8.083051,5.379
1679995483381,1175471736903476,0.18300001,8.163,5.721
1679995483384,1175471739405553,0.13305001,8.194051,5.5420504
1679995483386,1175471741907476,0.03705,8.200951,5.6140504
1679995483389,1175471744409630,0.16395001,8.16495,5.6520004
1679995483391,1175471746911707,0.171,8.283,5.5609503
1679995483396,1175471749413860,0.171,8.38095,5.62095
1679995483397,1175471751915783,0.078,8.379001,5.4889503
1679995483400,1175471754417936,0.13305001,8.40705,5.6020503
1679995483402,1175471756920023,0.18795002,8.39505,5.62095
1679995483404,1175471759421946,0.21000001,8.3880005,5.37195
1679995483406,1175471761924023,0.08295,8.403001,5.5729504
1679995483410,1175471764425946,0.21705002,8.335951,5.5849504
1679995483411,1175471766928331,0.26205,8.223001,5.472
1679995483415,1175471769430264,0.19305001,8.2900505,5.532
1679995483417,1175471771932341,0.27405003,8.25195,5.56995
1679995483420,1175471774434264,0.31005,8.28495,5.53905
1679995483421,1175471776936418,0.26700002,8.27295,5.4820504
1679995483424,1175471779438572,0.25695002,8.24895,5.56995
1679995483427,1175471781940663,0.231,8.247001,5.5300503
1679995483429,1175471784442586,0.27195,8.161051,5.51805
1679995483433,1175471786944663,0.25005,8.17305,5.5630503
1679995483435,1175471789446817,0.171,8.161051,5.7120004
1679995483437,1175471791948745,0.102000006,8.155951,5.511
1679995483440,1175471794450899,0.17400001,8.23005,5.5729504
1679995483441,1175471796952976,0.162,8.22795,5.5129504
1679995483444,1175471799455129,0.09705,8.20395,5.5540504
1679995483446,1175471801957053,0.15405001,8.211,5.5350003
1679995483449,1175471804459134,0.12795001,8.167951,5.5540504
1679995483451,1175471806961058,0.13800001,8.2570505,5.5270505
1679995483455,1175471809463442,0.171,8.280001,5.5579505
1679995483457,1175471811965365,0.11895001,8.2570505,5.6449504
1679995483460,1175471814467456,0.10395,8.20905,5.5630503
1679995483462,1175471816969379,0.13995,8.23305,5.5009503
1679995483464,1175471819471533,0.13305001,8.2879505,5.472
1679995483467,1175471821973610,0.16905001,8.328,5.4870005
1679995483473,1175471824475533,0.11400001,8.331,5.3880005
1679995483474,1175471826977687,0.11100001,8.2900505,5.676
1679995483477,1175471829479841,0.13305001,8.356951,5.5540504
1679995483478,1175471831981918,0.15405001,8.25195,5.6569505
1679995483480,1175471834483841,0.16905001,8.41005,5.5230002
1679995483482,1175471836985918,0.12795001,8.427,5.5420504
1679995483484,1175471839488072,0.16395001,8.280001,5.4889503
1679995483486,1175471841989995,0.13095,8.41005,5.5750504
1679995483489,1175471844492144,0.19305001,8.18505,5.62305
1679995483491,1175471846994220,0.186,8.299951,5.61105
1679995483495,1175471849496144,0.13995,8.304001,5.46705
1679995483496,1175471851998220,0.15,8.283,5.5350003
1679995483499,1175471854500374,0.13095,8.299951,5.6260505
1679995483501,1175471857002273,0.162,8.338051,5.5729504
1679995483504,1175471859504427,0.15195,8.3550005,5.53695
1679995483508,1175471862006581,0.21405001,8.367001,5.4700503
1679995483510,1175471864508673,0.14205001,8.323951,5.44605
1679995483512,1175471867010596,0.16395001,8.27295,5.544
1679995483514,1175471869512673,0.22395001,8.26395,5.4529505
1679995483516,1175471872014827,0.18300001,8.191951,5.3910003
1679995483521,1175471874516740,0.27405003,8.047951,5.34495
1679995483523,1175471877018894,0.37005,8.068951,5.3050504
1679995483525,1175471879520971,0.16905001,8.002951,5.3479505
1679995483527,1175471882022894,0.18300001,8.155951,5.35995
1679995483530,1175471884525048,0.15195,8.137051,5.4220505
1679995483532,1175471887027120,0.20205002,8.328,5.5609503
1679995483535,1175471889529043,0.31005,8.364,5.5609503
1679995483537,1175471892031120,0.15,8.39805,5.5939503
1679995483539,1175471894533350,0.27405003,8.439,5.532
1679995483541,1175471897035427,0.24495001,8.484,5.5129504
1679995483546,1175471899537397,0.22605,8.48595,5.5870504
1679995483547,1175471902039474,0.23805001,8.343,5.5470004
1679995483550,1175471904541628,0.39600003,8.379001,5.46495
1679995483552,1175471907043546,0.27405003,8.328,5.4820504
1679995483554,1175471909545700,0.26700002,8.38305,5.3689504
1679995483556,1175471912047777,0.231,8.26605,5.43405
1679995483559,1175471914549931,0.28605002,8.259001,5.3500504
1679995483561,1175471917051854,0.30105,8.182051,5.2660503
1679995483565,1175471919553917,0.31305,8.21595,5.3910003
1679995483567,1175471922055840,0.25005,8.14605,5.3760004
1679995483569,1175471924557994,0.28605002,8.182051,5.367
1679995483572,1175471927060148,0.26205,8.158051,5.38605
1679995483575,1175471929562215,0.18300001,8.175,5.5470004
1679995483577,1175471932064138,0.19305001,8.151,5.4889503
1679995483580,1175471934566292,0.23295002,8.155951,5.4630003
1679995483583,1175471937068369,0.16395001,8.23995,5.56605
1679995483585,1175471939570292,0.27405003,8.19705,5.46495
1679995483587,1175471942072445,0.28095,8.21805,5.307
1679995483590,1175471944574599,0.34800002,8.24505,5.4960003
1679995483592,1175471947076676,0.22905001,8.13195,5.4409504
1679995483594,1175471949578599,0.30495003,8.154,5.3959503
1679995483596,1175471952080681,0.27195,8.23695,5.4529505
1679995483599,1175471954582604,0.30795002,8.11305,5.4220505
1679995483601,1175471957084758,0.30105,8.20395,5.4360003
1679995483604,1175471959586912,0.30105,8.259001,5.55105
1679995483608,1175471962088979,0.35595003,8.199,5.499
1679995483611,1175471964590902,0.24495001,8.247001,5.46705
1679995483613,1175471967093056,0.186,8.182051,5.3910003
1679995483615,1175471969595210,0.21900001,8.24205,5.439
1679995483616,1175471972097287,0.31005,8.22105,5.3359504
1679995483621,1175471974599206,0.21405001,8.26395,5.37195
1679995483623,1175471977101283,0.17400001,8.18505,5.4750004
1679995483625,1175471979603437,0.19800001,8.283,5.4960003
1679995483627,1175471982105360,0.17595,8.20395,5.4079504
1679995483630,1175471984607446,0.21900001,8.247001,5.46
1679995483632,1175471987109599,0.162,8.21805,5.56995
1679995483634,1175471989611753,0.15405001,8.25405,5.5870504
1679995483636,1175471992113676,0.21900001,8.158051,5.5270505
1679995483639,1175471994615787,0.13305001,8.283,5.451
1679995483642,1175471997117710,0.11100001,8.224951,5.3500504
1679995483644,1175471999619787,0.11400001,8.27805,5.5800004
1679995483647,1175472002121941,0.126,8.23995,5.484
1679995483651,1175472004624095,0.07095,8.224951,5.4150004
1679995483653,1175472007126018,0.16395001,8.23695,5.5630503
1679995483655,1175472009628095,0.10395,8.2879505,5.4079504
1679995483659,1175472012130249,0.075,8.17695,5.3809505
1679995483662,1175472014632167,0.10395,8.27295,5.4750004
1679995483663,1175472017134244,0.09,8.163,5.4750004
1679995483665,1175472019636398,0.10695001,8.27295,5.4559503
1679995483666,1175472022138321,0.03195,8.223001,5.4100504
1679995483669,1175472024640475,0.04695,8.24505,5.37195
1679995483673,1175472027142571,0.075,8.307,5.43195
1679995483675,1175472029644494,0.06795,8.27295,5.4580503
1679995483677,1175472032146571,0.058950003,8.26395,5.4199505
1679995483680,1175472034648724,0.0010500001,8.199,5.3980503
1679995483681,1175472037150849,-0.040050004,8.2570505,5.4529505
1679995483684,1175472039652772,-0.058950003,8.14605,5.34105
1679995483686,1175472042154849,-0.09705,8.247001,5.4240003
1679995483689,1175472044657003,-0.016050002,8.170051,5.4100504
1679995483693,1175472047158926,0.049050003,8.149051,5.484
1679995483696,1175472049661003,-0.016050002,8.127001,5.427
1679995483698,1175472052163157,0.06105,8.155951,5.3910003
1679995483701,1175472054665311,-0.010950001,8.27295,5.499
1679995483703,1175472057167225,-0.01995,8.13195,5.35995
1679995483704,1175472059669302,-0.018000001,8.175,5.32095
1679995483707,1175472062171225,0.028050002,8.118,5.34105
1679995483710,1175472064673379,0.087000005,8.179951,5.451
1679995483712,1175472067175456,0.06795,8.10795,5.41695
1679995483714,1175472069677590,0.094950005,8.125051,5.40495
1679995483716,1175472072179513,0.11400001,8.21595,5.35305
1679995483719,1175472074681667,0.11595,8.118,5.46495
1679995483722,1175472077183743,0.09705,8.23005,5.33295
1679995483724,1175472079685673,0.109050006,8.16495,5.43405
1679995483727,1175472082187749,0.10395,8.188951,5.38395
1679995483729,1175472084689903,0.252,8.175,5.34105
1679995483734,1175472087192057,0.08505,8.22105,5.4409504
1679995483736,1175472089693999,0.20700002,8.199,5.43195
1679995483738,1175472092196076,0.19995001,8.24505,5.4630003
1679995483741,1175472094698230,0.20700002,8.23005,5.3310003
1679995483743,1175472097200153,0.20505,8.14395,5.427
1679995483745,1175472099702230,0.30495003,8.161051,5.43195
1679995483747,1175472102204370,0.26895002,8.17695,5.451
1679995483750,1175472104706524,0.27195,8.18505,5.4820504
1679995483752,1175472107208447,0.26700002,8.187,5.3640003
1679995483754,1175472109710524,0.25695002,8.167951,5.46705
1679995483757,1175472112212461,0.18105,8.149051,5.53695
1679995483760,1175472114714615,0.25005,8.08605,5.4559503
1679995483762,1175472117216461,0.19005,8.212951,5.4870005
1679995483764,1175472119718845,0.19005,8.211,5.4100504
1679995483768,1175472122220755,0.252,8.194051,5.412
1679995483772,1175472124722908,0.31305,8.175,5.3500504
1679995483774,1175472127224755,0.19305001,8.299951,5.41695
1679995483777,1175472129726898,0.25995,8.211,5.3910003
1679995483779,1175472132228975,0.20700002,8.259001,5.4
1679995483781,1175472134730898,0.23805001,8.191951,5.3689504
1679995483782,1175472137233052,0.18795002,8.187,5.4199505
1679995483784,1175472139735206,0.21000001,8.13405,5.511
1679995483788,1175472142237259,0.13995,8.167951,5.4100504
1679995483790,1175472144739413,0.231,8.280001,5.4
1679995483793,1175472147241259,0.231,8.097,5.4870005
1679995483795,1175472149743413,0.19995001,8.121,5.49405
1679995483797,1175472152245567,0.15405001,8.17305,5.4910502
1679995483800,1175472154747711,0.231,8.158051,5.44605
1679995483802,1175472157249557,0.11100001,8.16495,5.355
1679995483806,1175472159751711,0.109050006,8.22105,5.4960003
1679995483809,1175472162253601,0.18105,8.175,5.46
1679995483812,1175472164755755,0.13995,8.155951,5.4220505
1679995483814,1175472167257601,0.13305001,8.163,5.46495
1679995483816,1175472169759985,0.10395,8.22105,5.4820504
1679995483817,1175472172261908,0.15705001,8.200951,5.47695
1679995483820,1175472174763989,0.063,8.2570505,5.49405
1679995483822,1175472177265912,0.14205001,8.21595,5.3880005
1679995483824,1175472179768066,0.15,8.187,5.355
1679995483827,1175472182270220,0.15705001,8.094001,5.4360003
1679995483829,1175472184772321,0.078,8.158051,5.3640003
1679995483831,1175472187274244,0.19005,8.22105,5.3430004
1679995483834,1175472189776321,0.19995001,8.20905,5.46495
1679995483836,1175472192278475,0.09705,8.121,5.36205
1679995483839,1175472194780398,0.20700002,8.154,5.3809505
1679995483841,1175472197282562,0.12105001,8.200951,5.4480004
1679995483846,1175472199784639,0.15705001,8.19705,5.3479505
1679995483847,1175472202286793,0.09,8.167951,5.3239503
1679995483850,1175472204788730,0.19305001,8.18505,5.4
1679995483853,1175472207290807,0.21705002,8.200951,5.5300503
1679995483854,1175472209792730,0.094950005,8.149051,5.4
1679995483857,1175472212294884,0.14205001,8.10105,5.4220505
1679995483859,1175472214797037,0.075,8.175,5.37195
1679995483861,1175472217299119,0.16905001,8.158051,5.4360003
1679995483864,1175472219801043,0.16605,8.13,5.46705
1679995483866,1175472222303196,0.126,8.14605,5.3910003
1679995483869,1175472224805273,0.19305001,8.13405,5.3880005
1679995483871,1175472227307210,0.22200002,8.18505,5.34495
1679995483874,1175472229809364,0.094950005,8.127001,5.4480004
1679995483876,1175472232311441,0.135,8.14605,5.46705
1679995483879,1175472234813595,0.171,8.211,5.47695
1679995483883,1175472237315523,0.21405001,8.20395,5.499
1679995483885,1175472239817600,0.17400001,8.149051,5.3190002
1679995483889,1175472242319523,0.18300001,8.223001,5.5680003
1679995483891,1175472244821677,0.23295002,8.097,5.46705
1679995483893,1175472247323831,0.252,8.18505,5.427
1679995483895,1175472249825893,0.231,8.14605,5.4079504
1679995483904,1175472252327816,0.22905001,8.167951,5.4480004
1679995483904,1175472254829970,0.23595001,8.139,5.43195
1679995483904,1175472257332047,0.21405001,8.08605,5.46705
1679995483904,1175472259833980,0.21405001,8.16495,5.427
1679995483908,1175472262336134,0.162,8.20395,5.3809505
1679995483910,1175472264838287,0.25005,8.082001,5.4100504
1679995483912,1175472267340364,0.102000006,8.154,5.46705
1679995483914,1175472269842287,0.19305001,8.223001,5.52495
1679995483917,1175472272344363,0.28905,8.149051,5.484
1679995483921,1175472274846286,0.19005,8.188951,5.44605
1679995483924,1175472277348440,0.31995,8.179951,5.4480004
1679995483927,1175472279863739,0.21195,8.14605,5.4199505
1679995483929,1175472282352662,0.17805001,8.089951,5.36205
1679995483931,1175472284854585,0.22905001,8.137051,5.46495
1679995483934,1175472287356739,0.21705002,8.211,5.43405
1679995483936,1175472289858797,0.20505,8.191951,5.4289503
1679995483937,1175472292360720,0.28905,8.20395,5.4289503
1679995483941,1175472294862874,0.25695002,8.163,5.439
1679995483943,1175472297365028,0.291,8.175,5.36205
1679995483945,1175472299867105,0.25695002,8.163,5.427
1679995483947,1175472302369042,0.20700002,8.125051,5.41695
1679995483949,1175472304871119,0.18300001,8.142,5.3880005
1679995483952,1175472307373272,0.25005,8.163,5.3260503
1679995483954,1175472309875196,0.32505003,8.121,5.2830005
1679995483959,1175472312377349,0.25005,8.088,5.35305
1679995483961,1175472314879426,0.35595003,8.154,5.4529505
1679995483963,1175472317381580,0.33195,8.211,5.427
1679995483965,1175472319883503,0.27705002,8.158051,5.3959503
1679995483967,1175472322385580,0.252,8.179951,5.355
1679995483970,1175472324887493,0.28395,8.22105,5.4750004
1679995483973,1175472327389647,0.33195,8.23995,5.4960003
1679995483975,1175472329891801,0.28095,8.20605,5.5420504
1679995483977,1175472332393878,0.26505002,8.199,5.5750504
1679995483980,1175472334895801,0.26505002,8.24205,5.54895
1679995483982,1175472337397907,0.33195,8.27595,5.4910502
1679995483984,1175472339900061,0.22200002,8.163,5.44605
1679995483987,1175472342401984,0.33600003,8.121,5.427
1679995483990,1175472344904138,0.22200002,8.127001,5.511
1679995483992,1175472347406292,0.231,8.121,5.5030503
1679995483996,1175472349908369,0.24105,8.11305,5.3809505
1679995483999,1175472352410292,0.23595001,8.050051,5.4480004
1679995484001,1175472354912302,0.17805001,7.8570004,5.3760004
1679995484003,1175472357414225,0.09705,8.043,5.2969503
1679995484004,1175472359916378,0.14205001,8.139,5.38395
1679995484007,1175472362418532,0.13305001,8.139,5.5030503
1679995484010,1175472364920609,0.14505,8.20905,5.5420504
1679995484013,1175472367422503,0.20700002,8.2900505,5.544
1679995484014,1175472369924580,0.31305,8.352,5.5630503
1679995484017,1175472372426734,0.24105,8.299951,5.53905
1679995484020,1175472374928888,0.25995,8.412001,5.5800004
1679995484022,1175472377430811,0.26505002,8.400001,5.41695
1679995484025,1175472379932888,0.28395,8.3550005,5.412
1679995484027,1175472382434811,0.28605002,8.3550005,5.4630003
1679995484030,1175472384936888,0.36495003,8.446051,5.46495
1679995484035,1175472387439028,0.24105,8.2900505,5.4240003
1679995484036,1175472389941182,0.34800002,8.304001,5.511
1679995484038,1175472392443105,0.25995,8.188951,5.38605
1679995484040,1175472394945259,0.31695002,8.187,5.412
1679995484042,1175472397447336,0.36795002,8.23995,5.499
1679995484044,1175472399949268,0.28605002,8.24895,5.40495
1679995484047,1175472402451345,0.37500003,8.161051,5.4220505
1679995484049,1175472404953575,0.21405001,8.158051,5.41695
1679995484053,1175472407455652,0.21195,8.328,5.44605
1679995484055,1175472409957546,0.29595003,8.118,5.3689504
1679995484057,1175472412459623,0.31305,8.22105,5.439
1679995484061,1175472414961777,0.22905001,8.187,5.3640003
1679995484063,1175472417463700,0.21195,8.18505,5.427
1679995484065,1175472419965777,0.23595001,8.280001,5.484
1679995484067,1175472422467947,0.28605002,8.23995,5.51805
1679995484073,1175472424969870,0.25695002,8.151,5.4289503
1679995484074,1175472427472024,0.28605002,8.187,5.4630003
1679995484075,1175472429974072,0.23805001,8.20395,5.4870005
1679995484078,1175472432475995,0.24495001,8.23995,5.427
1679995484080,1175472434978072,0.24300002,8.247001,5.3569503
1679995484082,1175472437480226,0.291,8.139,5.367
1679995484085,1175472439982380,0.37005,8.24505,5.4240003
1679995484087,1175472442484307,0.21195,8.161051,5.36205
1679995484090,1175472444986384,0.28605002,8.20905,5.3359504
1679995484093,1175472447488537,0.29295,8.20905,5.43405
1679995484094,1175472449990461,0.37005,8.25405,5.4289503
1679995484097,1175472452492538,0.303,8.167951,5.38395
1679995484099,1175472454994692,0.34395,8.151,5.4030004
1679995484102,1175472457496615,0.40605003,8.22795,5.3239503
1679995484105,1175472459998769,0.36795002,8.151,5.49405
1679995484109,1175472462500870,0.37500003,8.19705,5.3980503
1679995484113,1175472465002793,0.42705002,8.191951,5.4079504
1679995484114,1175472467504870,0.38205,8.20395,5.3479505
1679995484116,1175472470007024,0.43905002,8.22795,5.4480004
1679995484118,1175472472509178,0.38205,8.302051,5.451
1679995484120,1175472475011115,0.483,8.188951,5.35995
1679995484122,1175472477513192,0.44205,8.14605,5.3050504
1679995484125,1175472480015346,0.57405,8.27295,5.2639503
1679995484127,1175472482517269,0.54195005,8.344951,5.3880005
1679995484130,1175472485019360,0.53505003,8.235001,5.3959503
1679995484133,1175472487521283,0.48705003,8.319,5.2660503
1679995484135,1175472490023667,0.44205,8.23995,5.4480004
1679995484137,1175472492525591,0.38205,8.25405,5.4889503
1679995484140,1175472495027667,0.38205,8.295,5.44605
1679995484142,1175472497529582,0.37005,8.314051,5.4409504
1679995484146,1175472500031735,0.41805002,8.30895,5.43405
1679995484149,1175472502533812,0.492,8.200951,5.4580503
1679995484151,1175472505035961,0.36795002,8.22105,5.472
1679995484153,1175472507537884,0.33900002,8.22105,5.4559503
1679995484155,1175472510039961,0.35595003,8.17695,5.4529505
1679995484157,1175472512542115,0.30105,8.271001,5.4529505
1679995484160,1175472515044038,0.29805002,8.2570505,5.5200005
1679995484162,1175472517546096,0.32700002,8.247001,5.44395
1679995484164,1175472520048019,0.291,8.29695,5.4960003
1679995484167,1175472522550404,0.28395,8.199,5.5300503
1679995484170,1175472525052327,0.23805001,8.2879505,5.5129504
1679995484173,1175472527554461,0.24105,8.326051,5.59905
1679995484175,1175472530056615,0.252,8.27595,5.59005
1679995484177,1175472532558538,0.23295002,8.26095,5.6280003
1679995484180,1175472535060615,0.28095,8.302051,5.49405
1679995484184,1175472537562797,0.20505,8.23995,5.5129504
1679995484185,1175472540064721,0.24795002,8.187,5.5609503
1679995484187,1175472542566874,0.171,8.38095,5.451
1679995484190,1175472545068951,0.14505,8.22105,5.4360003
1679995484193,1175472547570874,0.147,8.299951,5.3430004
1679995484195,1175472550072941,0.17595,8.280001,5.35995
1679995484197,1175472552575095,0.13305001,8.187,5.49405
1679995484200,1175472555077249,0.11895001,8.11995,5.532
1679995484203,1175472557579172,0.12105001,8.23005,5.379
1679995484204,1175472560081274,0.078,8.194051,5.4559503
1679995484207,1175472562583197,0.11895001,8.20905,5.38605
1679995484211,1175472565085351,0.252,8.175,5.4220505
1679995484214,1175472567587428,0.13995,8.125051,5.5150504
1679995484216,1175472570089582,0.20700002,8.137051,5.4910502
1679995484219,1175472572591505,0.29805002,8.109,5.4820504
1679995484222,1175472575093659,0.23295002,8.14395,5.4529505
1679995484224,1175472577595505,0.32505003,8.059951,5.379
1679995484226,1175472580097692,0.33600003,8.155951,5.3500504
1679995484228,1175472582599846,0.35295,8.101951,5.4
1679995484231,1175472585101923,0.40395,8.212951,5.28105
1679995484233,1175472587603846,0.41595003,8.224951,5.3809505
1679995484235,1175472590105999,0.34800002,8.142,5.427
1679995484237,1175472592608076,0.44205,8.20605,5.4580503
1679995484240,1175472595110230,0.33900002,8.182051,5.49405
1679995484243,1175472597612076,0.432,8.20905,5.4480004
1679995484245,1175472600114307,0.33900002,8.191951,5.4559503
1679995484247,1175472602616384,0.36,8.175,5.451
1679995484249,1175472605118316,0.34395,8.26095,5.44605
1679995484254,1175472607620393,0.45105,8.25405,5.49405
1679995484256,1175472610122547,0.43500003,8.212951,5.4580503
1679995484260,1175472612624451,0.37995002,8.188951,5.4
1679995484263,1175472615126605,0.41595003,8.199,5.5030503
1679995484265,1175472617628682,0.38205,8.25405,5.47905
1679995484266,1175472620130836,0.33600003,8.24205,5.50605
1679995484268,1175472622632759,0.42000002,8.2879505,5.3809505
1679995484270,1175472625134836,0.37500003,8.25405,5.4750004
1679995484273,1175472627636759,0.34395,8.121,5.46495
1679995484275,1175472630138913,0.37005,8.24505,5.472
1679995484277,1175472632641066,0.32205,8.259001,5.46
1679995484280,1175472635143143,0.35295,8.2900505,5.451
1679995484282,1175472637645067,0.38700002,8.20395,5.4240003
1679995484285,1175472640147220,0.31005,8.34795,5.49405
1679995484287,1175472642649297,0.25995,8.316,5.5129504
1679995484290,1175472645151220,0.31005,8.25195,5.40495
1679995484293,1175472647653393,0.24495001,8.376,5.5729504
1679995484296,1175472650155547,0.21705002,8.235001,5.40495
1679995484300,1175472652657624,0.21405001,8.22105,5.4409504
1679995484302,1175472655159561,0.26205,8.37405,5.4360003
1679995484305,1175472657661638,0.21705002,8.280001,5.4409504
1679995484307,1175472660163792,0.24495001,8.20605,5.4100504
1679995484308,1175472662665715,0.17805001,8.295,5.38605
1679995484311,1175472665167869,0.162,8.212951,5.3430004
1679995484312,1175472667669980,0.19500001,8.25405,5.5849504
1679995484314,1175472670172134,0.13995,8.295,5.4630003
1679995484317,1175472672673980,0.135,8.26395,5.4750004
1679995484320,1175472675176134,0.063,8.161051,5.4150004
1679995484322,1175472677678052,0.19005,8.27805,5.4480004
1679995484325,1175472680180206,0.12105001,8.13405,5.499
1679995484327,1175472682682282,0.162,8.188951,5.4150004
1679995484331,1175472685184436,0.13800001,8.21595,5.5609503
1679995484335,1175472687686373,0.126,8.13195,5.451
1679995484338,1175472690188527,0.11595,8.16495,5.44605
1679995484342,1175472692690373,0.126,8.106,5.5470004
1679995484343,1175472695192527,0.11100001,8.191951,5.532
1679995484345,1175472697694681,0.186,8.23695,5.3959503
1679995484346,1175472700196821,0.13095,8.10105,5.3689504
1679995484348,1175472702698667,0.24300002,8.08605,5.36205
1679995484351,1175472705200821,0.22605,8.071051,5.5200005
1679995484352,1175472707702898,0.19305001,8.101951,5.46
1679995484355,1175472710204821,0.21000001,8.106,5.4870005
1679995484357,1175472712706883,0.28395,8.167951,5.49405
1679995484360,1175472715209114,0.30795002,8.14605,5.5030503
1679995484363,1175472717711191,0.34395,8.068951,5.4480004
1679995484365,1175472720213114,0.31500003,8.16495,5.36205
1679995484367,1175472722715182,0.30795002,8.10105,5.43405
1679995484373,1175472725217335,0.32505003,8.16495,5.6020503
1679995484374,1175472727719259,0.32895002,8.163,5.4820504
1679995484376,1175472730221335,0.384,8.142,5.544
1679995484377,1175472732723489,0.41805002,8.158051,5.3910003
1679995484380,1175472735225643,0.34605002,8.268001,5.54895
1679995484382,1175472737727566,0.34095,8.199,5.60895
1679995484384,1175472740229643,0.34095,8.211,5.4580503
1679995484387,1175472742731566,0.37695003,8.26605,5.57805
1679995484390,1175472745233710,0.30495003,8.21805,5.50605
1679995484392,1175472747735864,0.279,8.211,5.5579505
1679995484395,1175472750237941,0.171,8.311951,5.544
1679995484397,1175472752739864,0.252,8.27595,5.5800004
1679995484400,1175472755242023,0.21405001,8.24505,5.616
1679995484403,1175472757744100,0.21195,8.283,5.6329503
1679995484405,1175472760246023,0.109050006,8.24895,5.58195
1679995484409,1175472762748090,0.15,8.302051,5.55105
1679995484412,1175472765250244,0.13305001,8.211,5.4889503
1679995484414,1175472767752398,0.15705001,8.21805,5.544
1679995484416,1175472770254244,0.040050004,8.182051,5.532
1679995484418,1175472772756398,0.10395,8.19705,5.59905
1679995484420,1175472775258556,0.016050002,8.22795,5.56995
1679995484422,1175472777760479,0.087000005,8.175,5.5420504
1679995484425,1175472780262556,0.016050002,8.149051,5.5800004
1679995484427,1175472782764710,0.042000003,8.280001,5.5609503
1679995484430,1175472785266667,0.00795,8.115001,5.6280003
1679995484432,1175472787768744,0.08505,8.24205,5.6179504
1679995484434,1175472790270667,0.08505,8.127001,5.55105
1679995484438,1175472792773052,0.03705,8.155951,5.51805
1679995484440,1175472795274989,0.0010500001,8.13405,5.5609503
1679995484442,1175472797777066,0.030000001,8.223001,5.52495
1679995484446,1175472800278989,0.058950003,8.14605,5.49405
1679995484449,1175472802781143,0.09705,8.25405,5.59905
1679995484451,1175472805283234,0.09705,8.154,5.6899505
1679995484454,1175472807785388,0.049050003,8.167951,5.5300503
1679995484456,1175472810287311,0.15,8.14395,5.5540504
1679995484457,1175472812789388,0.109050006,8.137051,5.57805
1679995484460,1175472815291542,0.066,8.125051,5.4820504
1679995484462,1175472817793456,0.054,8.095051,5.6329503
1679995484465,1175472820295533,0.079950005,8.167951,5.511
1679995484467,1175472822797686,0.123,8.194051,5.5270505
1679995484470,1175472825299840,0.08295,8.191951,5.61105
1679995484472,1175472827801763,0.15705001,8.13,5.49405
1679995484475,1175472830303830,0.13995,8.142,5.5729504
1679995484477,1175472832805753,0.16905001,8.175,5.5630503
1679995484480,1175472835307830,0.13995,8.127001,5.6059504
1679995484484,1175472837809965,0.14205001,8.125051,5.532
1679995484487,1175472840311888,0.19500001,8.121,5.41695
1679995484490,1175472842814042,0.23295002,8.088,5.5920005
1679995484491,1175472845316119,0.162,8.13,5.4889503
1679995484494,1175472847818273,0.17805001,8.017051,5.62095
1679995484496,1175472850320191,0.19500001,8.13,5.5080004
1679995484497,1175472852822268,0.186,8.13,5.3910003
1679995484501,1175472855324191,0.21405001,8.106,5.5080004
1679995484503,1175472857826576,0.19005,8.04105,5.5630503
1679995484505,1175472860328489,0.18300001,8.0119505,5.532
1679995484507,1175472862830566,0.19305001,8.13195,5.5939503
1679995484510,1175472865332489,0.16395001,8.142,5.6059504
1679995484512,1175472867834643,0.18795002,8.082001,5.6449504
1679995484515,1175472870336719,0.25005,8.14395,5.6329503
1679995484518,1175472872838643,0.21900001,8.14605,5.5540504
1679995484523,1175472875340796,0.109050006,8.16495,5.511
1679995484532,1175472877841853,0.162,8.142,5.544
1679995484532,1175472880342932,0.186,8.182051,5.5729504
1679995484532,1175472882846931,0.13995,8.125051,5.43195
1679995484532,1175472885349008,0.06105,8.13,5.484
1679995484533,1175472887851162,0.13800001,8.167951,5.5540504
1679995484535,1175472890353316,0.043950003,8.139,5.616
1679995484537,1175472892855249,0.06795,8.089951,5.5300503
1679995484540,1175472895357326,0.022950001,8.16495,5.5129504
1679995484542,1175472897859249,0.08295,8.17305,5.532
1679995484545,1175472900361403,0.10395,8.27805,5.44605
1679995484547,1175472902863460,0.034950003,8.139,5.53905
1679995484550,1175472905365383,0.123,8.200951,5.58195
1679995484552,1175472907867537,0.08295,8.224951,5.59695
1679995484554,1175472910369691,0.025050001,8.187,5.5420504
1679995484559,1175472912871767,0.03195,8.22105,5.5729504
1679995484561,1175472915373691,0.010950001,8.161051,5.5920005
1679995484563,1175472917875767,0.05595,8.19705,5.6179504
1679995484565,1175472920377921,0.049050003,8.19705,5.6140504
1679995484567,1175472922879844,0.09,8.154,5.6020503
1679995484570,1175472925381974,0.08295,8.106,5.5300503
1679995484573,1175472927884051,0.102000006,8.11305,5.6779504
1679995484574,1175472930386205,0.10695001,8.188951,5.59695
1679995484577,1175472932888128,0.10395,8.154,5.5470004
1679995484580,1175472935390220,-0.028050002,8.20395,5.7070503
1679995484582,1175472937892143,0.094950005,8.18505,5.64195
1679995484585,1175472940394528,0.087000005,8.20395,5.721
1679995484588,1175472942896374,0.075,8.200951,5.67105
1679995484591,1175472945398490,0.040050004,8.191951,5.6520004
1679995484592,1175472947900413,0.13305001,8.21805,5.59695
1679995484596,1175472950402490,0.11400001,8.167951,5.5080004
1679995484600,1175472952904644,0.11895001,8.175,5.56605
1679995484601,1175472955406562,0.20700002,8.08605,5.7379503
1679995484603,1175472957908716,0.15195,8.20605,5.58195
1679995484605,1175472960410793,0.231,8.151,5.4910502
1679995484607,1175472962912716,0.21405001,8.127001,5.5729504
1679995484610,1175472965414869,0.20205002,8.07405,5.59905
1679995484613,1175472967916912,0.171,8.182051,5.62095
1679995484615,1175472970419066,0.23595001,8.101951,5.5609503
1679995484617,1175472972920989,0.19305001,8.056951,5.58195
1679995484620,1175472975423066,0.21405001,8.167951,5.5129504
1679995484622,1175472977925220,0.29805002,8.055,5.5729504
1679995484625,1175472980427153,0.18795002,8.023951,5.7049503
1679995484627,1175472982929230,0.26205,8.17305,5.63805
1679995484630,1175472985431384,0.33900002,8.118,5.556
1679995484634,1175472987933524,0.24495001,7.9860005,5.62995
1679995484636,1175472990435447,0.39195,8.10105,5.6569505
1679995484638,1175472992937524,0.31500003,8.002951,5.62095
1679995484640,1175472995439447,0.23805001,7.93095,5.6140504
1679995484643,1175472997941601,0.29805002,8.035951,5.60895
1679995484645,1175473000443774,0.29595003,8.094001,5.6329503
1679995484648,1175473002945851,0.24300002,7.9999504,5.5750504
1679995484650,1175473005447774,0.27705002,8.0449505,5.54895
1679995484653,1175473007949927,0.22200002,8.002951,5.58195
1679995484655,1175473010452009,0.20505,8.026951,5.66895
1679995484657,1175473012953932,0.33405003,8.05305,5.62095
1679995484661,1175473015456009,0.26700002,8.079,5.57805
1679995484662,1175473017958163,0.20700002,7.9909506,5.616
1679995484665,1175473020460317,0.27195,8.0449505,5.5150504
1679995484667,1175473022962259,0.11100001,8.13405,5.5729504
1679995484672,1175473025464336,0.16905001,8.071051,5.5870504
1679995484673,1175473027966490,0.15705001,8.19705,5.6140504
1679995484675,1175473030468418,0.19995001,8.13195,5.616
1679995484677,1175473032970495,0.15195,8.121,5.5540504
1679995484680,1175473035472649,0.186,8.211,5.604
1679995484683,1175473037974572,0.126,8.10795,5.6059504
1679995484685,1175473040476649,0.12105001,8.089951,5.62305
1679995484687,1175473042978807,0.15705001,8.175,5.6470504
1679995484690,1175473045480730,0.13305001,8.097,5.6400003
1679995484694,1175473047982807,0.15,8.115001,5.649
1679995484696,1175473050484961,0.171,8.13405,5.6400003
1679995484698,1175473052987129,0.12795001,8.055,5.6929502
1679995484700,1175473055489052,0.11895001,8.139,5.6970005
1679995484703,1175473057991129,0.058950003,8.139,5.6850004
1679995484705,1175473060493053,0.040050004,8.20395,5.6659503
1679995484710,1175473062995225,0.040050004,8.088,5.676
1679995484712,1175473065497302,0.054,8.11305,5.7190504
1679995484713,1175473067999456,0.042000003,8.11305,5.7310505
1679995484715,1175473070501379,0.01995,8.106,5.769
1679995484717,1175473073003533,0.10395,8.079,5.7619505
1679995484720,1175473075505649,0.03705,8.055,5.6400003
1679995484722,1175473078007572,0.018000001,8.07405,5.6899505
1679995484725,1175473080509649,0.094950005,8.017051,5.5920005
1679995484727,1175473083011803,0.08295,8.083051,5.59695
1679995484730,1175473085513956,0.075,8.005051,5.5470004
1679995484733,1175473088015879,0.11595,7.9830003,5.7070503
1679995484736,1175473090517956,0.21900001,7.9810505,5.6569505
1679995484737,1175473093019879,0.21405001,8.029051,5.66895
1679995484740,1175473095522033,0.22605,8.019,5.6280003
1679995484742,1175473098024139,0.303,7.998,5.688
1679995484746,1175473100526292,0.31995,7.9690504,5.6059504
1679995484749,1175473103028216,0.31695002,7.9909506,5.6590505
1679995484751,1175473105530340,0.40800002,7.9810505,5.7330003
1679995484753,1175473108032417,0.33195,8.017051,5.7049503
1679995484754,1175473110534340,0.41805002,7.9429502,5.70195
1679995484757,1175473113036417,0.42705002,7.9789505,5.6520004
1679995484760,1175473115538571,0.46305,7.9999504,5.74095
1679995484762,1175473118040763,0.39600003,7.9690504,5.616
1679995484764,1175473120542686,0.46095002,8.050051,5.6929502
1679995484767,1175473123044763,0.37500003,7.9999504,5.6350503
1679995484770,1175473125546917,0.47505003,7.9450502,5.676
1679995484773,1175473128048854,0.39600003,8.019,5.7000003
1679995484775,1175473130550931,0.423,8.007,5.6590505
1679995484777,1175473133053085,0.46800002,7.9020004,5.7840004
1679995484780,1175473135555239,0.46605003,7.998,5.5609503
1679995484784,1175473138057167,0.40800002,7.998,5.8050003
1679995484786,1175473140559244,0.38895002,7.9789505,5.7910504
1679995484788,1175473143061167,0.34605002,7.9810505,5.7289505
1679995484791,1175473145563321,0.37695003,8.014951,5.84805
1679995484794,1175473148065167,0.27405003,8.055,5.8120503
1679995484795,1175473150567537,0.33195,8.05305,5.8320003
1679995484797,1175473153069460,0.26895002,8.097,5.8510504
1679995484800,1175473155571537,0.23595001,8.056951,5.8669505
1679995484802,1175473158073460,0.26700002,8.139,5.8840504
1679995484805,1175473160575614,0.23595001,8.095051,5.8429503
1679995484809,1175473163077705,0.21195,8.062051,5.90595
1679995484811,1175473165579628,0.31500003,8.067,5.9029503
1679995484813,1175473168081782,0.22395001,8.095051,5.9370003
1679995484815,1175473170583859,0.27705002,8.059951,5.913
1679995484817,1175473173085999,0.29295,8.056951,5.90595
1679995484822,1175473175587845,0.22905001,8.149051,5.8960505
1679995484824,1175473178090076,0.22200002,8.109,5.85795
1679995484826,1175473180592148,0.14505,8.101951,5.9110503
1679995484828,1175473183094302,0.23595001,8.071051,5.8699503
1679995484831,1175473185596148,0.17400001,8.10105,5.88705
1679995484833,1175473188098302,0.21000001,8.14605,5.8890004
1679995484835,1175473190600225,0.28905,8.067,5.9989505
1679995484837,1175473193102393,0.22605,8.106,5.93205
1679995484840,1175473195604470,0.25500003,8.097,5.9539504
1679995484843,1175473198106623,0.21195,8.034,5.9490004
1679995484845,1175473200608546,0.26700002,8.047951,5.8770003
1679995484848,1175473203110628,0.20700002,7.9090505,5.92005
1679995484851,1175473205612551,0.25500003,7.97205,5.9149504
1679995484853,1175473208114705,0.279,7.9690504,5.9269505
1679995484855,1175473210616859,0.22395001,8.002951,5.8650002
1679995484860,1175473213118936,0.21405001,7.9909506,5.8549504
1679995484862,1175473215620859,0.17595,7.96395,5.7310505
1679995484863,1175473218123013,0.25695002,7.97205,5.92995
1679995484865,1175473220625090,0.24495001,8.035951,5.7379503
1679995484868,1175473223127013,0.27705002,7.9120502,5.9440503
1679995484870,1175473225629075,0.25005,8.035951,5.8819504
1679995484872,1175473228131306,0.171,8.076,5.88705
1679995484875,1175473230633383,0.35805002,8.026951,5.86005
1679995484878,1175473233135306,0.24495001,8.067,5.9560504
1679995484880,1175473235637383,0.22200002,8.050051,5.8960505
1679995484883,1175473238139528,0.27195,8.026951,5.9749503
1679995484885,1175473240641451,0.171,8.056951,5.8669505
1679995484887,1175473243143604,0.17805001,8.043,5.946
1679995484890,1175473245645681,0.15405001,7.9789505,5.9700003
1679995484893,1175473248147570,0.13800001,8.047951,5.92995
1679995484896,1175473250649724,0.13800001,8.035951,5.925
1679995484899,1175473253151801,0.16395001,7.9480505,5.92995
1679995484901,1175473255653714,0.12795001,8.101951,5.8840504
1679995484903,1175473258155791,0.078,8.01,5.925
1679995484905,1175473260658022,0.006,7.9830003,5.8939505
1679995484907,1175473263160099,0.04695,7.9830003,5.90805
1679995484910,1175473265662022,0.06105,7.87305,6.0349503
1679995484912,1175473268164085,-0.028050002,7.8090005,5.997
1679995484915,1175473270666008,0.034950003,7.938,5.93895
1679995484918,1175473273168162,0.075,8.0119505,5.9680505
1679995484921,1175473275670239,0.054,7.8949504,6.0160503
1679995484923,1175473278172388,0.00795,8.002951,5.96295
1679995484925,1175473280674311,0.054,7.806,5.946
1679995484927,1175473283176465,0.09900001,7.8760505,5.92005
1679995484930,1175473285678542,0.09195001,7.8780003,5.9440503
1679995484935,1175473288180479,0.17805001,7.9069505,5.9149504
1679995484937,1175473290682556,0.11100001,7.82805,5.88705
1679995484939,1175473293184786,0.231,7.9240503,5.88705
1679995484941,1175473295686863,0.18105,7.8180003,5.9539504
1679995484944,1175473298188786,0.27405003,7.8160505,5.9350505
1679995484945,1175473300690863,0.22605,7.9090505,5.88705
1679995484948,1175473303192786,0.19005,7.8450003,5.9350505
1679995484951,1175473305694940,0.27195,7.8690004,5.8429503
1679995484953,1175473308197017,0.303,7.8349504,6.045
1679995484955,1175473310699191,0.37695003,7.8420005,5.9610004
1679995484958,1175473313201114,0.33600003,7.87095,5.9610004
1679995484963,1175473315703268,0.33195,7.9020004,5.985
1679995484964,1175473318205345,0.32895002,7.8829503,5.99205
1679995484966,1175473320707268,0.32895002,7.8090005,6.0370502
1679995484968,1175473323209325,0.39600003,7.7580004,6.0610504
1679995484972,1175473325711479,0.42705002,7.833,5.9269505
1679995484974,1175473328213633,0.37500003,7.833,5.99205
1679995484976,1175473330715537,0.44895002,7.8570004,5.92005
1679995484978,1175473333217614,0.52995,7.8420005,5.99205
1679995484980,1175473335719767,0.492,7.8970504,6.0709505
1679995484982,1175473338221691,0.32505003,7.8040504,5.8960505
1679995484985,1175473340723767,0.47100002,7.8349504,5.9680505
1679995484989,1175473343225931,0.42000002,7.8040504,5.9820004
1679995484991,1175473345728085,0.45900002,7.8160505,5.997
1679995484994,1175473348229931,0.35805002,7.9360504,6.117
1679995484995,1175473350732085,0.42495003,7.84005,6.2239504
1679995484999,1175473353233998,0.40095,7.87305,6.18405
1679995485000,1175473355736152,0.44205,7.9260006,6.0930004
1679995485003,1175473358237998,0.45405003,7.8919506,6.0420003
1679995485005,1175473360740383,0.35295,7.9879503,6.19605
1679995485012,1175473363242287,0.39900002,7.9120502,6.11205
1679995485014,1175473365744441,0.46305,7.9789505,6.1069503
1679995485015,1175473368246287,0.45600003,7.9930506,6.12405
1679995485017,1175473370748672,0.40800002,7.9950004,6.0370502
1679995485020,1175473373250595,0.40395,7.8490505,6.1789503
1679995485022,1175473375752672,0.42000002,7.9399505,6.21495
1679995485024,1175473378254595,0.411,7.8850503,6.1450505
1679995485026,1175473380756672,0.38700002,7.9909506,6.1260004
1679995485029,1175473383258826,0.30795002,7.8919506,6.09705
1679995485030,1175473385760749,0.31005,7.85895,6.19605
1679995485033,1175473388262921,0.32700002,8.0119505,6.0330005
1679995485035,1175473390764998,0.32205,7.9120502,6.12405
1679995485041,1175473393267152,0.41805002,7.8900003,6.15
1679995485043,1175473395769075,0.32205,7.9620004,6.08295
1679995485044,1175473398271167,0.279,7.8949504,6.0610504
1679995485047,1175473400773090,0.29595003,7.9570503,6.08505
1679995485049,1175473403275244,0.20700002,7.9210505,6.2200503
1679995485051,1175473405777398,0.25995,7.9069505,6.1090503
1679995485054,1175473408279475,0.123,7.8829503,6.0370502
1679995485056,1175473410781398,0.21900001,7.8490505,6.09705
1679995485058,1175473413283475,0.13995,7.8210006,6.0420003
1679995485061,1175473415785629,0.16395001,7.90395,6.0490503
1679995485063,1175473418287552,0.18105,7.8829503,6.0370502
1679995485065,1175473420789720,0.13095,7.9189506,6.057
1679995485069,1175473423291797,0.147,7.8850503,6.117
1679995485071,1175473425793951,0.123,7.938,6.057
1679995485073,1175473428295797,0.135,7.9600506,6.1309505
1679995485075,1175473430797970,0.11595,7.8160505,6.255
1679995485079,1175473433299893,0.042000003,7.8760505,6.0349503
1679995485081,1175473435802046,-0.00795,7.8520503,6.03
1679995485085,1175473438304123,0.01305,7.8900003,6.1600504
1679995485086,1175473440806272,0.00795,7.80105,5.99205
1679995485091,1175473443308195,-0.079950005,7.7800503,5.9149504
1679995485092,1175473445810349,0.00405,7.7029505,6.0660005
1679995485094,1175473448312195,0.018000001,7.65495,6.1260004
1679995485096,1175473450814349,0.030000001,7.7029505,6.117
1679995485099,1175473453316532,-0.079950005,7.7370005,6.0660005
1679995485101,1175473455818609,0.10695001,7.689,6.129
1679995485103,1175473458320532,0.043950003,7.7299504,6.16905
1679995485105,1175473460822686,0.078,7.7440505,6.0610504
1679995485109,1175473463324744,0.066,7.6170006,6.2050505
1679995485111,1175473465826667,0.123,7.59105,6.05205
1679995485113,1175473468328744,0.09,7.6390505,6.08505
1679995485115,1175473470830975,0.079950005,7.6189504,6.1450505
1679995485118,1175473473333052,0.10695001,7.6309505,6.3030005
1679995485123,1175473475834941,0.14505,7.6459503,6.2650504
1679995485125,1175473478337018,0.20700002,7.6050005,6.25995
1679995485127,1175473480839171,0.17595,7.51905,6.19605
1679995485129,1175473483341105,0.12795001,7.6099505,6.2839503
1679995485131,1175473485843258,0.17805001,7.6120505,6.28905
1679995485134,1175473488345335,0.22395001,7.6530004,6.28905
1679995485136,1175473490847489,0.23295002,7.6189504,6.4570503
1679995485139,1175473493349412,0.15705001,7.6750503,6.339
1679995485141,1175473495851522,0.10395,7.6189504,6.3679504
1679995485143,1175473498353445,0.17595,7.54995,6.4350004
1679995485145,1175473500855522,0.20205002,7.5930004,6.4180503
1679995485157,1175473503357753,0.22200002,7.6699505,6.5070004
1679995485158,1175473505859840,0.11100001,7.5739503,6.3820505
1679995485158,1175473508361763,0.15405001,7.6980004,6.543
1679995485158,1175473510863840,0.171,7.6720505,6.5599504
1679995485161,1175473513366004,0.18105,7.69605,6.49695
1679995485162,1175473515867927,0.15,7.6189504,6.4879503
1679995485163,1175473518370004,0.11400001,7.6390505,6.3630004
1679995485165,1175473520872158,0.094950005,7.7179503,6.4279504
1679995485168,1175473523374311,0.05595,7.7080503,6.5479503
1679995485170,1175473525876239,0.05595,7.6980004,6.4950004
1679995485173,1175473528378315,0.09,7.63605,6.4570503
1679995485175,1175473530880239,-0.028050002,7.7080503,6.3490505
1679995485178,1175473533382392,-0.01995,7.6480503,6.4950004
1679995485180,1175473535884474,0.040050004,7.6860003,6.37305
1679995485183,1175473538386628,0.03705,7.6770005,6.31995
1679995485185,1175473540888551,-0.01995,7.6819506,6.4350004
1679995485188,1175473543390628,0.049050003,7.629,6.47805
1679995485190,1175473545892546,-0.04695,7.6050005,6.4020004
1679995485193,1175473548394700,-0.07305,7.6480503,6.5020504
1679995485197,1175473550896777,-0.06105,7.6099505,6.5160003
1679995485200,1175473553398931,-0.066,7.5360003,6.46395
1679995485202,1175473555900830,-0.006,7.5120006,6.4300504
1679995485204,1175473558402984,-0.102000006,7.4809504,6.53805
1679995485206,1175473560905061,-0.13305001,7.5400505,6.5160003
1679995485210,1175473563406984,-0.126,7.557,6.4950004
1679995485210,1175473565909061,-0.052050002,7.5040503,6.399
1679995485213,1175473568411234,-0.09705,7.5400505,6.5670004
1679995485215,1175473570913157,-0.102000006,7.5739503,6.603
1679995485219,1175473573415234,-0.07305,7.452,6.53805
1679995485221,1175473575917388,-0.05595,7.4610004,6.67005
1679995485223,1175473578419311,-0.078,7.5400505,6.56895
1679995485225,1175473580921450,-0.058950003,7.45695,6.5479503
1679995485229,1175473583423527,-0.063,7.41795,6.5599504
1679995485231,1175473585925681,-0.03195,7.38,6.6120005
1679995485234,1175473588427604,-0.028050002,7.4449506,6.6049504
1679995485237,1175473590929681,-0.054,7.4010005,6.7489505
1679995485239,1175473593431604,0.01305,7.49205,6.6529503
1679995485243,1175473595933989,-0.00795,7.3939505,6.6769505
1679995485244,1175473598435912,0.034950003,7.45905,6.7510505
1679995485246,1175473600937989,0.006,7.4350505,6.74595
1679995485250,1175473603439902,-0.00405,7.464,6.7510505
1679995485251,1175473605941979,0.066,7.4779506,6.8809505
1679995485254,1175473608444133,0.025050001,7.42995,6.8370004
1679995485256,1175473610946056,0.09195001,7.38495,6.86595
1679995485259,1175473613448230,0.00795,7.4350505,6.93795
1679995485261,1175473615950307,0.078,7.4880004,6.9090004
1679995485263,1175473618452461,0.09705,7.5400505,6.8830504
1679995485265,1175473620954384,0.058950003,7.4830503,6.87795
1679995485269,1175473623456451,0.109050006,7.485,6.9910502
1679995485273,1175473625958374,0.094950005,7.557,6.8899503
1679995485274,1175473628460527,0.09,7.51905,6.9670506
1679995485277,1175473630962681,0.10695001,7.54995,6.9600005
1679995485279,1175473633464744,0.10395,7.4689503,7.0189505
1679995485281,1175473635966667,0.079950005,7.425,6.9640503
1679995485283,1175473638468821,0.018000001,7.4329505,6.9930005
1679995485285,1175473640970667,0.102000006,7.4130006,7.0410004
1679995485289,1175473643472821,0.123,7.3819504,7.1680503
1679995485291,1175473645974975,0.058950003,7.4089503,7.0870504
1679995485294,1175473648477052,-0.00795,7.3440003,7.05495
1679995485296,1175473650978975,0.058950003,7.425,7.0069504
1679995485302,1175473653481080,0.087000005,7.3009505,7.2370505
1679995485304,1175473655983157,0.11895001,7.2840004,7.2660003
1679995485304,1175473658485080,0.17595,7.32495,7.1779504
1679995485305,1175473660987157,0.13305001,7.29405,7.1730003
1679995485312,1175473663489355,0.123,7.3609505,7.281
1679995485313,1175473665991432,0.09195001,7.3009505,7.2690005
1679995485315,1175473668493355,0.087000005,7.392,7.1730003
1679995485316,1175473670995432,0.22395001,7.3099504,7.2109504
1679995485318,1175473673497585,0.13800001,7.35405,7.3240504
1679995485322,1175473675999514,0.25005,7.3680005,7.3159504
1679995485324,1175473678501590,0.23595001,7.25295,7.1850004
1679995485325,1175473681003744,0.14505,7.2769504,7.3120503
1679995485329,1175473683505898,0.171,7.2030005,7.221
1679995485333,1175473686007821,0.28905,7.2030005,7.1989503
1679995485334,1175473688509883,0.24300002,7.1910005,7.3740005
1679995485336,1175473691011806,0.22905001,7.1719503,7.209
1679995485339,1175473693513883,0.28395,7.2510004,7.36005
1679995485341,1175473696016114,0.24495001,7.2120004,7.2370505
1679995485345,1175473698518201,0.21000001,7.2120004,7.221
1679995485348,1175473701020124,0.25695002,7.2000003,7.1989503
1679995485350,1175473703522201,0.22200002,7.1640005,7.2949505
1679995485352,1175473706024355,0.20700002,7.1449504,7.2949505
1679995485353,1175473708526278,0.21405001,7.1620502,7.2520504
1679995485356,1175473711028355,0.23595001,7.04505,7.254
1679995485361,1175473713530509,0.22605,7.1070004,7.3039503
1679995485362,1175473716032432,0.162,7.0969505,7.2760506
1679995485363,1175473718534576,0.19500001,7.0999503,7.2180004
1679995485365,1175473721036652,0.171,7.14795,7.26105
1679995485369,1175473723538576,0.11895001,7.1400003,7.2570004
1679995485371,1175473726040652,0.09705,7.14795,7.2900004
1679995485374,1175473728542888,0.094950005,7.188,7.31895
1679995485376,1175473731044965,0.0010500001,7.1620502,7.2730503
1679995485379,1175473733546888,0.043950003,7.176,7.2180004
1679995485381,1175473736048965,-0.030000001,7.1640005,7.3429503
1679995485385,1175473738550883,-0.0010500001,7.2049503,7.32105
1679995485386,1175473741053037,0.01305,7.1310005,7.4100003
1679995485389,1175473743555114,0.0010500001,7.2649503,7.3740005
1679995485391,1175473746057268,-0.126,7.176,7.3549504
1679995485394,1175473748559191,-0.06105,7.1719503,7.3690505
1679995485396,1175473751061374,-0.078,7.1310005,7.419
1679995485400,1175473753563451,-0.13095,7.2910504,7.5030003
1679995485402,1175473756065374,-0.102000006,7.2649503,7.4389505
1679995485403,1175473758567451,-0.049050003,7.2769504,7.491
1679995485405,1175473761069605,-0.00405,7.2720003,7.59705
1679995485409,1175473763571724,-0.05595,7.1400003,7.458
1679995485411,1175473766073648,-0.06795,7.1280003,7.5390005
1679995485414,1175473768575725,-0.022950001,7.2310505,7.6540504
1679995485415,1175473771077648,-0.006,7.10895,7.5730505
1679995485418,1175473773579796,-0.030000001,7.1449504,7.63005
1679995485422,1175473776081950,-0.0010500001,7.0609503,7.7449503
1679995485424,1175473778584027,-0.01305,7.116,7.69995
1679995485427,1175473781085941,0.010950001,7.1400003,7.695
1679995485431,1175473783588018,-0.00405,7.1239505,7.8150005
1679995485433,1175473786090172,0.034950003,7.0540504,7.827
1679995485434,1175473788592018,0.022950001,7.0420504,7.8430505
1679995485436,1175473791094249,-0.06105,7.083,8.00895
1679995485440,1175473793596355,-0.058950003,7.05705,7.93695
1679995485443,1175473796098509,-0.079950005,6.9970503,7.8889503
1679995485444,1175473798600355,-0.094950005,6.939,7.9680004
1679995485446,1175473801102509,-0.09195001,6.93195,7.9180503
1679995485448,1175473803604437,-0.13095,6.906,7.9080005
1679995485450,1175473806106591,-0.22605,6.9700503,8.023951
1679995485453,1175473808608668,-0.23400001,6.9030004,7.93905
1679995485456,1175473811110822,-0.23400001,6.774,7.8960004
1679995485460,1175473813612745,-0.28905,6.7570505,8.061001
1679995485462,1175473816114822,-0.18105,6.6540003,7.977
1679995485465,1175473818616745,-0.23400001,6.6780005,7.8840003
1679995485466,1175473821118898,-0.24795002,6.5610003,7.8600006
1679995485469,1175473823621052,-0.29805002,6.5490003,7.73295
1679995485471,1175473826123144,-0.351,6.4789505,7.7910004
1679995485473,1175473828625067,-0.34605002,6.36705,7.6420503
1679995485475,1175473831127221,-0.28605002,6.3499503,7.5769506
1679995485479,1175473833629298,-0.30105,6.28095,7.6129503
1679995485481,1175473836131221,-0.36795002,6.19005,7.6399503
1679995485483,1175473838633375,-0.351,6.1660504,7.6249504
1679995485485,1175473841135529,-0.423,6.1870503,7.5679502
1679995485489,1175473843637606,-0.25995,6.0990005,7.5130506
1679995485492,1175473846139529,-0.35805002,6.1249504,7.49805
1679995485493,1175473848641606,-0.38205,6.02895,7.5540004
1679995485497,1175473851143529,-0.29805002,6.0670505,7.6450505
1679995485500,1175473853645683,-0.39405003,5.99595,7.63005
1679995485501,1175473856147832,-0.37995002,5.9689503,7.6249504
1679995485504,1175473858649909,-0.34395,6.0270004,7.69995
1679995485506,1175473861151832,-0.36495003,5.9020505,7.7190003
1679995485508,1175473863653986,-0.30795002,5.931,7.5660005
1679995485510,1175473866156062,-0.30105,6.0199504,7.5199504
1679995485513,1175473868658000,-0.27705002,5.9760003,7.7479506
1679995485516,1175473871160076,-0.29295,5.98605,7.7119503
1679995485518,1175473873662230,-0.18105,5.9620504,7.7479506
1679995485524,1175473876164153,-0.186,5.9020505,7.8360004
1679995485528,1175473878666288,-0.15405001,5.907,7.8840003
1679995485530,1175473881168365,-0.078,5.85405,7.86705
1679995485532,1175473883670288,-0.03195,5.9359503,7.8430505
1679995485533,1175473886172365,-0.07305,5.9170504,7.8769503
1679995485536,1175473888674605,0.042000003,5.8450503,7.9819503
1679995485537,1175473891176682,0.058950003,5.77995,7.8840003
1679995485540,1175473893678605,0.066,5.7229505,8.0779505
1679995485541,1175473896180682,0.018000001,5.68905,8.167951
1679995485545,1175473898682836,0.06105,5.5740004,8.04195
1679995485546,1175473901184769,0.123,5.5810504,8.16705
1679995485549,1175473903686846,0.135,5.5410004,7.965
1679995485551,1175473906189000,0.23805001,5.39895,8.06805
1679995485553,1175473908691153,0.31500003,5.42595,8.023951
1679995485555,1175473911193067,0.35595003,5.4210005,8.005051
1679995485559,1175473913695143,0.45900002,5.385,8.02095
1679995485561,1175473916197067,0.51405,5.36805,7.8820505
1679995485563,1175473918699220,0.58305,5.2200003,7.9099503
1679995485566,1175473921201067,0.70095,5.22195,7.9030504
1679995485569,1175473923703451,0.67200005,5.1649504,7.8910503
1679995485573,1175473926205374,0.78195006,5.21505,7.8409505
1679995485575,1175473928707451,0.85395,5.1930003,8.03295
1679995485578,1175473931209418,0.82305,5.1120005,7.8769503
1679995485580,1175473933711572,1.008,5.02995,8.017051
1679995485582,1175473936213649,1.04205,5.052,8.03505
1679995485583,1175473938715803,1.092,5.01795,8.005051
1679995485586,1175473941217726,1.0680001,4.9420505,7.8550506
1679995485589,1175473943719880,1.09905,4.9939504,8.001
1679995485591,1175473946221957,1.1230501,4.9750504,7.8409505
1679995485594,1175473948723880,1.1230501,4.97805,8.002951
1679995485597,1175473951225937,1.1590501,4.93905,7.93905
1679995485600,1175473953728091,1.18095,4.91505,7.9990506
1679995485601,1175473956230244,1.21905,4.83405,8.122951
1679995485603,1175473958732168,1.2580501,4.8769503,7.965
1679995485606,1175473961234245,1.3080001,4.9030504,7.9339504
1679995485611,1175473963736379,1.3440001,4.887,7.965
1679995485613,1175473966238302,1.33395,4.9009504,7.9080005
1679995485615,1175473968740456,1.3729501,4.92705,7.9939504
1679995485617,1175473971242543,1.38195,4.88205,7.9870505
1679995485619,1175473973744466,1.44,4.8889503,8.03505
1679995485621,1175473976246543,1.4899501,4.8889503,7.9680004
1679995485623,1175473978748697,1.401,4.9009504,7.9750504
1679995485626,1175473981250620,1.4470501,4.8840003,8.02305
1679995485629,1175473983752782,1.4970001,4.932,7.9680004
1679995485631,1175473986254859,1.5640501,4.9230003,7.977
1679995485634,1175473988756782,1.404,4.9009504,7.9750504
1679995485636,1175473991258859,1.3990501,4.932,7.90605
1679995485639,1175473993761033,1.36995,4.8289504,7.8580503
1679995485641,1175473996262956,1.33395,4.8120003,7.9680004
1679995485645,1175473998765110,1.3290001,4.8,7.9540505
1679995485648,1175474001267187,1.1880001,4.8700504,7.9630504
1679995485651,1175474003769340,1.2100501,4.8169503,8.154
1679995485652,1175474006271263,1.18305,4.77705,8.266951
1679995485655,1175474008773340,1.107,4.8630004,8.20995
1679995485657,1175474011275263,1.11405,4.848,8.272051
1679995485661,1175474013777416,1.1040001,4.7719502,8.21895
1679995485664,1175474016279556,1.0489501,4.75995,8.239051
1679995485666,1175474018781633,1.06605,4.72905,8.221951
1679995485666,1175474021283556,1.0639501,4.662,8.44695
1679995485669,1175474023785710,1.02795,4.59,8.346001
1679995485671,1175474026287787,1.0159501,4.5079503,8.380051
1679995485673,1175474028789701,1.03995,4.5270004,8.313001
1679995485676,1175474031291778,1.0879501,4.5490503,8.290951
1679995485679,1175474033794009,1.2550501,4.5199504,8.31
1679995485681,1175474036295855,1.2019501,4.5469503,8.32995
1679995485685,1175474038797976,1.1380501,4.53,8.260051
1679995485688,1175474041300053,1.2379501,4.4940004,8.274
1679995485690,1175474043802207,1.1910001,4.518,8.21895
1679995485692,1175474046304053,1.2220501,4.43895,8.17905
1679995485695,1175474048806284,1.21905,4.4770503,8.241
1679995485696,1175474051308375,1.24995,4.5540004,8.19495
1679995485699,1175474053810298,1.3579501,4.46505,8.221951
1679995485701,1175474056312375,1.416,4.39305,8.16705
1679995485703,1175474058814528,1.42305,4.37895,8.236051
1679995485705,1175474061316457,1.4080501,4.3429503,8.337001
1679995485709,1175474063818533,1.42005,4.33605,8.373
1679995485711,1175474066320687,1.3729501,4.27395,8.36505
1679995485713,1175474068822841,1.3750501,4.326,8.47095
1679995485716,1175474071324764,1.33395,4.2520504,8.373
1679995485719,1175474073826841,1.368,4.1659503,8.380051
1679995485723,1175474076328764,1.27695,4.2499504,8.334001
1679995485725,1175474078830841,1.36995,4.2780004,8.406
1679995485727,1175474081333057,1.23105,4.20405,8.466001
1679995485730,1175474083835134,1.353,4.2829504,8.50695
1679995485732,1175474086337057,1.28205,4.2190504,8.45895
1679995485735,1175474088839134,1.35105,4.25895,8.397
1679995485736,1175474091341288,1.2600001,4.257,8.455951
1679995485739,1175474093843192,1.2739501,4.293,8.619
1679995485741,1175474096345269,1.31505,4.254,8.610001
1679995485744,1175474098847423,1.28205,4.269,8.581051
1679995485746,1175474101349576,1.1590501,4.39095,8.607
1679995485749,1175474103851481,1.18305,4.3099504,8.655001
1679995485751,1175474106353557,1.179,4.2780004,8.619
1679995485753,1175474108855481,1.09905,4.374,8.682
1679995485756,1175474111357634,1.1040001,4.33605,8.575951
1679995485762,1175474113859721,1.0200001,4.254,8.64105
1679995485764,1175474116361875,0.98505,4.3720503,8.719951
1679995485765,1175474118863798,1.044,4.3170004,8.62395
1679995485767,1175474121365952,0.97695005,4.3570504,8.703
1679995485770,1175474123867802,0.88995004,4.47195,8.682
1679995485772,1175474126369956,0.96300006,4.458,8.599951
1679995485781,1175474128872033,0.89205,4.20405,8.6959505
1679995485781,1175474131374187,0.873,4.3330503,8.73705
1679995485782,1175474133876100,0.85605,4.353,8.67405
1679995485782,1175474136378254,0.84705,4.2780004,8.598001
1679995485783,1175474138880331,0.83205,4.1269503,8.63595
1679995485786,1175474141382254,0.84900004,4.197,8.65305
1679995485789,1175474143884350,0.86100006,4.2330003,8.50395
1679995485791,1175474146386504,0.81105006,4.149,8.65305
1679995485794,1175474148888657,0.915,4.17495,8.740951
1679995485799,1175474151390581,0.95295006,4.065,8.68395
1679995485801,1175474153892676,0.93405,4.0810504,8.63595
1679995485802,1175474156395215,0.98700005,4.017,8.854051
1679995485804,1175474158896753,1.07595,4.092,8.839951
1679995485806,1175474161398830,1.095,3.9889503,8.80605
1679995485809,1175474163900753,1.07295,3.9840002,8.93505
1679995485812,1175474166402902,1.008,3.96705,8.964001
1679995485814,1175474168904979,1.0540501,3.9619503,8.854051
1679995485816,1175474171407133,1.0489501,3.9139502,8.916
1679995485820,1175474173909056,1.02795,3.8689501,8.955001
1679995485821,1175474176411244,1.06605,3.7870502,8.988001
1679995485824,1175474178913321,0.9889501,3.759,8.856
1679995485826,1175474181415475,1.047,3.759,8.92605
1679995485829,1175474183917398,1.056,3.8110502,9.05805
1679995485831,1175474186419475,1.1190001,3.7680001,8.856
1679995485835,1175474188921398,0.99195004,3.76305,8.916
1679995485837,1175474191423783,1.09905,3.7369502,8.89995
1679995485840,1175474193925629,1.06095,3.759,8.866051
1679995485841,1175474196427797,1.059,3.7039502,8.931001
1679995485843,1175474198929720,1.284,3.7470002,9.055051
1679995485846,1175474201431873,1.2720001,3.7560003,8.97105
1679995485850,1175474203933720,1.2100501,3.7870502,9.03405
1679995485851,1175474206435878,1.3249501,3.7440002,8.863951
1679995485854,1175474208938032,1.33395,3.8070002,9.049951
1679995485856,1175474211440109,1.368,3.8740501,8.904
1679995485860,1175474213942032,1.3939501,3.7780502,8.943001
1679995485861,1175474216444181,1.437,3.80205,8.94495
1679995485863,1175474218946258,1.3990501,3.6529503,9.036
1679995485867,1175474221448181,1.5979501,3.8230503,8.9740505
1679995485869,1175474223950258,1.6360501,3.7560003,8.943001
1679995485873,1175474226452451,1.6189501,3.7420502,8.908951
1679995485878,1175474228954528,1.7010001,3.7830002,8.863951
1679995485878,1175474231456451,1.5829501,3.7800002,8.95005
1679995485880,1175474233958528,1.605,3.7350001,8.76105
1679995485882,1175474236460682,1.45905,3.6529503,8.91195
1679995485884,1175474238962614,1.5109501,3.7350001,8.75595
1679995485886,1175474241464768,1.57605,3.69195,8.722051
1679995485889,1175474243966845,1.5259501,3.6679502,8.713051
1679995485891,1175474246468998,1.4760001,3.7129502,8.710051
1679995485894,1175474248970926,1.452,3.6700501,8.746051
1679995485896,1175474251473003,1.4490001,3.6720002,8.88
1679995485899,1175474253974927,1.44,3.6679502,8.78895
1679995485901,1175474256477080,1.3609501,3.5770502,8.835
1679995485903,1175474258979234,1.38705,3.5860503,8.752951
1679995485906,1175474261481325,1.3920001,3.7129502,8.892
1679995485911,1175474263983248,1.3560001,3.68895,8.799001
1679995485913,1175474266485325,1.3770001,3.732,8.691
1679995485914,1175474268987479,1.416,3.6840003,8.79405
1679995485916,1175474271489412,1.3440001,3.759,8.844001
1679995485919,1175474273991489,1.3630501,3.7039502,8.8279505
1679995485922,1175474276493643,1.38495,3.7350001,8.904
1679995485924,1175474278995797,1.3770001,3.73005,8.93295
1679995485926,1175474281497720,1.31295,3.696,8.986051
1679995485929,1175474283999778,1.35105,3.8230503,8.967
1679995485931,1175474286501701,1.27005,3.68895,9.06
1679995485935,1175474289003855,1.27695,3.65595,9.049951
