system_ts_ms, sensor_ts_ns, gyrX, gyrY, gyrZ
1680008481890,1188470245361208,-0.341,-0.1874125,-0.757625
1680008481893,1188470247863362,-0.339075,-0.42734998,-0.740575
1680008481896,1188470250365439,-0.3421,-0.6653625,-0.729575
1680008481898,1188470252867362,-0.34705,-0.90639997,-0.7225625
1680008481900,1188470255369439,-0.3570875,-1.1374,-0.71665
1680008481910,1188470257871592,-0.366025,-1.348325,-0.7106
1680008481911,1188470260373746,-0.377025,-1.5404125,-0.70565
1680008481911,1188470262875693,-0.388025,-1.7084374,-0.7046875
1680008481911,1188470265377770,-0.40205,-1.860375,-0.702625
1680008481913,1188470267879924,-0.421025,-1.9933375,-0.7046875
1680008481915,1188470270381847,-0.4390375,-2.102375,-0.70661247
1680008481918,1188470272883924,-0.4530625,-2.195325,-0.7115625
1680008481923,1188470275386078,-0.4720375,-2.273425,-0.718575
1680008481924,1188470277888232,-0.4890875,-2.333375,-0.724625
1680008481925,1188470280390155,-0.5080625,-2.3673375,-0.730675
1680008481928,1188470282892217,-0.5209875,-2.3804,-0.73865
1680008481930,1188470285394371,-0.5350125,-2.36445,-0.741675
1680008481935,1188470287896294,-0.54408747,-2.328425,-0.7436
1680008481939,1188470290398371,-0.5520625,-2.2664125,-0.746625
1680008481940,1188470292900544,-0.5550875,-2.1814375,-0.7475875
1680008481940,1188470295402697,-0.55605,-2.0843625,-0.7475875
1680008481943,1188470297904621,-0.5539875,-1.9834375,-0.7546
1680008481945,1188470300406774,-0.5401,-1.8673875,-0.763675
1680008481948,1188470302908851,-0.5291,-1.7403375,-0.7775625
1680008481950,1188470305410774,-0.51301247,-1.6083375,-0.790625
1680008481957,1188470307912928,-0.498025,-1.4753749,-0.8056125
1680008481957,1188470310415005,-0.476025,-1.3344375,-0.82156247
1680008481958,1188470312916928,-0.4549875,-1.1903375,-0.8446625
1680008481960,1188470315419087,-0.454025,-1.0533875,-0.88165
1680008481963,1188470317921164,-0.471075,-0.9263375,-0.9266125
1680008481965,1188470320423318,-0.4860625,-0.8074,-0.9565875
1680008481967,1188470322925241,-0.495,-0.6974,-0.9856
1680008481974,1188470325427414,-0.504075,-0.590425,-1.01365
1680008481974,1188470327929491,-0.509025,-0.48839998,-1.027675
1680008481976,1188470330431414,-0.51205,-0.39545,-1.0445875
1680008481978,1188470332933568,-0.517,-0.30635,-1.0586125
1680008481980,1188470335435645,-0.5220875,-0.2234375,-1.0696125
1680008481983,1188470337937780,-0.5220875,-0.15345,-1.0775875
1680008481985,1188470340439703,-0.52305,-0.0853875,-1.0806125
1680008481990,1188470342941856,-0.5270375,-0.0243375,-1.0846
1680008481990,1188470345443933,-0.5270375,0.02365,-1.0846
1680008481993,1188470347946058,-0.528,0.0616,-1.081575
1680008481996,1188470350447981,-0.5181,0.0856625,-1.076625
1680008481998,1188470352950135,-0.506,0.103675,-1.0676875
1680008482000,1188470355452212,-0.491975,0.1095875,-1.0586125
1680008482006,1188470357954361,-0.4741,0.103675,-1.04665
1680008482007,1188470360456284,-0.45705,0.0826375,-1.0346875
1680008482009,1188470362958361,-0.438075,0.0606375,-1.016675
1680008482010,1188470365460284,-0.414975,0.0276375,-0.99962497
1680008482014,1188470367962356,-0.403975,-0.0083875,-0.9846375
1680008482016,1188470370464587,-0.388025,-0.0523875,-0.96965
1680008482017,1188470372966664,-0.372075,-0.1104125,-0.9535625
1680008482023,1188470375468818,-0.3540625,-0.1703625,-0.9436625
1680008482024,1188470377970741,-0.32505,-0.2314125,-0.933625
1680008482025,1188470380472833,-0.2899875,-0.3014,-0.9296375
1680008482029,1188470382974756,-0.249975,-0.3744125,-0.9315625
1680008482030,1188470385476909,-0.207075,-0.4453625,-0.93665
1680008482033,1188470387979063,-0.1579875,-0.51535,-0.950675
1680008482035,1188470390481140,-0.1040875,-0.590425,-0.9686875
1680008482041,1188470392983289,-0.040975,-0.6604125,-0.9876625
1680008482042,1188470395485212,0.0199375,-0.7233875,-1.01365
1680008482043,1188470397987289,0.0809875,-0.782375,-1.0426625
1680008482046,1188470400489212,0.1379125,-0.8394375,-1.06865
1680008482048,1188470402991578,0.199925,-0.881375,-1.0976624
1680008482050,1188470405493501,0.2539625,-0.91245,-1.1316249
1680008482056,1188470407995578,0.308,-0.942425,-1.1636626
1680008482057,1188470410497732,0.35694999,-0.9653875,-1.2016125
1680008482058,1188470412999655,0.40094998,-0.9824375,-1.2346125
1680008482060,1188470415501732,0.441925,-0.9983875,-1.2656875
1680008482063,1188470418003655,0.4800125,-1.008425,-1.2945625
1680008482065,1188470420506039,0.5149375,-1.0264375,-1.3286625
1680008482067,1188470423007962,0.5429875,-1.041425,-1.3596
1680008482074,1188470425510063,0.5649875,-1.05435,-1.3886125
1680008482075,1188470428011986,0.584925,-1.0693375,-1.4146
1680008482075,1188470430514140,0.5979875,-1.0784125,-1.4436125
1680008482078,1188470433016217,0.6059625,-1.0913374,-1.466575
1680008482080,1188470435518135,0.6078875,-1.09945,-1.4936625
1680008482084,1188470438020520,0.606925,-1.106325,-1.5206125
1680008482092,1188470440522443,0.605,-1.1044,-1.5456375
1680008482093,1188470443024520,0.6039,-1.095325,-1.5736874
1680008482095,1188470445526453,0.595925,-1.0814375,-1.6015999
1680008482097,1188470448028607,0.5858875,-1.0643874,-1.62965
1680008482098,1188470450530684,0.5709,-1.0484375,-1.6575625
1680008482098,1188470453032915,0.5479375,-1.03235,-1.6856124
1680008482100,1188470455534982,0.524975,-1.0173625,-1.7136625
1680008482106,1188470458036905,0.496925,-1.0093875,-1.7345625
1680008482107,1188470460538982,0.462,-1.0093875,-1.7546375
1680008482108,1188470463041135,0.42295,-1.01145,-1.769625
1680008482111,1188470465543044,0.3768875,-1.0264375,-1.7796625
1680008482114,1188470468045120,0.32999998,-1.0363375,-1.78365
1680008482115,1188470470547274,0.2820125,-1.046375,-1.7846125
1680008482118,1188470473049428,0.232925,-1.05545,-1.7846125
1680008482123,1188470475551356,0.1859,-1.0583375,-1.786675
1680008482124,1188470478053433,0.143,-1.0604,-1.791625
1680008482126,1188470480555587,0.0979,-1.0583375,-1.7956125
1680008482128,1188470483057510,0.055,-1.05435,-1.8046875
1680008482131,1188470485559664,0.018975,-1.046375,-1.813625
1680008482134,1188470488061746,-0.0149875,-1.0423875,-1.8346624
1680008482136,1188470490563900,-0.047025,-1.0454125,-1.857625
1680008482141,1188470493065823,-0.0820875,-1.0564125,-1.8766
1680008482141,1188470495567900,-0.1170125,-1.0714,-1.9056125
1680008482143,1188470498070035,-0.1530375,-1.1023375,-1.9306375
1680008482145,1188470500571958,-0.1909875,-1.1413875,-1.956625
1680008482148,1188470503074112,-0.229075,-1.19845,-1.9765625
1680008482150,1188470505576188,-0.2679875,-1.261425,-1.994575
1680008482156,1188470508078117,-0.3040125,-1.3304499,-2.0086
1680008482157,1188470510580270,-0.33605,-1.39535,-2.017675
1680008482159,1188470513082424,-0.363,-1.4674,-2.0246875
1680008482162,1188470515584578,-0.3889875,-1.53835,-2.0246875
1680008482164,1188470518086433,-0.41305,-1.6094375,-2.0246875
1680008482165,1188470520588587,-0.4310625,-1.6803875,-2.016575
1680008482167,1188470523090664,-0.4420625,-1.7414374,-2.005575
1680008482173,1188470525592818,-0.4481125,-1.789425,-1.995675
1680008482174,1188470528094751,-0.4481125,-1.8313625,-1.9866
1680008482176,1188470530596905,-0.4411,-1.860375,-1.9776624
1680008482179,1188470533098982,-0.427075,-1.8734375,-1.9685875
1680008482181,1188470535600905,-0.4081,-1.877425,-1.95965
1680008482184,1188470538103059,-0.3889875,-1.86835,-1.9535999
1680008482185,1188470540605136,-0.3650625,-1.844425,-1.945625
1680008482191,1188470543107289,-0.341,-1.8273749,-1.939575
1680008482191,1188470545609213,-0.3229875,-1.80235,-1.9316
1680008482193,1188470548111366,-0.30305,-1.783375,-1.9205999
1680008482197,1188470550613428,-0.28105,-1.7714125,-1.9146875
1680008482198,1188470553115582,-0.2611125,-1.7604125,-1.9096
1680008482200,1188470555617505,-0.2440625,-1.75835,-1.9025875
1680008482207,1188470558119582,-0.22605,-1.7534,-1.895575
1680008482208,1188470560621505,-0.2080375,-1.74845,-1.8896625
1680008482209,1188470563123895,-0.1920875,-1.7524375,-1.88265
1680008482211,1188470565625818,-0.1720125,-1.7573875,-1.8766
1680008482214,1188470568127895,-0.1551,-1.7653625,-1.87165
1680008482216,1188470570630049,-0.13805,-1.78145,-1.8616124
1680008482218,1188470573131962,-0.1260875,-1.7983625,-1.857625
1680008482224,1188470575634039,-0.121,-1.8154125,-1.8486875
1680008482226,1188470578135962,-0.1150875,-1.844425,-1.8376875
1680008482226,1188470580638346,-0.11605,-1.8734375,-1.8286124
1680008482229,1188470583140241,-0.122099996,-1.904375,-1.8145875
1680008482230,1188470585642394,-0.1310375,-1.932425,-1.7996
1680008482235,1188470588144471,-0.146025,-1.9603375,-1.78365
1680008482240,1188470590646394,-0.1640375,-1.9914125,-1.7675625
1680008482242,1188470593148466,-0.190025,-2.0164375,-1.7516125
1680008482243,1188470595650620,-0.2211,-2.0403626,-1.7356625
1680008482245,1188470598152774,-0.2520375,-2.058375,-1.7216375
1680008482245,1188470600654697,-0.29205,-2.069375,-1.708575
1680008482247,1188470603156774,-0.3370125,-2.0684125,-1.7006
1680008482250,1188470605658683,-0.3840375,-2.0464125,-1.6916625
1680008482256,1188470608160837,-0.4411,-2.0134125,-1.6836874
1680008482257,1188470610662914,-0.5000875,-1.964325,-1.68465
1680008482258,1188470613165068,-0.5550875,-1.899425,-1.6836874
1680008482261,1188470615667241,-0.6089875,-1.8173375,-1.6896
1680008482263,1188470618169164,-0.663025,-1.7243875,-1.6916625
1680008482265,1188470620671241,-0.7140375,-1.6204375,-1.7006
1680008482268,1188470623173164,-0.7601,-1.5043875,-1.7125624
1680008482274,1188470625675328,-0.7970875,-1.3803625,-1.7226
1680008482275,1188470628177405,-0.828025,-1.249325,-1.73965
1680008482276,1188470630679635,-0.8490625,-1.1163625,-1.7576625
1680008482278,1188470633181481,-0.8591,-0.98835,-1.780625
1680008482280,1188470635683635,-0.8661125,-0.8694125,-1.8046875
1680008482283,1188470638185726,-0.8760125,-0.7533625,-1.824625
1680008482286,1188470640687649,-0.883025,-0.6463875,-1.83865
1680008482288,1188470643189803,-0.8870125,-0.5473875,-1.8456625
1680008482291,1188470645691957,-0.8930625,-0.47341248,-1.852675
1680008482295,1188470648194010,-0.8980125,-0.40645,-1.8625749
1680008482296,1188470650695933,-0.905025,-0.35433748,-1.874675
1680008482298,1188470653198087,-0.90805,-0.3133625,-1.8915875
1680008482301,1188470655700164,-0.911075,-0.282425,-1.9135875
1680008482304,1188470658202318,-0.9180875,-0.2534125,-1.93765
1680008482306,1188470660704164,-0.92509997,-0.2244,-1.9586875
1680008482309,1188470663206395,-0.9279875,-0.177375,-1.9756
1680008482311,1188470665708472,-0.9321125,-0.1183875,-1.9826125
1680008482314,1188470668210635,-0.9340375,-0.0523875,-1.9826125
1680008482315,1188470670712558,-0.94105,0.02255,-1.9786249
1680008482318,1188470673214635,-0.9499875,0.1126125,-1.9655625
1680008482320,1188470675716558,-0.9590625,0.202675,-1.9476875
1680008482323,1188470678218712,-0.9640125,0.2916375,-1.929675
1680008482325,1188470680720866,-0.968,0.38555,-1.912625
1680008482328,1188470683222943,-0.9691,0.4756125,-1.8936499
1680008482330,1188470685725097,-0.9670375,0.5575625,-1.879625
1680008482334,1188470688227020,-0.9620875,0.62755,-1.8665625
1680008482336,1188470690729092,-0.949025,0.6925875,-1.852675
1680008482338,1188470693231015,-0.9310125,0.7475875,-1.8426375
1680008482340,1188470695733400,-0.9070875,0.7836125,-1.8376875
1680008482343,1188470698235323,-0.872025,0.8006625,-1.8326
1680008482346,1188470700737381,-0.834075,0.8056125,-1.830675
1680008482348,1188470703239535,-0.7940625,0.79365,-1.830675
1680008482350,1188470705741458,-0.74305,0.76559997,-1.8316375
1680008482353,1188470708243535,-0.693,0.7206375,-1.8286124
1680008482355,1188470710745688,-0.6400625,0.6565625,-1.8286124
1680008482357,1188470713247615,-0.5801125,0.5825875,-1.8255875
1680008482360,1188470715749769,-0.5240125,0.493625,-1.818575
1680008482363,1188470718251615,-0.4670875,0.394625,-1.8046875
1680008482366,1188470720753769,-0.4090625,0.2946625,-1.7846125
1680008482368,1188470723255904,-0.3540625,0.1945625,-1.764675
1680008482371,1188470725758058,-0.2981,0.0955625,-1.7445999
1680008482375,1188470728260135,-0.253,0.0075625,-1.7226
1680008482376,1188470730762058,-0.2110625,-0.0664125,-1.7015625
1680008482380,1188470733264145,-0.1720125,-0.1324125,-1.6795624
1680008482381,1188470735766299,-0.132,-0.19635,-1.653575
1680008482385,1188470738268222,-0.10505,-0.25135,-1.62965
1680008482388,1188470740770376,-0.086075,-0.3014,-1.598575
1680008482389,1188470743272539,-0.07205,-0.3454,-1.5646125
1680008482391,1188470745774616,-0.066,-0.38445,-1.5266625
1680008482395,1188470748276539,-0.077,-0.419375,-1.4815625
1680008482396,1188470750778616,-0.0950125,-0.4434375,-1.4366
1680008482398,1188470753280769,-0.11605,-0.4624125,-1.3866875
1680008482401,1188470755782952,-0.1441,-0.468325,-1.3345749
1680008482403,1188470758284875,-0.1780625,-0.4593875,-1.2865875
1680008482405,1188470760786952,-0.2190375,-0.4334,-1.241625
1680008482411,1188470763289106,-0.262075,-0.40039998,-1.1946
1680008482413,1188470765791034,-0.306075,-0.35433748,-1.1545875
1680008482416,1188470768293111,-0.3449875,-0.3004375,-1.115675
1680008482418,1188470770795265,-0.3861,-0.2424125,-1.0786875
1680008482420,1188470773297419,-0.42405,-0.1843875,-1.0476125
1680008482422,1188470775799337,-0.460075,-0.11935,-1.0186
1680008482425,1188470778301414,-0.49307498,-0.0584375,-0.9906875
1680008482426,1188470780803568,-0.52305,-0.0083875,-0.9686875
1680008482429,1188470783305491,-0.55,0.036575,-0.9466875
1680008482431,1188470785807568,-0.575025,0.0726,-0.9266125
1680008482434,1188470788309770,-0.592075,0.102575,-0.90956247
1680008482436,1188470790811846,-0.608025,0.1236125,-0.8976
1680008482438,1188470793313770,-0.6180625,0.1376375,-0.883575
1680008482441,1188470795815846,-0.6260375,0.13859999,-0.8666625
1680008482444,1188470798318025,-0.63002497,0.136675,-0.8496125
1680008482446,1188470800819948,-0.6351125,0.1285625,-0.8316
1680008482448,1188470803322025,-0.6340125,0.1166,-0.8166125
1680008482451,1188470805824179,-0.63002497,0.0946,-0.8006625
1680008482455,1188470808326300,-0.6290625,0.06655,-0.784575
1680008482457,1188470810828223,-0.6230125,0.037675,-0.7726125
1680008482460,1188470813330300,-0.6171,0.0066,-0.7616125
1680008482462,1188470815832454,-0.61105,-0.0264,-0.751575
1680008482464,1188470818334410,-0.6040375,-0.06545,-0.7396125
1680008482466,1188470820836487,-0.5979875,-0.1073875,-0.7286125
1680008482468,1188470823338641,-0.5911125,-0.14533749,-0.7156875
1680008482470,1188470825840795,-0.594,-0.1904375,-0.7046875
1680008482473,1188470828342718,-0.5869875,-0.23333749,-0.696575
1680008482475,1188470830844882,-0.5850625,-0.2674375,-0.680625
1680008482478,1188470833346728,-0.5880875,-0.298375,-0.6656375
1680008482480,1188470835848882,-0.5911125,-0.3273875,-0.653675
1680008482484,1188470838351035,-0.594,-0.348425,-0.6446
1680008482486,1188470840853189,-0.60307497,-0.3683625,-0.630575
1680008482488,1188470843355266,-0.6061,-0.3774375,-0.6136625
1680008482490,1188470845857420,-0.6100875,-0.3873375,-0.6026625
1680008482495,1188470848359266,-0.616,-0.39833748,-0.58959997
1680008482498,1188470850861444,-0.62205,-0.403425,-0.57365
1680008482500,1188470853363367,-0.6260375,-0.4123625,-0.5586625
1680008482505,1188470855865521,-0.6281,-0.4203375,-0.542575
1680008482508,1188470858367675,-0.6309875,-0.42941248,-0.5256625
1680008482510,1188470860869752,-0.6340125,-0.4324375,-0.509575
1680008482512,1188470863371684,-0.636075,-0.436425,-0.4976125
1680008482515,1188470865873761,-0.641025,-0.4404125,-0.4786375
1680008482527,1188470868375915,-0.6419875,-0.43945,-0.465575
1680008482543,1188470870877838,-0.6430875,-0.4434375,-0.454575
1680008482545,1188470873380218,-0.6419875,-0.447425,-0.443575
1680008482545,1188470875882064,-0.6370375,-0.457325,-0.43559998
1680008482546,1188470878384218,-0.6210875,-0.4703875,-0.4296875
1680008482547,1188470880886141,-0.61105,-0.48633748,-0.4266625
1680008482547,1188470883388208,-0.5960625,-0.5104,-0.4236375
1680008482547,1188470885890362,-0.5801125,-0.5413375,-0.4145625
1680008482549,1188470888392516,-0.5630625,-0.5764,-0.4156625
1680008482550,1188470890894439,-0.5410625,-0.6133875,-0.4156625
1680008482550,1188470893396540,-0.5181,-0.655325,-0.4136
1680008482551,1188470895898694,-0.498025,-0.69245,-0.4126375
1680008482552,1188470898400617,-0.4750625,-0.7173375,-0.4096125
1680008482553,1188470900902694,-0.4500375,-0.74635,-0.4126375
1680008482553,1188470903404848,-0.4230875,-0.7673875,-0.4126375
1680008482554,1188470905906987,-0.3980625,-0.7833375,-0.4136
1680008482555,1188470908408910,-0.3751,-0.7973625,-0.4126375
1680008482556,1188470910910987,-0.355025,-0.810425,-0.4136
1680008482558,1188470913412910,-0.33605,-0.81345,-0.416625
1680008482561,1188470915915299,-0.3130875,-0.81743747,-0.416625
1680008482563,1188470918417222,-0.295075,-0.815375,-0.4175875
1680008482565,1188470920919299,-0.278025,-0.8184,-0.42061248
1680008482568,1188470923421222,-0.2641375,-0.82335,-0.4255625
1680008482572,1188470925923362,-0.2470875,-0.826375,-0.433675
1680008482575,1188470928425439,-0.2300375,-0.832425,-0.4406875
1680008482577,1188470930927593,-0.2110625,-0.8413625,-0.45265
1680008482579,1188470933429747,-0.1951125,-0.854425,-0.4676375
1680008482581,1188470935931670,-0.1750375,-0.8724375,-0.4796
1680008482584,1188470938433747,-0.1551,-0.8933375,-0.4866125
1680008482586,1188470940935901,-0.136125,-0.9293625,-0.4976125
1680008482588,1188470943437824,-0.1211375,-0.9744625,-0.499675
1680008482591,1188470945939901,-0.1071125,-1.019425,-0.5006375
1680008482595,1188470948442161,-0.0900625,-1.0704376,-0.49568748
1680008482596,1188470950944238,-0.0730125,-1.129425,-0.4846875
1680008482598,1188470953446161,-0.0570625,-1.1884125,-0.4725875
1680008482601,1188470955948238,-0.0430375,-1.25235,-0.460625
1680008482604,1188470958450391,-0.02805,-1.3253624,-0.45265
1680008482606,1188470960952314,-0.0121,-1.3924625,-0.4486625
1680008482610,1188470963454391,0.001925,-1.45145,-0.4376625
1680008482612,1188470965956545,0.01595,-1.5024625,-0.4266625
1680008482616,1188470968458703,0.0319,-1.552375,-0.4175875
1680008482617,1188470970960626,0.0438625,-1.59445,-0.40865
1680008482619,1188470973462703,0.051975,-1.6324,-0.4026
1680008482621,1188470975964857,0.0609125,-1.6654,-0.3936625
1680008482624,1188470978466780,0.0688875,-1.6883625,-0.3845875
1680008482626,1188470980968857,0.073975,-1.7023875,-0.37565
1680008482630,1188470983471011,0.08195,-1.7093999,-0.3686375
1680008482631,1188470985973165,0.09295,-1.7114625,-0.3586
1680008482636,1188470988475088,0.105875,-1.706375,-0.3546125
1680008482637,1188470990977137,0.1199,-1.6963375,-0.3515875
1680008482638,1188470993479060,0.1348875,-1.6864375,-0.35365
1680008482641,1188470995981214,0.155925,-1.6654,-0.3636875
1680008482644,1188470998483367,0.1758625,-1.6434,-0.377575
1680008482647,1188471000985439,0.1989625,-1.613425,-0.3966875
1680008482649,1188471003487593,0.2239875,-1.58345,-0.4246
1680008482651,1188471005989516,0.24887499,-1.53945,-0.45265
1680008482656,1188471008491593,0.2739,-1.486375,-0.4846875
1680008482657,1188471010993516,0.2979625,-1.431375,-0.5165875
1680008482659,1188471013495680,0.32395,-1.371425,-0.548625
1680008482662,1188471015997834,0.348975,-1.3143625,-0.576675
1680008482664,1188471018499988,0.3749625,-1.26445,-0.6076125
1680008482666,1188471021002065,0.403975,-1.21935,-0.6356625
1680008482669,1188471023503978,0.435875,-1.1903375,-0.6606875
1680008482671,1188471026006055,0.4679125,-1.16435,-0.68365
1680008482676,1188471028507978,0.5009125,-1.1374,-0.70867497
1680008482680,1188471031010363,0.534875,-1.1163625,-0.73865
1680008482682,1188471033512281,0.5649875,-1.1044,-0.7665625
1680008482682,1188471036014434,0.5929,-1.101375,-0.79461247
1680008482685,1188471038516281,0.6188875,-1.09945,-0.82665
1680008482686,1188471041018434,0.6419875,-1.107425,-0.8545625
1680008482689,1188471043520540,0.6628875,-1.12145,-0.8765625
1680008482690,1188471046022694,0.677875,-1.1303875,-0.8985625
1680008482695,1188471048524848,0.689975,-1.14235,-0.9156125
1680008482697,1188471051026771,0.6969875,-1.1554124,-0.9266125
1680008482698,1188471053528848,0.700975,-1.173425,-0.93665
1680008482701,1188471056031021,0.7029,-1.18745,-0.950675
1680008482704,1188471058532944,0.699875,-1.2054625,-0.9636
1680008482706,1188471061035021,0.6939625,-1.2274625,-0.977625
1680008482709,1188471063537175,0.678975,-1.2434125,-0.994675
1680008482712,1188471066039339,0.666875,-1.2563375,-1.010625
1680008482714,1188471068541262,0.650925,-1.2584,-1.0236875
1680008482716,1188471071043339,0.6259,-1.25235,-1.0316625
1680008482718,1188471073545493,0.6078875,-1.244375,-1.0335875
1680008482722,1188471076047416,0.5828625,-1.23145,-1.0296
1680008482725,1188471078549493,0.551925,-1.217425,-1.027675
1680008482728,1188471081051723,0.5159,-1.184425,-1.0206625
1680008482729,1188471083553800,0.4819375,-1.1374,-1.015575
1680008482731,1188471086055723,0.441925,-1.07745,-1.00265
1680008482737,1188471088557790,0.397925,-0.9944,-0.982575
1680008482738,1188471091059944,0.3499375,-0.8944375,-0.9645625
1680008482740,1188471093561867,0.2998875,-0.77935,-0.93857497
1680008482741,1188471096063944,0.2479125,-0.6554625,-0.91368747
1680008482744,1188471098566098,0.1898875,-0.52745,-0.88467497
1680008482746,1188471101068252,0.1379125,-0.3914625,-0.850575
1680008482749,1188471103570175,0.078925,-0.2613875,-0.8135875
1680008482751,1188471106072252,0.0248875,-0.1364,-0.7786625
1680008482756,1188471108574358,-0.025024999,-0.02035,-0.740575
1680008482757,1188471111076281,-0.075075,0.0856625,-0.7016625
1680008482760,1188471113578358,-0.122099996,0.16555,-0.6686625
1680008482764,1188471116080512,-0.158125,0.2286625,-0.6345625
1680008482765,1188471118582435,-0.1940125,0.2726625,-0.598675
1680008482767,1188471121084570,-0.22013749,0.3036,-0.55962497
1680008482769,1188471123586646,-0.2360875,0.3125375,-0.5286875
1680008482771,1188471126088800,-0.245025,0.30855,-0.49568748
1680008482775,1188471128590723,-0.2431,0.2926,-0.460625
1680008482776,1188471131092891,-0.2321,0.26455,-0.43065
1680008482779,1188471133594968,-0.2050125,0.2156,-0.399575
1680008482781,1188471136097122,-0.1661,0.1496,-0.3696
1680008482784,1188471138599045,-0.122099996,0.075625,-0.3466375
1680008482786,1188471141101199,-0.0631125,-0.0154,-0.3246375
1680008482788,1188471143603271,-1.375E-4,-0.1214125,-0.3056625
1680008482791,1188471146105194,0.072875,-0.243375,-0.2916375
1680008482794,1188471148607348,0.1538625,-0.3674,-0.2866875
1680008482797,1188471151109425,0.238975,-0.5014625,-0.2825625
1680008482799,1188471153611358,0.3249125,-0.6433625,-0.2836625
1680008482801,1188471156113512,0.41387498,-0.7874625,-0.28765
1680008482804,1188471158615666,0.5039375,-0.942425,-0.2976875
1680008482806,1188471161117742,0.5919375,-1.1023375,-0.3166625
1680008482808,1188471163619666,0.672925,-1.2673374,-0.3436125
1680008482811,1188471166121843,0.7469,-1.4254625,-0.3686375
1680008482815,1188471168623920,0.8119375,-1.585375,-0.3966875
1680008482817,1188471171125843,0.86294997,-1.7384125,-0.4236375
1680008482818,1188471173627920,0.8999375,-1.8704125,-0.454575
1680008482821,1188471176130146,0.9268875,-1.9914125,-0.4896375
1680008482825,1188471178632223,0.9378875,-2.0813375,-0.51865
1680008482827,1188471181134146,0.9378875,-2.1313875,-0.5446375
1680008482830,1188471183636300,0.9189125,-2.1484375,-0.5696625
1680008482832,1188471186138353,0.887975,-2.1313875,-0.5916625
1680008482835,1188471188640276,0.8449375,-2.0854626,-0.614625
1680008482837,1188471191142430,0.7909,-2.0043375,-0.630575
1680008482839,1188471193644584,0.7288875,-1.899425,-0.6485875
1680008482841,1188471196146661,0.6609625,-1.7763625,-0.6606875
1680008482844,1188471198648814,0.5819,-1.63845,-0.6626125
1680008482846,1188471201150661,0.5009125,-1.48335,-0.6556
1680008482848,1188471203652814,0.4129125,-1.3124375,-0.642675
1680008482851,1188471206154738,0.3139125,-1.14235,-0.62067497
1680008482855,1188471208657131,0.2099625,-0.975425,-0.5836875
1680008482856,1188471211159054,0.1079375,-0.804375,-0.542575
1680008482858,1188471213661131,0.001925,-0.64033747,-0.4976125
1680008482862,1188471216163054,-0.098037496,-0.48345,-0.4486625
1680008482865,1188471218665208,-0.19607499,-0.342375,-0.4016375
1680008482866,1188471221167261,-0.29205,-0.2094125,-0.3515875
1680008482868,1188471223669184,-0.38005,-0.078375,-0.3036
1680008482872,1188471226171569,-0.460075,0.042625,-0.2605625
1680008482875,1188471228673483,-0.531025,0.15565,-0.2156
1680008482877,1188471231175560,-0.5960625,0.262625,-0.1676125
1680008482881,1188471233677483,-0.652025,0.3515875,-0.1285625
1680008482883,1188471236179637,-0.6941,0.43353748,-0.093637496
1680008482885,1188471238681714,-0.7341125,0.50655,-0.06765
1680008482887,1188471241183853,-0.7601,0.5586625,-0.0416625
1680008482889,1188471243685776,-0.7821,0.603625,-0.015675
1680008482891,1188471246187929,-0.7970875,0.6436375,0.007425
1680008482895,1188471248690006,-0.80808747,0.67265,0.0334125
1680008482897,1188471251191939,-0.8160625,0.6975375,0.061325
1680008482899,1188471253694093,-0.82005,0.7085375,0.0823625
1680008482901,1188471256196170,-0.818125,0.71555,0.106425
1680008482904,1188471258698324,-0.8100125,0.7225625,0.1254
1680008482906,1188471261200252,-0.8001125,0.7225625,0.1434125
1680008482911,1188471263702406,-0.7860875,0.71555,0.1533125
1680008482915,1188471266204483,-0.768075,0.707575,0.160325
1680008482918,1188471268706406,-0.7390625,0.69465,0.1623875
1680008482920,1188471271208540,-0.708125,0.6736125,0.161425
1680008482922,1188471273710694,-0.674025,0.66055,0.1574375
1680008482925,1188471276212771,-0.641025,0.6436375,0.139425
1680008482926,1188471278714694,-0.60513747,0.6296125,0.1203125
1680008482929,1188471281216848,-0.564025,0.608575,0.095425
1680008482931,1188471283718969,-0.5251125,0.58959997,0.06435
1680008482933,1188471286220892,-0.488125,0.5696625,0.03135
1680008482936,1188471288723045,-0.4521,0.5476625,-0.00165
1680008482938,1188471291225208,-0.4140125,0.5236,-0.0396
1680008482941,1188471293727285,-0.3840375,0.498575,-0.06765
1680008482944,1188471296229208,-0.356125,0.4756125,-0.0875875
1680008482947,1188471298731362,-0.3240875,0.460625,-0.10065
1680008482948,1188471301233425,-0.301125,0.4486625,-0.1126125
1680008482950,1188471303735348,-0.279125,0.44165,-0.1186625
1680008482952,1188471306237425,-0.27101249,0.4596625,-0.115637496
1680008482954,1188471308739656,-0.2660625,0.4796,-0.114675
1680008482956,1188471311241733,-0.2660625,0.504625,-0.1076625
1680008482959,1188471313743866,-0.2761,0.537625,-0.10065
1680008482962,1188471316245789,-0.290125,0.5795625,-0.0906125
1680008482965,1188471318747866,-0.3070375,0.6296125,-0.0845625
1680008482966,1188471321250020,-0.32505,0.6895625,-0.075625
1680008482969,1188471323751953,-0.3430625,0.7445625,-0.0666875
1680008482971,1188471326254106,-0.3700125,0.8056125,-0.056649998
1680008482976,1188471328756183,-0.3980625,0.8716125,-0.047575
1680008482980,1188471331258106,-0.4310625,0.9315625,-0.0325875
1680008482982,1188471333760174,-0.46805,0.9986625,-0.0075625
1680008482983,1188471336262405,-0.5110875,1.065625,0.017324999
1680008482986,1188471338764482,-0.5550875,1.1215875,0.0413875
1680008482988,1188471341266405,-0.60101247,1.17755,0.0633875
1680008482990,1188471343768568,-0.6491375,1.2296625,0.091437496
1680008482992,1188471346270645,-0.6941,1.2765499,0.1214125
1680008482995,1188471348772568,-0.7381,1.3165625,0.150425
1680008482997,1188471351274722,-0.7830625,1.3486,0.177375
1680008482999,1188471353776876,-0.8270625,1.38765,0.2083125
1680008483001,1188471356278972,-0.86913747,1.4146,0.238425
1680008483004,1188471358780895,-0.90805,1.44155,0.2693625
1680008483006,1188471361282972,-0.950125,1.4705625,0.292325
1680008483008,1188471363785126,-0.988075,1.50755,0.314325
1680008483011,1188471366287030,-1.0250624,1.5585625,0.3383875
1680008483015,1188471368789414,-1.060125,1.6116375,0.3603875
1680008483017,1188471371291337,-1.0880375,1.664575,0.3784
1680008483019,1188471373793414,-1.1100374,1.7216375,0.3894
1680008483023,1188471376295544,-1.1221375,1.77265,0.3953125
1680008483025,1188471378797390,-1.12805,1.8255875,0.3953125
1680008483029,1188471381299544,-1.1240625,1.8726125,0.3823875
1680008483030,1188471383801698,-1.114025,1.91565,0.3623125
1680008483034,1188471386303862,-1.1011,1.9545625,0.336325
1680008483036,1188471388805785,-1.0830874,1.9826125,0.304425
1680008483038,1188471391307862,-1.0531125,1.9996625,0.265375
1680008483040,1188471393809785,-1.0201125,2.0086,0.221375
1680008483043,1188471396311939,-0.983125,2.00365,0.17435
1680008483046,1188471398814001,-0.9400875,1.99265,0.1263625
1680008483048,1188471401316232,-0.8980125,1.98165,0.0793375
1680008483050,1188471403818078,-0.850025,1.9586875,0.0364375
1680008483052,1188471406320155,-0.80396247,1.923625,-6.875E-4
1680008483055,1188471408822313,-0.757075,1.879625,-0.031625
1680008483059,1188471411324237,-0.707025,1.8266875,-0.058575
1680008483063,1188471413826390,-0.6620625,1.7606875,-0.0765875
1680008483065,1188471416328467,-0.6180625,1.6916625,-0.0946
1680008483069,1188471418830606,-0.57805,1.6226375,-0.1056
1680008483071,1188471421332760,-0.5399625,1.55265,-0.11165
1680008483074,1188471423834683,-0.506,1.4796375,-0.11165
1680008483076,1188471426336760,-0.4769875,1.4045625,-0.1095875
1680008483079,1188471428838914,-0.4519625,1.3275625,-0.1076625
1680008483082,1188471431340842,-0.432025,1.2535875,-0.103675
1680008483084,1188471433842996,-0.414975,1.1845624,-0.103675
1680008483086,1188471436345073,-0.40301248,1.1185625,-0.0996875
1680008483089,1188471438847227,-0.3969625,1.0635625,-0.0906125
1680008483091,1188471441349169,-0.394075,1.0096625,-0.0836
1680008483093,1188471443851246,-0.394075,0.95865,-0.0726
1680008483096,1188471446353169,-0.4010875,0.91465,-0.0616
1680008483098,1188471448855323,-0.4109875,0.8716125,-0.0496375
1680008483100,1188471451357457,-0.4189625,0.8336625,-0.0356125
1680008483102,1188471453859534,-0.4299625,0.8056125,-0.02365
1680008483104,1188471456361457,-0.447975,0.7805875,-0.0066
1680008483107,1188471458863611,-0.4629625,0.757625,0.0103124995
1680008483109,1188471461365688,-0.484,0.741675,0.017324999
1680008483110,1188471463867606,-0.5069625,0.7236625,0.028324999
1680008483112,1188471466369760,-0.5289625,0.707575,0.0364375
1680008483114,1188471468871914,-0.5509625,0.7005625,0.0433125
1680008483117,1188471471373991,-0.5740625,0.691625,0.0444125
1680008483119,1188471473875910,-0.5900125,0.675675,0.0463375
1680008483121,1188471476377987,-0.597025,0.663575,0.04235
1680008483124,1188471478880141,-0.6070625,0.6516125,0.0323125
1680008483127,1188471481382064,-0.6100875,0.642675,0.0213125
1680008483129,1188471483884223,-0.608025,0.631675,0.0044
1680008483131,1188471486386377,-0.60005,0.608575,-0.0176
1680008483136,1188471488888453,-0.5930375,0.575575,-0.045649998
1680008483137,1188471491390607,-0.5790125,0.5275875,-0.07865
1680008483142,1188471493892439,-0.5520625,0.4585625,-0.1095875
1680008483148,1188471496394593,-0.5209875,0.372625,-0.1436875
1680008483149,1188471498896516,-0.49005,0.279675,-0.180675
1680008483149,1188471501398670,-0.44701248,0.1716,-0.2176625
1680008483150,1188471503900824,-0.4010875,0.0636625,-0.2536875
1680008483151,1188471506402886,-0.355025,-0.051425,-0.2916375
1680008483154,1188471508905040,-0.304975,-0.1843875,-0.33165
1680008483156,1188471511406963,-0.24805,-0.3234,-0.3656125
1680008483159,1188471513909040,-0.1920875,-0.4723125,-0.39765
1680008483162,1188471516410963,-0.1280125,-0.6263125,-0.4255625
1680008483164,1188471518913348,-0.0650375,-0.7854,-0.449625
1680008483166,1188471521415271,-9.625E-4,-0.9504,-0.4736875
1680008483169,1188471523917348,0.05995,-1.107425,-0.5016
1680008483173,1188471526419276,0.1219625,-1.2703625,-0.53267497
1680008483176,1188471528921430,0.18095,-1.4224375,-0.564575
1680008483179,1188471531423507,0.2410375,-1.5673625,-0.587675
1680008483180,1188471533925660,0.3029125,-1.717375,-0.6136625
1680008483181,1188471536427583,0.363,-1.8583125,-0.6356625
1680008483184,1188471538929761,0.4250125,-1.9933375,-0.6546375
1680008483186,1188471541431607,0.4879875,-2.1264374,-0.6736125
1680008483189,1188471543933992,0.551925,-2.256375,-0.6895625
1680008483191,1188471546435915,0.6120125,-2.3794374,-0.6986375
1680008483194,1188471548938078,0.671,-2.4913626,-0.70565
1680008483196,1188471551439924,0.7269625,-2.5933876,-0.70867497
1680008483199,1188471553942078,0.773025,-2.6954124,-0.70661247
1680008483201,1188471556444155,0.817025,-2.7883625,-0.70661247
1680008483204,1188471558946324,0.8529125,-2.8733375,-0.7016625
1680008483206,1188471561448478,0.8809625,-2.9453876,-0.6895625
1680008483210,1188471563950401,0.905025,-3.0083625,-0.67265
1680008483212,1188471566452555,0.9279875,-3.0573125,-0.6556
1680008483216,1188471568954386,0.942975,-3.0944376,-0.641575
1680008483217,1188471571456540,0.953975,-3.1244125,-0.6296125
1680008483219,1188471573958617,0.9640125,-3.1433876,-0.6155875
1680008483221,1188471576460770,0.971025,-3.16635,-0.6045875
1680008483224,1188471578962924,0.9719875,-3.1904125,-0.603625
1680008483226,1188471581464838,0.9780375,-3.2283626,-0.6015625
1680008483229,1188471583966915,0.9860125,-3.274425,-0.6026625
1680008483231,1188471586469069,0.9959125,-3.340425,-0.61765
1680008483234,1188471588970992,1.0129625,-3.4203124,-0.631675
1680008483236,1188471591473146,1.0319375,-3.5134,-0.65065
1680008483239,1188471593975295,1.0539374,-3.6154249,-0.6686625
1680008483241,1188471596477372,1.078,-3.7153876,-0.6846125
1680008483246,1188471598979295,1.1059124,-3.824425,-0.7046875
1680008483247,1188471601481367,1.1309375,-3.9414375,-0.718575
1680008483249,1188471603983521,1.1559625,-4.060375,-0.73356247
1680008483251,1188471606485444,1.1809875,-4.187425,-0.7436
1680008483255,1188471608987521,1.2060125,-4.313375,-0.7475875
1680008483257,1188471611489675,1.232,-4.4334126,-0.74965
1680008483259,1188471613991852,1.25895,-4.5464373,-0.746625
1680008483262,1188471616493775,1.2860374,-4.649425,-0.7326
1680008483264,1188471618995852,1.3149124,-4.737425,-0.7156875
1680008483266,1188471621498006,1.3479125,-4.8104377,-0.696575
1680008483269,1188471623999924,1.3820125,-4.8654375,-0.6785625
1680008483271,1188471626502078,1.4119875,-4.9033875,-0.6576625
1680008483274,1188471629004155,1.4339875,-4.918375,-0.641575
1680008483276,1188471631506309,1.455025,-4.9253874,-0.631675
1680008483279,1188471634008218,1.474,-4.9273124,-0.6276875
1680008483281,1188471636510295,1.4909124,-4.918375,-0.6226
1680008483286,1188471639012218,1.4999875,-4.8973374,-0.60665
1680008483287,1188471641514372,1.5030125,-4.869425,-0.5836875
1680008483289,1188471644016545,1.497925,-4.8444,-0.55962497
1680008483291,1188471646518622,1.477025,-4.8173122,-0.542575
1680008483295,1188471649020776,1.452,-4.7854123,-0.521675
1680008483297,1188471651522699,1.4260125,-4.7414126,-0.4926625
1680008483299,1188471654024852,1.386,-4.676375,-0.46461248
1680008483301,1188471656526699,1.3429625,-4.58535,-0.4365625
1680008483304,1188471659028853,1.287,-4.478375,-0.4096125
1680008483306,1188471661531006,1.2200375,-4.3784122,-0.3845875
1680008483309,1188471664033160,1.1510125,-4.2783127,-0.3576375
1680008483311,1188471666535256,1.081025,-4.1793127,-0.3306875
1680008483314,1188471669037179,1.013925,-4.05735,-0.306625
1680008483316,1188471671539256,0.9549375,-3.923425,-0.27665
1680008483319,1188471674041415,0.8999375,-3.7734125,-0.246675
1680008483323,1188471676543569,0.85195,-3.6173499,-0.2165625
1680008483326,1188471679045492,0.80396247,-3.4593625,-0.1835625
1680008483329,1188471681547646,0.76395,-3.3103125,-0.152625
1680008483333,1188471684049492,0.73095,-3.175425,-0.1205875
1680008483334,1188471686551646,0.6989125,-3.0573125,-0.097625
1680008483337,1188471689053723,0.6689375,-2.9514375,-0.0776875
1680008483338,1188471691555877,0.6439125,-2.86935,-0.059675
1680008483339,1188471694058030,0.612975,-2.79235,-0.0496375
1680008483341,1188471696559916,0.58795,-2.7214,-0.0435875
1680008483345,1188471699061992,0.5710375,-2.6483874,-0.042625
1680008483347,1188471701564146,0.55,-2.4794,-0.042625
1680008483349,1188471704066069,0.4690125,-1.965425,-0.0276375
1680008483351,1188471706568126,0.271975,-0.952325,0.040425
1680008483355,1188471709070280,0.0339625,0.115637496,0.128425
1680008483356,1188471711572434,-0.0999625,0.674575,0.1544125
1680008483360,1188471714074357,-0.11605,0.6996,0.116325
1680008483363,1188471716576444,-0.0620125,0.4536125,0.056375
1680008483364,1188471719078598,0.018975,0.1056,0.0053625
1680008483366,1188471721580521,0.117975,-0.2143625,-0.0226875
1680008483368,1188471724082598,0.221925,-0.42734998,-0.0295625
1680008483371,1188471726584829,0.309925,-0.5273125,-0.0185625
1680008483375,1188471729086675,0.3579125,-0.5473875,-0.0086624995
1680008483377,1188471731588829,0.37895,-0.5413375,-6.875E-4
1680008483379,1188471734090906,0.3859625,-0.523325,-0.0075625
1680008483382,1188471736593059,0.388025,-0.51535,-0.02365
1680008483384,1188471739095227,0.392975,-0.5214,-0.037675
1680008483386,1188471741597150,0.4079625,-0.546425,-0.047575
1680008483389,1188471744099227,0.429,-0.5913875,-0.0496375
1680008483391,1188471746601150,0.4489375,-0.655325,-0.0496375
1680008483395,1188471749103319,0.463925,-0.7084,-0.0545875
1680008483398,1188471751605396,0.469975,-0.743325,-0.0625625
1680008483399,1188471754107627,0.469975,-0.7634,-0.0776875
1680008483401,1188471756609704,0.463925,-0.7844375,-0.0875875
1680008483406,1188471759111641,0.454025,-0.8083625,-0.0985875
1680008483407,1188471761613718,0.436975,-0.832425,-0.1056
1680008483409,1188471764115872,0.421025,-0.8713375,-0.11165
1680008483412,1188471766617795,0.407,-0.9153375,-0.1186625
1680008483415,1188471769119862,0.3840375,-0.9483375,-0.119625
1680008483417,1188471771622016,0.355025,-0.96442497,-0.1216875
1680008483419,1188471774124169,0.3260125,-0.96442497,-0.119625
1680008483421,1188471776626093,0.2899875,-0.9433875,-0.1175625
1680008483425,1188471779128160,0.2509375,-0.908325,-0.108625
1680008483427,1188471781630314,0.20899999,-0.87642497,-0.104637496
1680008483430,1188471784132237,0.168025,-0.8394375,-0.104637496
1680008483432,1188471786634391,0.12595,-0.7964,-0.1056
1680008483437,1188471789136473,0.0809875,-0.7514375,-0.11165
1680008483439,1188471791638627,0.044,-0.69135,-0.1205875
1680008483440,1188471794140550,0.0119624995,-0.6293375,-0.13365
1680008483442,1188471796642704,-0.013062499,-0.5654,-0.147675
1680008483446,1188471799144550,-0.0270875,-0.5094375,-0.1615625
1680008483447,1188471801646708,-0.0290125,-0.4664,-0.17765
1680008483450,1188471804148862,-0.029975,-0.4283125,-0.2006125
1680008483453,1188471806650939,-0.0229625,-0.403425,-0.2206875
1680008483455,1188471809153093,-0.011,-0.3873375,-0.240625
1680008483457,1188471811655016,-0.0039875,-0.3744125,-0.2635875
1680008483459,1188471814157093,0.00495,-0.3634125,-0.2855875
1680008483463,1188471816659016,0.0059125,-0.35035,-0.3026375
1680008483464,1188471819161170,0.0089375,-0.33935,-0.317625
1680008483466,1188471821663323,0.0070125,-0.325325,-0.3246375
1680008483469,1188471824165400,-9.625E-4,-0.3133625,-0.33261248
1680008483473,1188471826667323,-0.013062499,-0.30635,-0.3295875
1680008483475,1188471829169477,-0.0229625,-0.304425,-0.3185875
1680008483477,1188471831671545,-0.036025,-0.31033748,-0.3036
1680008483479,1188471834173468,-0.0510125,-0.325325,-0.2836625
1680008483481,1188471836675853,-0.0669625,-0.3454,-0.2536875
1680008483485,1188471839177776,-0.077,-0.3733125,-0.22165
1680008483486,1188471841679853,-0.0889625,-0.397375,-0.1876875
1680008483489,1188471844181785,-0.098037496,-0.4233625,-0.1546875
1680008483492,1188471846683939,-0.109037496,-0.46035,-0.1216875
1680008483495,1188471849186016,-0.1150875,-0.5163125,-0.08965
1680008483497,1188471851687939,-0.113025,-0.5823125,-0.0506
1680008483499,1188471854190319,-0.106975,-0.655325,-0.01265
1680008483501,1188471856692242,-0.095975,-0.7184375,0.0254375
1680008483504,1188471859194319,-0.0820875,-0.777425,0.06435
1680008483506,1188471861696242,-0.0730125,-0.81743747,0.106425
1680008483510,1188471864198410,-0.0650375,-0.8553875,0.15235
1680008483513,1188471866700487,-0.0510125,-0.8954,0.1923625
1680008483515,1188471869202718,-0.033,-0.9213875,0.2314125
1680008483517,1188471871704795,-0.013062499,-0.9453125,0.2743125
1680008483520,1188471874206718,0.0089375,-0.974325,0.3114375
1680008483521,1188471876708809,0.0290125,-0.996325,0.3444375
1680008483525,1188471879210963,0.055,-1.0063624,0.3763375
1680008483527,1188471881712886,0.078925,-1.0093875,0.40535
1680008483529,1188471884214963,0.100925,-1.0033375,0.42734998
1680008483532,1188471886717180,0.135025,-0.9944,0.457325
1680008483535,1188471889219026,0.1750375,-0.9703375,0.4893625
1680008483537,1188471891721180,0.2259125,-0.930325,0.5223625
1680008483539,1188471894223257,0.287925,-0.8914125,0.55233747
1680008483541,1188471896725396,0.352,-0.8553875,0.5874
1680008483544,1188471899227319,0.425975,-0.83435,0.6194375
1680008483548,1188471901729396,0.5069625,-0.81633747,0.64735
1680008483549,1188471904231549,0.5779125,-0.820325,0.6754
1680008483551,1188471906733727,0.6499625,-0.837375,0.6964375
1680008483554,1188471909235650,0.715,-0.853325,0.7184375
1680008483556,1188471911737727,0.773025,-0.875325,0.73535
1680008483559,1188471914239881,0.832975,-0.90035,0.743325
1680008483562,1188471916741809,0.887975,-0.9213875,0.7524
1680008483564,1188471919243963,0.938025,-0.9433875,0.754325
1680008483566,1188471921746040,0.97789997,-0.96236247,0.75941247
1680008483568,1188471924248194,1.019975,-0.9763875,0.7613375
1680008483571,1188471926750117,1.0649375,-0.9873875,0.7583125
1680008483575,1188471929252285,1.1,-0.99935,0.755425
1680008483576,1188471931754362,1.136025,-1.0203875,0.738375
1680008483579,1188471934256285,1.15995,-1.029325,0.6903875
1680008483581,1188471936758439,1.1669625,-1.0283625,0.61242497
1680008483585,1188471939260516,1.162975,-1.041425,0.529375
1680008483587,1188471941762439,1.1620125,-1.0604,0.441375
1680008483589,1188471944264592,1.162975,-1.0814375,0.34141248
1680008483591,1188471946766669,1.1649,-1.1083875,0.2443375
1680008483594,1188471949268833,1.1759,-1.13245,0.14739999
1680008483596,1188471951770756,1.1978999,-1.14345,0.0484
1680008483599,1188471954272910,1.2219625,-1.162425,-0.0446875
1680008483601,1188471956774987,1.25895,-1.1683375,-0.1346125
1680008483605,1188471959277149,1.30295,-1.16545,-0.21065
1680008483606,1188471961779072,1.3429625,-1.1603625,-0.2806375
1680008483609,1188471964281226,1.3789876,-1.1444125,-0.3356375
1680008483612,1188471966783303,1.415975,-1.12035,-0.37565
1680008483615,1188471969285241,1.4469125,-1.095325,-0.4096125
1680008483616,1188471971787395,1.470975,-1.0653499,-0.432575
1680008483619,1188471974289472,1.496,-1.03345,-0.45168748
1680008483623,1188471976791395,1.521025,-0.9944,-0.4626875
1680008483626,1188471979293549,1.54495,-0.96236247,-0.4736875
1680008483627,1188471981795703,1.5629625,-0.936375,-0.4835875
1680008483629,1188471984297779,1.5769875,-0.8993875,-0.4976125
1680008483632,1188471986799703,1.5899125,-0.87945,-0.5116375
1680008483634,1188471989301856,1.591975,-0.8603375,-0.5286875
1680008483636,1188471991803928,1.5910125,-0.848375,-0.55165
1680008483639,1188471994306082,1.57795,-0.8364125,-0.5856125
1680008483641,1188471996808005,1.5580125,-0.8294,-0.625625
1680008483645,1188471999310159,1.5329875,-0.8294,-0.674575
1680008483647,1188472001812222,1.5030125,-0.820325,-0.7286125
1680008483649,1188472004314376,1.466025,-0.81235,-0.785675
1680008483651,1188472006816299,1.426975,-0.804375,-0.84865
1680008483655,1188472009318376,1.382975,-0.798325,-0.91162497
1680008483657,1188472011820284,1.3349875,-0.7893875,-0.9796875
1680008483660,1188472014322438,1.2819124,-0.7634,-1.0445875
1680008483663,1188472016824592,1.2219625,-0.72435,-1.109625
1680008483665,1188472019326669,1.169025,-0.6744375,-1.16765
1680008483666,1188472021828822,1.111,-0.6133875,-1.230625
1680008483669,1188472024330674,1.0569625,-0.5424375,-1.28865
1680008483671,1188472026832827,1.0159875,-0.4673625,-1.3385625
1680008483674,1188472029334981,0.975975,-0.397375,-1.390675
1680008483676,1188472031837135,0.947925,-0.3243625,-1.439625
1680008483679,1188472034339072,0.9299125,-0.254375,-1.4806
1680008483682,1188472036841149,0.9169875,-0.18645,-1.516625
1680008483684,1188472039343072,0.90695,-0.1214125,-1.5516875
1680008483687,1188472041845226,0.898975,-0.051425,-1.5786375
1680008483691,1188472044347289,0.892925,0.015675,-1.598575
1680008483694,1188472046849443,0.88495,0.07865,-1.6146625
1680008483696,1188472049351597,0.872025,0.135575,-1.6286875
1680008483698,1188472051853520,0.861025,0.19167499,-1.6385875
1680008483700,1188472054355597,0.8540125,0.2336125,-1.6506875
1680008483702,1188472056857520,0.850025,0.2556125,-1.6636125
1680008483704,1188472059359674,0.848925,0.2616625,-1.6806625
1680008483706,1188472061861751,0.854975,0.2486,-1.6886375
1680008483709,1188472064363904,0.8679,0.2336125,-1.69565
1680008483713,1188472066865833,0.887975,0.22055,-1.7026625
1680008483715,1188472069367986,0.909975,0.20955,-1.703625
1680008483717,1188472071870063,0.9329375,0.2116125,-1.7015625
1680008483719,1188472074371986,0.9549375,0.2195875,-1.6996375
1680008483721,1188472076874130,0.980925,0.2336125,-1.6896
1680008483724,1188472079376284,1.0099375,0.25355,-1.6746125
1680008483727,1188472081878361,1.0329,0.2666125,-1.65165
1680008483729,1188472084380284,1.0569625,0.289575,-1.631575
1680008483732,1188472086882419,1.081025,0.3276625,-1.6055875
1680008483736,1188472089384496,1.0989,0.3586,-1.576575
1680008483738,1188472091886419,1.1209,0.39655,-1.544675
1680008483740,1188472094388573,1.13795,0.438625,-1.5065875
1680008483742,1188472096890712,1.158025,0.4706625,-1.46465
1680008483744,1188472099392789,1.1779625,0.5006375,-1.4166625
1680008483746,1188472101894712,1.200925,0.52965,-1.3605624
1680008483749,1188472104396866,1.2269125,0.5605875,-1.301575
1680008483751,1188472106898942,1.25895,0.5856125,-1.2436875
1680008483754,1188472109400866,1.29195,0.5966125,-1.17865
1680008483757,1188472111903250,1.3369125,0.5916625,-1.115675
1680008483759,1188472114405173,1.393975,0.5465625,-1.0555875
1680008483762,1188472116907250,1.459975,0.46365,-1.0016875
1680008483767,1188472119409159,1.541925,0.3466375,-0.9535625
1680008483773,1188472121911313,1.6289625,0.2036375,-0.91162497
1680008483773,1188472124413390,1.7169625,0.048675,-0.883575
1680008483773,1188472126915308,1.8099124,-0.111375,-0.8685875
1680008483776,1188472129417462,1.899975,-0.276375,-0.8575875
1680008483778,1188472131919616,1.98495,-0.425425,-0.850575
1680008483779,1188472134421693,2.0659375,-0.562375,-0.8556625
1680008483781,1188472136923616,2.1319375,-0.69135,-0.8636375
1680008483785,1188472139425765,2.1869376,-0.8064375,-0.8685875
1680008483786,1188472141927919,2.2309375,-0.90639997,-0.8795875
1680008483789,1188472144429996,2.2669625,-0.9904125,-0.8916875
1680008483791,1188472146931919,2.2979,-1.0594375,-0.9106625
1680008483794,1188472149434040,2.3309,-1.1193875,-0.9266125
1680008483796,1188472151936117,2.355925,-1.162425,-0.950675
1680008483799,1188472154438040,2.38095,-1.2043625,-0.977625
1680008483801,1188472156940194,2.412025,-1.23145,-1.0016875
1680008483804,1188472159442348,2.438975,-1.2574375,-1.0305625
1680008483806,1188472161944425,2.465925,-1.2673374,-1.059575
1680008483811,1188472164446348,2.4979625,-1.2724249,-1.0836375
1680008483814,1188472166948425,2.5289,-1.2724249,-1.1056376
1680008483815,1188472169450583,2.5590124,-1.2593625,-1.1286
1680008483817,1188472171952506,2.5859625,-1.24245,-1.1435875
1680008483819,1188472174454660,2.608925,-1.2233375,-1.1606375
1680008483822,1188472176956814,2.6299624,-1.1963875,-1.169575
1680008483824,1188472179458891,2.6499,-1.1544499,-1.1686125
1680008483827,1188472181960819,2.662,-1.085425,-1.1625625
1680008483829,1188472184462896,2.662,-1.008425,-1.14565
1680008483832,1188472186965050,2.651,-0.909425,-1.1196625
1680008483834,1188472189467203,2.6169,-0.793375,-1.0896875
1680008483837,1188472191969126,2.5749624,-0.6644,-1.0525625
1680008483839,1188472194471193,2.5199625,-0.52635,-1.0146124
1680008483842,1188472196973347,2.4519,-0.38541248,-0.9766625
1680008483845,1188472199475270,2.379025,-0.248325,-0.9356875
1680008483848,1188472201977338,2.3088999,-0.1073875,-0.8966375
1680008483849,1188472204479492,2.23795,0.0325875,-0.8646
1680008483851,1188472206981646,2.16095,0.14355,-0.8325625
1680008483855,1188472209483569,2.069925,0.2385625,-0.7976375
1680008483857,1188472211985646,1.9669375,0.3246375,-0.757625
1680008483859,1188472214487809,1.859,0.3906375,-0.7176125
1680008483861,1188472216989732,1.7340125,0.4426125,-0.6785625
1680008483864,1188472219491886,1.6119125,0.4906,-0.642675
1680008483867,1188472221994040,1.4859625,0.5366625,-0.6045875
1680008483869,1188472224496141,1.360975,0.5685625,-0.5685625
1680008483872,1188472226998064,1.2329625,0.5905625,-0.52965
1680008483874,1188472229500141,1.10495,0.5916625,-0.4896375
1680008483876,1188472232002294,0.980925,0.5586625,-0.4466
1680008483879,1188472234504203,0.8699625,0.49555,-0.3966875
1680008483881,1188472237006357,0.7739875,0.400675,-0.3526875
1680008483886,1188472239508511,0.694925,0.300575,-0.3056625
1680008483888,1188472242010588,0.62796247,0.1936,-0.267575
1680008483889,1188472244512497,0.5680125,0.093637496,-0.23265
1680008483891,1188472247014651,0.513975,0.0105875,-0.19965
1680008483895,1188472249516728,0.4709375,-0.0493625,-0.1645875
1680008483897,1188472252018651,0.4239125,-0.0884125,-0.130625
1680008483899,1188472254520747,0.3909125,-0.1263625,-0.102575
1680008483903,1188472257022978,0.3700125,-0.155375,-0.07865
1680008483904,1188472259525055,0.35694999,-0.183425,-0.0515625
1680008483907,1188472262026978,0.3509,-0.2024,-0.031625
1680008483909,1188472264529132,0.35694999,-0.2143625,-0.01265
1680008483913,1188472267030978,0.3689125,-0.21835,0.0023375
1680008483915,1188472269533132,0.3810125,-0.2204125,0.0133375
1680008483917,1188472272035286,0.40094998,-0.2234375,0.017324999
1680008483919,1188472274537439,0.42295,-0.21945,0.0193875
1680008483924,1188472277039529,0.4499,-0.2143625,0.0133375
1680008483926,1188472279541452,0.4819375,-0.2143625,0.0103124995
1680008483929,1188472282043529,0.5209875,-0.2094125,0.0044
1680008483930,1188472284545674,0.5649875,-0.2033625,-0.004675
1680008483933,1188472287047597,0.6039,-0.19745,-0.0166375
1680008483935,1188472289549751,0.6479,-0.18645,-0.0246125
1680008483937,1188472292051905,0.7000125,-0.1783375,-0.0396
1680008483939,1188472294553982,0.748,-0.1764125,-0.056649998
1680008483943,1188472297055905,0.79695,-0.17435,-0.0735625
1680008483947,1188472299557982,0.848925,-0.17435,-0.0906125
1680008483950,1188472302060136,0.8999375,-0.182325,-0.108625
1680008483951,1188472304562059,0.9559,-0.188375,-0.12265
1680008483952,1188472307064204,1.013925,-0.19139999,-0.1406625
1680008483954,1188472309566358,1.068925,-0.19635,-0.1566125
1680008483957,1188472312068434,1.129975,-0.194425,-0.1656875
1680008483962,1188472314570358,1.1869,-0.19139999,-0.174625
1680008483964,1188472317072462,1.2469875,-0.182325,-0.17765
1680008483965,1188472319574616,1.288925,-0.1584,-0.1786125
1680008483967,1188472322076770,1.32495,-0.13145,-0.180675
1680008483969,1188472324578693,1.382975,-0.133375,-0.1786125
1680008483973,1188472327080760,1.448975,-0.128425,-0.1656875
1680008483975,1188472329582914,1.45695,-0.0523875,-0.1486375
1680008483977,1188472332084837,1.481975,-0.0444125,-0.13365
1680008483980,1188472334586914,1.532025,-0.034375,-0.10065
1680008483983,1188472337089068,1.4939375,0.0616,-0.0735625
1680008483985,1188472339591237,1.5360125,0.034649998,-0.034649998
1680008483987,1188472342093160,1.4810125,0.1376375,0.006325
1680008483989,1188472344595237,1.4939375,0.115637496,0.0484
1680008483992,1188472347097160,1.42395,0.202675,0.0933625
1680008483995,1188472349599544,1.42395,0.17655,0.1434125
1680008483998,1188472352101482,1.3479125,0.2446125,0.18535
1680008484000,1188472354603558,1.3289375,0.2305875,0.23333749
1680008484002,1188472357105482,1.2610124,0.2476375,0.2743125
1680008484004,1188472359607635,1.19295,0.278575,0.3183125
1680008484007,1188472362109731,1.1559625,0.2476375,0.3603875
1680008484009,1188472364611654,1.0539374,0.2965875,0.40039998
1680008484013,1188472367114039,1.0099375,0.262625,0.4404125
1680008484015,1188472369615977,0.925925,0.24365,0.4753375
1680008484017,1188472372118054,0.8320125,0.2415875,0.518375
1680008484019,1188472374619977,0.784025,0.1615625,0.55935
1680008484023,1188472377122131,0.6639875,0.15565,0.595375
1680008484025,1188472379624212,0.5949625,0.11165,0.634425
1680008484027,1188472382126443,0.52195,0.0386375,0.6703125
1680008484030,1188472384628289,0.3969625,0.0435875,0.7033125
1680008484033,1188472387130443,0.3419625,-0.012375,0.73535
1680008484036,1188472389632491,0.254925,-0.04235,0.75734997
1680008484038,1188472392134414,0.1599125,-0.0334125,0.7854
1680008484039,1188472394636568,0.1309,-0.08635,0.8113875
1680008484042,1188472397138644,0.0529375,-0.072325,0.8364125
1680008484045,1188472399640798,0.0039875,-0.07535,0.8663875
1680008484047,1188472402142741,-0.0020625,-0.122375,0.8944375
1680008484049,1188472404644895,-0.058025,-0.0933625,0.931425
1680008484053,1188472407146972,-0.0430375,-0.10945,0.969375
1680008484056,1188472409648895,-0.029975,-0.124437496,1.0044374
1680008484058,1188472412150972,-0.050049998,-0.08635,1.0484375
1680008484060,1188472414653126,-0.0011,-0.10835,1.09835
1680008484062,1188472417155280,0.012925,-0.0884125,1.140425
1680008484065,1188472419657434,0.0309375,-0.0493625,1.1853875
1680008484067,1188472422159357,0.1079375,-0.0664125,1.2263625
1680008484071,1188472424661443,0.1199,-0.012375,1.2593625
1680008484075,1188472427163366,0.1659625,0.01265,1.2904375
1680008484077,1188472429665520,0.2209625,0.009625,1.30735
1680008484080,1188472432167655,0.223025,0.075625,1.3094125
1680008484081,1188472434669732,0.27995,0.0735625,1.3143625
1680008484083,1188472437171885,0.3029125,0.0966625,1.2993749
1680008484086,1188472439673808,0.297,0.1606,1.2813625
1680008484087,1188472442175885,0.3419625,0.13859999,1.26335
1680008484090,1188472444677789,0.3199625,0.1786125,1.2343374
1680008484094,1188472447179943,0.309925,0.2046,1.206425
1680008484096,1188472449682097,0.3229875,0.179575,1.1713625
1680008484098,1188472452184174,0.26895,0.218625,1.1353375
1680008484099,1188472454686092,0.2589125,0.19167499,1.0964249
1680008484103,1188472457188246,0.2349875,0.1596375,1.0423875
1680008484105,1188472459690323,0.1709125,0.169675,0.9983875
1680008484107,1188472462192246,0.15895,0.1016125,0.952325
1680008484111,1188472464694645,0.0939125,0.07865,0.892375
1680008484114,1188472467196568,0.0389125,0.0526625,0.837375
1680008484116,1188472469698645,0.018975,-0.032449998,0.7783875
1680008484117,1188472472200568,-0.0671,-0.0364375,0.7184375
1680008484119,1188472474702722,-0.10505,-0.0884125,0.666325
1680008484123,1188472477204809,-0.157025,-0.138325,0.61435
1680008484126,1188472479706732,-0.2520375,-0.1214125,0.5644375
1680008484127,1188472482208885,-0.2770625,-0.177375,0.5214
1680008484130,1188472484711039,-0.3559875,-0.1694,0.4783625
1680008484135,1188472487213120,-0.42405,-0.1483625,0.447425
1680008484138,1188472489715043,-0.4450875,-0.1843875,0.4203375
1680008484140,1188472492217197,-0.5291,-0.1373625,0.3933875
1680008484142,1188472494719274,-0.55605,-0.1324125,0.3784
1680008484143,1188472497221197,-0.5841,-0.133375,0.36135
1680008484146,1188472499723372,-0.647075,-0.0713625,0.3524125
1680008484148,1188472502225526,-0.6400625,-0.0903375,0.35433748
1680008484151,1188472504727603,-0.6780125,-0.062425,0.353375
1680008484152,1188472507229526,-0.7079875,-0.0273625,0.3634125
1680008484155,1188472509731612,-0.6950625,-0.0554125,0.3744125
1680008484157,1188472512233766,-0.7440125,-4.125E-4,0.3843125
1680008484159,1188472514735920,-0.7360375,5.5E-4,0.4043875
1680008484163,1188472517237843,-0.74305,-0.0053625,0.419375
1680008484165,1188472519739987,-0.78705,0.04455,0.4393125
1680008484169,1188472522242064,-0.7629875,0.0166375,0.4593875
1680008484171,1188472524743987,-0.788975,0.0396,0.474375
1680008484174,1188472527246064,-0.7990125,0.0576125,0.49335
1680008484177,1188472529748213,-0.7690375,0.0276375,0.5064125
1680008484178,1188472532250367,-0.8020375,0.0735625,0.5214
1680008484182,1188472534752521,-0.773025,0.056649998,0.5434
1680008484183,1188472537254444,-0.7610625,0.036575,0.55935
1680008484187,1188472539756516,-0.7750875,0.069575,0.5803875
1680008484189,1188472542258439,-0.7161,0.015675,0.60335
1680008484191,1188472544760593,-0.7140375,0.026675,0.6213625
1680008484194,1188472547262747,-0.6859875,0.0215875,0.650375
1680008484196,1188472549764824,-0.6281,-0.028324999,0.6733375
1680008484198,1188472552266733,-0.63002497,-0.01045,0.70042497
1680008484200,1188472554768810,-0.5660875,-0.061325,0.733425
1680008484205,1188472557270964,-0.5240125,-0.091437496,0.75734997
1680008484206,1188472559773117,-0.50105,-0.0853875,0.787325
1680008484209,1188472562275050,-0.4250125,-0.155375,0.81743747
1680008484211,1188472564777203,-0.41305,-0.14739999,0.842325
1680008484215,1188472567279280,-0.366025,-0.16445,0.8694125
1680008484217,1188472569781203,-0.311025,-0.2094125,0.892375
1680008484218,1188472572283285,-0.3119875,-0.1794375,0.91135
1680008484221,1188472574785516,-0.2440625,-0.221375,0.9343125
1680008484225,1188472577287593,-0.2250875,-0.227425,0.942425
1680008484227,1188472579789516,-0.2129875,-0.215325,0.9563125
1680008484230,1188472582291602,-0.157025,-0.27445,0.9673125
1680008484232,1188472584793756,-0.17105,-0.254375,0.975425
1680008484235,1188472587295679,-0.141075,-0.282425,0.9873875
1680008484237,1188472589797756,-0.1230625,-0.31845,0.98835
1680008484239,1188472592299910,-0.14905,-0.2913625,0.99137497
1680008484241,1188472594802055,-0.121,-0.3454,0.997425
1680008484244,1188472597303978,-0.152075,-0.3344,0.99343747
1680008484246,1188472599806055,-0.172975,-0.3273875,0.9983875
1680008484249,1188472602308208,-0.163075,-0.3634125,0.997425
1680008484253,1188472604810166,-0.2270125,-0.3194125,0.9983875
1680008484255,1188472607312242,-0.2349875,-0.3344,0.99935
1680008484258,1188472609814396,-0.2679875,-0.337425,0.9953625
1680008484260,1188472612316550,-0.3240875,-0.293425,0.99935
1680008484263,1188472614818487,-0.3240875,-0.320375,1.0003124
1680008484266,1188472617320564,-0.388025,-0.2754125,0.99233747
1680008484268,1188472619822718,-0.4191,-0.2473625,0.98835
1680008484270,1188472622324641,-0.43505,-0.2473625,0.9783125
1680008484274,1188472624826795,-0.5071,-0.17435,0.9673125
1680008484279,1188472627328891,-0.51205,-0.16733749,0.953425
1680008484281,1188472629831045,-0.5550875,-0.124437496,0.9284
1680008484284,1188472632332968,-0.5960625,-0.0594,0.90543747
1680008484286,1188472634835122,-0.58905,-0.062425,0.8823375
1680008484289,1188472637336939,-0.6430875,0.009625,0.8584125
1680008484291,1188472639839093,-0.6419875,0.02255,0.837375
1680008484294,1188472642341247,-0.645975,0.03355,0.8113875
1680008484297,1188472644843400,-0.689975,0.0946,0.78842497
1680008484300,1188472647345468,-0.6620625,0.0716375,0.7693125
1680008484302,1188472649847391,-0.6870875,0.1076625,0.74635
1680008484304,1188472652349468,-0.689975,0.1266375,0.727375
1680008484307,1188472654851391,-0.6590375,0.08965,0.7093625
1680008484310,1188472657353545,-0.68901247,0.1285625,0.6903875
1680008484312,1188472659855689,-0.649,0.1016125,0.6744375
1680008484315,1188472662357843,-0.6430875,0.097625,0.6463875
1680008484317,1188472664859689,-0.6400625,0.1095875,0.6274125
1680008484320,1188472667361843,-0.5979875,0.053625,0.60335
1680008484322,1188472669863920,-0.601975,0.07865,0.5874
1680008484325,1188472672366074,-0.5630625,0.0276375,0.5633375
1680008484327,1188472674868228,-0.5410625,0.0176,0.55439997
1680008484331,1188472677370151,-0.5429875,0.004675,0.534325
1680008484334,1188472679872214,-0.482075,-0.07645,0.5284125
1680008484336,1188472682374367,-0.498025,-0.0484,0.523325
1680008484338,1188472684876291,-0.47905,-0.10835,0.5163125
1680008484342,1188472687378367,-0.427075,-0.17435,0.5193375
1680008484345,1188472689880315,-0.43505,-0.160325,0.5163125
1680008484347,1188472692382699,-0.4390375,-0.2003375,0.5083375
1680008484350,1188472694884622,-0.40507498,-0.2784375,0.5053125
1680008484355,1188472697386699,-0.3900875,-0.304425,0.50435
1680008484357,1188472699888853,-0.407,-0.30745,0.4984375
1680008484360,1188472702390771,-0.42405,-0.33935,0.4844125
1680008484364,1188472704892848,-0.41799998,-0.38334998,0.4703875
1680008484367,1188472707395002,-0.4090625,-0.414425,0.4654375
1680008484370,1188472709897156,-0.4120875,-0.4184125,0.4613125
1680008484372,1188472712399084,-0.429,-0.40645,0.4593875
1680008484375,1188472714901161,-0.4439875,-0.402325,0.457325
1680008484378,1188472717403315,-0.4521,-0.40039998,0.4544375
1680008484380,1188472719905238,-0.4549875,-0.392425,0.4483875
1680008484382,1188472722407329,-0.454025,-0.380325,0.452375
1680008484385,1188472724909483,-0.447975,-0.3603875,0.457325
1680008484387,1188472727411636,-0.443025,-0.33935,0.4613125
1680008484390,1188472729913559,-0.4360125,-0.315425,0.469425
1680008484392,1188472732415631,-0.425975,-0.2864125,0.4833125
1680008484394,1188472734917554,-0.4191,-0.25135,0.5003625
1680008484397,1188472737419708,-0.414975,-0.2244,0.5163125
1680008484399,1188472739921785,-0.4090625,-0.188375,0.535425
1680008484401,1188472742423920,-0.40507498,-0.155375,0.557425
1680008484408,1188472744926074,-0.3950375,-0.124437496,0.579425
1680008484420,1188472747427920,-0.3870625,-0.100375,0.5974375
1680008484421,1188472749930074,-0.3810125,-0.07645,0.6204
1680008484421,1188472752432209,-0.370975,-0.05335,0.6414375
1680008484422,1188472754934132,-0.3650625,-0.039325,0.6573875
1680008484423,1188472757436286,-0.3620375,-0.0273625,0.6703125
1680008484424,1188472759938363,-0.3559875,-0.02035,0.6824125
1680008484424,1188472762440300,-0.3480125,-0.018424999,0.689425
1680008484425,1188472764942377,-0.344025,-0.0243375,0.694375
1680008484426,1188472767444531,-0.337975,-0.0364375,0.699325
1680008484427,1188472769946684,-0.328075,-0.050325,0.7013875
1680008484429,1188472772448607,-0.3201,-0.0594,0.7044125
1680008484429,1188472774950684,-0.308,-0.0683375,0.710325
1680008484430,1188472777452838,-0.3020875,-0.0774125,0.71335
1680008484431,1188472779954761,-0.2880625,-0.0823625,0.7194
1680008484432,1188472782456838,-0.27307498,-0.0903375,0.727375
1680008484433,1188472784958987,-0.262075,-0.100375,0.732325
1680008484434,1188472787461141,-0.2490125,-0.1073875,0.7343875
1680008484435,1188472789963064,-0.238975,-0.1183875,0.7374125
1680008484437,1188472792465141,-0.2270125,-0.128425,0.7414
1680008484439,1188472794967295,-0.2140875,-0.1354375,0.7404375
1680008484443,1188472797469218,-0.20405,-0.1434125,0.7393375
1680008484445,1188472799971295,-0.1940125,-0.15235,0.7393375
1680008484448,1188472802473449,-0.1780625,-0.1544125,0.743325
1680008484450,1188472804975618,-0.16499999,-0.1584,0.74635
1680008484454,1188472807477541,-0.1530375,-0.160325,0.755425
1680008484455,1188472809979618,-0.1390125,-0.166375,0.7634
1680008484457,1188472812481771,-0.128975,-0.1733875,0.7723375
1680008484459,1188472814983694,-0.11605,-0.1694,0.7854
1680008484463,1188472817485857,-0.1040875,-0.1764125,0.80135
1680008484464,1188472819987934,-0.091025,-0.1813625,0.82335
1680008484467,1188472822490088,-0.0760375,-0.182325,0.8364125
1680008484470,1188472824992011,-0.064075,-0.1794375,0.854425
1680008484473,1188472827494098,-0.058025,-0.1694,0.87835
1680008484475,1188472829996021,-0.053075,-0.160325,0.90543747
1680008484477,1188472832498175,-0.0451,-0.14739999,0.9233125
1680008484480,1188472835000329,-0.0451,-0.13145,0.947375
1680008484483,1188472837502406,-0.047025,-0.1104125,0.9684125
1680008484486,1188472840004560,-0.053075,-0.0884125,0.9843625
1680008484488,1188472842506483,-0.0570625,-0.0603625,1.0033375
1680008484490,1188472845008560,-0.07205,-0.034375,1.0234125
1680008484494,1188472847510502,-0.087037496,-0.0083875,1.0374374
1680008484496,1188472850012656,-0.1029875,0.0185625,1.052425
1680008484497,1188472852514810,-0.1260875,0.04455,1.068375
1680008484500,1188472855016963,-0.14905,0.0616,1.0773125
1680008484503,1188472857518810,-0.1780625,0.06765,1.08735
1680008484505,1188472860020939,-0.2129875,0.06765,1.0943625
1680008484507,1188472862523016,-0.2440625,0.053625,1.0913374
1680008484510,1188472865025170,-0.2800875,0.0396,1.0894125
1680008484513,1188472867527324,-0.3180375,0.0215875,1.08735
1680008484515,1188472870029237,-0.355025,-4.125E-4,1.085425
1680008484518,1188472872531314,-0.394075,-0.0163625,1.0803375
1680008484520,1188472875033237,-0.432025,-0.029424999,1.074425
1680008484524,1188472877535391,-0.4690125,-0.04235,1.0723625
1680008484526,1188472880037473,-0.5050375,-0.05335,1.0674125
1680008484529,1188472882539627,-0.5410625,-0.06545,1.0613625
1680008484530,1188472885041550,-0.5710375,-0.0823625,1.0604
1680008484535,1188472887543704,-0.594,-0.102437496,1.05435
1680008484536,1188472890045781,-0.6199875,-0.122375,1.0494
1680008484537,1188472892547915,-0.6370375,-0.149325,1.051325
1680008484539,1188472895049839,-0.6540875,-0.17435,1.051325
1680008484543,1188472897551915,-0.6700375,-0.204325,1.0494
1680008484545,1188472900053839,-0.67705,-0.226325,1.0454125
1680008484547,1188472902556232,-0.6859875,-0.243375,1.041425
1680008484550,1188472905058155,-0.696025,-0.2583625,1.0383999
1680008484553,1188472907560232,-0.700975,-0.265375,1.0344125
1680008484555,1188472910062386,-0.70895,-0.27335,1.024375
1680008484557,1188472912564309,-0.707025,-0.276375,1.0143375
1680008484562,1188472915066386,-0.7030375,-0.2784375,1.007325
1680008484564,1188472917568540,-0.700975,-0.270325,0.9944
1680008484566,1188472920070694,-0.7000125,-0.2574,0.9824375
1680008484567,1188472922572641,-0.69905,-0.24035,0.9653875
1680008484570,1188472925074718,-0.67595,-0.243375,0.9453125
1680008484574,1188472927576641,-0.6400625,-0.2344375,0.9323875
1680008484576,1188472930078795,-0.65395,-0.1684375,0.9153375
1680008484578,1188472932580872,-0.652025,-0.1533125,0.887425
1680008484580,1188472935083020,-0.597025,-0.16733749,0.8724375
1680008484583,1188472937584944,-0.6340125,-0.0664125,0.8523625
1680008484585,1188472940087097,-0.594,-0.0983125,0.8284375
1680008484589,1188472942589155,-0.60995,-0.0193875,0.8113875
1680008484590,1188472945091078,-0.5869875,-0.0213125,0.78636247
1680008484593,1188472947593232,-0.60005,0.0466125,0.76835
1680008484597,1188472950095386,-0.5759875,0.0405625,0.743325
1680008484599,1188472952597458,-0.601975,0.1266375,0.7203625
1680008484601,1188472955099381,-0.55605,0.1186625,0.6964375
1680008484603,1188472957601458,-0.5930375,0.2176625,0.6733375
1680008484605,1188472960103612,-0.5570125,0.2385625,0.6543625
1680008484607,1188472962605766,-0.5619625,0.3166625,0.6353875
1680008484610,1188472965107915,-0.5619625,0.4016375,0.633325
1680008484615,1188472967609761,-0.53295,0.444675,0.6293375
1680008484617,1188472970111915,-0.557975,0.56265,0.6323625
1680008484618,1188472972613838,-0.5190625,0.6015625,0.645425
1680008484620,1188472975116007,-0.51507497,0.6785625,0.6513375
1680008484623,1188472977618160,-0.504075,0.730675,0.6744375
1680008484626,1188472980120237,-0.2569875,0.487575,0.7063375
1680008484628,1188472982622160,-0.1439625,0.5526125,0.7484125
1680008484630,1188472985124222,-0.0589875,0.64762497,0.809325
1680008484634,1188472987626376,-0.0229625,0.7286125,0.8353125
1680008484637,1188472990128299,-0.099,0.8866,0.8364125
1680008484638,1188472992630376,-0.09295,0.883575,0.831325
1680008484640,1188472995132516,-0.1310375,0.9125875,0.81743747
1680008484643,1188472997634670,-0.163075,0.9565875,0.8023125
1680008484646,1188473000136593,-0.146025,0.922625,0.787325
1680008484647,1188473002638747,-0.198,0.9516375,0.7723375
1680008484650,1188473005140603,-0.1989625,0.91465,0.7563875
1680008484654,1188473007642757,-0.2019875,0.862675,0.7343875
1680008484656,1188473010144834,-0.24805,0.8655625,0.7093625
1680008484657,1188473012647065,-0.2209625,0.785675,0.6824125
1680008484660,1188473015149142,-0.238975,0.7486875,0.64735
1680008484663,1188473017651036,-0.256025,0.7286125,0.6164125
1680008484665,1188473020153113,-0.2319625,0.64762497,0.584375
1680008484667,1188473022655266,-0.27101249,0.642675,0.551375
1680008484673,1188473025157189,-0.264,0.6015625,0.52442497
1680008484676,1188473027659348,-0.264,0.5566,0.4973375
1680008484679,1188473030161502,-0.3070375,0.5676,0.4774
1680008484681,1188473032663579,-0.286,0.5016,0.4613125
1680008484683,1188473035165502,-0.31295,0.4816625,0.4434375
1680008484685,1188473037667569,-0.3400375,0.4596625,0.4373875
1680008484687,1188473040169723,-0.32505,0.37661248,0.4214375
1680008484689,1188473042671646,-0.370975,0.3656125,0.403425
1680008484691,1188473045173800,-0.372075,0.300575,0.392425
1680008484695,1188473047675862,-0.3840375,0.2446125,0.3713875
1680008484696,1188473050178016,-0.4250125,0.23265,0.3603875
1680008484698,1188473052679939,-0.3950375,0.146575,0.3524125
1680008484700,1188473055182016,-0.42295,0.1106875,0.3383875
1680008484703,1188473057684199,-0.4299625,0.07865,0.3323375
1680008484705,1188473060186352,-0.40094998,0.00165,0.3293125
1680008484707,1188473062688275,-0.43395,0.0056375,0.3273875
1680008484711,1188473065190352,-0.3950375,-0.045375,0.3353625
1680008484714,1188473067692501,-0.38005,-0.078375,0.34141248
1680008484716,1188473070194424,-0.39105,-0.067375,0.35433748
1680008484718,1188473072696501,-0.3370125,-0.1254,0.36135
1680008484720,1188473075198424,-0.344025,-0.0963875,0.3713875
1680008484723,1188473077700805,-0.3229875,-0.09735,0.380325
1680008484725,1188473080202728,-0.28105,-0.128425,0.38541248
1680008484727,1188473082704805,-0.2990625,-0.0823625,0.3933875
1680008484730,1188473085206959,-0.2520375,-0.0994125,0.403425
1680008484734,1188473087708891,-0.2349875,-0.091437496,0.4074125
1680008484737,1188473090210968,-0.229075,-0.051425,0.419375
1680008484738,1188473092712891,-0.1720125,-0.0653125,0.4313375
1680008484740,1188473095215276,-0.179025,-0.007425,0.4393125
1680008484743,1188473097717199,-0.13805,0.009625,0.4503125
1680008484746,1188473100219247,-0.098037496,0.0105875,0.457325
1680008484749,1188473102721170,-0.0999625,0.070675,0.4593875
1680008484751,1188473105223323,-0.033,0.048675,0.4613125
1680008484754,1188473107725400,-0.022,0.0796125,0.457325
1680008484755,1188473110227559,0.0039875,0.1076625,0.4544375
1680008484757,1188473112729713,0.067925,0.0836,0.4444
1680008484760,1188473115231636,0.0620125,0.1376375,0.4393125
1680008484764,1188473117733713,0.120037496,0.1346125,0.435325
1680008484765,1188473120235636,0.1519375,0.1496,0.4283125
1680008484767,1188473122737800,0.1530375,0.2096875,0.42734998
1680008484770,1188473125239877,0.212025,0.1936,0.425425
1680008484774,1188473127742108,0.2050125,0.24365,0.4153875
1680008484776,1188473130243949,0.2209625,0.25959998,0.413325
1680008484778,1188473132746103,0.2539625,0.245575,0.40535
1680008484780,1188473135248180,0.2239875,0.2996125,0.39833748
1680008484783,1188473137750334,0.2539625,0.2715625,0.3953125
1680008484786,1188473140252252,0.2349875,0.2825625,0.3793625
1680008484789,1188473142754329,0.1989625,0.300575,0.3744125
1680008484791,1188473145256482,0.216975,0.2525875,0.3634125
1680008484793,1188473147758406,0.15895,0.2776125,0.3493875
1680008484795,1188473150260559,0.1549625,0.234575,0.3454
1680008484799,1188473152762655,0.1439625,0.19167499,0.331375
1680008484802,1188473155264809,0.098037496,0.1865875,0.3234
1680008484804,1188473157766732,0.111925,0.1016125,0.31735
1680008484806,1188473160268809,0.073975,0.0826375,0.31033748
1680008484809,1188473162770992,0.0620125,0.0386375,0.31033748
1680008484810,1188473165272915,0.077,-0.04235,0.3114375
1680008484814,1188473167774992,0.0400125,-0.0484,0.320375
1680008484816,1188473170277146,0.0650375,-0.1203125,0.337425
1680008484818,1188473172779300,0.040975,-0.1533125,0.348425
1680008484820,1188473175281209,0.01595,-0.15235,0.3674
1680008484826,1188473177783286,0.0400125,-0.21133749,0.381425
1680008484829,1188473180285440,-0.0100375,-0.183425,0.3953125
1680008484831,1188473182787381,-0.01705,-0.1984125,0.4093375
1680008484833,1188473185289458,-0.031075,-0.204325,0.408375
1680008484836,1188473187791611,-0.0809875,-0.150425,0.40535
1680008484838,1188473190293765,-0.0699875,-0.177375,0.39833748
1680008484841,1188473192795688,-0.11495,-0.1354375,0.3784
1680008484843,1188473195297833,-0.130075,-0.116325,0.3653375
1680008484848,1188473197799910,-0.113025,-0.1313125,0.3493875
1680008484849,1188473200301833,-0.1579875,-0.0763125,0.3353625
1680008484852,1188473202803910,-0.13695,-0.0903375,0.320375
1680008484854,1188473205306141,-0.146025,-0.0683375,0.303325
1680008484856,1188473207808218,-0.1560625,-0.0254375,0.287375
1680008484858,1188473210310141,-0.1219625,-0.0474375,0.27335
1680008484860,1188473212812295,-0.1500125,0.0066,0.248325
1680008484862,1188473215314141,-0.1230625,0.009625,0.2314125
1680008484865,1188473217816295,-0.1109625,0.0196625,0.1973125
1680008484867,1188473220318449,-0.130075,0.080575,0.1623875
1680008484869,1188473222820603,-0.0840125,0.0666875,0.1263625
1680008484871,1188473225322679,-0.106975,0.1186625,0.0763125
1680008484873,1188473227824579,-0.091025,0.13859999,0.029424999
1680008484875,1188473230326655,-0.0559625,0.1205875,-0.02365
1680008484878,1188473232828809,-0.077,0.168575,-0.0716375
1680008484880,1188473235330732,-0.018975,0.1346125,-0.1175625
1680008484883,1188473237832905,-0.0119624995,0.146575,-0.1736625
1680008484885,1188473240335059,0.00605,0.1656875,-0.2256375
1680008484888,1188473242837136,0.067925,0.1205875,-0.279675
1680008484890,1188473245339059,0.069025,0.1496,-0.33467498
1680008484896,1188473247841117,0.1390125,0.103675,-0.3735875
1680008484898,1188473250343271,0.188925,0.070675,-0.42061248
1680008484900,1188473252845194,0.21395,0.0765875,-0.4626875
1680008484903,1188473255347348,0.2930125,0.009625,-0.5036625
1680008484906,1188473257849425,0.30195,0.0166375,-0.5465625
1680008484909,1188473260351560,0.3529625,-0.0103124995,-0.5795625
1680008484912,1188473262853483,0.399025,-0.05335,-0.61765
1680008484914,1188473265355560,0.388025,-0.0303875,-0.653675
1680008484917,1188473267857483,0.4439875,-0.1034,-0.68365
1680008484920,1188473270359867,0.4140125,-0.0713625,-0.7115625
1680008484922,1188473272861790,0.45993748,-0.14739999,-0.7326
1680008484925,1188473275363867,0.4219875,-0.111375,-0.751575
1680008484928,1188473277866021,0.4360125,-0.1623875,-0.7775625
1680008484930,1188473280367944,0.441925,-0.1703625,-0.78265
1680008484932,1188473282870021,0.385,-0.138325,-0.7986
1680008484934,1188473285371944,0.396,-0.2014375,-0.8105625
1680008484937,1188473287874329,0.370975,-0.1733875,-0.7976375
1680008484941,1188473290376247,0.311025,-0.1144,-0.790625
1680008484944,1188473292878324,0.300025,-0.1263625,-0.7775625
1680008484946,1188473295380247,0.2850375,-0.102437496,-0.7486875
1680008484950,1188473297882401,0.231,-0.0224125,-0.70661247
1680008484952,1188473300384478,0.168025,0.02365,-0.6686625
1680008484953,1188473302886627,0.14093749,0.0386375,-0.631675
1680008484957,1188473305388781,0.1219625,0.0636625,-0.5825875
1680008484959,1188473307890704,0.0859375,0.1056,-0.531575
1680008484962,1188473310392781,0.034925,0.147675,-0.487575
1680008484964,1188473312894694,-0.014025,0.1676125,-0.443575
1680008484966,1188473315396847,-0.0510125,0.169675,-0.4026
1680008484969,1188473317898924,-0.0809875,0.1766875,-0.3656125
1680008484971,1188473320401078,-0.1120625,0.1816375,-0.3265625
1680008484973,1188473322903006,-0.1469875,0.180675,-0.28861248
1680008484975,1188473325405160,-0.18205,0.1766875,-0.2506625
1680008484977,1188473327907237,-0.2209625,0.1676125,-0.21367499
1680008484981,1188473330409160,-0.2539625,0.1535875,-0.1766875
1680008484983,1188473332911237,-0.29095,0.135575,-0.1425875
1680008484985,1188473335413391,-0.3210625,0.1175625,-0.108625
1680008484988,1188473337915545,-0.3529625,0.0906125,-0.0746625
1680008484990,1188473340417468,-0.381975,0.0686125,-0.0405625
1680008484992,1188473342919622,-0.40507498,0.0466125,-0.0086624995
1680008484994,1188473345421693,-0.4310625,0.02365,0.0224125
1680008484996,1188473347923616,-0.45595,-4.125E-4,0.0484
1680008484998,1188473350425693,-0.47905,-0.0163625,0.072325
1680008485000,1188473352927923,-0.504075,-0.028324999,0.094325
1680008485002,1188473355429986,-0.524975,-0.034375,0.1203125
1680008485005,1188473357931909,-0.54395,-0.04235,0.14533749
1680008485007,1188473360434063,-0.564025,-0.0444125,0.16335
1680008485009,1188473362936140,-0.5790125,-0.0463375,0.1874125
1680008485012,1188473365438308,-0.590975,-0.0463375,0.2134
1680008485015,1188473367940231,-0.6059625,-0.0413875,0.237325
1680008485019,1188473370442385,-0.6169625,-0.034375,0.2583625
1680008485025,1188473372944462,-0.6230125,-0.0273625,0.2784375
1680008485025,1188473375446385,-0.6260375,-0.02035,0.2963125
1680008485026,1188473377948462,-0.5729625,-0.0983125,0.3273875
1680008485026,1188473380450693,-0.46695,-0.2063875,0.3763375
1680008485028,1188473382952770,-0.39105,-0.2143625,0.419375
1680008485030,1188473385454693,-0.3400375,-0.2083125,0.4483875
1680008485033,1188473387956780,-0.304975,-0.2033625,0.4723125
1680008485035,1188473390458934,-0.2740375,-0.1904375,0.4833125
1680008485038,1188473392960857,-0.2600125,-0.1703625,0.4874375
1680008485040,1188473395462934,-0.2539625,-0.1584,0.4893625
1680008485043,1188473397965178,-0.242,-0.1533125,0.4923875
1680008485045,1188473400467255,-0.23595,-0.150425,0.4943125
1680008485049,1188473402969178,-0.2319625,-0.14533749,0.501325
1680008485050,1188473405471255,-0.229075,-0.149325,0.50435
1680008485054,1188473407973400,-0.2300375,-0.1343375,0.5104
1680008485056,1188473410475323,-0.249975,-0.095425,0.5163125
1680008485058,1188473412977477,-0.271975,-0.0603625,0.5214
1680008485060,1188473415479631,-0.2899875,-0.0264,0.5214
1680008485064,1188473417981708,-0.311025,0.01265,0.5104
1680008485065,1188473420483659,-0.339075,0.0616,0.4923875
1680008485068,1188473422985736,-0.36905,0.0955625,0.4703875
1680008485070,1188473425487890,-0.3969625,0.1315875,0.44233748
1680008485073,1188473427989813,-0.4360125,0.169675,0.4104375
1680008485075,1188473430491977,-0.4750625,0.19167499,0.3653375
1680008485079,1188473432994054,-0.504075,0.2036375,0.3243625
1680008485080,1188473435496207,-0.5289625,0.21065,0.282425
1680008485083,1188473437998131,-0.55,0.21367499,0.2413125
1680008485086,1188473440500212,-0.559075,0.2156,0.1984125
1680008485088,1188473443002136,-0.5630625,0.2156,0.155375
1680008485090,1188473445504289,-0.561,0.2176625,0.1123375
1680008485094,1188473448006443,-0.546975,0.2275625,0.067375
1680008485096,1188473450508520,-0.5240125,0.2275625,0.028324999
1680008485097,1188473453010659,-0.495,0.229625,-0.009625
1680008485102,1188473455512582,-0.4629625,0.2415875,-0.045649998
1680008485103,1188473458014659,-0.4299625,0.2635875,-0.0856625
1680008485105,1188473460516582,-0.3980625,0.2825625,-0.1276
1680008485107,1188473463018972,-0.363,0.295625,-0.1706375
1680008485110,1188473465520895,-0.32395,0.3086875,-0.2146375
1680008485113,1188473468023049,-0.2869625,0.3216125,-0.2605625
1680008485115,1188473470524895,-0.23595,0.30965,-0.3106125
1680008485118,1188473473027078,-0.098037496,0.1816375,-0.350625
1680008485120,1188473475529155,0.0400125,0.1106875,-0.3845875
1680008485125,1188473478031078,0.1219625,0.1315875,-0.4296875
1680008485126,1188473480533462,0.16005,0.16665,-0.4725875
1680008485129,1188473483035399,0.172975,0.2036375,-0.509575
1680008485130,1188473485537476,0.1659625,0.2336125,-0.5396875
1680008485134,1188473488039399,0.14905,0.234575,-0.58959997
1680008485136,1188473490541553,0.1189375,0.2316875,-0.6345625
1680008485138,1188473493043630,0.0919875,0.2165625,-0.6686625
1680008485140,1188473495545548,0.0650375,0.19167499,-0.691625
1680008485143,1188473498047933,0.034925,0.158675,-0.7005625
1680008485146,1188473500549856,0.0070125,0.119625,-0.6996
1680008485147,1188473503051933,-0.014025,0.080575,-0.6886
1680008485150,1188473505554059,-0.0369875,0.0496375,-0.67265
1680008485153,1188473508055982,-0.0589875,0.020624999,-0.6485875
1680008485155,1188473510558059,-0.080025,-0.001375,-0.62067497
1680008485157,1188473513060213,-0.1029875,-0.012375,-0.592625
1680008485162,1188473515562371,-0.124025,-0.0224125,-0.57365
1680008485164,1188473518064295,-0.1469875,-0.0364375,-0.5556375
1680008485166,1188473520566371,-0.1659625,-0.04235,-0.5256625
1680008485167,1188473523068525,-0.18205,-0.05335,-0.49568748
1680008485170,1188473525570448,-0.1970375,-0.062425,-0.4626875
1680008485174,1188473528072534,-0.2190375,-0.0694375,-0.42061248
1680008485176,1188473530574688,-0.23705,-0.0804375,-0.3826625
1680008485178,1188473533076842,-0.2550625,-0.084425,-0.339625
1680008485180,1188473535578765,-0.2789875,-0.078375,-0.2926
1680008485183,1188473538080842,-0.2990625,-0.0683375,-0.2486
1680008485185,1188473540582765,-0.3229875,-0.0603625,-0.2085875
1680008485188,1188473543084919,-0.348975,-0.051425,-0.1725625
1680008485190,1188473545587073,-0.36795,-0.051425,-0.1395625
1680008485193,1188473548089179,-0.3920125,-0.0474375,-0.1106875
1680008485196,1188473550591333,-0.41799998,-0.0474375,-0.08965
1680008485199,1188473553093256,-0.4409625,-0.0523875,-0.0655875
1680008485201,1188473555595333,-0.4549875,-0.0683375,-0.048675
1680008485203,1188473558097251,-0.46695,-0.0853875,-0.037675
1680008485205,1188473560599405,-0.473,-0.0994125,-0.020624999
1680008485208,1188473563101558,-0.473,-0.117425,-0.004675
1680008485210,1188473565603405,-0.471075,-0.1434125,0.0044
1680008485214,1188473568105539,-0.4640625,-0.1753125,0.0144375
1680008485216,1188473570607616,-0.454025,-0.204325,0.0243375
1680008485217,1188473573109847,-0.43505,-0.2303125,0.0334125
1680008485220,1188473575611924,-0.4109875,-0.2523125,0.045375
1680008485223,1188473578113847,-0.3920125,-0.2684,0.0594
1680008485226,1188473580615919,-0.370975,-0.271425,0.07535
1680008485229,1188473583118073,-0.3540625,-0.2684,0.095425
1680008485231,1188473585619996,-0.3430625,-0.254375,0.116325
1680008485234,1188473588122073,-0.337975,-0.24035,0.139425
1680008485237,1188473590624232,-0.32999998,-0.23333749,0.1593625
1680008485239,1188473593126155,-0.3309625,-0.2234375,0.1764125
1680008485241,1188473595628309,-0.33495,-0.2244,0.1953875
1680008485243,1188473598130386,-0.32999998,-0.227425,0.2083125
1680008485246,1188473600632540,-0.33495,-0.227425,0.21835
1680008485248,1188473603134463,-0.3449875,-0.2314125,0.2204125
1680008485250,1188473605636540,-0.35901248,-0.2283875,0.2204125
1680008485254,1188473608138693,-0.3749625,-0.2234375,0.21835
1680008485259,1188473610640847,-0.394075,-0.2173875,0.210375
1680008485262,1188473613142775,-0.421025,-0.2014375,0.204325
1680008485264,1188473615644852,-0.451,-0.182325,0.1923625
1680008485267,1188473618147006,-0.4849625,-0.1584,0.1764125
1680008485269,1188473620648929,-0.52195,-0.1183875,0.1563375
1680008485272,1188473623151092,-0.56705,-0.0763125,0.1293875
1680008485272,1188473625653169,-0.616,-0.0254375,0.0963875
1680008485277,1188473628155323,-0.667975,0.02365,0.0543125
1680008485279,1188473630657246,-0.711975,0.064625,0.0044
1680008485280,1188473633159314,-0.7519875,0.104637496,-0.042625
1680008485282,1188473635661237,-0.77701247,0.147675,-0.092675
1680008485284,1188473638163391,-0.799975,0.1926375,-0.14465
1680008485286,1188473640665545,-0.82005,0.2305875,-0.1986875
1680008485288,1188473643167622,-0.832975,0.256575,-0.2446125
1680008485291,1188473645669526,-0.83599997,0.2836625,-0.2866875
1680008485294,1188473648171679,-0.84095,0.311575,-0.3256
1680008485297,1188473650673756,-0.8430125,0.3466375,-0.3656125
1680008485299,1188473653175679,-0.84095,0.37867498,-0.3936625
1680008485300,1188473655678073,-0.8259625,0.4076875,-0.3986125
1680008485304,1188473658179996,-0.7580375,0.3606625,-0.366575
1680008485306,1188473660682073,-0.6309875,0.2745875,-0.3045625
1680008485308,1188473663183996,-0.51094997,0.2415875,-0.240625
1680008485313,1188473665686141,-0.4280375,0.2495625,-0.1986875
1680008485315,1188473668188218,-0.3779875,0.2635875,-0.174625
1680008485317,1188473670690141,-0.35694999,0.2866875,-0.1645875
1680008485319,1188473673192526,-0.34705,0.2935625,-0.1566125
1680008485321,1188473675694449,-0.344025,0.2916375,-0.14465
1680008485324,1188473678196526,-0.352,0.2926,-0.13365
1680008485325,1188473680698449,-0.3620375,0.28861248,-0.1186625
1680008485328,1188473683200603,-0.39105,0.28765,-0.102575
1680008485331,1188473685702680,-0.45595,0.3155625,-0.0996875
1680008485334,1188473688204602,-0.4940375,0.2926,-0.0856625
1680008485336,1188473690706756,-0.504075,0.2415875,-0.0625625
1680008485338,1188473693208909,-0.513975,0.2096875,-0.0526625
1680008485341,1188473695710986,-0.5179625,0.1786125,-0.0506
1680008485343,1188473698213127,-0.5209875,0.1296625,-0.0545875
1680008485347,1188473700715050,-0.5190625,0.069575,-0.0625625
1680008485349,1188473703217127,-0.51205,0.0386375,-0.070675
1680008485351,1188473705719281,-0.5069625,0.0056375,-0.0826375
1680008485354,1188473708221204,-0.5080625,-0.0303875,-0.10065
1680008485355,1188473710723358,-0.5069625,-0.0704,-0.12265
1680008485358,1188473713225435,-0.5099875,-0.1043625,-0.14465
1680008485361,1188473715727589,-0.517,-0.1403875,-0.1736625
1680008485364,1188473718229425,-0.52195,-0.1654125,-0.2036375
1680008485366,1188473720731579,-0.5240125,-0.193325,-0.2376
1680008485368,1188473723233733,-0.531025,-0.2193125,-0.273625
1680008485371,1188473725735886,-0.539,-0.2454375,-0.3106125
1680008485374,1188473728237800,-0.539,-0.2613875,-0.34265
1680008485377,1188473730739876,-0.5410625,-0.276375,-0.36465
1680008485380,1188473733241800,-0.5460125,-0.2943875,-0.388575
1680008485382,1188473735743953,-0.5509625,-0.3243625,-0.4126375
1680008485385,1188473738246030,-0.548075,-0.3603875,-0.4246
1680008485387,1188473740748189,-0.54505,-0.40039998,-0.4285875
1680008485389,1188473743250112,-0.548075,-0.4313375,-0.4296875
1680008485391,1188473745752266,-0.54505,-0.4563625,-0.43065
1680008485394,1188473748254343,-0.548075,-0.4593875,-0.421575
1680008485396,1188473750756266,-0.553025,-0.4393125,-0.4156625
1680008485398,1188473753258406,-0.557975,-0.386375,-0.4026
1680008485401,1188473755760483,-0.557975,-0.30635,-0.3925625
1680008485404,1188473758262637,-0.5539875,-0.2124375,-0.383625
1680008485406,1188473760764560,-0.5460125,-0.11935,-0.37565
1680008485408,1188473763266709,-0.524975,-0.039325,-0.3796375
1680008485411,1188473765768863,-0.4970625,0.0306625,-0.3876125
1680008485415,1188473768270939,-0.454025,0.0875875,-0.4126375
1680008485417,1188473770772863,-0.40301248,0.1266375,-0.4505875
1680008485419,1188473773274939,-0.3559875,0.1546875,-0.5006375
1680008485421,1188473775777093,-0.3040125,0.1816375,-0.5566
1680008485425,1188473778279016,-0.256025,0.2066625,-0.619575
1680008485428,1188473780781093,-0.21807499,0.23265,-0.6956125
1680008485431,1188473783283328,-0.187,0.2616625,-0.7805875
1680008485433,1188473785785405,-0.1750375,0.301675,-0.867625
1680008485437,1188473788287328,-0.1670625,0.3576375,-0.955625
1680008485439,1188473790789405,-0.1769625,0.42061248,-1.0396374
1680008485441,1188473793291559,-0.1860375,0.476575,-1.115675
1680008485444,1188473795793487,-0.1940125,0.5346,-1.1936375
1680008485447,1188473798295564,-0.20899999,0.5996375,-1.2816375
1680008485449,1188473800797718,-0.227975,0.663575,-1.373625
1680008485450,1188473803299872,-0.249975,0.7255875,-1.4515874
1680008485453,1188473805801819,-0.2660625,0.774675,-1.5246
1680008485457,1188473808303896,-0.2850375,0.812625,-1.5996749
1680008485458,1188473810805819,-0.2789875,0.7775625,-1.643675
1680008485460,1188473813307973,-0.20295,0.658625,-1.62965
1680008485462,1188473815810117,-0.106975,0.575575,-1.58565
1680008485465,1188473818312194,-0.0180125,0.509575,-1.499575
1680008485466,1188473820814348,0.0889625,0.4456375,-1.3536875
1680008485468,1188473823316271,0.1610125,0.4316125,-1.208625
1680008485470,1188473825818348,0.19195,0.4466,-1.1316249
1680008485474,1188473828320261,0.16499999,0.5006375,-1.1836
1680008485475,1188473830822415,0.109037496,0.537625,-1.2346125
1680008485478,1188473833324569,0.0639375,0.565675,-1.2626625
1680008485481,1188473835826646,-0.022,0.619575,-1.3616625
1680008485484,1188473838328593,-0.113025,0.6326375,-1.46465
1680008485486,1188473840830747,-0.198,0.63965,-1.5585625
1680008485488,1188473843332824,-0.2649625,0.6406125,-1.642575
1680008485490,1188473845834978,-0.3210625,0.6436375,-1.7226
1680008485494,1188473848336896,-0.370975,0.67265,-1.8046875
1680008485496,1188473850839050,-0.414975,0.73865,-1.879625
1680008485499,1188473853341127,-0.462,0.8226625,-1.94865
1680008485502,1188473855843280,-0.51094997,0.928675,-2.0156126
1680008485505,1188473858345188,-0.5600375,1.038675,-2.077625
1680008485507,1188473860847265,-0.60005,1.1295625,-2.1305625
1680008485509,1188473863349188,-0.6260375,1.2046375,-2.1566875
1680008485511,1188473865851342,-0.6419875,1.2456125,-2.1736
1680008485514,1188473868353496,-0.652025,1.2546875,-2.181575
1680008485515,1188473870855592,-0.641025,1.23365,-2.1586125
1680008485519,1188473873357746,-0.647075,1.2296625,-2.1296
1680008485522,1188473875859669,-0.6639875,1.214675,-2.0975626
1680008485523,1188473878361746,-0.674025,1.1666875,-2.0486126
1680008485525,1188473880863664,-0.680075,1.12365,-1.9795874
1680008485528,1188473883366049,-0.68694997,1.087625,-1.8756375
1680008485531,1188473885867972,-0.702075,1.0516,-1.7485875
1680008485535,1188473888370049,-0.7170625,1.0115875,-1.565575
1680008485537,1188473890871967,-0.737,0.98065,-1.351625
1680008485539,1188473893374121,-0.77494997,0.9645625,-1.1466125
1680008485541,1188473895876198,-0.825,0.949575,-0.9216625
1680008485544,1188473898378351,-0.905025,0.950675,-0.719675
1680008485549,1188473900880274,-1.078,1.049675,-0.619575
1680008485549,1188473903382448,-1.268025,1.0406,-0.5836875
1680008485551,1188473905884525,-1.2551,0.779625,-0.520575
1680008485553,1188473908386448,-1.1589875,0.5456,-0.432575
1680008485555,1188473910888602,-1.103025,0.427625,-0.34265
1680008485559,1188473913390688,-1.096975,0.37661248,-0.2935625
1680008485561,1188473915892842,-1.1180125,0.3466375,-0.2776125
1680008485565,1188473918394765,-1.1479875,0.3356375,-0.2776125
1680008485567,1188473920896919,-1.2530375,0.4486625,-0.2926
1680008485568,1188473923399015,-1.481975,0.652575,-0.3166625
1680008485571,1188473925900938,-1.6520625,0.72765,-0.355575
1680008485575,1188473928403015,-1.8110125,0.8086375,-0.4026
1680008485577,1188473930905169,-1.8720624,0.8116625,-0.4505875
1680008485579,1188473933407328,-1.8931,0.85263747,-0.4915625
1680008485581,1188473935909251,-1.888975,0.93555,-0.531575
1680008485584,1188473938411404,-1.8711,1.0476125,-0.56265
1680008485586,1188473940913481,-1.8381,1.1435875,-0.6136625
1680008485588,1188473943415404,-1.800975,1.2156374,-0.6776
1680008485591,1188473945917462,-1.7281,1.25565,-0.7436
1680008485594,1188473948419693,-1.6020125,1.2645875,-0.8036875
1680008485596,1188473950921770,-1.4730375,1.230625,-0.8025875
1680008485598,1188473953423693,-1.3490125,1.1416625,-0.707575
1680008485600,1188473955925784,-1.208075,0.99165,-0.5025625
1680008485603,1188473958427938,-1.06205,0.806575,-0.2305875
1680008485607,1188473960929861,-0.9310125,0.581625,0.0083875
1680008485608,1188473963431938,-0.8380625,0.33467498,0.1203125
1680008485612,1188473965934150,-0.773025,0.12155,0.13035
1680008485615,1188473968436227,-0.7161,-0.01045,0.1203125
1680008485617,1188473970938150,-0.6501,-0.0683375,0.117425
1680008485618,1188473973440227,-0.5790125,-0.0884125,0.1104125
1680008485621,1188473975942381,-0.51301247,-0.0774125,0.0814
1680008485624,1188473978444515,-0.4631,-0.039325,0.0273625
1680008485626,1188473980946439,-0.4360125,0.003575,-0.0416625
1680008485629,1188473983448515,-0.4420625,0.047575,-0.102575
1680008485630,1188473985950439,-0.45705,0.080575,-0.1516625
1680008485633,1188473988452592,-0.469975,0.09955,-0.185625
1680008485635,1188473990954669,-0.482075,0.0985875,-0.1986875
1680008485638,1188473993456823,-0.4860625,0.07865,-0.1936
1680008485641,1188473995958977,-0.480975,0.0576125,-0.1876875
1680008485652,1188473998460905,-0.476025,0.042625,-0.1716
1680008485653,1188474000962982,-0.462,0.0405625,-0.14465
1680008485653,1188474003464905,-0.4420625,0.05555,-0.1205875
1680008485653,1188474005967059,-0.4250125,0.075625,-0.092675
1680008485654,1188474008469198,-0.3980625,0.104637496,-0.058575
1680008485656,1188474010971275,-0.3779875,0.1346125,-0.0295625
1680008485658,1188474013473198,-0.36107498,0.16555,0.0034375
1680008485660,1188474015975352,-0.348975,0.1936,0.0444125
1680008485663,1188474018477429,-0.3400375,0.2146375,0.0853875
1680008485666,1188474020979371,-0.3240875,0.23155,0.1254
1680008485668,1188474023481448,-0.308,0.24255,0.166375
1680008485671,1188474025983678,-0.2880625,0.2525875,0.2033625
1680008485674,1188474028485755,-0.2651,0.2635875,0.2363625
1680008485676,1188474030987688,-0.2431,0.27555,0.260425
1680008485679,1188474033489842,-0.2349875,0.29755,0.2794
1680008485681,1188474035991919,-0.2349875,0.3295875,0.2904
1680008485683,1188474038493842,-0.23705,0.3696,0.2904
1680008485687,1188474040995895,-0.2440625,0.416625,0.2743125
1680008485689,1188474043498126,-0.2459875,0.46254998,0.2564375
1680008485691,1188474046000203,-0.245025,0.4926625,0.23539999
1680008485695,1188474048502126,-0.245025,0.5126,0.204325
1680008485696,1188474051004280,-0.253,0.5236,0.160325
1680008485698,1188474053506371,-0.2580875,0.5275875,0.138325
1680008485700,1188474056008294,-0.2520375,0.5366625,0.127325
1680008485703,1188474058510448,-0.2440625,0.5346,0.113437496
1680008485706,1188474061012602,-0.2470875,0.5355625,0.0903375
1680008485708,1188474063514678,-0.253,0.5416125,0.0653125
1680008485711,1188474066016602,-0.2490125,0.55165,0.0523875
1680008485713,1188474068518678,-0.245025,0.55055,0.034375
1680008485716,1188474071020832,-0.2431,0.5275875,-0.004675
1680008485718,1188474073522755,-0.2211,0.5336375,-0.1285625
1680008485721,1188474076025140,-0.2000625,0.5456,-0.224675
1680008485725,1188474078526986,-0.1970375,0.5355625,-0.2706
1680008485727,1188474081029140,-0.198,0.52854997,-0.28861248
1680008485729,1188474083531068,-0.2101,0.509575,-0.284625
1680008485731,1188474086033145,-0.2300375,0.4835875,-0.267575
1680008485735,1188474088535299,-0.256025,0.444675,-0.24365
1680008485736,1188474091037222,-0.295075,0.399575,-0.2206875
1680008485738,1188474093539376,-0.3339875,0.366575,-0.19965
1680008485741,1188474096041453,-0.3540625,0.333575,-0.1766875
1680008485744,1188474098543607,-0.3641,0.3026375,-0.1535875
1680008485746,1188474101045530,-0.36905,0.27555,-0.1266375
1680008485748,1188474103547607,-0.36905,0.2476375,-0.10065
1680008485751,1188474106049525,-0.3680875,0.223575,-0.080575
1680008485754,1188474108551909,-0.36905,0.2156,-0.0625625
1680008485756,1188474111053832,-0.370975,0.223575,-0.0506
1680008485758,1188474113555986,-0.374,0.2366375,-0.045649998
1680008485763,1188474116057837,-0.372075,0.25959998,-0.0416625
1680008485765,1188474118559991,-0.3700125,0.2946625,-0.036575
1680008485766,1188474121062068,-0.363,0.345675,-0.042625
1680008485769,1188474123564222,-0.348975,0.394625,-0.053625
1680008485771,1188474126066376,-0.32999998,0.4246,-0.0606375
1680008485775,1188474128568285,-0.31501248,0.43559998,-0.064625
1680008485777,1188474131070362,-0.2850375,0.443575,-0.048675
1680008485778,1188474133572285,-0.242,0.432575,-0.020624999
1680008485781,1188474136074439,-0.1991,0.4145625,0.0103124995
1680008485784,1188474138576516,-0.16005,0.40755,0.0364375
1680008485786,1188474141078698,-0.119075,0.42955,0.0484
1680008485788,1188474143580621,-0.087037496,0.4906,0.0493625
1680008485791,1188474146082775,-0.0540375,0.5676,0.0364375
1680008485793,1188474148584852,-0.040975,0.6446,0.0044
1680008485797,1188474151087015,-0.047025,0.7115625,-0.034649998
1680008485800,1188474153588862,-0.0671,0.74965,-0.0726
1680008485802,1188474156091015,-0.097075,0.762575,-0.1166
1680008485804,1188474158593169,-0.141075,0.7536375,-0.1486375
1680008485806,1188474161095333,-0.187,0.724625,-0.1716
1680008485808,1188474163597256,-0.2380125,0.6986375,-0.1986875
1680008485811,1188474166099333,-0.295075,0.6906625,-0.22659999
1680008485814,1188474168601256,-0.3510375,0.69355,-0.2715625
1680008485817,1188474171103400,-0.3971,0.7016625,-0.3265625
1680008485818,1188474173605554,-0.43505,0.702625,-0.3986125
1680008485821,1188474176107631,-0.4580125,0.7005625,-0.4835875
1680008485824,1188474178609554,-0.4690125,0.69465,-0.5726875
1680008485826,1188474181111626,-0.4720375,0.675675,-0.6736125
1680008485830,1188474183613780,-0.4741,0.63965,-0.785675
1680008485831,1188474186115934,-0.4769875,0.5905625,-0.906675
1680008485834,1188474188617857,-0.482075,0.537625,-1.0296
1680008485837,1188474191119996,-0.46805,0.515625,-1.147575
1680008485839,1188474193622073,-0.432025,0.4926625,-1.2395625
1680008485841,1188474196123996,-0.34705,0.50765,-1.2755874
1680008485844,1188474198626073,-0.2050125,0.55055,-1.2766875
1680008485846,1188474201128227,-0.1280125,0.4866125,-1.268575
1680008485848,1188474203630391,-0.1111,0.4035625,-1.247675
1680008485851,1188474206132314,-0.088,0.3806,-1.2456125
1680008485854,1188474208634391,-0.099,0.339625,-1.269675
1680008485856,1188474211136545,-0.1390125,0.30855,-1.302675
1680008485858,1188474213638483,-0.20899999,0.27555,-1.335675
1680008485861,1188474216140560,-0.271975,0.2825625,-1.35465
1680008485864,1188474218642714,-0.293975,0.3356375,-1.3605624
1680008485866,1188474221144868,-0.2789875,0.3716625,-1.3525875
1680008485868,1188474223646767,-0.271975,0.3546125,-1.335675
1680008485871,1188474226148844,-0.278025,0.32065,-1.3165625
1680008485875,1188474228650767,-0.289025,0.2935625,-1.313675
1680008485877,1188474231152921,-0.304975,0.27665,-1.3116125
1680008485879,1188474233654988,-0.3020875,0.2855875,-1.313675
1680008485881,1188474236157141,-0.32505,0.2586375,-1.3256375
1680008485884,1188474238659065,-0.348975,0.2476375,-1.3256375
1680008485886,1188474241161218,-0.3510375,0.262625,-1.3156
1680008485888,1188474243663290,-0.326975,0.278575,-1.3046
1680008485891,1188474246165213,-0.286,0.300575,-1.285625
1680008485895,1188474248667367,-0.2380125,0.311575,-1.2495999
1680008485898,1188474251169521,-0.2030875,0.3026375,-1.2186625
1680008485900,1188474253671598,-0.172975,0.3026375,-1.1875875
1680008485902,1188474256173521,-0.1310375,0.3166625,-1.1466125
1680008485907,1188474258675675,-0.0840125,0.3356375,-1.098625
1680008485909,1188474261177752,-0.0570625,0.3625875,-1.0646625
1680008485911,1188474263679675,-0.0380875,0.394625,-1.0476125
1680008485912,1188474266181752,-0.022,0.438625,-1.016675
1680008485915,1188474268683983,-0.0259875,0.4805625,-0.977625
1680008485917,1188474271186060,-0.02805,0.5256625,-0.9466875
1680008485919,1188474273687988,-0.029975,0.56155,-0.933625
1680008485921,1188474276190065,-0.040975,0.5825875,-0.9466875
1680008485923,1188474278692218,-0.036025,0.6155875,-0.9455875
1680008485929,1188474281194142,-0.0240625,0.63965,-0.9246875
1680008485930,1188474283696213,-0.009075,0.63965,-0.90365
1680008485932,1188474286198367,9.625E-4,0.6246625,-0.894575
1680008485934,1188474288700521,0.00495,0.5935875,-0.9205625
1680008485936,1188474291202444,0.001925,0.5636125,-0.960575
1680008485938,1188474293704521,-0.011,0.54065,-0.9876625
1680008485941,1188474296206666,-0.0240625,0.5146625,-0.9906875
1680008485944,1188474298708589,-0.0341,0.4926625,-0.9895875
1680008485947,1188474301210743,-0.031075,0.46667498,-0.982575
1680008485951,1188474303712820,0.003025,0.46461248,-0.950675
1680008485953,1188474306214950,0.122925,0.4365625,-0.85263747
1680008485955,1188474308716873,0.210925,0.2385625,-0.762575
1680008485957,1188474311218950,0.260975,0.0796125,-0.6925875
1680008485959,1188474313720873,0.275,0.0105875,-0.6246625
1680008485962,1188474316223027,0.2649625,-0.018424999,-0.576675
1680008485965,1188474318725176,0.238975,-0.017324999,-0.5465625
1680008485967,1188474321227252,0.2149125,0.026675,-0.531575
1680008485969,1188474323729176,0.20295,0.0826375,-0.5286875
1680008485971,1188474326231329,0.20295,0.1076625,-0.526625
1680008485974,1188474328733406,0.2099625,0.114675,-0.5245625
1680008485976,1188474331235329,0.221925,0.0875875,-0.5245625
1680008485979,1188474333737483,0.2299,0.0405625,-0.5116375
1680008485983,1188474336239637,0.232925,-0.006325,-0.498575
1680008485985,1188474338741714,0.2299,-0.0364375,-0.47465
1680008485988,1188474341243608,0.223025,-0.0523875,-0.4376625
1680008485990,1188474343745762,0.221925,-0.045375,-0.3986125
1680008485991,1188474346247839,0.22,-0.0243375,-0.3586
1680008485994,1188474348749762,0.223025,5.5E-4,-0.3146
1680008485997,1188474351251916,0.234025,0.0325875,-0.268675
1680008485999,1188474353754084,0.24695,0.0636625,-0.223575
1680008486001,1188474356256161,0.264,0.093637496,-0.1766875
1680008486004,1188474358758084,0.2809125,0.1266375,-0.135575
1680008486006,1188474361260161,0.2979625,0.1645875,-0.1065625
1680008486009,1188474363762319,0.309925,0.19855,-0.086625
1680008486011,1188474366264243,0.322025,0.2256375,-0.0826375
1680008486015,1188474368766396,0.3370125,0.2415875,-0.08965
1680008486017,1188474371268473,0.3480125,0.2476375,-0.10065
1680008486019,1188474373770401,0.363,0.2385625,-0.1076625
1680008486022,1188474376272555,0.3829375,0.2085875,-0.1236125
1680008486026,1188474378774709,0.4019125,0.169675,-0.1395625
1680008486029,1188474381276786,0.419925,0.13365,-0.1546875
1680008486030,1188474383778723,0.4360125,0.1126125,-0.17765
1680008486033,1188474386280877,0.4459125,0.1095875,-0.1986875
1680008486035,1188474388782954,0.443025,0.1126125,-0.2275625
1680008486038,1188474391284877,0.4269375,0.119625,-0.2646875
1680008486040,1188474393787031,0.4079625,0.13255,-0.3106125
1680008486042,1188474396289204,0.3829375,0.14465,-0.3586
1680008486046,1188474398791281,0.35901248,0.14465,-0.405625
1680008486048,1188474401293204,0.342925,0.152625,-0.455675
1680008486051,1188474403795358,0.32395,0.158675,-0.5066875
1680008486053,1188474406297449,0.3059375,0.1546875,-0.56168747
1680008486055,1188474408799372,0.2979625,0.1535875,-0.6166875
1680008486058,1188474411301525,0.300025,0.158675,-0.675675
1680008486060,1188474413803679,0.3059375,0.1706375,-0.730675
1680008486062,1188474416305752,0.2960375,0.1835625,-0.779625
1680008486066,1188474418807675,0.29095,0.2085875,-0.8245875
1680008486067,1188474421309829,0.2759625,0.2195875,-0.862675
1680008486070,1188474423811906,0.2520375,0.2096875,-0.862675
1680008486072,1188474426313829,0.23705,0.1936,-0.845625
1680008486075,1188474428815978,0.223025,0.15565,-0.84865
1680008486079,1188474431318132,0.2380125,0.1546875,-0.9266125
1680008486084,1188474433820209,0.22605,0.135575,-0.9766625
1680008486087,1188474436322132,0.1830125,0.1166,-0.9766625
1680008486090,1188474438824218,0.172975,0.130625,-0.96965
1680008486093,1188474441326372,0.1739375,0.1276,-0.966625
1680008486094,1188474443828295,0.150975,0.1065625,-0.9455875
1680008486095,1188474446330449,0.14093749,0.115637496,-0.9376125
1680008486096,1188474448832526,0.1249875,0.125675,-0.9436625
1680008486097,1188474451334679,0.0779625,0.147675,-0.906675
1680008486100,1188474453836602,0.0529375,0.202675,-0.8545625
1680008486102,1188474456338679,0.061049998,0.223575,-0.8666625
1680008486104,1188474458840602,0.036025,0.2195875,-0.917675
1680008486108,1188474461343006,-0.014025,0.28765,-0.922625
1680008486109,1188474463844929,-0.0589875,0.3546125,-0.87065
1680008486111,1188474466347006,-0.0790625,0.416625,-0.8276125
1680008486114,1188474468849160,-0.0559625,0.471625,-0.8556625
1680008486116,1188474471351098,-0.091025,0.4736875,-0.9106625
1680008486119,1188474473853175,-0.16499999,0.5456,-0.93857497
1680008486122,1188474476355098,-0.190025,0.653675,-0.96965
1680008486125,1188474478857483,-0.198,0.664675,-1.00265
1680008486127,1188474481359406,-0.1799875,0.6336,-1.005675
1680008486130,1188474483861483,-0.152075,0.5666375,-0.9856
1680008486132,1188474486363406,-0.1230625,0.4816625,-1.026575
1680008486135,1188474488865560,-0.106975,0.3876125,-1.082675
1680008486138,1188474491367622,-0.1060125,0.33165,-1.109625
1680008486140,1188474493869775,-0.0950125,0.2855875,-1.1226875
1680008486142,1188474496371699,-0.0840125,0.234575,-1.16765
1680008486144,1188474498873852,-0.075075,0.1926375,-1.2266375
1680008486146,1188474501375929,-0.0699875,0.1615625,-1.2706375
1680008486149,1188474503877852,-0.0760375,0.1395625,-1.2945625
1680008486151,1188474506379929,-0.0809875,0.1296625,-1.3305875
1680008486156,1188474508882083,-0.0999625,0.1175625,-1.3745875
1680008486156,1188474511384237,-0.1230625,0.1315875,-1.3916374
1680008486159,1188474513886194,-0.146025,0.135575,-1.3965875
1680008486161,1188474516388271,-0.15895,0.1606,-1.3925999
1680008486164,1188474518890425,-0.1780625,0.1975875,-1.35465
1680008486166,1188474521392348,-0.194975,0.2066625,-1.2766875
1680008486169,1188474523894411,-0.194975,0.180675,-1.2175624
1680008486172,1188474526396565,-0.2000625,0.1175625,-1.2315875
1680008486176,1188474528898719,-0.2160125,0.0836,-1.2725625
1680008486178,1188474531400642,-0.2300375,0.070675,-1.27765
1680008486180,1188474533902714,-0.262075,0.0185625,-1.2486374
1680008486181,1188474536404867,-0.295075,-0.0573375,-1.2266375
1680008486184,1188474538906791,-0.3229875,-0.10835,-1.1845624
1680008486187,1188474541408867,-0.337975,-0.1434125,-1.1276375
1680008486188,1188474543911021,-0.34595,-0.2014375,-1.0366125
1680008486191,1188474546413170,-0.339075,-0.24035,-1.016675
1680008486194,1188474548915093,-0.3510375,-0.23539999,-0.99962497
1680008486196,1188474551417170,-0.394075,-0.2033625,-0.944625
1680008486199,1188474553919093,-0.42295,-0.1733875,-0.895675
1680008486201,1188474556421237,-0.447975,-0.161425,-0.861575
1680008486204,1188474558923314,-0.482075,-0.166375,-0.8476875
1680008486206,1188474561425468,-0.520025,-0.1643125,-0.851675
1680008486209,1188474563927622,-0.56705,-0.160325,-0.862675
1680008486213,1188474566429521,-0.605,-0.1654125,-0.8716125
1680008486216,1188474568931598,-0.645975,-0.150425,-0.862675
1680008486217,1188474571433521,-0.6859875,-0.1313125,-0.8476875
1680008486219,1188474573935675,-0.700975,-0.09735,-0.839575
1680008486221,1188474576437752,-0.7079875,-0.0554125,-0.82156247
1680008486225,1188474578939905,-0.72105,-0.017324999,-0.801625
1680008486226,1188474581441829,-0.7390625,0.0306625,-0.78265
1680008486229,1188474583943905,-0.7519875,0.0735625,-0.76559997
1680008486231,1188474586446059,-0.790075,0.1016125,-0.7396125
1680008486234,1188474588948213,-0.832975,0.13859999,-0.718575
1680008486236,1188474591450136,-0.8900375,0.1566125,-0.7126625
1680008486239,1188474593952213,-0.95301247,0.1656875,-0.70565
1680008486241,1188474596454367,-1.00595,0.1606,-0.680625
1680008486244,1188474598956280,-1.0489875,0.15565,-0.64762497
1680008486246,1188474601458357,-1.074975,0.13859999,-0.5996375
1680008486250,1188474603960511,-1.103025,0.119625,-0.5416125
1680008486252,1188474606462665,-1.1210375,0.10065,-0.487575
1680008486255,1188474608964545,-1.142075,0.11165,-0.421575
1680008486257,1188474611466699,-1.164075,0.119625,-0.3496625
1680008486258,1188474613968776,-1.186075,0.1065625,-0.2776125
1680008486262,1188474616470699,-1.2219625,0.1175625,-0.19965
1680008486264,1188474618972776,-1.2560625,0.11165,-0.1285625
1680008486268,1188474621474992,-1.29305,0.0996875,-0.0625625
1680008486274,1188474623977069,-1.316975,0.0996875,-0.00165
1680008486274,1188474626478992,-1.3459874,0.0776875,0.0474375
1680008486275,1188474628981069,-1.4070375,0.0556875,0.091437496
1680008486276,1188474631483001,-1.42395,0.0966625,0.1313125
1680008486279,1188474633985155,-1.4370124,0.1285625,0.17435
1680008486281,1188474636487232,-1.4650625,0.1266375,0.2363625
1680008486284,1188474638989463,-1.48995,0.114675,0.2963125
1680008486287,1188474641491545,-1.5329875,0.0796125,0.36135
1680008486289,1188474643993468,-1.587025,0.047575,0.4283125
1680008486291,1188474646495545,-1.65,0.014575,0.5143875
1680008486296,1188474648997699,-1.6389999,0.0856625,0.590425
1680008486297,1188474651499622,-1.547975,0.1425875,0.6263125
1680008486299,1188474654001771,-1.455025,0.1166,0.6534
1680008486302,1188474656503925,-1.3869625,0.0845625,0.688325
1680008486304,1188474659006002,-1.3490125,0.0606375,0.7044125
1680008486306,1188474661507925,-1.33705,0.0116875,0.7044125
1680008486309,1188474664010002,-1.331,-0.04235,0.7233875
1680008486312,1188474666512155,-1.3080375,-0.0554125,0.744425
1680008486315,1188474669014078,-1.2689875,-0.0664125,0.765325
1680008486316,1188474671516232,-1.224025,-0.0793375,0.793375
1680008486319,1188474674018357,-1.164075,-0.091437496,0.81633747
1680008486321,1188474676520434,-1.0899625,-0.1214125,0.8223875
1680008486328,1188474679022357,-1.0220375,-0.155375,0.81235
1680008486329,1188474681524434,-0.942975,-0.177375,0.8064375
1680008486330,1188474684026583,-0.8589625,-0.2033625,0.815375
1680008486332,1188474686528506,-0.784025,-0.2363625,0.8083625
1680008486336,1188474689030660,-0.700975,-0.2443375,0.7893875
1680008486337,1188474691532814,-0.612975,-0.243375,0.777425
1680008486339,1188474694034891,-0.528,-0.25135,0.7753625
1680008486341,1188474696536809,-0.44,-0.281325,0.766425
1680008486344,1188474699038886,-0.348975,-0.2684,0.771375
1680008486346,1188474701541040,-0.2349875,-0.204325,0.79035
1680008486349,1188474704043193,-0.14795,-0.2134,0.8034125
1680008486351,1188474706545352,-0.073975,-0.182325,0.8133125
1680008486354,1188474709047198,-0.009075,-0.1464375,0.826375
1680008486357,1188474711549352,0.0479875,-0.1153625,0.8404
1680008486359,1188474714051275,0.100925,-0.0664125,0.8514
1680008486365,1188474716553409,0.1549625,-0.029424999,0.8663875
1680008486368,1188474719055486,0.199925,-0.006325,0.8853625
1680008486369,1188474721557640,0.243925,0.0295625,0.8993875
1680008486370,1188474724059794,0.287925,0.047575,0.898425
1680008486372,1188474726561640,0.322025,0.0556875,0.8963625
1680008486375,1188474729063804,0.3510375,0.0655875,0.90433747
1680008486376,1188474731565727,0.375925,0.056649998,0.9013125
1680008486380,1188474734067881,0.3920125,0.0526625,0.88935
1680008486381,1188474736570035,0.3889875,0.0625625,0.8573125
1680008486384,1188474739072112,0.36905,0.081675,0.80135
1680008486388,1188474741574049,0.3480125,0.1076625,0.727375
1680008486390,1188474744076202,0.32395,0.125675,0.655325
1680008486391,1188474746578279,0.3089625,0.12265,0.5864375
1680008486394,1188474749080202,0.298925,0.11165,0.5223625
1680008486397,1188474751582342,0.27995,0.114675,0.452375
1680008486401,1188474754084496,0.2630375,0.1346125,0.386375
1680008486402,1188474756586573,0.2410375,0.15565,0.337425
1680008486405,1188474759088496,0.227975,0.1865875,0.282425
1680008486406,1188474761590655,0.2209625,0.2376,0.22935
1680008486409,1188474764092732,0.20693749,0.3036,0.1923625
1680008486414,1188474766594655,0.176,0.38665,0.1593625
1680008486416,1188474769096809,0.122925,0.4536125,0.1233375
1680008486418,1188474771598977,0.0730125,0.55165,0.07535
1680008486419,1188474774101131,9.625E-4,0.7106,0.0383625
1680008486421,1188474776602977,-0.09295,0.862675,0.006325
1680008486425,1188474779105054,-0.17407499,0.971575,-0.037675
1680008486427,1188474781607284,-0.2349875,1.0305625,-0.0906125
1680008486430,1188474784109380,-0.27005,1.03565,-0.13365
1680008486431,1188474786611304,-0.2820125,0.99962497,-0.1566125
1680008486434,1188474789113457,-0.27995,0.944625,-0.169675
1680008486438,1188474791615549,-0.2850375,0.9196,-0.180675
1680008486439,1188474794117472,-0.2960375,0.9156125,-0.1755875
1680008486442,1188474796619549,-0.306075,0.9106625,-0.1706375
1680008486445,1188474799121780,-0.30305,0.88165,-0.163625
1680008486447,1188474801623857,-0.295075,0.878625,-0.15565
1680008486449,1188474804125780,-0.289025,0.9186375,-0.136675
1680008486451,1188474806627857,-0.282975,0.933625,-0.1126125
1680008486455,1188474809130011,-0.27995,0.91368747,-0.0906125
1680008486458,1188474811631934,-0.2679875,0.818675,-0.037675
1680008486459,1188474814134092,-0.2319625,0.685575,0.017324999
1680008486462,1188474816636246,-0.1989625,0.6326375,0.0594
1680008486465,1188474819138323,-0.172975,0.6226,0.089375
1680008486467,1188474821640246,-0.157025,0.6136625,0.10835
1680008486469,1188474824142333,-0.1469875,0.587675,0.111375
1680008486471,1188474826644486,-0.1439625,0.5685625,0.08635
1680008486476,1188474829146410,-0.1500125,0.5666375,0.0523875
1680008486479,1188474831648563,-0.16499999,0.5776375,0.0133375
1680008486481,1188474834150645,-0.187,0.5456,-0.026675
1680008486482,1188474836652799,-0.1940125,0.4756125,-0.06765
1680008486485,1188474839154722,-0.2019875,0.4296875,-0.1106875
1680008486488,1188474841656876,-0.2160125,0.405625,-0.1566125
1680008486490,1188474844158953,-0.2349875,0.3876125,-0.2006125
1680008486492,1188474846661155,-0.25905,0.35365,-0.2415875
1680008486496,1188474849163078,-0.28105,0.2976875,-0.28765
1680008486497,1188474851665155,-0.295075,0.24365,-0.33165
1680008486500,1188474854167309,-0.308,0.2046,-0.3656125
1680008486502,1188474856669217,-0.32999998,0.179575,-0.3916
1680008486504,1188474859171371,-0.35901248,0.135575,-0.4145625
1680008486506,1188474861673217,-0.3870625,0.0735625,-0.4246
1680008486509,1188474864175601,-0.40094998,-0.0023375,-0.4175875
1680008486513,1188474866677549,-0.3969625,-0.0664125,-0.40865
1680008486517,1188474869179702,-0.39105,-0.127325,-0.3986125
1680008486517,1188474871681779,-0.377025,-0.1584,-0.38665
1680008486520,1188474874183702,-0.3540625,-0.1684375,-0.37565
1680008486523,1188474876685779,-0.33605,-0.1733875,-0.36465
1680008486527,1188474879187938,-0.311025,-0.1804,-0.36465
1680008486531,1188474881690092,-0.282975,-0.2234375,-0.3716625
1680008486532,1188474884192015,-0.249975,-0.276375,-0.3746875
1680008486535,1188474886694169,-0.2160125,-0.3114375,-0.3586
1680008486537,1188474889196261,-0.187,-0.3224375,-0.33467498
1680008486540,1188474891698184,-0.1670625,-0.336325,-0.3026375
1680008486542,1188474894200261,-0.1579875,-0.3454,-0.2605625
1680008486544,1188474896702492,-0.1549625,-0.3444375,-0.2165625
1680008486547,1188474899204569,-0.14795,-0.3444375,-0.1736625
1680008486549,1188474901706482,-0.146025,-0.336325,-0.1425875
1680008486551,1188474904208559,-0.1450625,-0.309375,-0.1205875
1680008486554,1188474906710712,-0.1390125,-0.281325,-0.1106875
1680008486556,1188474909212636,-0.1269125,-0.2343,-0.1186625
1680008486558,1188474911714698,-0.1109625,-0.1804,-0.1326875
1680008486560,1188474914216929,-0.0950125,-0.1324125,-0.147675
1680008486563,1188474916719006,-0.0719125,-0.095425,-0.1606
1680008486565,1188474919220929,-0.0309375,-0.0823625,-0.1865875
1680008486567,1188474921723006,-0.0169125,-0.0933625,-0.2096875
1680008486569,1188474924225184,-0.014025,-0.0763125,-0.223575
1680008486572,1188474926727107,-0.007975,-0.0334125,-0.2305875
1680008486576,1188474929229184,9.625E-4,0.00165,-0.223575
1680008486578,1188474931731338,0.0070125,0.02365,-0.218625
1680008486580,1188474934233496,0.01705,0.0306625,-0.21367499
1680008486582,1188474936735419,0.01705,0.031625,-0.201575
1680008486585,1188474939237496,0.0259875,0.034649998,-0.18259999
1680008486589,1188474941739650,0.0350625,0.0435875,-0.1615625
1680008486590,1188474944241564,0.040975,0.0576125,-0.1406625
1680008486592,1188474946743718,0.0490875,0.069575,-0.1166
1680008486594,1188474949245795,0.0589875,0.0726,-0.093637496
1680008486597,1188474951747948,0.0620125,0.0875875,-0.0735625
1680008486599,1188474954249871,0.0589875,0.113575,-0.048675
1680008486602,1188474956751967,0.0570625,0.125675,-0.0086624995
1680008486604,1188474959253890,0.0570625,0.135575,0.0303875
1680008486606,1188474961756044,0.050049998,0.1535875,0.06435
1680008486609,1188474964258198,0.0460625,0.180675,0.102437496
1680008486612,1188474966760265,0.0400125,0.201575,0.1423125
1680008486615,1188474969262188,0.0339625,0.21367499,0.1684375
1680008486617,1188474971764342,0.0339625,0.22165,0.18535
1680008486619,1188474974266419,0.0240625,0.24365,0.2083125
1680008486622,1188474976768318,0.022,0.27665,0.23539999
1680008486626,1188474979270703,0.025024999,0.3036,0.2613875
1680008486630,1188474981772626,0.031075,0.344575,0.2894375
1680008486631,1188474984274703,0.0430375,0.383625,0.3084125
1680008486634,1188474986776603,0.0540375,0.4266625,0.3234
1680008486635,1188474989278757,0.0730125,0.46461248,0.331375
1680008486638,1188474991780910,0.095975,0.5006375,0.3454
1680008486640,1188474994282987,0.1120625,0.5476625,0.358325
1680008486642,1188474996784910,0.1370875,0.58959997,0.364375
1680008486646,1188474999287087,0.1610125,0.6326375,0.3744125
1680008486647,1188475001789164,0.18205,0.6787,0.375375
1680008486649,1188475004291087,0.1890625,0.7266875,0.38541248
1680008486651,1188475006793472,0.1989625,0.7616125,0.4013625
1680008486655,1188475009295395,0.20405,0.785675,0.413325
1680008486657,1188475011797472,0.2080375,0.79461247,0.4203375
1680008486659,1188475014299395,0.2140875,0.79461247,0.435325
1680008486663,1188475016801549,0.2160125,0.7887,0.446325
1680008486666,1188475019303594,0.207075,0.7777,0.4514125
1680008486668,1188475021805517,0.1989625,0.7616125,0.4483875
1680008486669,1188475024307671,0.187,0.740575,0.4393125
1680008486671,1188475026809825,0.1750375,0.72765,0.4233625
1680008486674,1188475029311915,0.1640375,0.76559997,0.39833748
1680008486677,1188475031813838,0.12705,0.746625,0.3674
1680008486679,1188475034315991,0.0680625,0.686675,0.3273875
1680008486682,1188475036818068,9.625E-4,0.6326375,0.3023625
1680008486684,1188475039319991,-0.0559625,0.5605875,0.287375
1680008486686,1188475041822145,-0.11,0.504625,0.2613875
1680008486689,1188475044324299,-0.16499999,0.4477,0.2244
1680008486691,1188475046826376,-0.2080375,0.37565,0.193325
1680008486696,1188475049328295,-0.2459875,0.3075875,0.171325
1680008486697,1188475051830372,-0.289025,0.2396625,0.1563375
1680008486700,1188475054332526,-0.32395,0.16665,0.1364
1680008486703,1188475056834680,-0.355025,0.097625,0.1354375
1680008486705,1188475059336593,-0.38995,0.0796125,0.1203125
1680008486707,1188475061838670,-0.4109875,0.047575,0.1104125
1680008486710,1188475064340824,-0.4239125,-0.0083875,0.117425
1680008486711,1188475066842747,-0.436975,-0.04235,0.1254
1680008486714,1188475069344824,-0.443025,-0.0664125,0.1254
1680008486716,1188475071846968,-0.4519625,-0.0793375,0.116325
1680008486720,1188475074349121,-0.458975,-0.078375,0.117425
1680008486723,1188475076851045,-0.4580125,-0.08635,0.1144
1680008486725,1188475079353121,-0.451,-0.1214125,0.100375
1680008486727,1188475081855299,-0.4360125,-0.1513875,0.0743875
1680008486730,1188475084357222,-0.414975,-0.171325,0.0523875
1680008486732,1188475086859299,-0.3909125,-0.1874125,0.0383625
1680008486735,1188475089361530,-0.3689125,-0.19635,0.0364375
1680008486739,1188475091863588,-0.344025,-0.2083125,0.0493625
1680008486740,1188475094365511,-0.320925,-0.216425,0.0704
1680008486744,1188475096867588,-0.308,-0.215325,0.094325
1680008486745,1188475099369742,-0.282975,-0.2143625,0.124437496
1680008486747,1188475101871665,-0.2600125,-0.21133749,0.149325
1680008486749,1188475104373756,-0.243925,-0.2024,0.1764125
1680008486752,1188475106875910,-0.2369125,-0.182325,0.2024
1680008486755,1188475109378064,-0.22495,-0.177375,0.2244
1680008486757,1188475111879987,-0.2160125,-0.1694,0.23539999
1680008486759,1188475114382054,-0.2050125,-0.1544125,0.24035
1680008486762,1188475116883977,-0.188925,-0.1403875,0.24035
1680008486765,1188475119386131,-0.177925,-0.111375,0.237325
1680008486766,1188475121888207,-0.1739375,-0.0853875,0.2314125
1680008486769,1188475124390337,-0.1720125,-0.0573375,0.226325
1680008486772,1188475126892491,-0.177925,-0.034375,0.2314125
1680008486777,1188475129394414,-0.177925,-0.0213125,0.2244
1680008486781,1188475131896491,-0.177925,-0.0143,0.2094125
1680008486782,1188475134398409,-0.187,6.875E-4,0.1973125
1680008486784,1188475136900563,-0.2019875,0.0226875,0.1984125
1680008486785,1188475139402717,-0.22,0.0356125,0.204325
1680008486787,1188475141904871,-0.2349875,0.053625,0.2094125
1680008486789,1188475144406948,-0.25795,0.0616,0.2134
1680008486791,1188475146908881,-0.2759625,0.0847,0.2314125
1680008486795,1188475149410958,-0.2930125,0.0847,0.2534125
1680008486797,1188475151913112,-0.2919125,0.036575,0.2684
1680008486799,1188475154415035,-0.26895,0.056649998,0.3183125
1680008486802,1188475156917203,-0.282975,0.1936,0.40535
1680008486804,1188475159419279,-0.2630375,0.1656875,0.4764375
1680008486807,1188475161921433,-0.20899999,0.0466125,0.5273125
1680008486809,1188475164423356,-0.18095,-0.0374,0.5504125
1680008486813,1188475166925414,-0.14795,-0.1243,0.545325
1680008486816,1188475169427568,-0.1159125,-0.1903,0.5314375
1680008486819,1188475171929414,-0.0919875,-0.2024,0.518375
1680008486819,1188475174431645,-0.062975,-0.1843875,0.501325
1680008486822,1188475176933722,-0.0309375,-0.171325,0.4943125
1680008486826,1188475179435876,-0.0100375,-0.149325,0.4893625
1680008486828,1188475181937799,0.0149875,-0.1144,0.4783625
1680008486830,1188475184439876,0.042075,-0.078375,0.468325
1680008486832,1188475186942030,0.0620125,-0.0583,0.4613125
1680008486835,1188475189443977,0.08305,-0.0273625,0.457325
1680008486837,1188475191946054,0.0999625,0.026675,0.47341248
