system_ts_ms, sensor_ts_ns, gyrX, gyrY, gyrZ
1679993518232,1173506585164310,0.0391875,0.344025,-0.42295
1679993518232,1173506587666464,0.03025,0.4629625,-0.4819375
1679993518235,1173506590168617,0.0242,0.5960625,-0.529925
1679993518237,1173506592670771,0.01815,0.7299875,-0.56993747
1679993518241,1173506595172934,0.0132,0.8600625,-0.611875
1679993518243,1173506597674857,0.0042625,0.9780375,-0.64185
1679993518252,1173506600176934,1.375E-4,1.085975,-0.6678375
1679993518252,1173506602679088,0.0012375,1.18305,-0.6879125
1679993518253,1173506605181242,0.00825,1.27105,-0.705925
1679993518253,1173506607683468,0.0221375,1.3459874,-0.716925
1679993518254,1173506610185545,0.041249998,1.406075,-0.7258625
1679993518257,1173506612687468,0.0771375,1.444025,-0.73095
1679993518259,1173506615189622,0.13213749,1.4540625,-0.7288875
1679993518262,1173506617691785,0.208175,1.4260125,-0.7258625
1679993518264,1173506620193862,0.3111625,1.3630375,-0.716925
1679993518267,1173506622696093,0.4302375,1.2560625,-0.7019375
1679993518269,1173506625198170,0.5632,1.111,-0.68488747
1679993518272,1173506627700319,0.7052375,0.95507497,-0.6678375
1679993518275,1173506630202242,0.8531875,0.7830625,-0.6479
1679993518281,1173506632704396,0.9992125,0.614075,-0.6298875
1679993518281,1173506635206550,1.138225,0.447975,-0.60885
1679993518283,1173506637708608,1.27215,0.30305,-0.5908375
1679993518285,1173506640210838,1.3971375,0.179025,-0.5709
1679993518288,1173506642712915,1.5071375,0.088,-0.55495
1679993518290,1173506645215069,1.5992625,0.033,-0.54285
1679993518292,1173506647717223,1.677225,0.009075,-0.5339125
1679993518298,1173506650219160,1.7381375,0.0119624995,-0.53185
1679993518298,1173506652721237,1.77815,0.033,-0.53185
1679993518300,1173506655223468,1.8041375,0.0710875,-0.5399625
1679993518303,1173506657725545,1.8082625,0.1219625,-0.5498625
1679993518305,1173506660227680,1.798225,0.1780625,-0.5599
1679993518307,1173506662729833,1.7711375,0.227975,-0.57585
1679993518310,1173506665231987,1.7331874,0.275,-0.589875
1679993518316,1173506667733910,1.6891875,0.3199625,-0.6029375
1679993518317,1173506670235982,1.6262125,0.350075,-0.6169625
1679993518318,1173506672738213,1.5602125,0.3650625,-0.6249375
1679993518320,1173506675240367,1.4862375,0.3669875,-0.6389625
1679993518323,1173506677742444,1.4081374,0.3460875,-0.65285
1679993518325,1173506680244598,1.3222,0.3180375,-0.6659125
1679993518327,1173506682746545,1.231175,0.2789875,-0.677875
1679993518333,1173506685248699,1.1361625,0.2250875,-0.6919
1679993518336,1173506687750852,1.0382625,0.1700875,-0.7049625
1679993518336,1173506690253006,0.934175,0.109037496,-0.71995
1679993518339,1173506692755069,0.8272,0.0490875,-0.732875
1679993518341,1173506695257223,0.72214997,-9.625E-4,-0.7469
1679993518343,1173506697759146,0.6161375,-0.0419375,-0.7558375
1679993518349,1173506700261300,0.5061375,-0.0719125,-0.7679375
1679993518349,1173506702763454,0.3972375,-0.0840125,-0.7759125
1679993518350,1173506705265638,0.29425,-0.0840125,-0.7808625
1679993518354,1173506707767792,0.19525,-0.07095,-0.7819625
1679993518356,1173506710269869,0.1012,-0.04895,-0.7789375
1679993518357,1173506712772022,0.021175,-0.0279125,-0.77385
1679993518360,1173506715273940,-0.0488125,-0.0119624995,-0.7698625
1679993518364,1173506717776094,-0.1087625,0.0,-0.76285
1679993518365,1173506720278479,-0.15785,0.0070125,-0.7558375
1679993518368,1173506722780402,-0.1978625,0.0020625,-0.7478625
1679993518371,1173506725282479,-0.2248125,-0.00495,-0.732875
1679993518373,1173506727784633,-0.2418625,-0.0199375,-0.7148625
1679993518375,1173506730286787,-0.2547875,-0.0389125,-0.6928625
1679993518381,1173506732788940,-0.2547875,-0.051975,-0.672925
1679993518381,1173506735291094,-0.24475,-0.062975,-0.6458375
1679993518383,1173506737793017,-0.225775,-0.067925,-0.617925
1679993518385,1173506740295171,-0.203775,-0.066,-0.5919375
1679993518388,1173506742797325,-0.165825,-0.0669625,-0.5619625
1679993518391,1173506745299373,-0.12375,-0.05995,-0.529925
1679993518394,1173506747801527,-0.0727375,-0.0620125,-0.49995
1679993518399,1173506750303450,-0.011825,-0.067925,-0.4709375
1679993518399,1173506752805835,0.0532125,-0.07095,-0.4398625
1679993518400,1173506755307758,0.1192125,-0.0760375,-0.4148375
1679993518406,1173506757809907,0.1882375,-0.0829125,-0.386925
1679993518406,1173506760312060,0.258225,-0.0919875,-0.3628625
1679993518407,1173506762814137,0.3212,-0.102025,-0.3419625
1679993518410,1173506765316291,0.3782625,-0.1139875,-0.3218875
1679993518415,1173506767818426,0.428175,-0.122925,-0.3078625
1679993518416,1173506770320580,0.467225,-0.1159125,-0.2968625
1679993518418,1173506772822503,0.4962375,-0.0999625,-0.27995
1679993518420,1173506775324657,0.51713747,-0.08195,-0.2649625
1679993518422,1173506777826714,0.5281375,-0.0589875,-0.24695
1679993518424,1173506780328868,0.52415,-0.0389125,-0.2259125
1679993518431,1173506782830791,0.51919997,-0.01595,-0.210925
1679993518432,1173506785333175,0.511225,0.00605,-0.1989625
1679993518434,1173506787835305,0.4962375,0.0290125,-0.1978625
1679993518436,1173506790337228,0.4712125,0.0449625,-0.2008875
1679993518438,1173506792839382,0.4461875,0.0570625,-0.2149125
1679993518440,1173506795341459,0.4082375,0.07205,-0.2369125
1679993518443,1173506797843613,0.3782625,0.086075,-0.2619375
1679993518449,1173506800345859,0.3471875,0.095975,-0.287925
1679993518450,1173506802847936,0.3111625,0.113025,-0.3179
1679993518451,1173506805349859,0.280225,0.1340625,-0.347875
1679993518452,1173506807852013,0.24915,0.1610125,-0.36795
1679993518455,1173506810354180,0.2231625,0.194975,-0.38885
1679993518458,1173506812856334,0.1992375,0.238975,-0.402875
1679993518460,1173506815358411,0.1742125,0.284075,-0.41593748
1679993518465,1173506817860565,0.153175,0.3339875,-0.42185
1679993518466,1173506820362464,0.13213749,0.3870625,-0.42295
1679993518468,1173506822864618,0.11715,0.4439875,-0.4169
1679993518471,1173506825367003,0.1032625,0.491975,-0.4068625
1679993518473,1173506827868926,0.09625,0.537075,-0.391875
1679993518475,1173506830371003,0.089237496,0.586025,-0.36795
1679993518478,1173506832873171,0.087175,0.6400625,-0.336875
1679993518484,1173506835375325,0.089237496,0.6950625,-0.3029125
1679993518484,1173506837877248,0.0902,0.751025,-0.2589125
1679993518485,1173506840379402,0.0902,0.812075,-0.2118875
1679993518487,1173506842881580,0.09625,0.865975,-0.1568875
1679993518490,1173506845383734,0.1012,0.9180875,-0.0988625
1679993518493,1173506847885888,0.104225,0.966075,-0.0429
1679993518497,1173506850387965,0.115225,1.0000376,0.0081124995
1679993518499,1173506852890090,0.1192125,1.02905,0.0551375
1679993518500,1173506855392013,0.1252625,1.048025,0.098037496
1679993518504,1173506857894397,0.1351625,1.0500875,0.13213749
1679993518506,1173506860396320,0.1461625,1.0440375,0.152075
1679993518508,1173506862898474,0.15619999,1.0239625,0.163075
1679993518510,1173506865400546,0.1662375,0.99605,0.1681625
1679993518514,1173506867902700,0.1782,0.957,0.1551
1679993518515,1173506870404623,0.1871375,0.9139625,0.1291125
1679993518518,1173506872906777,0.20019999,0.872025,0.0961125
1679993518520,1173506875409122,0.2151875,0.8259625,0.048125
1679993518523,1173506877911045,0.2292125,0.777975,-0.0078375
1679993518525,1173506880413198,0.241175,0.729025,-0.06985
1679993518528,1173506882915275,0.230175,0.6120125,-0.1439625
1679993518533,1173506885417425,0.1681625,0.3100625,-0.23485
1679993518534,1173506887919348,0.0551375,-0.122925,-0.32395
1679993518535,1173506890421733,-0.0708125,-0.45595,-0.4178625
1679993518539,1173506892923887,-0.16885,-0.5460125,-0.518925
1679993518542,1173506895425795,-0.2327875,-0.5069625,-0.6259
1679993518549,1173506897927872,-0.275825,-0.4800125,-0.74593747
1679993518549,1173506900430026,-0.3128125,-0.5069625,-0.859925
1679993518550,1173506902932180,-0.3498,-0.5680125,-0.9689625
1679993518551,1173506905434103,-0.4027375,-0.617925,-1.0769
1679993518553,1173506907936468,-0.46475,-0.6109125,-1.16985
1679993518555,1173506910438391,-0.53185,-0.5270375,-1.2529
1679993518557,1173506912940545,-0.5957875,-0.3950375,-1.326875
1679993518560,1173506915442699,-0.6598625,-0.23595,-1.3888875
1679993518564,1173506917944800,-0.7148625,-0.07095,-1.44595
1679993518565,1173506920446954,-0.7577625,0.0900625,-1.48995
1679993518568,1173506922949108,-0.7968125,0.234025,-1.5189625
1679993518570,1173506925451261,-0.82774997,0.372075,-1.5428874
1679993518573,1173506927953199,-0.8548375,0.4959625,-1.5498999
1679993518575,1173506930455352,-0.8738125,0.6120125,-1.5478375
1679993518584,1173506932957506,-0.88275,0.722975,-1.5368375
1679993518585,1173506935459583,-0.88577497,0.8380625,-1.5129125
1679993518586,1173506938136824,-0.88275,0.944075,-1.4839
1679993518588,1173506940463901,-0.8738125,1.0529749,-1.4438875
1679993518589,1173506942966055,-0.86185,1.1559625,-1.392875
1679993518590,1173506945467978,-0.836825,1.239975,-1.3278375
1679993518593,1173506947970132,-0.803825,1.3019875,-1.2529
1679993518600,1173506950472218,-0.7678,1.342,-1.1709499
1679993518601,1173506952974371,-0.725725,1.3580875,-1.0949125
1679993518603,1173506955476525,-0.6798,1.3490125,-1.0099375
1679993518604,1173506957978679,-0.6347,1.3211,-0.9249625
1679993518605,1173506960480833,-0.5907,1.2750375,-0.8419125
1679993518607,1173506962982756,-0.5487625,1.219075,-0.754875
1679993518610,1173506965484833,-0.505725,1.1490875,-0.6678375
1679993518619,1173506967986987,-0.4637875,1.078,-0.584925
1679993518620,1173506970489204,-0.423775,0.993025,-0.5069625
1679993518622,1173506972991281,-0.38279998,0.89608747,-0.4409625
1679993518623,1173506975493434,-0.340725,0.7849875,-0.38885
1679993518624,1173506977995358,-0.29975,0.6749875,-0.3389375
1679993518625,1173506980497511,-0.26675,0.5570125,-0.3029125
1679993518627,1173506982999593,-0.236775,0.429,-0.28187498
1679993518630,1173506985501747,-0.2127125,0.297,-0.2718375
1679993518633,1173506988003978,-0.20075,0.146025,-0.2748625
1679993518635,1173506990506055,-0.192775,-0.0149875,-0.28985
1679993518637,1173506993008218,-0.1848,-0.1989625,-0.3158375
1679993518640,1173506995510141,-0.192775,-0.403975,-0.3509
1679993518643,1173506998012295,-0.2057,-0.641025,-0.3928375
1679993518645,1173507000514449,-0.2248125,-0.909975,-0.4398625
1679993518648,1173507003016602,-0.264825,-1.1950125,-0.48894998
1679993518650,1173507005518660,-0.32175,-1.4559875,-0.5489
1679993518654,1173507008020814,-0.3817,-1.6709,-0.606925
1679993518656,1173507010522968,-0.4477,-1.829025,-0.6678375
1679993518659,1173507013024891,-0.5157625,-1.9449375,-0.7349375
1679993518660,1173507015527045,-0.5867125,-2.01795,-0.8028625
1679993518663,1173507018029199,-0.660825,-2.0609875,-0.8688625
1679993518665,1173507020531353,-0.7247625,-2.0849125,-0.93995
1679993518667,1173507023033430,-0.786775,-2.086975,-1.0069125
1679993518670,1173507025535583,-0.8427375,-2.071025,-1.0729125
1679993518673,1173507028037742,-0.8947125,-2.0519125,-1.13795
1679993518675,1173507030539665,-0.9398125,-2.024,-1.194875
1679993518678,1173507033041819,-0.9757,-1.9679,-1.2379125
1679993518680,1173507035543973,-1.006775,-1.8869125,-1.2618375
1679993518683,1173507038046132,-1.028775,-1.7879125,-1.2659625
1679993518685,1173507040548209,-1.0428,-1.6779125,-1.24685
1679993518688,1173507043050363,-1.0467875,-1.5498999,-1.21385
1679993518692,1173507045552526,-1.039775,-1.4199625,-1.1669625
1679993518694,1173507048054679,-1.023825,-1.290025,-1.1108625
1679993518696,1173507050556602,-0.9988,-1.1719126,-1.0459625
1679993518699,1173507053058756,-0.95975,-1.056,-0.9739125
1679993518700,1173507055560833,-0.9147875,-0.9579625,-0.9018625
1679993518707,1173507058062992,-0.86075,-0.88495,-0.83187497
1679993518707,1173507060565146,-0.8047875,-0.8229375,-0.7618875
1679993518708,1173507063067300,-0.7458,-0.7649125,-0.6958875
1679993518710,1173507065569223,-0.68076247,-0.7099125,-0.62796247
1679993518713,1173507068071386,-0.6197125,-0.6609625,-0.5619625
1679993518715,1173507070573540,-0.5597625,-0.617925,-0.4978875
1679993518718,1173507073075617,-0.494725,-0.586025,-0.43395
1679993518720,1173507075577770,-0.429825,-0.562925,-0.3768875
1679993518723,1173507078079934,-0.3647875,-0.553025,-0.32395
1679993518725,1173507080582088,-0.3067625,-0.5489,-0.2809125
1679993518729,1173507083084242,-0.24475,-0.5599,-0.2539625
1679993518733,1173507085586165,-0.19373749,-0.5729625,-0.2388375
1679993518737,1173507088088309,-0.1467125,-0.594,-0.2429625
1679993518737,1173507090590386,-0.109725,-0.63195,-0.2589125
1679993518740,1173507093092540,-0.0847,-0.6689375,-0.2828375
1679993518743,1173507095594694,-0.073699996,-0.727925,-0.31295
1679993518745,1173507098485223,-0.0727375,-0.7929625,-0.33495
1679993518747,1173507100598992,-0.0847,-0.8679,-0.3598375
1679993518749,1173507103100915,-0.10175,-0.953975,-0.3768875
1679993518751,1173507105602992,-0.1287,-1.046925,-0.3848625
1679993518754,1173507108105146,-0.154825,-1.145925,-0.3909125
1679993518755,1173507110607353,-0.1848,-1.2439625,-0.3848625
1679993518758,1173507113109430,-0.2138125,-1.3409,-0.3729
1679993518761,1173507115611584,-0.241725,-1.4289,-0.3609375
1679993518763,1173507118113507,-0.2677125,-1.5019125,-0.3378375
1679993518767,1173507120615680,-0.280775,-1.5599375,-0.3048375
1679993518769,1173507123117757,-0.28875,-1.606,-0.26895
1679993518770,1173507125619987,-0.2987875,-1.6339124,-0.232925
1679993518773,1173507128122141,-0.3037375,-1.6379,-0.1948375
1679993518775,1173507130624218,-0.31075,-1.635975,-0.15785
1679993518778,1173507133126155,-0.3117125,-1.620025,-0.1329625
1679993518780,1173507135628309,-0.3128125,-1.587025,-0.1109625
1679993518784,1173507138130463,-0.3117125,-1.5439875,-0.100925
1679993518785,1173507140632617,-0.3058,-1.488025,-0.0939125
1679993518788,1173507143134771,-0.297825,-1.426975,-0.09185
1679993518791,1173507145636881,-0.2787125,-1.3589125,-0.09185
1679993518793,1173507148139035,-0.25575,-1.294975,-0.0939125
1679993518795,1173507150640958,-0.225775,-1.2299374,-0.0939125
1679993518797,1173507153143112,-0.1887875,-1.1589875,-0.0999625
1679993518800,1173507155645280,-0.1478125,-1.09395,-0.0988625
1679993518807,1173507158147434,-0.104775,-1.037025,-0.100925
1679993518807,1173507160649511,-0.0587125,-0.98395,-0.0979
1679993518808,1173507163151665,-0.010725,-0.9339,-0.089925
1679993518810,1173507165653838,0.0352,-0.883025,-0.08085
1679993518813,1173507168155761,0.0842875,-0.8369625,-0.0719125
1679993518815,1173507170657915,0.1302125,-0.79695,-0.0578875
1679993518820,1173507173160068,0.1722875,-0.7689,-0.0438625
1679993518821,1173507175662222,0.2151875,-0.7489625,-0.02585
1679993518824,1173507178164376,0.2563,-0.738925,-0.00495
1679993518825,1173507180666453,0.2982375,-0.7269625,0.0240625
1679993518828,1173507183168607,0.341275,-0.71596247,0.0540375
1679993518830,1173507185670530,0.3911875,-0.71802497,0.0801625
1679993518834,1173507188172665,0.4543,-0.7129375,0.098037496
1679993518835,1173507190674819,0.51919997,-0.689975,0.114125
1679993518838,1173507193176973,0.5812125,-0.6549125,0.120037496
1679993518842,1173507195679126,0.63525,-0.60995,0.11605
1679993518844,1173507198181203,0.6743,-0.561,0.1111
1679993518846,1173507200683126,0.698225,-0.528,0.1040875
1679993518848,1173507203185280,0.7112875,-0.518925,0.09515
1679993518850,1173507205687665,0.7132125,-0.5269,0.0930875
1679993518857,1173507208189579,0.698225,-0.55495,0.0891
1679993518862,1173507210691733,0.6743,-0.5869875,0.0820875
1679993518862,1173507213193810,0.64625,-0.6230125,0.078099996
1679993518862,1173507215695964,0.6111875,-0.6499625,0.0790625
1679993518863,1173507218197902,0.5732375,-0.67595,0.081125
1679993518865,1173507220700056,0.5372125,-0.694925,0.08305
1679993518868,1173507223202440,0.5102625,-0.69795,0.0891
1679993518870,1173507225704363,0.48125,-0.6969875,0.0930875
1679993518873,1173507228206425,0.4522375,-0.689975,0.0961125
1679993518875,1173507230708579,0.4323,-0.6769125,0.098037496
1679993518879,1173507233210733,0.41525,-0.6639875,0.09515
1679993518882,1173507235712656,0.4002625,-0.64295,0.0881375
1679993518884,1173507238215061,0.3872,-0.6169625,0.078099996
1679993518885,1173507240716984,0.3752375,-0.5819,0.0600875
1679993518887,1173507243219137,0.362175,-0.5429875,0.039049998
1679993518891,1173507245721291,0.3542,-0.498025,0.013062499
1679993518893,1173507248223368,0.3452625,-0.4389,-0.01485
1679993518895,1173507250725541,0.3361875,-0.3669875,-0.0438625
1679993518899,1173507253227695,0.3282125,-0.2739,-0.0719125
1679993518900,1173507255729618,0.3172125,-0.1720125,-0.094875
1679993518905,1173507258231772,0.3042875,-0.0559625,-0.1199
1679993518905,1173507260733936,0.2921875,0.0620125,-0.138875
1679993518908,1173507263236013,0.2783,0.1860375,-0.15895
1679993518910,1173507265738167,0.269225,0.315975,-0.177925
1679993518913,1173507268240320,0.263175,0.44605,-0.1929125
1679993518917,1173507270742488,0.26221249,0.5790125,-0.2039125
1679993518919,1173507273244411,0.2732125,0.7000125,-0.2168375
1679993518922,1173507275746488,0.3003,0.803,-0.22687499
1679993518924,1173507278248642,0.3312375,0.8921,-0.2319625
1679993518926,1173507280750873,0.36519998,0.968,-0.23485
1679993518928,1173507283252987,0.4052125,1.0351,-0.2409
1679993518930,1173507285755141,0.4461875,1.0960125,-0.2418625
1679993518933,1173507288257064,0.483175,1.1451,-0.243925
1679993518935,1173507290759218,0.5203,1.180025,-0.2399375
1679993518938,1173507293261348,0.5561875,1.199,-0.2319625
1679993518940,1173507295763502,0.5842375,1.2020249,-0.2259125
1679993518943,1173507298265656,0.6122875,1.1840125,-0.2168375
1679993518945,1173507300767733,0.6312625,1.1510125,-0.2118875
1679993518948,1173507303269887,0.6472125,1.10605,-0.2079
1679993518950,1173507305771810,0.6512,1.054075,-0.2118875
1679993518955,1173507308273964,0.6502375,0.9939875,-0.2149125
1679993518956,1173507310776118,0.6392375,0.9290875,-0.21395
1679993518958,1173507313278272,0.6282375,0.858,-0.2209625
1679993518960,1173507315780335,0.61325,0.792,-0.2228875
1679993518963,1173507318282488,0.5902875,0.7170625,-0.2278375
1679993518965,1173507320784642,0.5732375,0.6400625,-0.2338875
1679993518968,1173507323286565,0.555225,0.56705,-0.237875
1679993518970,1173507325788719,0.5341875,0.50105,-0.24887499
1679993518973,1173507328290849,0.5152125,0.44605,-0.259875
1679993518975,1173507330793003,0.5011875,0.4081,-0.27995
1679993518978,1173507333295080,0.4862,0.3840375,-0.2949375
1679993518980,1173507335797234,0.4742375,0.363,-0.31295
1679993518983,1173507338299382,0.4681875,0.355025,-0.32285
1679993518985,1173507340801306,0.462275,0.3540625,-0.32793748
1679993518988,1173507343303382,0.4571875,0.35901248,-0.3359125
1679993518992,1173507345805618,0.4522375,0.363,-0.33385
1679993518995,1173507348307772,0.445225,0.366025,-0.32395
1679993518996,1173507350809849,0.4412375,0.372075,-0.3089625
1679993518998,1173507353312003,0.4442625,0.3810125,-0.29095
1679993519001,1173507355813926,0.44027498,0.392975,-0.2729375
1679993519005,1173507358316055,0.4412375,0.40507498,-0.2558875
1679993519006,1173507360818209,0.4442625,0.4230875,-0.2429625
1679993519008,1173507363320363,0.4472875,0.447975,-0.232925
1679993519010,1173507365822516,0.450175,0.4741,-0.2228875
1679993519016,1173507368324617,0.461175,0.4961,-0.210925
1679993519022,1173507370826540,0.4791875,0.528,-0.2099625
1679993519024,1173507373328704,0.4962375,0.553025,-0.21395
1679993519024,1173507375831089,0.5182375,0.575025,-0.2149125
1679993519024,1173507378333012,0.5432625,0.58905,-0.2189
1679993519025,1173507380835166,0.5622375,0.592075,-0.2228875
1679993519030,1173507383337243,0.5812125,0.5979875,-0.22385
1679993519033,1173507385839397,0.5973,0.597025,-0.2259125
1679993519035,1173507388341560,0.604175,0.5869875,-0.22385
1679993519037,1173507390843484,0.6072,0.5680125,-0.221925
1679993519039,1173507393345868,0.6092625,0.5460125,-0.22495
1679993519041,1173507395847791,0.6072,0.5240125,-0.2259125
1679993519043,1173507398349945,0.6072,0.5000875,-0.22687499
1679993519045,1173507400852051,0.6072,0.4800125,-0.22893749
1679993519048,1173507403354205,0.610225,0.465025,-0.2319625
1679993519051,1173507405856128,0.6122875,0.454025,-0.23485
1679993519053,1173507408358513,0.6172375,0.44,-0.2388375
1679993519056,1173507410860421,0.6182,0.4329875,-0.2429625
1679993519059,1173507413362575,0.6193,0.4191,-0.2479125
1679993519060,1173507415864728,0.6202625,0.407,-0.2519
1679993519063,1173507418366805,0.616275,0.3950375,-0.2528625
1679993519067,1173507420868945,0.6062375,0.3810125,-0.254925
1679993519068,1173507423370868,0.594275,0.36905,-0.254925
1679993519070,1173507425873253,0.5842375,0.35805,-0.2558875
1679993519073,1173507428375176,0.5702125,0.350075,-0.2638625
1679993519075,1173507430877330,0.560175,0.3421,-0.2718375
1679993519078,1173507433379469,0.5512375,0.3480125,-0.2778875
1679993519080,1173507435881546,0.5432625,0.35805,-0.2888875
1679993519083,1173507438383469,0.538175,0.377025,-0.2998875
1679993519085,1173507440885853,0.5341875,0.40507498,-0.31295
1679993519088,1173507443388002,0.5313,0.4329875,-0.3268375
1679993519090,1173507445889925,0.5292375,0.4690125,-0.3488375
1679993519093,1173507448392079,0.5292375,0.502975,-0.3689125
1679993519095,1173507450894156,0.5341875,0.526075,-0.3878875
1679993519098,1173507453396277,0.5412,0.546975,-0.4049375
1679993519100,1173507455898508,0.54821247,0.5710375,-0.4098875
1679993519104,1173507458400585,0.5622375,0.58905,-0.4208875
1679993519107,1173507460902738,0.5762625,0.597025,-0.4269375
1679993519108,1173507463404661,0.5952375,0.61105,-0.4318875
1679993519111,1173507465906824,0.610225,0.62205,-0.4368375
1679993519113,1173507468408901,0.621225,0.6290625,-0.4368375
1679993519117,1173507470911055,0.63621247,0.63305,-0.4459125
1679993519118,1173507473413209,0.64625,0.6430875,-0.446875
1679993519122,1173507475915354,0.654225,0.6529875,-0.4478375
1679993519123,1173507478417277,0.66316247,0.667975,-0.44288749
1679993519125,1173507480919431,0.670175,0.689975,-0.4459125
1679993519128,1173507483421585,0.6832375,0.71005,-0.4409625
1679993519130,1173507485923623,0.69025,0.724075,-0.4299625
1679993519134,1173507488425776,0.7052375,0.726,-0.41387498
1679993519136,1173507490927930,0.72214997,0.7170625,-0.3969625
1679993519140,1173507493430084,0.73425,0.696025,-0.37785
1679993519142,1173507495932017,0.7382375,0.6639875,-0.3609375
1679993519146,1173507498434171,0.74415,0.623975,-0.3438875
1679993519147,1173507501038094,0.7431875,0.5839625,-0.32395
1679993519149,1173507503438479,0.7282,0.5399625,-0.3048375
1679993519153,1173507505940541,0.7132125,0.4989875,-0.2858625
1679993519154,1173507508442694,0.6972625,0.4610375,-0.2718375
1679993519156,1173507510944618,0.6711375,0.421025,-0.259875
1679993519158,1173507513446771,0.6472125,0.3859625,-0.2519
1679993519160,1173507515949156,0.62315,0.3540625,-0.2409
1679993519163,1173507518451065,0.6032125,0.31405,-0.232925
1679993519166,1173507520953142,0.57722497,0.271975,-0.2278375
1679993519168,1173507523455296,0.5522,0.238975,-0.22687499
1679993519170,1173507525957450,0.5281375,0.2050125,-0.2189
1679993519173,1173507528459382,0.50215,0.176,-0.2179375
1679993519176,1173507530961766,0.4772625,0.1549625,-0.2168375
1679993519180,1173507533463690,0.4552625,0.150975,-0.215875
1679993519184,1173507535964762,0.4351875,0.14905,-0.2179375
1679993519184,1173507538465839,0.4192375,0.146025,-0.22385
1679993519186,1173507540970070,0.40315,0.14905,-0.22893749
1679993519188,1173507543472224,0.3892625,0.1610125,-0.2338875
1679993519190,1173507545974147,0.38115,0.179025,-0.2388375
1679993519193,1173507548476301,0.379225,0.198,-0.2418625
1679993519196,1173507550978455,0.379225,0.2270125,-0.24695
1679993519198,1173507553480609,0.3832125,0.2600125,-0.2519
1679993519200,1173507555982686,0.390225,0.295075,-0.2638625
1679993519203,1173507558484839,0.3982,0.3370125,-0.2778875
1679993519205,1173507560986758,0.40425,0.3779875,-0.28985
1679993519208,1173507563489142,0.40713748,0.416075,-0.3059375
1679993519210,1173507565991296,0.4021875,0.44605,-0.32285
1679993519213,1173507568493219,0.3991625,0.465025,-0.34485
1679993519217,1173507570995281,0.3862375,0.480975,-0.36987498
1679993519220,1173507573497435,0.3741375,0.495,-0.391875
1679993519223,1173507575999589,0.36313748,0.50105,-0.4098875
1679993519225,1173507578501743,0.3551625,0.5000875,-0.4288625
1679993519226,1173507581003896,0.351175,0.49101248,-0.4409625
1679993519228,1173507583505806,0.3532375,0.4860625,-0.4538875
1679993519230,1173507586007959,0.35915,0.473,-0.46585
1679993519233,1173507588510036,0.36313748,0.44605,-0.4739625
1679993519236,1173507591012190,0.368225,0.40507498,-0.4739625
1679993519238,1173507593514344,0.3741375,0.3480125,-0.468875
1679993519240,1173507596016498,0.38115,0.2979625,-0.45787498
1679993519243,1173507598518421,0.379225,0.251075,-0.4499
1679993519246,1173507601020575,0.3752375,0.1860375,-0.4398625
1679993519248,1173507603522734,0.3661625,0.1280125,-0.4318875
1679993519251,1173507606024811,0.3562625,0.0930875,-0.4178625
1679993519255,1173507608526964,0.3441625,0.066,-0.38995
1679993519257,1173507611029118,0.335225,0.0559625,-0.364925
1679993519259,1173507613531267,0.3212,0.0559625,-0.336875
1679993519263,1173507616033190,0.318175,0.0699875,-0.3048375
1679993519264,1173507618535344,0.3301375,0.0950125,-0.2748625
1679993519267,1173507621037498,0.351175,0.1230625,-0.2498375
1679993519269,1173507623539575,0.3872,0.172975,-0.2308625
1679993519270,1173507626041753,0.4302375,0.229075,-0.2149125
1679993519273,1173507628543907,0.48125,0.2910875,-0.20487499
1679993519276,1173507631046060,0.5372125,0.35805,-0.20295
1679993519278,1173507633547983,0.593175,0.4230875,-0.2079
1679993519280,1173507636050122,0.64625,0.4970625,-0.21395
1679993519283,1173507638552199,0.69519997,0.5740625,-0.22687499
1679993519285,1173507641054353,0.736175,0.6450125,-0.2509375
1679993519288,1173507643556507,0.76615,0.7079875,-0.276925
1679993519293,1173507646058642,0.7871875,0.766975,-0.3069
1679993519296,1173507648560796,0.797225,0.8130375,-0.3499375
1679993519299,1173507653562719,0.7951625,0.850025,-0.3909125
1679993519300,1173507653665488,0.7832,0.876975,-0.44288749
1679993519306,1173507656289811,0.7651875,0.88,-0.49995
1679993519308,1173507658737195,0.731225,0.86405,-0.5528875
1679993519308,1173507661071349,0.6942375,0.8300875,-0.6078875
1679993519309,1173507663573426,0.6491375,0.788975,-0.65793747
1679993519312,1173507666075349,0.5971625,0.7379625,-0.6958875
1679993519314,1173507668577503,0.5512375,0.6760875,-0.7209125
1679993519316,1173507671079637,0.5082,0.62205,-0.7398875
1679993519318,1173507673581714,0.4681875,0.5630625,-0.7539125
1679993519322,1173507676083945,0.4291375,0.498025,-0.7579
1679993519323,1173507678586022,0.39214998,0.4360125,-0.7588625
1679993519326,1173507681088175,0.34925,0.39105,-0.7649125
1679993519330,1173507683590127,0.29425,0.3480125,-0.7698625
1679993519334,1173507686092281,0.2332,0.2789875,-0.7689
1679993519335,1173507688594435,0.1782,0.201025,-0.7569375
1679993519337,1173507691096599,0.120175,0.1170125,-0.7398875
1679993519340,1173507693598676,0.0551375,0.0240625,-0.7148625
1679993519343,1173507696100830,-0.00275,-0.0639375,-0.6879125
1679993519344,1173507698602984,-0.05775,-0.154,-0.661925
1679993519347,1173507701104907,-0.1148125,-0.2380125,-0.6259
1679993519348,1173507703607080,-0.170775,-0.31295,-0.5819
1679993519352,1173507706109157,-0.22275,-0.3669875,-0.5399625
1679993519353,1173507708611387,-0.2657875,-0.4109875,-0.5009125
1679993519356,1173507711113464,-0.297825,-0.447975,-0.45787498
1679993519358,1173507713615618,-0.324775,-0.45595,-0.41593748
1679993519362,1173507716117743,-0.3378375,-0.463925,-0.3818375
1679993519363,1173507718619666,-0.3458125,-0.4580125,-0.3469125
1679993519367,1173507721121820,-0.34485,-0.432025,-0.3069
1679993519369,1173507723623959,-0.335775,-0.396,-0.26785
1679993519371,1173507726126113,-0.308825,-0.3419625,-0.232925
1679993519373,1173507728628189,-0.2718375,-0.2820125,-0.19195
1679993519376,1173507731130113,-0.22275,-0.20693749,-0.1568875
1679993519379,1173507733632488,-0.1648625,-0.1280125,-0.1199
1679993519381,1173507736134642,-0.0947375,-0.0430375,-0.0829125
1679993519383,1173507738636565,-0.02585,0.0490875,-0.050875
1679993519385,1173507741138642,0.0462,0.1390125,-0.0199375
1679993519388,1173507743640796,0.1142625,0.22605,0.0050875
1679993519391,1173507746142935,0.1821875,0.3020875,0.02915
1679993519393,1173507748644858,0.2402125,0.363,0.048125
1679993519395,1173507751147242,0.2921875,0.4140125,0.0691625
1679993519398,1173507753649166,0.3282125,0.454025,0.0801625
1679993519401,1173507756151319,0.3542,0.4860625,0.0891
1679993519405,1173507758653416,0.3691875,0.502975,0.097075
1679993519407,1173507761155570,0.3782625,0.5099875,0.10505
1679993519409,1173507763657724,0.38115,0.504075,0.108075
1679993519411,1173507766159878,0.3741375,0.484,0.108075
1679993519414,1173507768661810,0.3642375,0.4409625,0.1101375
1679993519416,1173507771163964,0.3551625,0.3980625,0.1131625
1679993519418,1173507773666118,0.33825,0.3430625,0.120037496
1679993519421,1173507776168195,0.3202375,0.282975,0.12815
1679993519423,1173507778670358,0.29425,0.2190375,0.1401125
1679993519425,1173507781172512,0.2652375,0.14905,0.16005
1679993519428,1173507783674666,0.23815,0.0900625,0.18205
1679993519431,1173507786176820,0.2121625,0.0400125,0.213125
1679993519433,1173507788678738,0.1852125,-0.0070125,0.2440625
1679993519436,1173507791180892,0.1672,-0.0479875,0.27005
1679993519438,1173507793682969,0.15125,-0.0829125,0.290125
1679993519443,1173507796185123,0.1431375,-0.1109625,0.3020875
1679993519445,1173507798687277,0.137225,-0.132,0.3100625
1679993519447,1173507801189430,0.1342,-0.144925,0.3210625
1679993519449,1173507803691354,0.13213749,-0.154,0.3290375
1679993519451,1173507806193507,0.12925,-0.1439625,0.3381125
1679993519454,1173507808695584,0.13213749,-0.1249875,0.3521375
1679993519455,1173507811197738,0.126225,-0.10395,0.3601125
1679993519459,1173507813699969,0.126225,-0.069025,0.3641
1679993519462,1173507816202046,0.1232,-0.018975,0.3711125
1679993519464,1173507818704229,0.120175,0.0339625,0.3771625
1679993519466,1173507821206152,0.1252625,0.0950125,0.3840375
1679993519468,1173507823708306,0.1211375,0.1720125,0.3861
1679993519472,1173507826210383,0.120175,0.2459875,0.3851375
1679993519473,1173507828712560,0.11715,0.3240875,0.3821125
1679993519476,1173507831214791,0.1082125,0.403975,0.3861
1679993519482,1173507833716868,0.1032625,0.491975,0.3771625
1679993519492,1173507836218791,0.098175,0.5930375,0.3650625
1679993519492,1173507838720954,0.09625,0.7049625,0.35805
1679993519492,1173507841223108,0.1021625,0.8149625,0.3441625
1679993519492,1173507843725185,0.109175,0.9010375,0.3301375
1679993519492,1173507846227416,0.100237496,0.933075,0.3240875
1679993519493,1173507848729493,0.0902,0.911075,0.31405
1679993519495,1173507851231617,0.0801625,0.872025,0.2971375
1679993519499,1173507853733771,0.0771375,0.8380625,0.284075
1679993519501,1173507856235694,0.0771375,0.7990125,0.26015
1679993519503,1173507858737848,0.08525,0.7440125,0.2281125
1679993519505,1173507861239940,0.0911625,0.6840625,0.19813749
1679993519508,1173507863742094,0.098175,0.6340125,0.17105
1679993519512,1173507866244248,0.104225,0.5869875,0.141075
1679993519513,1173507868746402,0.109175,0.5429875,0.108075
1679993519517,1173507871248310,0.11715,0.50105,0.0790625
1679993519520,1173507873750464,0.1241625,0.4610375,0.0490875
1679993519522,1173507876252541,0.1362625,0.4200625,0.026124999
1679993519524,1173507878754771,0.1431375,0.366025,0.009075
1679993519525,1173507881256925,0.1491875,0.3020875,-0.0078375
1679993519528,1173507883759022,0.159225,0.2380125,-0.02695
1679993519532,1173507886261176,0.1672,0.172975,-0.039875
1679993519534,1173507888763099,0.17215,0.11,-0.0539
1679993519537,1173507891265253,0.175175,0.036025,-0.061875
1679993519539,1173507893767402,0.1791625,-0.029975,-0.0669625
1679993519542,1173507896269556,0.175175,-0.0950125,-0.067925
1679993519544,1173507898771633,0.17215,-0.1500125,-0.06985
1679993519546,1173507901273786,0.1632125,-0.2039125,-0.06985
1679993519548,1173507903775709,0.15125,-0.25795,-0.0738375
1679993519552,1173507906277877,0.14025,-0.3009875,-0.08195
1679993519555,1173507908780031,0.13213749,-0.3359125,-0.09185
1679993519557,1173507911282185,0.120175,-0.355025,-0.1049125
1679993519559,1173507913784339,0.109175,-0.36795,-0.108899996
1679993519562,1173507916286440,0.10615,-0.364925,-0.11495
1679993519563,1173507918788594,0.109175,-0.3499375,-0.1189375
1679993519565,1173507921290517,0.10725,-0.337975,-0.1208625
1679993519569,1173507923792671,0.1051875,-0.3169375,-0.122925
1679993519572,1173507926294819,0.10725,-0.2919125,-0.1219625
1679993519573,1173507928796973,0.1101375,-0.264,-0.122925
1679993519576,1173507931299050,0.115225,-0.2380125,-0.1238875
1679993519579,1173507933801204,0.1131625,-0.212025,-0.1318625
1679993519582,1173507936303334,0.10725,-0.188925,-0.1329625
1679993519584,1173507938805257,0.1082125,-0.1599125,-0.1379125
1679993519586,1173507941307411,0.10615,-0.128975,-0.144925
1679993519588,1173507943809565,0.1051875,-0.0969375,-0.1519375
1679993519594,1173507946311714,0.1051875,-0.0499125,-0.1519375
1679993519595,1173507948813867,0.109175,9.625E-4,-0.1549625
1679993519597,1173507951315944,0.11825,0.0490875,-0.15895
1679993519599,1173507953817867,0.126225,0.119075,-0.1519375
1679993519602,1173507956320021,0.1381875,0.17105,-0.1439625
1679993519604,1173507958822171,0.1571625,0.2220625,-0.14093749
1679993519606,1173507961324325,0.181225,0.2649625,-0.1329625
1679993519608,1173507963826479,0.203225,0.293975,-0.1219625
1679993519612,1173507966328556,0.2292125,0.3100625,-0.111925
1679993519614,1173507968830791,0.252175,0.3309625,-0.10395
1679993519616,1173507971332867,0.2781625,0.341,-0.0988625
1679993519619,1173507973834791,0.2992,0.33605,-0.09185
1679993519622,1173507976336944,0.3092375,0.32999998,-0.0878625
1679993519623,1173507978839098,0.3221625,0.3210625,-0.0859375
1679993519625,1173507981341175,0.3322,0.315975,-0.083875
1679993519629,1173507983843329,0.3342625,0.30305,-0.0829125
1679993519632,1173507986345483,0.3361875,0.2800875,-0.0859375
1679993519634,1173507988847637,0.3322,0.253,-0.086899996
1679993519636,1173507991349791,0.3282125,0.229075,-0.0848375
1679993519638,1173507993851714,0.318175,0.205975,-0.08195
1679993519641,1173507996353868,0.3081375,0.185075,-0.0829125
1679993519643,1173507998855944,0.3012625,0.168025,-0.0878625
1679993519645,1173508001358142,0.2952125,0.14905,-0.0889625
1679993519648,1173508003860219,0.2861375,0.1329625,-0.0829125
1679993519652,1173508006362373,0.27513748,0.1219625,-0.0749375
1679993519653,1173508008864527,0.2641375,0.1109625,-0.0738375
1679993519655,1173508011366450,0.2512125,0.0919875,-0.0759
1679993519659,1173508013868551,0.2371875,0.0730125,-0.0759
1679993519662,1173508016370782,0.2212375,0.062975,-0.072875
1679993519663,1173508018872935,0.2041875,0.050049998,-0.067925
1679993519667,1173508021375021,0.181225,0.0400125,-0.0518375
1679993519669,1173508023877175,0.15125,0.036025,-0.0248875
1679993519672,1173508026379098,0.11715,0.0620125,0.00715
1679993519674,1173508028881252,0.104225,0.12705,0.0320375
1679993519676,1173508031383329,0.1082125,0.1970375,0.04015
1679993519679,1173508033885565,0.126225,0.271975,0.026124999
1679993519682,1173508036387642,0.148225,0.3290375,-0.0169125
1679993519683,1173508038889796,0.1522125,0.3480125,-0.0719125
1679993519686,1173508041391719,0.142175,0.344025,-0.1219625
1679993519688,1173508043893873,0.1232,0.3290375,-0.1489125
1679993519692,1173508046396026,0.1012,0.32999998,-0.1618375
1679993519694,1173508048898180,0.0812625,0.34705,-0.16885
1679993519696,1173508051400334,0.0592625,0.3680875,-0.16995
1679993519699,1173508053902406,0.0462,0.377025,-0.1659625
1679993519701,1173508056404560,0.0331375,0.3790875,-0.1529
1679993519705,1173508058906714,0.0221375,0.3680875,-0.138875
1679993519707,1173508061408637,0.014162499,0.35901248,-0.1288375
1679993519709,1173508063910714,0.015262499,0.36107498,-0.12485
1679993519712,1173508066412950,0.01815,0.3680875,-0.122925
1679993519714,1173508068915027,0.0061875,0.370975,-0.1219625
1679993519716,1173508071417180,-0.00275,0.3749625,-0.1159125
1679993519718,1173508073919334,-0.0108624995,0.3840375,-0.108899996
1679993519722,1173508076421262,-0.0218625,0.39105,-0.1018875
1679993519723,1173508078923416,-0.0397375,0.4010875,-0.0988625
1679993519726,1173508081425570,-0.0598125,0.403975,-0.0939125
1679993519728,1173508083927724,-0.082775,0.399025,-0.083875
1679993519732,1173508086429854,-0.1117875,0.3859625,-0.0749375
1679993519734,1173508088931931,-0.1408,0.366025,-0.067925
1679993519737,1173508091433854,-0.17379999,0.3430625,-0.058849998
1679993519739,1173508093936008,-0.198825,0.31501248,-0.0529375
1679993519744,1173508096438382,-0.21779999,0.2759625,-0.0548625
1679993519746,1173508101440305,-0.236775,0.22605,-0.05995
1679993519747,1173508101555921,-0.2627625,0.163075,-0.064899996
1679993519749,1173508103944613,-0.286825,0.1010625,-0.0658625
1679993519752,1173508106446704,-0.3058,0.044,-0.0609125
1679993519754,1173508108948627,-0.3298625,-0.0089375,-0.0518375
1679993519756,1173508111450781,-0.3568125,-0.0609125,-0.0339625
1679993519759,1173508113953165,-0.3788125,-0.102025,-0.0119624995
1679993519761,1173508116455089,-0.3917375,-0.1310375,0.0111375
1679993519763,1173508118957180,-0.4057625,-0.161975,0.04015
1679993519766,1173508121459334,-0.412775,-0.1799875,0.0710875
1679993519769,1173508123961488,-0.41181248,-0.1860375,0.097075
1679993519772,1173508126463411,-0.396825,-0.1830125,0.1211375
1679993519774,1173508128965801,-0.379775,-0.1720125,0.147125
1679993519776,1173508131467724,-0.3587375,-0.161975,0.17105
1679993519781,1173508133969878,-0.3317875,-0.143,0.19415
1679993519784,1173508136471955,-0.2968625,-0.1249875,0.21505
1679993519785,1173508139098416,-0.258775,-0.121,0.2410375
1679993519787,1173508141476262,-0.2248125,-0.1079375,0.2630375
1679993519789,1173508143978186,-0.1948375,-0.11,0.284075
1679993519792,1173508146480570,-0.1618375,-0.1219625,0.3020875
1679993519793,1173508148982488,-0.132825,-0.1299375,0.32505
1679993519796,1173508151484642,-0.1098625,-0.1519375,0.3491125
1679993519798,1173508153986796,-0.09075,-0.1819125,0.37015
1679993519802,1173508156488873,-0.0757625,-0.22893749,0.3851375
1679993519804,1173508158990796,-0.0727375,-0.2869625,0.3980625
1679993519806,1173508161493190,-0.0837375,-0.3609375,0.4081
1679993519808,1173508163995343,-0.1057375,-0.4409625,0.411125
1679993519812,1173508166497267,-0.132825,-0.5179625,0.4170375
1679993519813,1173508168999420,-0.1667875,-0.584925,0.4211625
1679993519818,1173508171501531,-0.2047375,-0.6529875,0.4230875
1679993519820,1173508174003685,-0.2388375,-0.73095,0.4211625
1679993519823,1173508176505608,-0.27775,-0.815925,0.4200625
1679993519824,1173508179007993,-0.3128125,-0.891,0.4151125
1679993519826,1173508181510147,-0.3498,-0.9670375,0.41415
1679993519828,1173508184012070,-0.3837625,-1.0319375,0.41415
1679993519832,1173508186514147,-0.41085,-1.0869375,0.41305
1679993519834,1173508189016378,-0.4338125,-1.1339625,0.4151125
1679993519836,1173508191518459,-0.45374998,-1.188,0.411125
1679993519839,1173508194020383,-0.473825,-1.232,0.4120875
1679993519842,1173508196522536,-0.48675,-1.25895,0.4181375
1679993519844,1173508199024690,-0.4967875,-1.268025,0.422125
1679993519846,1173508201526839,-0.495825,-1.2579875,0.4301
1679993519849,1173508204028993,-0.48675,-1.2359875,0.4390375
1679993519852,1173508206531070,-0.47685,-1.195975,0.4481125
1679993519855,1173508209033224,-0.451825,-1.145925,0.4560875
1679993519857,1173508211535397,-0.4137375,-1.0770375,0.4631
1679993519860,1173508214037320,-0.3718,-1.008975,0.4741
1679993519862,1173508216539473,-0.3177625,-0.927025,0.4811125
1679993519864,1173508219041627,-0.2468125,-0.84095,0.4871625
1679993519866,1173508221543781,-0.1777875,-0.76395,0.49005
1679993519868,1173508224045863,-0.104775,-0.68901247,0.49005
1679993519872,1173508226548017,-0.0298375,-0.6169625,0.4860625
1679993519874,1173508229050171,0.038225,-0.539,0.4761625
1679993519876,1173508231552094,0.10615,-0.4519625,0.4640625
1679993519878,1173508234054171,0.175175,-0.34595,0.4521
1679993519882,1173508236556431,0.241175,-0.2179375,0.4291375
1679993519884,1173508239058584,0.2982375,-0.0969375,0.40315
1679993519886,1173508241560661,0.351175,0.0039875,0.36905
1679993519888,1173508244062815,0.3892625,0.0889625,0.3350875
1679993519893,1173508246564728,0.4192375,0.1659625,0.2981
1679993519895,1173508249066882,0.4351875,0.2319625,0.26015
1679993519897,1173508251569036,0.4422,0.2880625,0.2220625
1679993519899,1173508254071205,0.4422,0.333025,0.1871375
1679993519902,1173508256573359,0.43821248,0.355025,0.158125
1679993519904,1173508259075436,0.4272125,0.3620375,0.1260875
1679993519906,1173508261577359,0.406175,0.352,0.09405
1679993519908,1173508264079513,0.3801875,0.328075,0.0691625
1679993519912,1173508266581670,0.3521375,0.2880625,0.042075
1679993519914,1173508269083824,0.3251875,0.2410375,0.0221375
1679993519916,1173508271585978,0.302225,0.17105,0.00605
1679993519920,1173508274088055,0.2732125,0.0999625,1.375E-4
1679993519922,1173508276590209,0.24915,0.02805,-0.001925
1679993519924,1173508279092363,0.2222,-0.03795,-0.0028875
1679993519926,1173508281594286,0.2022625,-0.099,0.0100375
1679993519930,1173508284096671,0.1802625,-0.146025,0.026124999
1679993519933,1173508286598599,0.1571625,-0.187,0.0411125
1679993519935,1173508289100676,0.1342,-0.22,0.064075
1679993519937,1173508291602829,0.115225,-0.2479125,0.0851125
1679993519940,1173508294104983,0.0941875,-0.27995,0.1021625
1679993519943,1173508296606916,0.0752125,-0.308,0.1211375
1679993519945,1173508299109301,0.060225,-0.3249125,0.136125
1679993519947,1173508301611224,0.049225,-0.3339875,0.1480875
1679993519949,1173508304113378,0.04015,-0.34595,0.16115
1679993519952,1173508306615532,0.038225,-0.34595,0.17613749
1679993519954,1173508309117594,0.0342375,-0.3339875,0.1901625
1679993519956,1173508311619747,0.0342375,-0.31295,0.20515
1679993519958,1173508314121671,0.0342375,-0.2789875,0.21807499
1679993519962,1173508316624055,0.038225,-0.2380125,0.2300375
1679993519964,1173508319126012,0.043175,-0.18493749,0.2440625
1679993519968,1173508321628166,0.0471625,-0.120037496,0.2541
1679993519969,1173508324130320,0.0572,-0.0589875,0.2580875
1679993519972,1173508326632397,0.0682,0.0070125,0.26015
1679993519974,1173508329134325,0.0771375,0.0809875,0.2580875
1679993519976,1173508331636710,0.0911625,0.1590875,0.24915
1679993519979,1173508334138863,0.1131625,0.2490125,0.23815
1679993519982,1173508336640787,0.1302125,0.333025,0.2250875
1679993519984,1173508339142940,0.1461625,0.4109875,0.2140875
1679993519986,1173508341645017,0.1681625,0.49101248,0.2091375
1679993519989,1173508344147171,0.17215,0.5539875,0.2061125
1679993519992,1173508346649325,0.15619999,0.5990875,0.18315
1679993519994,1173508349151479,0.1161875,0.60101247,0.1530375
1679993519998,1173508351653628,0.0361625,0.5410625,0.1120625
1679993519999,1173508354155551,-0.06875,0.432025,0.0671
1679993520002,1173508356657628,-0.187825,0.3009875,0.026124999
1679993520005,1173508359159777,-0.29975,0.1780625,-0.0078375
1679993520007,1173508361661930,-0.3917375,0.062975,-0.0358875
1679993520009,1173508364164084,-0.4637875,-0.033,-0.0518375
1679993520012,1173508366666238,-0.5058625,-0.1139875,-0.05995
1679993520014,1173508369168161,-0.5278625,-0.1879625,-0.061875
1679993520016,1173508371670334,-0.5248375,-0.2569875,-0.0578875
1679993520019,1173508374172488,-0.495825,-0.31295,-0.0559625
1679993520021,1173508376674565,-0.4527875,-0.3609375,-0.0539
1679993520023,1173508379176719,-0.3958625,-0.3909125,-0.0539
1679993520026,1173508381678873,-0.3388,-0.408925,-0.056925
1679993520028,1173508384181021,-0.2728,-0.4129125,-0.050875
1679993520032,1173508386682945,-0.214775,-0.414975,-0.047849998
1679993520034,1173508389185098,-0.1618375,-0.4280375,-0.0449625
1679993520037,1173508391687161,-0.12485,-0.4569125,-0.039875
1679993520039,1173508394189315,-0.1057375,-0.487025,-0.03795
1679993520043,1173508396691469,-0.0988625,-0.5229125,-0.034925
1679993520045,1173508399193623,-0.104775,-0.5589375,-0.0319
1679993520047,1173508401695743,-0.121825,-0.5919375,-0.0339625
1679993520048,1173508404197666,-0.1508375,-0.6260375,-0.0328625
1679993520052,1173508406699820,-0.1918125,-0.656975,-0.0298375
1679993520054,1173508409201897,-0.2407625,-0.6939625,-0.028875
1679993520056,1173508411704127,-0.29479998,-0.733975,-0.0389125
1679993520059,1173508414206204,-0.3477375,-0.760925,-0.050875
1679993520062,1173508416708358,-0.3898125,-0.782925,-0.061875
1679993520064,1173508419210281,-0.4137375,-0.782925,-0.0719125
1679993520066,1173508421712666,-0.43285,-0.773025,-0.078925
1679993520069,1173508424214556,-0.4497625,-0.7519875,-0.0859375
1679993520072,1173508426716710,-0.47079998,-0.7239375,-0.0908875
1679993520074,1173508429218787,-0.4928,-0.700975,-0.0908875
1679993520076,1173508431720941,-0.5258,-0.671,-0.09295
1679993520080,1173508434223098,-0.5608625,-0.6469375,-0.09295
1679993520083,1173508436725021,-0.5817625,-0.6219125,-0.0889625
1679993520085,1173508439227175,-0.6037625,-0.595925,-0.0889625
1679993520087,1173508441729329,-0.621775,-0.562925,-0.09185
1679993520089,1173508444231483,-0.627825,-0.53295,-0.09185
1679993520093,1173508446733560,-0.632775,-0.5099875,-0.1018875
1679993520094,1173508449235714,-0.6428125,-0.5020125,-0.117837496
1679993520096,1173508451737637,-0.65381247,-0.487025,-0.1288375
1679993520101,1173508454239989,-0.6568375,-0.4679125,-0.1379125
1679993520103,1173508456741912,-0.6477625,-0.4569125,-0.1419
1679993520106,1173508459244065,-0.638825,-0.44,-0.1519375
1679993520108,1173508461746219,-0.62273747,-0.4170375,-0.15895
1679993520108,1173508464248296,-0.599775,-0.3920125,-0.1659625
1679993520112,1173508466750209,-0.572825,-0.3700125,-0.1758625
1679993520113,1173508469252363,-0.5368,-0.3499375,-0.1859
1679993520117,1173508471754748,-0.49774998,-0.32999998,-0.19085
1679993520120,1173508474256671,-0.4527875,-0.2979625,-0.199925
1679993520122,1173508476758820,-0.4057625,-0.2539625,-0.2008875
1679993520124,1173508479260897,-0.3587375,-0.2080375,-0.199925
1679993520126,1173508481763051,-0.29479998,-0.1599125,-0.1929125
1679993520128,1173508484265204,-0.2267375,-0.120037496,-0.18287499
1679993520132,1173508486767358,-0.1607375,-0.0859375,-0.16995
1679993520134,1173508489269262,-0.095837496,-0.0540375,-0.1519375
1679993520136,1173508491771416,-0.0308,-0.0180125,-0.138875
1679993520140,1173508494273570,0.0221375,0.013062499,-0.12595
1679993520143,1173508496775647,0.0691625,0.0540375,-0.116875
1679993520144,1173508499277772,0.10615,0.0889625,-0.111925
1679993520146,1173508501779926,0.137225,0.1109625,-0.1128875
1679993520149,1173508504282079,0.1582625,0.1280125,-0.111925
1679993520153,1173508506784003,0.1692625,0.1420375,-0.117837496
1679993520156,1173508509286151,0.175175,0.13805,-0.12595
1679993520157,1173508511788305,0.17325,0.139975,-0.1419
1679993520160,1173508514290382,0.1651375,0.1439625,-0.16885
1679993520162,1173508516792536,0.1552375,0.13805,-0.1859
1679993520164,1173508519294690,0.1431375,0.11605,-0.2058375
1679993520166,1173508521796815,0.109175,0.080025,-0.23485
1679993520168,1173508524298738,0.0682,0.0339625,-0.2509375
1679993520172,1173508526800892,0.0221375,-0.018975,-0.26785
1679993520174,1173508529303046,-0.016775,-0.0719125,-0.28187498
1679993520176,1173508531805142,-0.0548625,-0.1299375,-0.2828375
1679993520180,1173508534307296,-0.0848375,-0.18095,-0.2699125
1679993520182,1173508536809450,-0.1087625,-0.2239875,-0.24887499
1679993520184,1173508539311604,-0.13585,-0.2539625,-0.2278375
1679993520186,1173508541813527,-0.159775,-0.2789875,-0.215875
1679993520190,1173508544315680,-0.17875,-0.2930125,-0.215875
1679993520194,1173508546817757,-0.1838375,-0.2979625,-0.2168375
1679993520195,1173508549319911,-0.176825,-0.293975,-0.21395
1679993520197,1173508551822142,-0.1607375,-0.2899875,-0.2039125
1679993520199,1173508554324218,-0.1337875,-0.276925,-0.1879625
1679993520202,1173508556826142,-0.1057375,-0.25795,-0.177925
1679993520205,1173508559328295,-0.0848375,-0.2319625,-0.1648625
1679993520207,1173508561830372,-0.0638,-0.20295,-0.1519375
1679993520209,1173508564332541,-0.044825,-0.1739375,-0.1398375
1679993520212,1173508566834772,-0.022824999,-0.1420375,-0.127875
1679993520214,1173508569336849,-0.00275,-0.113025,-0.1109625
1679993520216,1173508571838772,0.0202125,-0.0779625,-0.0999625
1679993520220,1173508574340926,0.041249998,-0.0389125,-0.09185
1679993520223,1173508576843080,0.060225,-0.0070125,-0.089925
1679993520224,1173508579345234,0.076175,0.031075,-0.09185
1679993520226,1173508581847310,0.08525,0.0620125,-0.095837496
1679993520231,1173508584349506,0.0922625,0.099,-0.1018875
1679993520234,1173508586851583,0.1021625,0.1280125,-0.106837496
1679993520236,1173508589367968,0.10725,0.1549625,-0.1109625
1679993520237,1173508591855660,0.1101375,0.1810875,-0.1159125
1679993520240,1173508594357814,0.115225,0.2099625,-0.1208625
1679993520243,1173508596859939,0.1131625,0.238975,-0.1288375
1679993520244,1173508599362170,0.098175,0.262075,-0.14795
1679993520246,1173508601864247,0.071225,0.275,-0.16885
1679993520249,1173508604366400,0.0372625,0.284075,-0.18095
1679993520252,1173508606868554,-8.25E-4,0.2789875,-0.19085
1679993520254,1173508609370477,-0.0328625,0.2740375,-0.193875
1679993520257,1173508611872631,-0.060775,0.2630375,-0.1929125
1679993520260,1173508614374785,-0.082775,0.238975,-0.19195
1679993520263,1173508616876958,-0.104775,0.22,-0.1859
1679993520264,1173508619379035,-0.11385,0.1989625,-0.177925
1679993520268,1173508621881189,-0.1307625,0.1579875,-0.16885
1679993520269,1173508624383112,-0.14973749,0.1170125,-0.1529
1679993520273,1173508626885290,-0.165825,0.0730125,-0.13695
1679993520274,1173508629387367,-0.17875,0.0270875,-0.117837496
1679993520276,1173508631889597,-0.19085,-0.0169125,-0.0939125
1679993520279,1173508634391751,-0.1958,-0.055,-0.0669625
1679993520282,1173508636893828,-0.1948375,-0.088,-0.036849998
1679993520284,1173508639395747,-0.192775,-0.113025,-0.0089375
1679993520288,1173508641897901,-0.1808125,-0.133925,0.015125
1679993520289,1173508644400055,-0.16775,-0.1519375,0.0380875
1679993520292,1173508646902440,-0.1518,-0.1640375,0.0551375
1679993520294,1173508649404305,-0.1398375,-0.1769625,0.0650375
1679993520297,1173508651906459,-0.12773749,-0.183975,0.0710875
1679993520301,1173508654408612,-0.1167375,-0.188925,0.0741125
1679993520303,1173508656910766,-0.11275,-0.2019875,0.078099996
1679993520306,1173508659412694,-0.1098625,-0.2129875,0.078099996
1679993520308,1173508661914848,-0.104775,-0.2149125,0.0801625
1679993520309,1173508664417002,-0.0988625,-0.22,0.0790625
1679993520313,1173508666919079,-0.099825,-0.2190375,0.081125
1679993520314,1173508669421233,-0.099825,-0.210925,0.086075
1679993520317,1173508671923155,-0.1038125,-0.20295,0.0881375
1679993520320,1173508674425540,-0.1007875,-0.1879625,0.0891
1679993520322,1173508676927463,-0.1057375,-0.177925,0.0891
1679993520324,1173508679429616,-0.110825,-0.1640375,0.092125
1679993520326,1173508681931770,-0.1117875,-0.13695,0.0930875
1679993520329,1173508684433847,-0.115775,-0.1049125,0.0891
1679993520333,1173508686935770,-0.121825,-0.067925,0.0881375
1679993520335,1173508689438155,-0.12375,-0.022,0.0851125
1679993520337,1173508691940333,-0.1208625,0.018975,0.0790625
1679993520340,1173508694442487,-0.1148125,0.062975,0.07205
1679993520345,1173508696944410,-0.1038125,0.106975,0.06215
1679993520347,1173508699445449,-0.0878625,0.1370875,0.0551375
1679993520348,1173508701946488,-0.071775,0.168025,0.050049998
1679993520349,1173508704450761,-0.0507375,0.19607499,0.0441375
1679993520353,1173508706952915,-0.0237875,0.227975,0.0411125
1679993520354,1173508709455069,0.0012375,0.2550625,0.0341
1679993520357,1173508711956992,0.03025,0.278025,0.0301125
1679993520359,1173508714459112,0.0581625,0.30305,0.0270875
1679993520361,1173508716961189,0.0911625,0.3350875,0.0270875
1679993520364,1173508719463343,0.1241625,0.35901248,0.0270875
1679993520366,1173508721965497,0.1552375,0.3840375,0.02805
1679993520371,1173508724467640,0.186175,0.40507498,0.0331375
1679993520373,1173508726969564,0.21615,0.4280375,0.037125
1679993520374,1173508729471717,0.2432375,0.447975,0.0451
1679993520376,1173508731973871,0.2671625,0.4519625,0.0540375
1679993520381,1173508734475929,0.2842125,0.4629625,0.061049998
1679993520384,1173508736978160,0.2982375,0.46805,0.0691625
1679993520385,1173508739681775,0.302225,0.4670875,0.0741125
1679993520388,1173508741982391,0.30415,0.47905,0.081125
1679993520390,1173508744484314,0.3001625,0.4959625,0.087037496
1679993520392,1173508746986478,0.2982375,0.5160375,0.092125
1679993520395,1173508749488555,0.2902625,0.54408747,0.10615
1679993520396,1173508751990708,0.2902625,0.581075,0.1291125
1679993520399,1173508754492862,0.2861375,0.619025,0.1560625
1679993520402,1173508756995016,0.2872375,0.65505,0.185075
1679993520404,1173508759497179,0.2882,0.693,0.2231625
1679993520406,1173508761999102,0.2902625,0.73205,0.27115
1679993520409,1173508764501256,0.2902625,0.77,0.31707498
1679993520413,1173508767003314,0.285175,0.80905,0.37015
1679993520415,1173508769505545,0.2762375,0.8540125,0.422125
1679993520418,1173508772007699,0.2762375,0.900075,0.4701125
1679993520421,1173508774509775,0.280225,0.957,0.5160375
1679993520423,1173508777011699,0.2872375,1.0159875,0.5611375
1679993520425,1173508779513852,0.302225,1.0899625,0.5971625
1679993520427,1173508782015929,0.3212,1.169025,0.6290625
1679993520429,1173508784518083,0.3342625,1.2370875,0.65615
1679993520433,1173508787020314,0.34925,1.3030875,0.6760875
1679993520435,1173508789522367,0.38115,1.373075,0.6950625
1679993520437,1173508792024521,0.4222625,1.4339875,0.7090875
1679993520439,1173508794526444,0.4712125,1.4730375,0.719125
1679993520443,1173508797028598,0.5262125,1.5200624,0.7291625
1679993520444,1173508799530751,0.57915,1.54,0.7401625
1679993520447,1173508802032881,0.6062375,1.51305,0.7451125
1679993520449,1173508804534958,0.6072,1.4180375,0.746075
1679993520454,1173508807037112,0.5852,1.307075,0.7371375
1679993520456,1173508809539266,0.5522,1.2249875,0.719125
1679993520458,1173508812041223,0.5121875,1.140975,0.6870875
1679993520460,1173508814543377,0.4632375,1.0500875,0.6411625
1679993520463,1173508817045454,0.4082375,0.9579625,0.576125
1679993520465,1173508819547685,0.3551625,0.8809625,0.5071
1679993520467,1173508822049762,0.307175,0.821975,0.42405
1679993520470,1173508824551915,0.263175,0.77701247,0.3290375
1679993520472,1173508827054069,0.2242625,0.740025,0.2321
1679993520474,1173508829555992,0.1931875,0.702075,0.1351625
1679993520477,1173508832058069,0.1681625,0.649,0.0361625
1679993520480,1173508834560285,0.15125,0.5979875,-0.061875
1679993520482,1173508837062439,0.1351625,0.539,-0.1549625
1679993520485,1173508839564516,0.126225,0.465025,-0.23485
1679993520488,1173508842066670,0.1232,0.3870625,-0.309925
1679993520489,1173508844568608,0.122237496,0.2930125,-0.37193748
1679993520494,1173508847070762,0.1232,0.1810875,-0.42185
1679993520496,1173508849572915,0.131175,0.0320375,-0.45993748
1679993520498,1173508852075069,0.1452,-0.1860375,-0.4709375
1679993520500,1173508854577227,0.1681625,-0.45993748,-0.45787498
1679993520503,1173508857079304,0.2011625,-0.68901247,-0.4389
1679993520505,1173508859581227,0.2332,-0.8289875,-0.42185
1679993520507,1173508862083381,0.2552,-0.9169875,-0.402875
1679993520509,1173508864585535,0.269225,-0.9579625,-0.3839
1679993520513,1173508867087685,0.2701875,-0.92895,-0.3738625
1679993520514,1173508869589839,0.2671625,-0.8149625,-0.36685
1679993520517,1173508872091916,0.258225,-0.6219125,-0.3598375
1679993520520,1173508874594069,0.2451625,-0.370975,-0.36685
1679993520523,1173508877096232,0.2242625,-0.080025,-0.3839
1679993520525,1173508879598386,0.203225,0.2330625,-0.402875
1679993520528,1173508882100540,0.1821875,0.5289625,-0.430925
1679993520531,1173508884602463,0.1632125,0.7739875,-0.4648875
1679993520534,1173508887104526,0.15015,0.9579625,-0.48894998
1679993520536,1173508889606680,0.1332375,1.078,-0.5049
1679993520552,1173508892108834,0.122237496,1.1570625,-0.5119125
1679993520556,1173508894610987,0.11715,1.22705,-0.501875
1679993520558,1173508897113150,0.1131625,1.272975,-0.4719
1679993520559,1173508899628535,0.1122,1.290025,-0.4239125
1679993520560,1173508902117150,0.1021625,1.2610124,-0.3689125
1679993520561,1173508904619304,0.08525,1.1999625,-0.303875
1679993520563,1173508907249535,0.060225,1.1320375,-0.237875
1679993520564,1173508909623670,0.0251625,1.0880375,-0.16885
1679993520565,1173508912125747,-0.016775,1.1009625,-0.095837496
1679993520566,1173508914627670,-0.058849998,1.158025,-0.0218625
1679993520567,1173508917129824,-0.110825,1.2420375,0.0490875
1679993520568,1173508919631978,-0.1557875,1.3539625,0.12815
1679993520571,1173508922134078,-0.1997875,1.4700125,0.21505
1679993520572,1173508924636309,-0.2398,1.560075,0.3051125
1679993520574,1173508927138386,-0.2728,1.6300625,0.4010875
1679993520575,1173508929640540,-0.2987875,1.701975,0.49307498
1679993520577,1173508932142463,-0.3058,1.747075,0.5861625
1679993520579,1173508934644652,-0.3067625,1.7719625,0.6831
1679993520582,1173508937146729,-0.2957625,1.7760875,0.7800375
1679993520584,1173508939648883,-0.275825,1.763025,0.87615
1679993520587,1173508942151037,-0.2487375,1.7199875,0.9691
1679993520589,1173508944653190,-0.21779999,1.659075,1.0641125
1679993520592,1173508947155344,-0.1747625,1.5769875,1.1540375
1679993520594,1173508949657267,-0.12773749,1.4629999,1.23915
1679993520597,1173508952159421,-0.0727375,1.3050125,1.3201375
1679993520599,1173508954661512,-0.0177375,1.1011,1.39205
1679993520603,1173508957163743,0.0372625,0.878075,1.4551625
1679993520606,1173508959665820,0.089237496,0.6419875,1.5151125
1679993520607,1173508962167974,0.1362625,0.40205,1.5651625
1679993520609,1173508964669897,0.1672,0.168025,1.604075
1679993520612,1173508967172061,0.1711875,-0.0539,1.6330875
1679993520615,1173508969674138,0.12925,-0.3089625,1.6391375
1679993520618,1173508972176368,0.0242,-0.546975,1.62305
1679993520620,1173508974678522,-0.1167375,-0.682,1.60105
1679993520622,1173508977180618,-0.2877875,-0.6809,1.5731375
1679993520624,1173508979682772,-0.478775,-0.616,1.5301
1679993520627,1173508982184695,-0.6898375,-0.5339125,1.4680874
1679993520629,1173508984686849,-0.901725,-0.4829,1.3910875
1679993520633,1173508987188988,-1.0907875,-0.4829,1.31505
1679993520636,1173508989691142,-1.2288375,-0.5159,1.247125
1679993520638,1173508992193219,-1.33375,-0.5339125,1.1891
1679993520639,1173508994695372,-1.4147375,-0.4899125,1.1430374
1679993520643,1173508997197311,-1.4887125,-0.366025,1.10605
1679993520645,1173508999699464,-1.55375,-0.2039125,1.0681
1679993520647,1173509002201618,-1.60875,-0.0259875,1.0220375
1679993520649,1173509004703772,-1.65275,0.152075,0.97405
1679993520652,1173509007205849,-1.6757125,0.3240875,0.92303747
1679993520654,1173509009708012,-1.6908375,0.4989875,0.8680375
1679993520657,1173509012210166,-1.6908375,0.6650875,0.80905
1679993520659,1173509014712089,-1.67475,0.823075,0.73315
1679993520662,1173509017214243,-1.65275,0.9590625,0.6180625
1679993520664,1173509019716320,-1.6148,1.10605,0.4921125
1679993520666,1173509022218550,-1.562825,1.2771,0.3641
1679993520669,1173509024720704,-1.49875,1.4680874,0.24213749
1679993520672,1173509027222781,-1.419825,1.6710374,0.1150875
1679993520674,1173509029724945,-1.32275,1.868075,0.0011
1679993520677,1173509032226868,-1.2078,2.04105,-0.100925
1679993520681,1173509034729022,-1.0758,2.185975,-0.1859
1679993520683,1173509037231176,-0.9218,2.29405,-0.259875
1679993520684,1173509039733325,-0.7517125,2.346025,-0.3218875
1679993520687,1173509042235402,-0.560725,2.3560624,-0.3658875
1679993520689,1173509044737555,-0.3598375,2.3249874,-0.3988875
1679993520692,1173509047239478,-0.142725,2.2600875,-0.4269375
1679993520694,1173509049741632,0.0812625,2.1700249,-0.4478375
1679993520697,1173509052244027,0.3111625,2.0510874,-0.4588375
1679993520699,1173509054745950,0.5412,1.9060249,-0.46585
1679993520702,1173509057248027,0.7722,1.752025,-0.4709375
1679993520704,1173509059750181,1.0022374,1.5720375,-0.4709375
1679993520706,1173509062252335,1.22925,1.3569875,-0.4698375
1679993520709,1173509064754286,1.4482875,1.122,-0.468875
1679993520712,1173509067256440,1.65825,0.8760125,-0.4588375
1679993520714,1173509069758593,1.8602375,0.6309875,-0.4478375
1679993520718,1173509072260747,2.0442126,0.3980625,-0.4299625
1679993520720,1173509074762839,2.20825,0.1970375,-0.4068625
1679993520723,1173509077264993,2.3232,0.020075,-0.3749625
1679993520725,1173509079767147,2.25225,-0.2539625,-0.3378375
1679993520726,1173509082269070,2.2072875,-0.3729,-0.29095
1679993520730,1173509084771455,2.1252,-0.3859625,-0.232925
1679993520735,1173509087273416,1.9732625,-0.3469125,-0.166925
1679993520735,1173509089775570,1.7752625,-0.2589125,-0.0979
1679993520738,1173509092277647,1.5522375,-0.1549625,-0.0328625
1679993520739,1173509094779800,1.3052875,-0.0639375,0.020075
1679993520742,1173509097281719,1.0481625,-0.014025,0.0490875
1679993520744,1173509099783873,0.7992875,-0.0180125,0.075075
1679993520747,1173509102286027,0.5622375,-0.0539,0.09515
1679993520749,1173509104788181,0.33825,-0.1060125,0.1150875
1679993520752,1173509107290242,0.131175,-0.168025,0.13915
1679993520755,1173509109792396,-0.0477125,-0.2270125,0.163075
1679993520757,1173509112294550,-0.1997875,-0.2679875,0.2011625
1679993520759,1173509114796703,-0.3278,-0.3089625,0.2541
1679993520762,1173509117298632,-0.4268,-0.337975,0.323125
1679993520764,1173509119800785,-0.4987125,-0.355025,0.39214998
1679993520767,1173509122302862,-0.5517875,-0.348975,0.4521
1679993520769,1173509124805016,-0.588775,-0.3169375,0.5061375
1679993520772,1173509127307233,-0.6098125,-0.2759625,0.5501375
1679993520774,1173509129809310,-0.6147625,-0.22,0.5801125
1679993520777,1173509132311233,-0.6138,-0.143,0.5960625
1679993520779,1173509134813387,-0.6117375,-0.051975,0.60115
1679993520783,1173509137315541,-0.6128375,0.0490875,0.5941375
1679993520784,1173509139817618,-0.6018375,0.1560625,0.5740625
1679993520787,1173509142319771,-0.5867125,0.28105,0.5421625
1679993520789,1173509144821925,-0.572825,0.4250125,0.5181
1679993520794,1173509147324059,-0.5588,0.5820375,0.49005
1679993520796,1173509149826213,-0.5548125,0.7409875,0.46915
1679993520797,1173509152328136,-0.5578375,0.8850875,0.45815
1679993520800,1173509154830213,-0.5737875,1.004025,0.4521
1679993520803,1173509157332367,-0.6028,1.0940875,0.4560875
1679993520804,1173509159834594,-0.6417125,1.1570625,0.46805
1679993520806,1173509162336671,-0.6887375,1.1891,0.49115
1679993520809,1173509164838824,-0.742775,1.188,0.5201625
1679993520812,1173509167340748,-0.80575,1.15005,0.5501375
1679993520814,1173509169842800,-0.879725,1.070025,0.5831375
1679993520817,1173509172344954,-0.9637375,0.94105,0.6131125
1679993520819,1173509174847185,-1.0657625,0.7800375,0.6430875
1679993520821,1173509177349339,-1.1708125,0.590975,0.6681125
1679993520824,1173509179851435,-1.2838374,0.374,0.68805
1679993520827,1173509182353358,-1.391775,0.1230625,0.708125
1679993520831,1173509184855512,-1.4917375,-0.16293749,0.72008747
1679993520833,1173509187357666,-1.5888125,-0.506,0.724075
1679993520835,1173509189859729,-1.671725,-0.8760125,0.7280625
1679993520837,1173509192361959,-1.738825,-1.2379125,0.730125
1679993520839,1173509194864036,-1.7868125,-1.5899125,0.7401625
1679993520842,1173509197366190,-1.8198125,-1.937925,0.7580375
1679993520844,1173509199868113,-1.8397499,-2.2889626,0.77715
1679993520847,1173509202370258,-1.85075,-2.6519625,0.8001125
1679993520849,1173509204872335,-1.847725,-3.010975,0.8251375
1679993520852,1173509207374566,-1.8338375,-3.366,0.8520875
1679993520854,1173509209876643,-1.804825,-3.696,0.8771125
1679993520857,1173509212378806,-1.7637125,-4.0079875,0.9010375
1679993520859,1173509214880959,-1.7147624,-4.3129625,0.92015
1679993520862,1173509217382882,-1.6647125,-4.62495,0.939125
1679993520864,1173509219884959,-1.6097125,-4.9229126,0.96415
1679993520868,1173509222387113,-1.5488,-5.2009373,0.988075
1679993520870,1173509224889344,-1.4837625,-5.4679623,1.0121375
1679993520872,1173509227391421,-1.4147375,-5.721925,1.0421125
1679993520874,1173509229893580,-1.341725,-5.9690123,1.071125
1679993520876,1173509232395503,-1.26775,-6.1969876,1.10715
1679993520879,1173509234897657,-1.187725,-6.398975,1.1551375
1679993520882,1173509237399734,-1.1087999,-6.5899625,1.2150875
1679993520884,1173509239901964,-1.0247875,-6.776,1.2810875
1679993520887,1173509242404103,-0.940775,-6.9618998,1.3580875
1679993520889,1173509244906180,-0.8448,-7.1249747,1.4551625
1679993520892,1173509247408103,-0.7348,-7.245975,1.5591125
1679993520894,1173509249910257,-0.6117375,-7.3359,1.6691124
1679993520897,1173509252412416,-0.494725,-7.4459,1.7931374
1679993520899,1173509254914570,-0.3887125,-7.542975,1.9130375
1679993520902,1173509257416724,-0.2437875,-7.55095,2.0340376
1679993520905,1173509259918801,-0.0647625,-7.476975,2.1550374
1679993520907,1173509262420955,0.1342,-7.3359,2.2790625
1679993520909,1173509264923108,0.36519998,-7.098025,2.418075
1679993520913,1173509267425031,0.6142125,-6.722925,2.5441625
1679993520915,1173509269927108,0.8611625,-6.163025,2.6521
1679993520916,1173509272429339,1.105225,-5.375975,2.726075
1679993520919,1173509274931410,1.3132625,-4.5109625,2.7641625
1679993520921,1173509277433564,1.4432,-3.7389,2.77805
1679993520924,1173509279935718,1.5332625,-3.039025,2.7941375
1679993520927,1173509282437641,1.606275,-2.35895,2.82315
1679993520929,1173509284939791,1.6512375,-1.6949625,2.875125
1679993520933,1173509287441945,1.6682875,-1.09395,2.94305
1679993520934,1173509289944098,1.6432625,-0.6089875,3.0270624
1679993520937,1173509292446175,1.5912875,-0.1969,3.1290874
1679993520939,1173509294948329,1.51525,0.1771,3.2390876
1679993520944,1173509297450247,1.4212,0.526075,3.3570626
1679993520945,1173509299952401,1.3151875,0.8930625,3.4640374
1679993520947,1173509302454555,1.2032624,1.2970375,3.5641375
1679993520949,1173509304956709,1.0881749,1.778975,3.6421
1679993520952,1173509307458877,0.9702,2.3420374,3.6921499
1679993520954,1173509309960954,0.8482375,2.9280624,3.705075
1679993520956,1173509312463107,0.7101875,3.4480875,3.6840374
1679993520959,1173509314965031,0.555225,3.813975,3.6430626
1679993520962,1173509317467184,0.3862375,3.9810374,3.5850375
1679993520964,1173509319969338,0.203225,3.956975,3.5231624
1679993520967,1173509322471492,0.0171875,3.784,3.45015
1679993520969,1173509324973569,-0.165825,3.5030875,3.3631124
1679993520972,1173509327475723,-0.341825,3.1700625,3.2681
1679993520974,1173509329977877,-0.4987125,2.819025,3.1590624
1679993520977,1173509332479800,-0.643775,2.4761,3.0541499
1679993520981,1173509334981954,-0.7767375,2.1571,2.9500625
1679993520983,1173509337484103,-0.896775,1.8580375,2.847075
1679993520985,1173509339986179,-1.0088375,1.5809749,2.7440875
1679993520987,1173509342488333,-1.1147125,1.31505,2.63615
1679993520989,1173509344990487,-1.2207249,1.0570999,2.523125
1679993520992,1173509347492641,-1.3267375,0.810975,2.402125
1679993520994,1173509349994564,-1.4367375,0.557975,2.2781
1679993520997,1173509352496718,-1.55375,0.304975,2.1481626
1679993520999,1173509354998872,-1.671725,0.0650375,2.0150626
1679993521003,1173509357500949,-1.7917625,-0.1610125,1.885125
1679993521004,1173509360003118,-1.9177125,-0.3579125,1.764125
1679993521006,1173509362505271,-2.0387125,-0.535975,1.648075
1679993521009,1173509365007425,-2.1617749,-0.6919,1.538075
1679993521013,1173509367509348,-2.2837374,-0.826925,1.434125
1679993521014,1173509370011482,-2.4077625,-0.9420125,1.33815
1679993521019,1173509372513559,-2.524775,-1.02795,1.2511125
1679993521022,1173509375015713,-2.6378,-1.085975,1.170125
1679993521023,1173509377517867,-2.739825,-1.101925,1.098075
1679993521025,1173509380020031,-2.8337374,-1.0729125,1.032075
1679993521027,1173509382522185,-2.9118376,-1.0049875,0.9761125
1679993521029,1173509385024108,-2.9687624,-0.9119,0.9290875
1679993521032,1173509387526262,-3.0017624,-0.782925,0.8881125
1679993521035,1173509390028338,-3.002725,-0.612975,0.8460375
1679993521037,1173509392530492,-2.9577625,-0.397925,0.8041
1679993521039,1173509395032646,-2.8667374,-0.16499999,0.757075
1679993521042,1173509397534800,-2.739825,0.062975,0.708125
1679993521044,1173509400036723,-2.5757875,0.2580875,0.6620625
1679993521047,1173509402538858,-2.3728375,0.4010875,0.6210875
1679993521049,1173509405040935,-2.1327624,0.495,0.5801125
1679993521052,1173509407543089,-1.8607875,0.5270375,0.5511
1679993521056,1173509410045319,-1.5657125,0.5240125,0.51713747
1679993521058,1173509412547391,-1.2518,0.4879875,0.49115
1679993521060,1173509415049315,-0.913825,0.421025,0.4651625
1679993521063,1173509417551468,-0.5627875,0.3350875,0.438075
1679993521064,1173509420053622,-0.2107875,0.2330625,0.4170375
1679993521067,1173509422555699,0.1452,0.119075,0.3971
1679993521069,1173509425057848,0.495275,-0.007975,0.3851375
1679993521072,1173509427560002,0.8322875,-0.1269125,0.3751
1679993521074,1173509430062156,1.1611875,-0.2259125,0.3741375
1679993521077,1173509432564310,1.463275,-0.30195,0.3771625
1679993521079,1173509435066223,1.7402,-0.3339875,0.38115
1679993521082,1173509437568376,1.991275,-0.3399,0.389125
1679993521084,1173509440070453,2.20825,-0.3249125,0.4041125
1679993521087,1173509442572607,2.38425,-0.2930125,0.4211625
1679993521089,1173509445074761,2.519275,-0.243925,0.4420625
1679993521094,1173509447576921,2.6131876,-0.18095,0.4651625
1679993521095,1173509450078844,2.661175,-0.1060125,0.49115
1679993521098,1173509452580998,2.6362875,-0.045925,0.5110875
1679993521100,1173509455083065,2.5183125,-0.0180125,0.5061375
1679993521102,1173509457585219,2.3133,0.003025,0.4640625
1679993521104,1173509460087449,2.0713,0.1120625,0.4090625
1679993521106,1173509462589526,1.8033125,0.2990625,0.35915
1679993521109,1173509465091449,1.5023249,0.498025,0.2990625
1679993521112,1173509467593618,1.1803,0.6571125,0.2121625
1679993521114,1173509470095772,0.858275,0.77907497,0.120037496
1679993521117,1173509472597849,0.55825,0.88605,0.0441375
1679993521120,1173509475100080,0.29425,0.9719875,-0.006875
1679993521122,1173509477602142,0.0702625,1.01805,-0.0279125
1679993521124,1173509480104296,-0.1106875,1.021075,-0.02695
1679993521127,1173509482606219,-0.2607,0.993025,-0.0089375
1679993521131,1173509485108388,-0.3707,0.9211125,0.01705
1679993521134,1173509487610541,-0.4577375,0.814,0.0441375
1679993521136,1173509490112695,-0.521675,0.696025,0.0581625
1679993521139,1173509492614772,-0.5577,0.5801125,0.0540375
1679993521141,1173509495116930,-0.576675,0.471075,0.0341
1679993521143,1173509497619084,-0.57475,0.366025,0.0121
1679993521146,1173509500121007,-0.5647125,0.2679875,-0.0108624995
1679993521147,1173509502623161,-0.543675,0.1890625,-0.0389125
1679993521149,1173509505125238,-0.5077875,0.12705,-0.06985
1679993521152,1173509507627484,-0.4637875,0.0900625,-0.0999625
1679993521154,1173509510129561,-0.406725,0.075075,-0.1238875
1679993521157,1173509512631714,-0.33673748,0.0760375,-0.1508375
1679993521159,1173509515133637,-0.258775,0.087037496,-0.166925
1679993521162,1173509517635791,-0.170775,0.100099996,-0.1819125
1679993521164,1173509520137868,-0.0776875,0.1120625,-0.193875
1679993521168,1173509522640099,0.0103124995,0.1170125,-0.2039125
1679993521170,1173509525142253,0.1062875,0.12705,-0.210925
1679993521172,1173509527644334,0.2022625,0.1579875,-0.2179375
1679993521174,1173509530146257,0.3012625,0.2110625,-0.2259125
1679993521178,1173509532648411,0.407275,0.2740375,-0.2308625
1679993521179,1173509535150565,0.517275,0.3339875,-0.22687499
1679993521182,1173509537652641,0.6303,0.3840375,-0.2198625
1679993521184,1173509540154900,0.7492375,0.4261125,-0.20295
1679993521187,1173509542656977,0.875325,0.465025,-0.1819125
1679993521189,1173509545159131,1.0153,0.4921125,-0.15785
1679993521192,1173509547661054,1.1672375,0.517,-0.13585
1679993521194,1173509550163199,1.3263249,0.548075,-0.1329625
1679993521197,1173509552665353,1.4892625,0.5930375,-0.14093749
1679993521200,1173509555167507,1.6572875,0.6281,-0.1419
1679993521202,1173509557669584,1.8282,0.641025,-0.13695
1679993521206,1173509560171751,1.98825,0.616,-0.133925
1679993521208,1173509562673675,2.1443124,0.539,-0.1219625
1679993521209,1173509565176059,2.277275,0.40205,-0.1098625
1679993521212,1173509567677982,2.3942876,0.2410375,-0.0999625
1679993521214,1173509570180136,2.491225,0.0680625,-0.0859375
1679993521218,1173509572682218,2.5562625,-0.1018875,-0.0768625
1679993521220,1173509575184372,2.590225,-0.24695,-0.0688875
1679993521222,1173509577686295,2.590225,-0.3548875,-0.0609125
1679993521224,1173509580188449,2.547325,-0.44701248,-0.0529375
1679993521227,1173509582690833,2.47225,-0.5020125,-0.039875
1679993521230,1173509585192771,2.3482249,-0.5289625,-0.023924999
1679993521233,1173509587694847,2.1912,-0.55,-0.01595
1679993521235,1173509590197001,2.0042,-0.539,-0.01595
1679993521237,1173509592699155,1.77925,-0.5259375,-0.0188375
1679993521239,1173509595201059,1.5283124,-0.51301247,-0.0188375
1679993521244,1173509597703444,1.2643125,-0.474925,-0.0218625
1679993521245,1173509600205367,0.9752875,-0.425975,-0.01595
1679993521247,1173509602707521,0.6532625,-0.3359125,0.0111375
1679993521250,1173509605209598,0.20625,-0.1309,0.0801625
1679993521252,1173509607711752,-0.181775,-0.0529375,0.1370875
1679993521254,1173509610213905,-0.46667498,-0.02695,0.1890625
1679993521258,1173509612716059,-0.719675,0.0121,0.229075
1679993521259,1173509615217982,-0.88577497,-0.0389125,0.24915
1679993521263,1173509617720136,-0.9887625,-0.1249875,0.2761
1679993521265,1173509620222290,-1.071675,-0.155925,0.31913748
1679993521267,1173509622724367,-1.176725,-0.108899996,0.378125
1679993521270,1173509625226535,-1.2387375,-0.0829125,0.4431625
1679993521272,1173509627728458,-1.292775,-0.0138875,0.5050375
1679993521274,1173509630230843,-1.346675,0.0671,0.55715
1679993521277,1173509632732996,-1.3487375,0.08305,0.5770875
1679993521281,1173509635234905,-1.1787875,-0.05995,0.554125
1679993521284,1173509637736982,-0.8897625,-0.2448875,0.51713747
1679993521285,1173509640239136,-0.6147625,-0.370975,0.49307498
1679993521287,1173509642741290,-0.3617625,-0.458975,0.51315
1679993521289,1173509645243444,-0.1447875,-0.473,0.5611375
1679993521292,1173509647745612,0.0312125,-0.4279,0.6100875
1679993521294,1173509650247535,0.182325,-0.342925,0.6351125
1679993521298,1173509652749689,0.2982375,-0.22495,0.6290625
1679993521300,1173509655251766,0.3972375,-0.0859375,0.60307497
1679993521302,1173509657753940,0.4772625,0.0671,0.56705
1679993521304,1173509660255863,0.5292375,0.23705,0.5291
1679993521307,1173509662758247,0.561275,0.394075,0.504075
1679993521309,1173509665260170,0.5702125,0.5080625,0.4860625
1679993521312,1173509667762319,0.5572875,0.570075,0.47905
1679993521314,1173509670264473,0.5203,0.5850625,0.4830375
1679993521319,1173509672766550,0.467225,0.5460125,0.49513748
1679993521321,1173509675268473,0.4103,0.4750625,0.51205
1679993521323,1173509677770872,0.358325,0.3700125,0.543125
1679993521325,1173509680273026,0.330275,0.2580875,0.581075
1679993521327,1173509682774949,0.3372875,0.154,0.636075
1679993521329,1173509685277102,0.3782625,0.053075,0.6941
1679993521332,1173509687779179,0.43725,-0.045925,0.7481375
1679993521334,1173509690281305,0.5102625,-0.1379125,0.7860875
1679993521338,1173509692783459,0.589325,-0.2179375,0.8061625
1679993521339,1173509695285613,0.6642625,-0.27995,0.79915
1679993521342,1173509697787536,0.7282,-0.32793748,0.7690375
1679993521344,1173509700289690,0.7803125,-0.3548875,0.7231125
1679993521347,1173509702791762,0.820325,-0.36795,0.6650875
1679993521350,1173509705293916,0.84328747,-0.3609375,0.5990875
1679993521352,1173509707796070,0.84425,-0.34595,0.5291
1679993521356,1173509710298199,0.8262375,-0.33495,0.45815
1679993521360,1173509712800122,0.7932375,-0.33495,0.3840375
1679993521360,1173509715302276,0.7382375,-0.3359125,0.3081375
1679993521362,1173509717804430,0.66728747,-0.35694999,0.2220625
1679993521364,1173509720306507,0.5812125,-0.3878875,0.1351625
1679993521367,1173509722808642,0.48427498,-0.4360125,0.02915
1679993521369,1173509725310796,0.3883,-0.50888747,-0.0889625
1679993521372,1173509727812950,0.313225,-0.5779125,-0.22495
1679993521374,1173509730314873,0.280225,-0.6329125,-0.3658875
1679993521378,1173509732817008,0.2902625,-0.6219125,-0.5039375
1679993521379,1173509735319084,0.3562625,-0.528,-0.63195
1679993521382,1173509737821238,0.44825,-0.3878875,-0.7379625
1679993521384,1173509740323161,0.55825,-0.2589125,-0.8119375
1679993521387,1173509742825546,0.66522497,-0.1549625,-0.848925
1679993521389,1173509745327714,0.743325,-0.0639375,-0.86185
1679993521393,1173509747829637,0.7962625,0.0210375,-0.8559375
1679993521395,1173509750331714,0.8322875,0.0930875,-0.83985
1679993521397,1173509752833868,0.84328747,0.1661,-0.80795
1679993521399,1173509755336013,0.8452125,0.2330625,-0.7569375
1679993521402,1173509757838166,0.8503,0.28105,-0.7019375
1679993521404,1173509760340320,0.864325,0.3020875,-0.6389625
1679993521407,1173509762842243,0.8762875,0.3119875,-0.5638875
1679993521409,1173509765344397,0.88825,0.30305,-0.48688748
1679993521412,1173509767846493,0.9062625,0.2770625,-0.4239125
1679993521415,1173509770348647,0.9392625,0.2501125,-0.3768875
1679993521418,1173509772850801,0.984225,0.1970375,-0.3548875
1679993521419,1173509775352955,1.045275,0.1260875,-0.35694999
1679993521422,1173509777854891,1.1323125,0.044,-0.3848625
1679993521424,1173509780357045,1.2102749,-0.0059125,-0.44385
1679993521427,1173509782859122,1.2903,-0.0719125,-0.529925
1679993521431,1173509785361271,1.3772,-0.14093749,-0.6249375
1679993521434,1173509787863195,1.4342625,-0.15895,-0.7338375
1679993521436,1173509790365579,1.474275,-0.1390125,-0.8438375
1679993521438,1173509792867502,1.501225,-0.09295,-0.9579625
1679993521439,1173509795369656,1.5173125,-0.0028875,-1.068925
1679993521442,1173509797871747,1.5112625,0.130075,-1.1759
1679993521444,1173509800373978,1.512225,0.253,-1.2678875
1679993521447,1173509802876055,1.5052125,0.377025,-1.3409
1679993521450,1173509805378209,1.5002625,0.4989875,-1.39095
1679993521452,1173509807880367,1.5082375,0.5979875,-1.436875
1679993521454,1173509810382291,1.524325,0.6450125,-1.4708375
1679993521457,1173509812884367,1.546325,0.6501,-1.4969625
1679993521459,1173509815386598,1.55925,0.6241125,-1.5318875
1679993521462,1173509817888752,1.556225,0.561,-1.5648875
1679993521465,1173509820390829,1.523225,0.4610375,-1.5959625
1679993521469,1173509822892983,1.4592875,0.3540625,-1.6248375
1679993521471,1173509825394906,1.3853124,0.2380125,-1.63295
1679993521473,1173509827897045,1.3132625,0.1230625,-1.601875
1679993521475,1173509830399122,1.2243,0.0620125,-1.524875
1679993521477,1173509832901353,1.1543125,-0.0169125,-1.4719375
1679993521480,1173509835403429,1.0902375,-0.09295,-1.469875
1679993521482,1173509837905583,1.028225,-0.21395,-1.4958625
1679993521485,1173509840407497,0.9933,-0.3509,-1.530925
1679993521487,1173509842909651,0.951225,-0.342925,-1.5299625
1679993521489,1173509845411728,0.8833,-0.242,-1.541925
1679993521492,1173509847913959,0.819225,-0.128975,-1.5739625
1679993521494,1173509850416007,0.7473125,-0.0400125,-1.59885
1679993521498,1173509852918161,0.676225,0.0380875,-1.5948625
1679993521500,1173509855420315,0.5682875,0.097075,-1.4309624
1679993521502,1173509857922238,0.4082375,0.1291125,-0.89595
1679993521506,1173509860424324,0.1793,0.24805,-0.2968625
1679993521508,1173509862926477,0.0042625,0.45705,0.0011
1679993521509,1173509865428708,-0.043725,0.55,0.0891
1679993521512,1173509867930785,-0.06875,0.4170375,0.0671
1679993521515,1173509870432939,-0.073699996,0.152075,0.0471625
1679993521518,1173509872934857,-0.0507375,-0.100925,0.0231
1679993521519,1173509875437011,-0.005775,-0.2869625,-0.0209
1679993521522,1173509877939088,0.0583,-0.381975,-0.0829125
1679993521524,1173509880441319,0.1243,-0.4079625,-0.1568875
1679993521527,1173509882943396,0.1793,-0.3909125,-0.2319625
1679993521530,1173509885445549,0.2072125,-0.3619,-0.2778875
1679993521533,1173509887947472,0.19525,-0.3438875,-0.3158375
1679993521535,1173509890449626,0.138325,-0.32793748,-0.3689125
1679993521538,1173509892951795,0.044275,-0.30195,-0.4398625
1679993521540,1173509895453949,-0.0748,-0.2629,-0.5168625
1679993521545,1173509897956103,-0.219725,-0.199925,-0.5578375
1679993521547,1173509900458180,-0.3867875,-0.11495,-0.573925
1679993521548,1173509902960339,-0.549725,-0.0229625,-0.562925
1679993521550,1173509905462493,-0.70675,0.0671,-0.5388625
1679993521552,1173509907964416,-0.84975,0.1640375,-0.5058625
1679993521554,1173509910466493,-0.995775,0.2349875,-0.4409625
1679993521557,1173509912968723,-1.1336875,0.2800875,-0.3729
1679993521560,1173509915470800,-1.2607375,0.3180375,-0.3048375
1679993521563,1173509917972954,-1.3866875,0.3370125,-0.2778875
1679993521565,1173509920474877,-1.500675,0.3350875,-0.2869625
1679993521567,1173509922977031,-1.6017375,0.3201,-0.30085
1679993521570,1173509925479093,-1.682725,0.3130875,-0.320925
1679993521572,1173509927981324,-1.7507875,0.319,-0.353925
1679993521575,1173509930483478,-1.797675,0.3320625,-0.4098875
1679993521578,1173509932985555,-1.8086749,0.308,-0.5149375
1679993521581,1173509935487464,-1.819675,0.2630375,-0.68585
1679993521584,1173509937989617,-1.8277875,0.2490125,-0.8669375
1679993521585,1173509940491771,-1.8247625,0.2459875,-0.9678625
1679993521587,1173509942993925,-1.7857125,0.2770625,-0.96085
1679993521589,1173509945496079,-1.7166874,0.3381125,-0.9139625
1679993521592,1173509947998141,-1.6207125,0.4041125,-0.870925
1679993521595,1173509950500295,-1.512775,0.4439875,-0.8468625
1679993521597,1173509953002218,-1.39975,0.4481125,-0.83393747
1679993521600,1173509955504372,-1.287825,0.4250125,-0.8278875
1679993521602,1173509958006449,-1.1867625,0.3861,-0.8218375
1679993521605,1173509960508679,-1.09175,0.3421,-0.8239
1679993521607,1173509963010833,-0.9997625,0.2871,-0.8388875
1679993521609,1173509965512910,-0.9117625,0.23705,-0.8859125
1679993521612,1173509968015045,-0.83875,0.2019875,-0.96085
1679993521615,1173509970516968,-0.7907625,0.1590875,-1.0069125
1679993521620,1173509973019122,-0.742775,0.117975,-1.0338625
1679993521622,1173509975521199,-0.6947875,0.08305,-1.0528375
1679993521624,1173509978058828,-0.6697625,0.0430375,-1.0368875
1679993521625,1173509980525521,-0.65174997,0.020075,-1.013925
1679993521627,1173509983027444,-0.65174997,0.0121,-0.9849125
1679993521630,1173509985529598,-0.6798,0.014025,-0.9469625
1679993521633,1173509988031751,-0.725725,0.0369875,-0.8999375
1679993521635,1173509990533814,-0.78375,0.0570625,-0.8498875
1679993521637,1173509993036045,-0.8537375,0.0671,-0.7918625
1679993521640,1173509995538122,-0.92785,0.0760375,-0.732875
1679993521642,1173509998040276,-0.99385,0.0650375,-0.6549125
1679993521645,1173510000542430,-1.045825,0.069025,-0.5559125
1679993521648,1173510003044363,-1.0737375,0.0919875,-0.4648875
1679993521650,1173510005546440,-1.0858375,0.1139875,-0.3839
1679993521652,1173510008048671,-1.0797875,0.120037496,-0.3059375
1679993521656,1173510010550833,-1.066725,0.1249875,-0.24887499
1679993521659,1173510013052910,-1.0488499,0.109037496,-0.20185
1679993521661,1173510015555064,-1.001825,0.097075,-0.1348875
1679993521663,1173510018056987,-0.9398125,0.10505,-0.067925
1679993521665,1173510020559141,-0.8647375,0.130075,-0.00385
1679993521667,1173510023061199,-0.79873747,0.150975,0.0490875
1679993521670,1173510025563353,-0.74181247,0.1720125,0.0771375
1679993521672,1173510028065507,-0.68475,0.1970375,0.0881375
1679993521674,1173510030567430,-0.6348375,0.229075,0.0930875
1679993521677,1173510033069589,-0.588775,0.262075,0.0851125
1679993521680,1173510035571743,-0.5487625,0.2871,0.0561
1679993521682,1173510038073896,-0.522775,0.2981,0.014162499
1679993521684,1173510040575973,-0.494725,0.289025,-0.023924999
1679993521687,1173510043078132,-0.462825,0.2770625,-0.0759
1679993521690,1173510045580055,-0.429825,0.2600125,-0.1318625
1679993521694,1173510048082209,-0.3898125,0.2410375,-0.1709125
1679993521696,1173510050584363,-0.35585,0.2160125,-0.19085
1679993521698,1173510053086531,-0.3268375,0.1810875,-0.2189
1679993521700,1173510055588685,-0.2938375,0.1530375,-0.2429625
1679993521703,1173510058090762,-0.26675,0.132,-0.254925
1679993521705,1173510060592685,-0.2498375,0.09405,-0.26895
1679993521707,1173510063094839,-0.24585,0.055,-0.2828375
1679993521710,1173510065596992,-0.24585,0.02805,-0.2739
1679993521712,1173510068099146,-0.24585,0.0020625,-0.24695
1679993521715,1173510070601300,-0.2498375,-0.0089375,-0.20693749
1679993521718,1173510073103377,-0.2437875,-0.0070125,-0.155925
1679993521720,1173510075605545,-0.23485,-0.014025,-0.0988625
1679993521722,1173510078107699,-0.2288,-0.033,-0.08085
1679993521724,1173510080609622,-0.2107875,-0.018975,-0.072875
1679993521727,1173510083111776,-0.18975,-9.625E-4,-0.050875
1679993521731,1173510085613929,-0.170775,0.0070125,-0.0438625
1679993521734,1173510088116083,-0.14575,0.0290125,-0.0389125
1679993521736,1173510090618160,-0.12485,0.053075,-0.039875
1679993521739,1173510093120314,-0.11275,0.075075,-0.056925
1679993521742,1173510095622247,-0.1007875,0.0900625,-0.067925
1679993521744,1173510098124324,-0.0818125,0.0950125,-0.0749375
1679993521746,1173510100626555,-0.0617375,0.100099996,-0.083875
1679993521748,1173510103128709,-0.0488125,0.098037496,-0.095837496
1679993521750,1173510105630786,-0.03575,0.0891,-0.105875
1679993521753,1173510108132949,-0.0177375,0.09405,-0.1079375
1679993521754,1173510110634872,-0.0017875,0.099,-0.10395
1679993521757,1173510113137025,0.0061875,0.10505,-0.100925
1679993521760,1173510115639179,0.01815,0.11605,-0.0999625
1679993521763,1173510118141319,0.022275,0.132,-0.09185
1679993521765,1173510120643396,0.0251625,0.1590875,-0.0889625
1679993521769,1173510123145550,0.0312125,0.1890625,-0.0939125
1679993521772,1173510125647704,0.0462,0.2220625,-0.106837496
1679993521773,1173510128149642,0.054175,0.2580875,-0.1159125
1679993521775,1173510130652027,0.0572,0.2820125,-0.1189375
1679993521778,1173510133153950,0.0792,0.3040125,-0.1208625
1679993521780,1173510135656103,0.1051875,0.3290375,-0.11495
1679993521782,1173510138158180,0.131175,0.348975,-0.10395
1679993521785,1173510140660344,0.15015,0.38005,-0.0908875
1679993521787,1173510143162267,0.1601875,0.4010875,-0.0768625
1679993521790,1173510145664421,0.1692625,0.432025,-0.067925
1679993521792,1173510148166575,0.1791625,0.4670875,-0.0529375
1679993521795,1173510150668710,0.1852125,0.5099875,-0.0248875
1679993521797,1173510153170864,0.1882375,0.546975,0.004125
1679993521801,1173510155672941,0.1791625,0.575025,0.020075
1679993521802,1173510158174864,0.159225,0.58905,0.02915
1679993521807,1173510160676998,0.13915,0.5850625,0.0451
1679993521808,1173510163179382,0.1161875,0.575025,0.0771375
1679993521810,1173510165681305,0.087175,0.5841,0.0991375
1679993521813,1173510168183459,0.0562375,0.601975,0.1211375
1679993521815,1173510170685536,0.027224999,0.6400625,0.141075
1679993521818,1173510173187666,0.0031625,0.7079875,0.15015
1679993521820,1173510175689589,-0.049775,0.7580375,0.1461625
1679993521822,1173510178191743,-0.1227875,0.7860875,0.0991375
1679993521825,1173510180693897,-0.186725,0.843975,0.0011
1679993521827,1173510183196051,-0.263725,0.872025,-0.1208625
1679993521830,1173510185698118,-0.33275,0.87505,-0.2039125
1679993521833,1173510188200272,-0.3587375,0.87505,-0.2278375
1679993521835,1173510190702426,-0.32381248,0.8760125,-0.2278375
1679993521837,1173510193204349,-0.2608375,0.869,-0.221925
1679993521840,1173510195706522,-0.197725,0.8261,-0.243925
1679993521845,1173510198208676,-0.15785,0.748,-0.3389375
1679993521846,1173510200710830,-0.1258125,0.6721,-0.485925
1679993521848,1173510203212907,-0.0977625,0.61105,-0.60885
1679993521850,1173510205715056,-0.093775,0.535975,-0.694925
1679993521853,1173510208216979,-0.093775,0.407,-0.7618875
1679993521855,1173510210719363,-0.04675,0.2470875,-0.8349
1679993521858,1173510213221286,0.022275,0.146025,-0.9048875
1679993521860,1173510215723440,0.09625,0.087037496,-0.9458625
1679993521863,1173510218225531,0.1472625,0.1060125,-0.9329375
1679993521865,1173510220727685,0.164175,0.1590875,-0.88783747
1679993521867,1173510223229608,0.1461625,0.1881,-0.81785
1679993521870,1173510225731762,0.07425,0.14905,-0.75185
1679993521872,1173510228233931,-0.0677875,-0.025024999,-0.69685
1679993521875,1173510230736085,-0.3268375,-0.3969625,-0.5999125
1679993521877,1173510233238162,-0.5768125,-0.63002497,-0.479875
1679993521882,1173510235740300,-0.748825,-0.590975,-0.3048375
1679993521884,1173510238242454,-0.890725,-0.429,-0.0059125
1679993521887,1173510240744377,-1.0498124,-0.32395,0.2611125
1679993521887,1173510243246531,-1.1947374,-0.276925,0.43408749
1679993521890,1173510245748685,-1.3377374,-0.282975,0.5361125
1679993521893,1173510248250762,-1.4718,-0.297,0.56705
1679993521895,1173510250752916,-1.58785,-0.27101249,0.5630625
1679993521899,1173510253255147,-1.671725,-0.2079,0.5401
1679993521900,1173510255757224,-1.7067875,-0.1269125,0.5031125
1679993521903,1173510258259147,-1.7117375,-0.0479875,0.4670875
1679993521905,1173510260761316,-1.69785,0.011,0.4431625
1679993521907,1173510263263469,-1.655775,0.053075,0.4291375
1679993521910,1173510265765546,-1.6017375,0.080025,0.4191
1679993521913,1173510268267700,-1.534775,0.0900625,0.40205
1679993521915,1173510270769858,-1.462725,0.095975,0.3870625
1679993521920,1173510273272012,-1.3767875,0.097075,0.3760625
1679993521922,1173510275773935,-1.2857625,0.0891,0.367125
1679993521923,1173510278276094,-1.199825,0.078099996,0.3570875
1679993521925,1173510280778171,-1.1158125,0.0699875,0.3441625
1679993521927,1173510283280325,-1.028775,0.0650375,0.334125
1679993521930,1173510285782478,-0.94985,0.062975,0.3201
1679993521933,1173510288284632,-0.8768375,0.069025,0.2990625
1679993521935,1173510290786584,-0.8127625,0.087037496,0.284075
1679993521939,1173510293288738,-0.7568,0.113025,0.27005
1679993521940,1173510295790815,-0.7018,0.146025,0.2520375
1679993521943,1173510298292969,-0.654775,0.1830125,0.22715
1679993521945,1173510300795123,-0.60775,0.22605,0.2061125
1679993521947,1173510303297282,-0.5578375,0.2679875,0.1860375
1679993521950,1173510305799205,-0.5047625,0.3100625,0.16005
1679993521953,1173510308301359,-0.4467375,0.3460875,0.141075
1679993521957,1173510310803517,-0.3898125,0.372075,0.1260875
1679993521958,1173510313305594,-0.329725,0.38005,0.1071125
1679993521960,1173510315807748,-0.274725,0.372075,0.097075
1679993521963,1173510318309902,-0.225775,0.3531,0.092125
1679993521965,1173510320812056,-0.1848,0.3210625,0.0891
1679993521968,1173510323313983,-0.1508375,0.278025,0.0771375
1679993521970,1173510325816137,-0.1288375,0.23705,0.07315
1679993521973,1173510328318214,-0.121825,0.19607499,0.0671
1679993521975,1173510330820368,-0.12375,0.1640375,0.0710875
1679993521978,1173510333322532,-0.13585,0.132,0.0760375
1679993521981,1173510335824685,-0.1518,0.1150875,0.0820875
1679993521985,1173510338326608,-0.1808125,0.088,0.0891
1679993521985,1173510340828762,-0.2168375,0.0540375,0.092125
1679993521987,1173510343330839,-0.258775,0.01705,0.0961125
1679993521990,1173510345833012,-0.3147375,-0.0119624995,0.103125
1679993521994,1173510348334935,-0.3708375,-0.0290125,0.109037496
1679993521996,1173510350837320,-0.429825,-0.036025,0.1071125
1679993521997,1173510353339243,-0.495825,-0.03795,0.103125
1679993522000,1173510355841416,-0.5548125,-0.034925,0.0790625
1679993522002,1173510358343570,-0.60775,-0.0209,0.0570625
1679993522005,1173510360845647,-0.66385,-0.0070125,0.048125
1679993522007,1173510363347800,-0.7128,0.011,0.0430375
1679993522010,1173510365849954,-0.75075,0.0350625,0.0380875
1679993522012,1173510368352108,-0.78485,0.0760375,0.042075
1679993522015,1173510370854031,-0.81785,0.1111,0.050049998
1679993522018,1173510373356185,-0.830775,0.1441,0.0581625
1679993522020,1173510375858262,-0.8237625,0.18205,0.0551375
1679993522022,1173510378360416,-0.80575,0.2190375,0.0540375
1679993522025,1173510380862339,-0.7748125,0.2459875,0.050049998
1679993522027,1173510383364724,-0.7277875,0.282975,0.0540375
1679993522032,1173510385866647,-0.6697625,0.3240875,0.0661375
1679993522034,1173510388368800,-0.599775,0.363,0.0881375
1679993522037,1173510390870877,-0.5138375,0.4170375,0.1150875
1679993522039,1173510393373031,-0.4228125,0.4769875,0.152075
1679993522041,1173510395875185,-0.32381248,0.54202497,0.1881
1679993522043,1173510398377330,-0.2267375,0.60101247,0.2250875
1679993522045,1173510400879253,-0.131725,0.6620625,0.27115
1679993522048,1173510403381407,-0.032725,0.7220125,0.312125
1679993522050,1173510405883561,0.0691625,0.762025,0.3491125
1679993522052,1173510408385638,0.1711875,0.788975,0.3861
1679993522055,1173510410887791,0.27225,0.801075,0.411125
1679993522058,1173510413389715,0.362175,0.7910375,0.433125
1679993522060,1173510415892099,0.45319998,0.7720625,0.4431625
1679993522062,1173510418394002,0.539275,0.7470375,0.44605
1679993522065,1173510420896156,0.6182,0.72008747,0.444125
1679993522069,1173510423398233,0.6942375,0.6969875,0.43614998
1679993522071,1173510425900387,0.76615,0.667975,0.4211625
1679993522073,1173510428402306,0.85525,0.6370375,0.3821125
1679993522075,1173510430904691,0.9362375,0.5960625,0.3540625
1679993522077,1173510433406844,1.00815,0.5511,0.3301375
1679993522080,1173510435908768,1.0652125,0.51205,0.290125
1679993522083,1173510438410844,1.10825,0.473,0.23705
1679993522085,1173510440912998,1.13025,0.4140125,0.1661
1679993522087,1173510443415152,1.1132,0.3020875,0.0771375
1679993522090,1173510445917306,1.0701625,0.1700875,-0.012925
1679993522092,1173510448419229,1.000175,0.061049998,-0.0859375
1679993522095,1173510450921387,0.9262,0.0039875,-0.1238875
1679993522098,1173510453423541,0.86515,0.0121,-0.1128875
1679993522100,1173510455925618,0.803275,0.051975,-0.1049125
1679993522103,1173510458427772,0.7321875,0.0840125,-0.116875
1679993522106,1173510460929695,0.649275,0.0930875,-0.1379125
1679993522108,1173510463432079,0.5652625,0.078099996,-0.1648625
1679993522110,1173510465934002,0.4962375,0.0730125,-0.1898875
1679993522113,1173510468436156,0.4442625,0.0930875,-0.20693749
1679993522115,1173510470938233,0.3993,0.1120625,-0.20185
1679993522118,1173510473440449,0.363275,0.121,-0.199925
1679993522120,1173510475942526,0.3342625,0.1340625,-0.20693749
1679993522123,1173510478444449,0.318175,0.1420375,-0.2099625
1679993522125,1173510480946603,0.3113,0.135025,-0.20487499
1679993522127,1173510483448757,0.302225,0.1040875,-0.19195
1679993522130,1173510485950824,0.2822875,0.0380875,-0.1978625
1679993522133,1173510488453054,0.23925,-0.0510125,-0.20693749
1679993522136,1173510490955131,0.186175,-0.1469875,-0.20185
1679993522139,1173510493457272,0.1522125,-0.20295,-0.1659625
1679993522141,1173510495959195,0.1342,-0.212025,-0.1318625
1679993522145,1173510498461349,0.1271875,-0.2039125,-0.11495
1679993522146,1173510500963426,0.1302125,-0.2039125,-0.0988625
1679993522148,1173510503465593,0.143275,-0.2079,-0.083875
1679993522150,1173510505967747,0.15619999,-0.1959375,-0.0609125
1679993522153,1173510508469901,0.175175,-0.166925,-0.034925
1679993522155,1173510510971824,0.2162875,-0.113025,-0.017875
1679993522157,1173510513473978,0.2712875,-0.0479875,-0.012925
1679993522160,1173510515976049,0.3342625,0.0070125,-0.02695
1679993522163,1173510518478203,0.4082375,0.0460625,-0.03795
1679993522165,1173510520980434,0.4791875,0.062975,-0.045925
1679993522168,1173510523482511,0.55027497,0.0699875,-0.061875
1679993522170,1173510525984431,0.627275,0.0760375,-0.07095
1679993522173,1173510528486585,0.6991875,0.07205,-0.06985
1679993522175,1173510530988739,0.7623,0.061049998,-0.0628375
1679993522178,1173510533490816,0.81427497,0.042075,-0.0578875
1679993522182,1173510535993041,0.858275,0.018975,-0.0609125
1679993522184,1173510538495118,0.88825,-0.014025,-0.0768625
1679993522186,1173510540997272,0.913275,-0.051975,-0.1018875
1679993522187,1173510543499195,0.9392625,-0.084975,-0.1439625
1679993522190,1173510546001349,0.9802375,-0.0939125,-0.20185
1679993522193,1173510548503431,1.0291874,-0.091025,-0.25795
1679993522195,1173510551005585,1.0762125,-0.08195,-0.3199625
1679993522197,1173510553507739,1.1202124,-0.077,-0.36795
1679993522200,1173510556009893,1.1281875,-0.1049125,-0.38885
1679993522202,1173510558511816,1.111275,-0.14795,-0.435875
1679993522205,1173510561013941,1.0912,-0.1689875,-0.50985
1679993522208,1173510563516018,1.06425,-0.1749,-0.59688747
1679993522210,1173510566018171,1.0242375,-0.1830125,-0.65587497
1679993522213,1173510568520402,0.946275,-0.221925,-0.70785
1679993522215,1173510571022488,0.8812375,-0.2490125,-0.7799
1679993522220,1173510573524411,0.8063,-0.2619375,-0.83187497
1679993522222,1173510576026565,0.7101875,-0.282975,-0.864875
1679993522225,1173510578531180,0.6062375,-0.315975,-0.87285
1679993522226,1173510581030796,0.500225,-0.3419625,-0.8419125
1679993522228,1173510583532719,0.401225,-0.3509,-0.815925
1679993522230,1173510586035104,0.3251875,-0.33495,-0.8168875
1679993522233,1173510588537257,0.2462625,-0.31501248,-0.76395
1679993522235,1173510591039175,0.1672,-0.287925,-0.6788375
1679993522237,1173510593541329,0.121275,-0.22495,-0.64295
1679993522240,1173510596043406,0.093225,-0.13695,-0.6259
1679993522243,1173510598545560,0.0482625,-0.0889625,-0.58795
1679993522245,1173510601047719,-0.0067375,-0.0620125,-0.540925
1679993522248,1173510603549873,-0.0427625,-0.0259875,-0.49885
1679993522251,1173510606052027,-0.0638,0.0320375,-0.446875
1679993522253,1173510608553950,-0.06875,0.102025,-0.3958625
1679993522257,1173510611056027,-0.0677875,0.1500125,-0.3639625
1679993522259,1173510613558181,-0.0837375,0.1670625,-0.347875
1679993522262,1173510616060334,-0.0787875,0.1750375,-0.3529625
1679993522264,1173510618562488,-0.076725,0.161975,-0.320925
1679993522265,1173510621064411,-0.099825,0.1120625,-0.2718375
1679993522268,1173510623566565,-0.1188,0.0600875,-0.29095
1679993522271,1173510626068719,-0.12773749,0.0270875,-0.3859625
1679993522273,1173510628570796,-0.1408,-0.0039875,-0.5138375
1679993522275,1173510631072950,-0.1777875,-0.0529375,-0.661925
1679993522278,1173510633575080,-0.2567125,-0.12595,-0.798875
1679993522281,1173510636077233,-0.3537875,-0.1959375,-0.89595
1679993522283,1173510638579157,-0.4008125,-0.177925,-1.0038875
1679993522285,1173510641081310,-0.4807,-0.18493749,-1.0308375
1679993522288,1173510643583387,-0.6028,-0.1739375,-0.886875
1679993522291,1173510646085541,-0.742775,-0.1049125,-0.7349375
1679993522295,1173510648587695,-0.87175,0.042075,-0.6659125
1679993522296,1173510651089849,-0.9867,0.2300375,-0.6139375
1679993522299,1173510653591777,-1.0817125,0.4010875,-0.5379
1679993522301,1173510656093931,-1.215775,0.4450875,-0.5339125
1679993522305,1173510658596008,-1.3358124,0.47808748,-0.5009125
1679993522305,1173510661098162,-1.4047,0.531025,-0.4489375
1679993522308,1173510663600315,-1.452825,0.561,-0.408925
1679993522311,1173510666102483,-1.4807374,0.57805,-0.3499375
1679993522313,1173510668604406,-1.4678125,0.6150375,-0.2949375
1679993522315,1173510671106560,-1.429725,0.6400625,-0.254925
1679993522318,1173510673608714,-1.3717,0.6480375,-0.2649625
1679993522321,1173510676110786,-1.314775,0.6309875,-0.2938375
1679993522323,1173510678612940,-1.2617,0.575025,-0.33495
1679993522325,1173510681115094,-1.209725,0.491975,-0.3639625
1679993522328,1173510683617248,-1.133825,0.42405,-0.3738625
1679993522332,1173510686119181,-1.0547625,0.36107498,-0.37785
1679993522335,1173510688621335,-0.9658,0.315975,-0.3708375
1679993522337,1173510691123411,-0.8727125,0.28105,-0.353925
1679993522340,1173510693625565,-0.7898,0.2321,-0.3268375
1679993522343,1173510696127488,-0.7277875,0.20405,-0.2949375
1679993522345,1173510698705873,-0.6787,0.20899999,-0.2739
1679993522346,1173510701131796,-0.6477625,0.216975,-0.2589125
1679993522348,1173510703633950,-0.627825,0.2330625,-0.2448875
1679993522351,1173510706136027,-0.61875,0.24805,-0.221925
1679993522354,1173510708638277,-0.6028,0.2679875,-0.19085
1679993522355,1173510711140354,-0.59482497,0.29205,-0.1568875
1679993522358,1173510713642507,-0.588775,0.3070375,-0.11495
1679993522361,1173510716144431,-0.5707625,0.3460875,-0.0738375
1679993522363,1173510718646584,-0.5487625,0.381975,-0.050875
1679993522365,1173510721148661,-0.5207125,0.383075,-0.0449625
1679993522370,1173510723650892,-0.4857875,0.366025,-0.045925
1679993522372,1173510726152969,-0.451825,0.300025,-0.0719125
1679993522373,1173510728655151,-0.4367,0.2050125,-0.0979
1679993522375,1173510731157074,-0.4307875,0.086075,-0.1199
1679993522379,1173510733659228,-0.43175,-0.011,-0.1519375
1679993522381,1173510736161382,-0.4477,-0.0809875,-0.19085
1679993522383,1173510738663459,-0.4747875,-0.1379125,-0.232925
1679993522385,1173510741165612,-0.522775,-0.1819125,-0.2589125
1679993522388,1173510743667766,-0.593725,-0.210925,-0.26785
1679993522391,1173510746169920,-0.6868125,-0.24695,-0.2589125
1679993522393,1173510748671843,-0.8188125,-0.30195,-0.2409
1679993522395,1173510751173930,-0.935825,-0.3199625,-0.23485
1679993522398,1173510753676084,-1.0417,-0.2490125,-0.2189
1679993522401,1173510756178315,-1.16875,-0.1639,-0.1769625
1679993522403,1173510758680392,-1.28975,-0.0809875,-0.11495
1679993522407,1173510761182570,-1.3897125,0.039049998,-0.0358875
1679993522409,1173510763684493,-1.4757875,0.179025,0.0561
1679993522411,1173510766186646,-1.5457749,0.2880625,0.1810875
1679993522413,1173510768688723,-1.5767125,0.4081,0.328075
1679993522415,1173510771190954,-1.5967875,0.498025,0.46805
1679993522419,1173510773693002,-1.616725,0.5319875,0.581075
1679993522421,1173510776195156,-1.6137,0.524975,0.702075
1679993522423,1173510778697079,-1.58675,0.484,0.82115
1679993522425,1173510781199233,-1.5467374,0.407,0.9070875
1679993522428,1173510783701310,-1.4977875,0.2850375,0.96415
1679993522431,1173510786203459,-1.4477375,0.0950125,0.9981125
1679993522434,1173510788705613,-1.419825,-0.179025,0.99715
1679993522435,1173510791207766,-1.41075,-0.4789125,0.9670375
1679993522438,1173510793709920,-1.4147375,-0.7319125,0.9260625
1679993522441,1173510796211838,-1.4267,-0.903925,0.8831625
1679993522445,1173510798713915,-1.407725,-0.870925,0.83709997
1679993522447,1173510801216069,-1.331825,-0.60995,0.8160625
1679993522448,1173510803718300,-1.2417625,-0.315975,0.8111125
1679993522451,1173510806220377,-1.188825,-0.0919875,0.8240375
1679993522453,1173510808722310,-1.1517,0.039049998,0.840125
1679993522456,1173510811224464,-1.1017874,0.1120625,0.8721625
1679993522458,1173510813726618,-1.0467875,0.128975,0.906125
1679993522461,1173510816228695,-0.9967375,0.1040875,0.939125
1679993522463,1173510818730843,-0.9477875,0.0710875,0.9651125
1679993522465,1173510821232997,-0.8767,0.0210375,0.994125
1679993522468,1173510823735151,-0.8097375,-0.0089375,1.0011375
1679993522471,1173510826237083,-0.7297125,-0.018975,1.0280875
1679993522473,1173510828739237,-0.610775,-0.05995,1.060125
1679993522475,1173510831241314,-0.494725,-0.0889625,1.0690625
1679993522478,1173510833743468,-0.3757875,-0.1060125,1.0440375
1679993522483,1173510836245622,-0.2827,-0.095975,0.9911
1679993522484,1173510838747776,-0.1507,-0.1219625,0.9931625
1679993522487,1173510841249699,-0.0287375,-0.155925,0.97515
1679993522488,1173510843751852,0.060225,-0.15895,0.939125
1679993522491,1173510846253929,0.1552375,-0.1709125,0.9040625
1679993522493,1173510848756088,0.2261875,-0.212025,0.8551125
1679993522495,1173510851258242,0.2682625,-0.2189,0.774125
1679993522499,1173510853760396,0.2783,-0.227975,0.6791125
1679993522501,1173510856262319,0.2701875,-0.2209625,0.6100875
1679993522503,1173510858764468,0.26125,-0.1929125,0.5520625
1679993522506,1173510861266622,0.2371875,-0.168025,0.49115
1679993522508,1173510863768699,0.1962125,-0.146025,0.4310625
1679993522511,1173510866270622,0.154275,-0.1299375,0.3851375
1679993522513,1173510868773006,0.1161875,-0.14795,0.3311
1679993522516,1173510871275160,0.0721875,-0.179025,0.2770625
1679993522520,1173510873777083,0.0292875,-0.234025,0.2190375
1679993522522,1173510876279237,-0.0187,-0.2979625,0.1640375
1679993522524,1173510878781314,-0.0587125,-0.3609375,0.098037496
1679993522525,1173510881283468,-0.0977625,-0.425975,0.042075
1679993522528,1173510883785622,-0.153725,-0.4819375,1.375E-4
1679993522532,1173510886287776,-0.2057,-0.54395,-0.0328625
1679993522533,1173510888789699,-0.26675,-0.617925,-0.047849998
1679993522536,1173510891291858,-0.3498,-0.67595,-0.067925
1679993522539,1173510893793934,-0.4488,-0.7019375,-0.072875
1679993522541,1173510896296088,-0.5438125,-0.6529875,-0.058849998
1679993522543,1173510898798011,-0.6578,-0.617925,-0.039875
1679993522545,1173510901300391,-0.8017625,-0.7189875,-0.0188375
1679993522548,1173510903802314,-0.9398125,-0.8100125,0.02915
1679993522552,1173510906304468,-1.056825,-0.8449375,0.0961125
1679993522553,1173510908806622,-1.1897875,-0.8669375,0.1441
1679993522557,1173510911308685,-1.325775,-0.88,0.18315
1679993522559,1173510913810608,-1.4587375,-0.909975,0.2311375
1679993522561,1173510916312992,-1.595825,-0.9750125,0.3051125
1679993522563,1173510918815146,-1.7307125,-1.0659,0.3570875
1679993522566,1173510921317069,-1.8327374,-1.12695,0.3821125
1679993522568,1173510923819146,-1.919775,-1.2060125,0.389125
1679993522571,1173510926321300,-1.9947125,-1.310925,0.394075
1679993522573,1173510928823454,-2.0557625,-1.4049749,0.4101625
1679993522576,1173510931325377,-2.1058125,-1.5189625,0.43614998
1679993522579,1173510933827497,-2.144725,-1.6559125,0.460075
1679993522581,1173510936329651,-2.1817124,-1.8129375,0.4841375
1679993522583,1173510938831728,-2.2198,-1.9729875,0.504075
1679993522585,1173510941333882,-2.2528,-2.1190126,0.5281375
1679993522588,1173510943836035,-2.299825,-2.267925,0.5401
1679993522591,1173510946338208,-2.359775,-2.4209626,0.54408747
1679993522595,1173510948840131,-2.4248126,-2.5810125,0.543125
1679993522596,1173510951342285,-2.4657874,-2.729925,0.5291
1679993522598,1173510953844362,-2.46675,-2.827,0.5080625
1679993522602,1173510956346526,-2.436775,-2.861925,0.46805
1679993522604,1173510958848757,-2.387825,-2.827,0.427075
1679993522606,1173510961350834,-2.3178375,-2.729925,0.372075
1679993522610,1173510963852757,-2.222825,-2.60095,0.3100625
1679993522611,1173510966354911,-2.101825,-2.4539626,0.2470875
1679993522613,1173510968856988,-1.96075,-2.291025,0.17407499
1679993522615,1173510971359141,-1.7908,-2.082025,0.0930875
1679993522619,1173510973861295,-1.606825,-1.811975,-0.036849998
1679993522621,1173510976363449,-1.430825,-1.4999875,-0.2058375
1679993522623,1173510978865372,-1.2508374,-1.184975,-0.3729
1679993522626,1173510981367526,-1.0538,-0.9059875,-0.529925
1679993522628,1173510983869680,-0.8448,-0.6560125,-0.68694997
1679993522633,1173510986371757,-0.6307125,-0.4360125,-0.8459
1679993522635,1173510988873685,-0.4228125,-0.282975,-1.002925
1679993522637,1173510991376070,-0.208725,-0.1859,-1.1429
1679993522638,1173510993878223,0.015262499,-0.133925,-1.2559249
1679993522641,1173510996380147,0.23925,-0.108899996,-1.3469499
1679993522643,1173510998882223,0.45319998,-0.0979,-1.4279375
1679993522645,1173511001384357,0.6502375,-0.0939125,-1.4939375
1679993522648,1173511003886511,0.8171625,-0.0979,-1.5489374
1679993522652,1173511006388665,0.9482,-0.1060125,-1.601875
1679993522654,1173511008890584,1.0462375,-0.1139875,-1.6468375
1679993522655,1173511011392738,1.111275,-0.100925,-1.6919374
1679993522659,1173511013894892,1.1471624,-0.0559625,-1.73085
1679993522661,1173511016396969,1.149225,0.013062499,-1.761925
1679993522663,1173511018899123,1.13025,0.0950125,-1.7848874
1679993522665,1173511021401046,1.083225,0.176,-1.7958875
1679993522669,1173511023903430,1.0151625,0.2410375,-1.794925
1679993522672,1173511026405353,0.9262,0.3020875,-1.7839249
1679993522673,1173511028907507,0.8292625,0.3620375,-1.7678375
1679993522676,1173511031409588,0.725175,0.4250125,-1.7479
1679993522678,1173511033911742,0.615175,0.49307498,-1.7139375
1679993522682,1173511036413665,0.5011875,0.54408747,-1.67695
1679993522683,1173511038916050,0.390225,0.5790125,-1.6479375
1679993522685,1173511041418219,0.28325,0.592075,-1.6278625
1679993522688,1173511043920142,0.1791625,0.5850625,-1.61095
1679993522692,1173511046422219,0.0792,0.5740625,-1.5849625
1679993522693,1173511048924372,-0.0188375,0.5520625,-1.5398625
1679993522696,1173511051426516,-0.110825,0.5291,-1.47785
1679993522699,1173511053928439,-0.1958,0.5350125,-1.4218875
1679993522701,1173511056430824,-0.2718375,0.5520625,-1.36785
1679993522703,1173511058932747,-0.3337125,0.586025,-1.3168375
1679993522707,1173511061434901,-0.3837625,0.608025,-1.2648625
1679993522709,1173511063936978,-0.4307875,0.60005,-1.2269125
1679993522712,1173511066439132,-0.4668125,0.586025,-1.1939125
1679993522713,1173511068941055,-0.489775,0.5520625,-1.167925
1679993522716,1173511071443439,-0.5127375,0.5020125,-1.14785
1679993522718,1173511073945353,-0.5267625,0.443025,-1.1319
1679993522721,1173511076447507,-0.5317125,0.3751,-1.1209
1679993522723,1173511078949661,-0.5328125,0.304975,-1.1218625
1679993522726,1173511081451738,-0.5377625,0.242,-1.12585
1679993522729,1173511083953661,-0.5487625,0.1771,-1.1298375
1679993522732,1173511086456060,-0.5578375,0.0840125,-1.12695
1679993522734,1173511088958214,-0.5537125,-0.0419375,-1.1279125
1679993522736,1173511091460137,-0.5567375,-0.161975,-1.145925
1679993522739,1173511093962291,-0.572825,-0.231,-1.1878625
1679993522742,1173511096464368,-0.6037625,-0.2409,-1.2458875
1679993522746,1173511098966521,-0.6747125,-0.1500125,-1.3039125
1679993522747,1173511101468675,-0.830775,0.1359875,-1.3418624
1679993522749,1173511103970848,-1.1317625,0.5570125,-1.3448875
1679993522752,1173511106473002,-1.4158375,0.8760125,-1.3039125
1679993522753,1173511108974925,-1.6108125,1.034,-1.2199
1679993522755,1173511111477079,-1.71875,1.0580626,-1.1138875
1679993522758,1173511113979156,-1.7538124,1.010075,-1.00485
1679993522761,1173511116481300,-1.738825,0.944075,-0.930875
1679993522763,1173511118983453,-1.6927625,0.8320125,-0.88783747
1679993522766,1173511121485607,-1.6157625,0.6650875,-0.8578625
1679993522768,1173511123987530,-1.52075,0.49101248,-0.837925
1679993522771,1173511126489694,-1.4147375,0.2981,-0.8168875
1679993522773,1173511128991848,-1.3117499,0.1029875,-0.8028625
1679993522775,1173511131493925,-1.2087625,-0.0529375,-0.7909
1679993522779,1173511133995848,-1.1177375,-0.1529,-0.7789375
1679993522783,1173511136498247,-1.0208,-0.2189,-0.7588625
1679993522784,1173511139000170,-0.9277125,-0.2239875,-0.738925
1679993522786,1173511141502324,-0.841775,-0.19195,-0.71389997
1679993522788,1173511144004401,-0.7627125,-0.144925,-0.6829625
1679993522791,1173511146506554,-0.6917625,-0.086899996,-0.64295
1679993522793,1173511149008708,-0.643775,-0.029975,-0.59894997
1679993522796,1173511151510862,-0.6117375,0.0369875,-0.556875
1679993522798,1173511154013016,-0.59675,0.09405,-0.52195
1679993522801,1173511156514954,-0.5977125,0.1331,-0.4929375
1679993522803,1173511159017031,-0.5897375,0.172975,-0.46585
1679993522805,1173511161519262,-0.57475,0.20899999,-0.4398625
1679993522809,1173511164021416,-0.555775,0.229075,-0.4068625
1679993522812,1173511166523484,-0.5267625,0.2220625,-0.36987498
1679993522813,1173511169025407,-0.494725,0.19607499,-0.331925
1679993522816,1173511171527561,-0.4547125,0.143,-0.2938375
1679993522821,1173511174029714,-0.4048,0.0699875,-0.28187498
1679993522823,1173511176531771,-0.3498,-0.0059125,-0.2979625
1679993522825,1173511179225002,-0.2838,-0.0840125,-0.3188625
1679993522827,1173511181536079,-0.2168375,-0.16293749,-0.33385
1679993522829,1173511184038002,-0.15675,-0.2519,-0.3548875
1679993522833,1173511186540166,-0.1087625,-0.3509,-0.38885
1679993522834,1173511189042320,-0.0617375,-0.44701248,-0.42185
1679993522836,1173511191544397,-0.0037125,-0.518925,-0.45485
1679993522839,1173511194046628,0.044275,-0.5839625,-0.4899125
1679993522842,1173511196548704,0.0922625,-0.6469375,-0.5248375
1679993522843,1173511199050848,0.1491875,-0.71389997,-0.5729625
1679993522846,1173511201552771,0.1912625,-0.773025,-0.6298875
1679993522849,1173511204054925,0.230175,-0.8229375,-0.6738875
1679993522852,1173511206557002,0.2662,-0.8639125,-0.7038625
1679993522854,1173511209059185,0.3031875,-0.8839875,-0.7209125
1679993522858,1173511211561339,0.3392125,-0.88495,-0.70785
1679993522860,1173511214063416,0.374275,-0.9119,-0.66495
1679993522863,1173511216565339,0.4522375,-0.89196247,-0.6378625
1679993522865,1173511219067493,0.467225,-0.8479625,-0.6188875
1679993522867,1173511221569647,0.4252875,-0.804925,-0.595925
1679993522868,1173511224071723,0.406175,-0.740025,-0.5819
1679993522872,1173511226573877,0.3642375,-0.65793747,-0.5559125
1679993522874,1173511229076031,0.307175,-0.568975,-0.52195
1679993522876,1173511231577930,0.25025,-0.44494998,-0.47685
1679993522881,1173511234080084,0.1901625,-0.3069,-0.4398625
1679993522883,1173511236582238,0.126225,-0.16995,-0.3958625
1679993522884,1173511239084315,0.0672375,-0.036025,-0.3298625
1679993522886,1173511241586469,0.0061875,0.0840125,-0.24695
1679993522889,1173511244088623,-0.054725,0.185075,-0.155925
1679993522892,1173511246590776,-0.109725,0.2630375,-0.0749375
1679993522896,1173511249092699,-0.154825,0.3119875,-0.02585
1679993522897,1173511251594834,-0.2127125,0.3531,-0.0298375
1679993522900,1173511254096911,-0.2657875,0.352,-0.095837496
1679993522902,1173511256599065,-0.286825,0.2981,-0.1678875
1679993522904,1173511259101296,-0.2597375,0.22605,-0.2008875
1679993522906,1173511261603373,-0.1958,0.1530375,-0.1978625
1679993522909,1173511264105315,-0.1087625,0.088,-0.1788875
1679993522912,1173511266607469,-0.0177375,0.0369875,-0.16995
1679993522914,1173511269109623,0.054175,0.00605,-0.166925
1679993522916,1173511271611700,0.1122,-0.025024999,-0.18095
1679993522919,1173511274113858,0.1571625,-0.0669625,-0.20693749
1679993522922,1173511276616012,0.18727499,-0.122925,-0.2448875
1679993522924,1173511279118166,0.2132625,-0.1749,-0.2858625
1679993522926,1173511281620089,0.236225,-0.2270125,-0.314875
1679993522929,1173511284122243,0.2572625,-0.264,-0.3389375
1679993522934,1173511286624320,0.2762375,-0.276925,-0.3598375
1679993522937,1173511289126474,0.2891625,-0.287925,-0.3768875
1679993522938,1173511291628628,0.2952125,-0.2979625,-0.3818375
1679993522941,1173511294130763,0.2952125,-0.286,-0.3848625
1679993522944,1173511296632686,0.285175,-0.2589125,-0.3878875
1679993522946,1173511299134763,0.2701875,-0.2259125,-0.386925
1679993522947,1173511301636916,0.2481875,-0.183975,-0.3859625
1679993522950,1173511304139070,0.2231625,-0.1249875,-0.3738625
1679993522953,1173511306641190,0.1962125,-0.05995,-0.3579125
1679993522954,1173511309143344,0.1681625,0.013062499,-0.3469125
1679993522956,1173511311645267,0.132275,0.0950125,-0.3408625
1679993522959,1173511314147421,0.1012,0.1500125,-0.33385
1679993522962,1173511316649570,0.0831875,0.187,-0.32587498
1679993522964,1173511319151647,0.0672375,0.2211,-0.32587498
1679993522967,1173511321653801,0.0532125,0.245025,-0.33495
1679993522971,1173511324155954,0.0512875,0.234025,-0.3378375
1679993522973,1173511326658099,0.065175,0.21505,-0.3469125
1679993522975,1173511329160022,0.0792,0.2019875,-0.36987498
1679993522977,1173511331662176,0.0752125,0.2330625,-0.3969625
1679993522980,1173511334164253,0.015262499,0.366025,-0.4178625
1679993522982,1173511336666176,-0.055825,0.4610375,-0.430925
1679993522984,1173511339168561,-0.1078,0.5080625,-0.44288749
1679993522987,1173511341670715,-0.1728375,0.5740625,-0.4648875
1679993522989,1173511344172638,-0.2517625,0.627,-0.4808375
1679993522992,1173511346674792,-0.346775,0.656975,-0.507925
1679993522994,1173511349176869,-0.4547125,0.6721,-0.5399625
1679993522996,1173511351679060,-0.5688375,0.680075,-0.5599
1679993522998,1173511354181291,-0.671825,0.6780125,-0.578875
1679993523002,1173511356683368,-0.7717875,0.6670125,-0.5929
1679993523003,1173511359185291,-0.8558,0.64405,-0.59688747
1679993523008,1173511361687421,-0.91781247,0.60101247,-0.5858875
1679993523009,1173511364189575,-0.95975,0.54202497,-0.573925
1679993523012,1173511366691652,-0.968825,0.4690125,-0.5729625
1679993523014,1173511369193883,-0.9548,0.3840375,-0.5748875
1679993523016,1173511371695959,-0.9197375,0.2871,-0.5638875
1679993523019,1173511374198108,-0.86075,0.179025,-0.5498625
1679993523022,1173511376700031,-0.781825,0.0699875,-0.5509625
1679993523024,1173511379202185,-0.6908,-0.0209,-0.5528875
1679993523026,1173511381704339,-0.58575,-0.10395,-0.56485
1679993523028,1173511384206493,-0.478775,-0.183975,-0.5798375
1679993523032,1173511386708599,-0.362725,-0.2600125,-0.6059625
1679993523034,1173511389210522,-0.2388375,-0.3249125,-0.6259
1679993523036,1173511391712676,-0.1258125,-0.3689125,-0.6458375
1679993523039,1173511394214830,-0.021724999,-0.407,-0.661925
1679993523042,1173511396716994,0.07425,-0.43395,-0.65587497
1679993523046,1173511399219147,0.1461625,-0.443025,-0.6479
1679993523047,1173511401721224,0.198275,-0.4239125,-0.65793747
1679993523049,1173511404223147,0.21725,-0.3859625,-0.64185
1679993523052,1173511406725320,0.21725,-0.32793748,-0.6048625
1679993523054,1173511409227474,0.2041875,-0.2649625,-0.57585
1679993523056,1173511411729628,0.1901625,-0.194975,-0.5509625
1679993523060,1173511414231782,0.1802625,-0.1079375,-0.50888747
1679993523062,1173511416733864,0.1632125,-0.0149875,-0.4588375
1679993523064,1173511419236018,0.142175,0.061049998,-0.4148375
1679993523067,1173511421738171,0.126225,0.117975,-0.380875
1679993523069,1173511424240095,0.122237496,0.1689875,-0.34485
1679993523072,1173511426742171,0.1232,0.2110625,-0.3069
1679993523073,1173511429244402,0.12925,0.2651,-0.2718375
1679993523076,1173511431746556,0.143275,0.32999998,-0.22687499
1679993523078,1173511434248633,0.15619999,0.3840375,-0.1788875
1679993523083,1173511436750767,0.1711875,0.4140125,-0.1419
1679993523085,1173511439252690,0.1711875,0.425975,-0.1098625
1679993523087,1173511441754844,0.1681625,0.425975,-0.0908875
1679993523089,1173511444256998,0.1582625,0.41799998,-0.083875
1679993523092,1173511446759152,0.1472625,0.399025,-0.0429
1679993523094,1173511449261219,0.143275,0.366025,-0.01595
1679993523097,1173511451763373,0.1362625,0.3260125,-0.001925
1679993523100,1173511454265296,0.12925,0.2761,0.0011
1679993523102,1173511456767450,0.11825,0.223025,1.375E-4
1679993523104,1173511459269599,0.1093125,0.1640375,-0.0059125
1679993523106,1173511461771753,0.10725,0.11,-0.01485
1679993523108,1173511464273830,0.1093125,0.0680625,-0.0229625
1679993523112,1173511466775984,0.1172875,0.020075,-0.0389125
1679993523114,1173511469278138,0.1332375,-0.0539,-0.0539
1679993523117,1173511471780061,0.15125,-0.143,-0.06985
1679993523122,1173511474282214,0.171325,-0.227975,-0.078925
1679993523124,1173511476784368,0.18933749,-0.3108875,-0.086899996
1679993523126,1173511479590772,0.2193125,-0.3939375,-0.089925
1679993523128,1173511481788618,0.2572625,-0.4819375,-0.10285
1679993523129,1173511484290772,0.313225,-0.5790125,-0.1208625
1679993523133,1173511486792695,0.38225,-0.6919,-0.1379125
1679993523135,1173511489294849,0.4552625,-0.8149625,-0.144925
1679993523138,1173511491797003,0.5313,-0.9629125,-0.13585
1679993523140,1173511494299157,0.5872625,-1.08295,-0.122925
1679993523143,1173511496801310,0.6043125,-1.1669625,-0.072875
1679993523146,1173511499303372,0.6153125,-1.1309375,0.0020625
1679993523147,1173511501805526,0.621225,-0.9609875,0.0581625
1679993523149,1173511504307449,0.62425,-0.7599625,0.08305
1679993523152,1173511506809603,0.6122875,-0.557975,0.0600875
1679993523154,1173511509311757,0.5872625,-0.3609375,-9.625E-4
1679993523158,1173511511813911,0.5462875,-0.1549625,-0.083875
1679993523160,1173511514315988,0.50325,0.0259875,-0.149875
1679993523162,1173511516818142,0.490325,0.14905,-0.20185
1679993523165,1173511519320065,0.5083375,0.212025,-0.243925
1679993523166,1173511521822219,0.528275,0.22605,-0.2809125
1679993523169,1173511524324569,0.56925,0.2050125,-0.32285
1679993523172,1173511526826492,0.6303,0.1689875,-0.36795
1679993523174,1173511529328569,0.69025,0.10505,-0.41085
1679993523176,1173511531830723,0.7403,0.0350625,-0.4508625
1679993523179,1173511534332891,0.770275,-0.0319,-0.4739625
1679993523182,1173511536834814,0.7682125,-0.100925,-0.4838625
1679993523184,1173511539336968,0.7462125,-0.1678875,-0.4698375
1679993523186,1173511541839122,0.710325,-0.227975,-0.4409625
1679993523189,1173511544341276,0.6692125,-0.2759625,-0.4049375
1679993523192,1173511546843424,0.633325,-0.3029125,-0.3738625
1679993523195,1173511549345501,0.6073375,-0.298925,-0.34485
1679993523197,1173511551847424,0.5842375,-0.2778875,-0.3249125
1679993523199,1173511554349578,0.55825,-0.232925,-0.32587498
1679993523202,1173511556851973,0.5292375,-0.1709125,-0.3218875
1679993523204,1173511559353896,0.4882625,-0.099,-0.3268375
1679993523207,1173511561856050,0.4332625,-0.0070125,-0.3419625
