system_ts_ms, sensor_ts_ns, accX, accY, accZ
1679993518232,1173506585164324,4.9510503,0.44595003,8.545051
1679993518232,1173506587666464,4.9120502,0.36795002,8.63595
1679993518234,1173506590168617,4.73505,0.31800002,8.545051
1679993518237,1173506592670771,4.49595,0.30600002,8.658
1679993518241,1173506595172934,4.2010503,0.36105,8.587951
1679993518243,1173506597674857,3.82695,0.37305,8.844001
1679993518252,1173506600176934,3.6409502,0.48495004,9.09405
1679993518252,1173506602679088,3.3120003,0.61605,9.58005
1679993518253,1173506605181242,3.08295,0.73905003,9.846001
1679993518253,1173506607683468,2.83095,0.85800004,10.234051
1679993518254,1173506610185545,2.57505,0.90900004,10.82505
1679993518257,1173506612687468,2.2399502,1.011,11.533951
1679993518259,1173506615189622,1.8970501,0.96105003,12.5449505
1679993518262,1173506617691775,1.26495,0.83895004,13.207951
1679993518264,1173506620193862,0.78705,0.57600003,13.65795
1679993518267,1173506622696093,0.54495,0.45795003,13.87905
1679993518269,1173506625198170,0.21000001,0.37305,13.987051
1679993518272,1173506627700324,0.11595,0.31800002,14.182951
1679993518274,1173506630202242,-0.078,0.36405003,14.128051
1679993518281,1173506632704396,-0.16905001,0.34005,14.146951
1679993518281,1173506635206550,-0.25995,0.37905002,14.014951
1679993518283,1173506637708608,-0.18105,0.6,13.837951
1679993518285,1173506640210838,-0.08505,0.60195005,13.656001
1679993518287,1173506642712915,0.051000003,0.777,13.15305
1679993518290,1173506645215069,0.36795002,0.91305006,12.835051
1679993518292,1173506647717223,0.66195005,1.1050501,12.174001
1679993518298,1173506650219160,0.9289501,1.11195,11.521951
1679993518298,1173506652721237,1.167,1.1719501,10.82295
1679993518299,1173506655223468,1.437,1.3230001,10.224001
1679993518303,1173506657725545,1.6189501,1.3399501,9.462001
1679993518305,1173506660227699,1.7080501,1.45905,8.73705
1679993518307,1173506662729833,1.89495,1.47105,8.32995
1679993518309,1173506665231987,2.01405,1.4430001,7.7880006
1679993518316,1173506667733910,1.9519501,1.5480001,7.26105
1679993518317,1173506670235982,1.93095,1.5169501,6.7320004
1679993518318,1173506672738213,2.05005,1.6009501,6.4810505
1679993518320,1173506675240367,2.0719502,1.5409501,6.05205
1679993518323,1173506677742444,2.0020502,1.6320001,5.709
1679993518324,1173506680244598,2.055,1.7830501,5.3380504
1679993518327,1173506682746545,2.0719502,1.764,5.27295
1679993518333,1173506685248699,2.058,1.69395,4.97205
1679993518336,1173506687750852,1.9590001,1.8520501,4.7730002
1679993518336,1173506690253006,2.0400002,1.9410001,4.79895
1679993518338,1173506692755069,1.9590001,1.9980001,4.6320004
1679993518341,1173506695257223,1.9930501,2.0970001,4.617
1679993518343,1173506697759146,1.9429501,2.12805,4.5210004
1679993518349,1173506700261300,1.81305,2.17995,4.4880004
1679993518349,1173506702763454,1.8780001,2.2069502,4.61205
1679993518349,1173506705265638,1.89495,2.2690501,4.66995
1679993518354,1173506707767792,1.9090501,2.322,4.97205
1679993518355,1173506710269869,1.9039501,2.283,5.22795
1679993518357,1173506712772022,1.7869501,2.4850502,5.61105
1679993518359,1173506715273945,1.6650001,2.35995,5.87895
1679993518364,1173506717776094,1.557,2.47005,6.37305
1679993518364,1173506720278479,1.4280001,2.45805,6.6910505
1679993518367,1173506722780402,1.2379501,2.45295,7.2040505
1679993518370,1173506725282479,1.08,2.3860502,7.5799503
1679993518372,1173506727784633,0.83505005,2.3500502,7.9990506
1679993518374,1173506730286787,0.69795,2.2740002,8.260051
1679993518381,1173506732788940,0.588,2.1709502,8.574
1679993518381,1173506735291094,0.45600003,2.20005,9.04605
1679993518382,1173506737793017,0.39195,2.18805,9.328051
1679993518384,1173506740295171,0.34800002,2.2740002,9.74295
1679993518387,1173506742797325,0.21405001,2.118,9.970051
1679993518391,1173506745299373,0.15705001,2.08695,10.176001
1679993518394,1173506747801527,0.15900001,2.058,10.51095
1679993518399,1173506750303450,0.19800001,2.0730002,10.581
1679993518399,1173506752805835,0.29595003,2.1370502,10.725
1679993518400,1173506755307758,0.29295,1.9050001,10.80405
1679993518402,1173506757809907,0.40395,1.9699501,10.64805
1679993518406,1173506760312060,0.52305,1.7560501,10.37205
1679993518407,1173506762814137,0.66495,1.7590501,9.967951
1679993518410,1173506765316291,0.80100006,1.51005,9.82905
1679993518415,1173506767818445,0.79200006,1.881,9.691951
1679993518415,1173506770320580,0.86805004,1.8570001,9.240001
1679993518418,1173506772822503,0.95100003,1.6180501,8.731951
1679993518419,1173506775324657,1.0849501,1.54305,8.401051
1679993518422,1173506777826734,1.2739501,1.572,8.262
1679993518424,1173506780328868,1.473,1.44,7.9579506
1679993518431,1173506782830791,1.7010001,1.52205,7.55595
1679993518432,1173506785333175,1.9519501,1.4280001,7.0750504
1679993518433,1173506787835305,2.25405,1.404,6.675
1679993518436,1173506790337228,2.52195,1.3560001,6.4489503
1679993518438,1173506792839382,2.6830502,1.3300501,6.1050005
1679993518440,1173506795341459,2.7859502,1.3230001,5.86005
1679993518443,1173506797843613,2.877,1.16505,5.61105
1679993518449,1173506800345859,2.9220002,1.30095,5.47695
1679993518450,1173506802847936,2.9959502,1.2100501,5.5609503
1679993518451,1173506805349859,2.8960502,1.2529501,5.36205
1679993518452,1173506807852013,2.7210002,1.263,5.2830005
1679993518455,1173506810354180,2.5800002,1.31595,5.2380004
1679993518458,1173506812856334,2.3089502,1.3039501,5.0989504
1679993518460,1173506815358411,2.0719502,1.26495,5.07
1679993518465,1173506817860565,1.81305,1.3759501,4.8640504
1679993518466,1173506820362464,1.66005,1.4569501,4.8900003
1679993518468,1173506822864618,1.5469501,1.47105,5.04405
1679993518471,1173506825367003,1.19505,1.54305,5.4150004
1679993518472,1173506827868926,1.03695,1.6819501,5.5939503
1679993518475,1173506830371003,0.804,1.692,5.82
1679993518477,1173506832873171,0.63600004,1.70895,6.0160503
1679993518483,1173506835375325,0.41805002,1.8280501,6.28695
1679993518484,1173506837877248,0.35295,1.9050001,6.6150002
1679993518485,1173506840379402,0.31305,1.89795,6.6649504
1679993518487,1173506842881556,0.303,1.7899501,6.9600005
1679993518490,1173506845383734,0.39405003,1.7539501,6.94005
1679993518492,1173506847885888,0.51405,1.5979501,6.9739504
1679993518497,1173506850387965,0.67200005,1.5270001,6.9600005
1679993518498,1173506852890090,0.90795004,1.3369501,7.017
1679993518500,1173506855392013,1.07595,1.215,7.0960503
1679993518504,1173506857894397,1.2430501,1.0000501,7.221
1679993518506,1173506860396320,1.557,0.96795005,7.1700006
1679993518507,1173506862898474,1.7370001,0.68595004,7.1179504
1679993518509,1173506865400546,2.1409502,0.47295,7.1580005
1679993518514,1173506867902700,2.4409502,0.42000002,7.0750504
1679993518515,1173506870404623,2.76195,0.27705002,7.0219502
1679993518517,1173506872906777,3.0679502,0.24105,7.0360503
1679993518520,1173506875409122,3.45405,0.14805001,6.9880505
1679993518522,1173506877911045,3.7410002,-0.003,6.9210005
1679993518524,1173506880413198,4.33005,-0.22995001,6.0420003
1679993518527,1173506882915275,4.4809504,-0.36495003,4.63395
1679993518533,1173506885417425,4.33995,-0.31905,3.4050002
1679993518534,1173506887919348,4.17705,-0.46005002,3.9919503
1679993518535,1173506890421733,4.42605,-0.88905007,5.1990004
1679993518538,1173506892923887,4.6729503,-0.99000007,5.9539504
1679993518542,1173506895425795,4.70895,-0.98205006,6.1260004
1679993518549,1173506897927872,4.359,-0.81705004,5.87895
1679993518549,1173506900430026,4.0680003,-0.64500004,5.6020503
1679993518550,1173506902932180,3.8179502,-0.30705002,5.37195
1679993518551,1173506905434103,3.4369502,-0.12495001,5.6329503
1679993518553,1173506907936468,3.18105,-0.0049500004,5.97795
1679993518555,1173506910438391,2.9170501,0.22695,6.45195
1679993518557,1173506912940545,2.50305,0.35595003,6.7099504
1679993518560,1173506915442699,2.163,0.40305,6.94005
1679993518564,1173506917944776,1.52295,0.37500003,7.1629505
1679993518565,1173506920446954,0.94905007,0.46095002,7.3669505
1679993518567,1173506922949108,0.30495003,0.597,7.6780505
1679993518570,1173506925451261,-0.171,0.36105,7.9560003
1679993518572,1173506927953185,-0.64500004,0.64995,8.30805
1679993518575,1173506930455352,-1.09095,0.61605,8.821051
1679993518583,1173506932957506,-1.4860501,0.71505004,9.346951
1679993518584,1173506935459583,-1.7569501,0.76500005,9.73095
1679993518586,1173506938136824,-2.19495,0.71895003,10.18095
1679993518587,1173506940463901,-2.4420002,0.89895004,10.66695
1679993518588,1173506942966055,-2.69805,0.9799501,11.31105
1679993518590,1173506945467978,-2.91405,0.90105003,11.809051
1679993518593,1173506947970132,-3.07905,0.95400006,12.147
1679993518599,1173506950472218,-3.1750503,0.98505,12.50895
1679993518601,1173506952974371,-3.1990502,0.97095007,12.85095
1679993518602,1173506955476525,-3.21495,0.98805004,13.11705
1679993518604,1173506957978679,-3.22005,0.94200003,13.443001
1679993518605,1173506960480833,-3.1630502,0.94905007,13.813951
1679993518607,1173506962982756,-3.0310502,0.873,13.972051
1679993518610,1173506965484833,-2.8459501,0.81495005,14.202001
1679993518619,1173506967986987,-2.631,0.89205,14.298
1679993518620,1173506970489204,-2.45595,0.82005006,14.37495
1679993518621,1173506972991281,-2.32905,0.85605,14.680951
1679993518623,1173506975493434,-2.0989501,0.94695,14.611951
1679993518624,1173506977995358,-1.8090001,0.98805004,14.652
1679993518625,1173506980497511,-1.4070001,0.94695,14.55195
1679993518627,1173506982999593,-1.1200501,0.98805004,14.52795
1679993518630,1173506985501747,-0.80805004,0.966,14.296051
1679993518632,1173506988003978,-0.61395,0.91605,14.001
1679993518635,1173506990506055,-0.25005,0.90900004,13.576951
1679993518637,1173506993008209,-0.09195001,0.83895004,13.057051
1679993518640,1173506995510141,-0.094950005,0.597,12.616951
1679993518643,1173506998012295,0.19005,0.58995,11.565001
1679993518645,1173507000514449,0.43905002,0.56805,10.986
1679993518647,1173507003016602,0.62595004,0.50505,10.689
1679993518650,1173507005518660,0.88305,0.624,10.79895
1679993518654,1173507008020814,0.975,0.67905,10.894951
1679993518656,1173507010522968,1.2409501,0.79095006,10.95405
1679993518659,1173507013024891,1.3939501,0.90105003,10.818001
1679993518660,1173507015527045,1.58595,0.88695,10.753051
1679993518663,1173507018029199,1.72905,1.011,10.63395
1679993518665,1173507020531353,1.9980001,1.12905,10.64805
1679993518667,1173507023033430,1.9930501,1.1719501,10.52805
1679993518670,1173507025535583,2.11305,1.4470501,10.602
1679993518673,1173507028037742,2.019,1.6650001,10.725
1679993518675,1173507030539665,1.9350001,1.8790501,10.879951
1679993518677,1173507033041819,1.7370001,1.98405,10.909051
1679993518680,1173507035543973,1.3630501,2.08695,11.11005
1679993518683,1173507038046132,0.9889501,2.2810502,11.3539505
1679993518685,1173507040548209,0.59505004,2.32395,11.479051
1679993518687,1173507043050363,0.33195,2.5519502,11.94795
1679993518691,1173507045552526,0.16605,2.559,12.387001
1679993518694,1173507048054679,-0.252,2.74305,12.66705
1679993518696,1173507050556602,-0.41295,2.79795,13.014001
1679993518699,1173507053058756,-0.68100005,2.736,13.431001
1679993518700,1173507055560833,-0.89895004,2.67405,13.87905
1679993518703,1173507058062992,-1.04505,2.5849502,14.142
1679993518706,1173507060565146,-1.2079501,2.48895,14.482051
1679993518708,1173507063067300,-1.2900001,2.5129502,14.655001
1679993518710,1173507065569223,-1.371,2.298,14.901001
1679993518713,1173507068071386,-1.33305,2.262,14.944951
1679993518715,1173507070573540,-1.09095,2.214,15.16005
1679993518718,1173507073075617,-0.81105006,2.15595,15.124051
1679993518720,1173507075577770,-0.42495003,2.283,15.229951
1679993518723,1173507078079924,-0.162,2.2350001,15.1699505
1679993518725,1173507080582088,0.16905001,2.283,15.166951
1679993518729,1173507083084242,0.49905002,2.28795,15.081
1679993518732,1173507085586165,0.86805004,2.394,14.884951
1679993518735,1173507088088309,1.116,2.319,14.638051
1679993518737,1173507090590386,1.21395,2.32605,14.209051
1679993518740,1173507093092540,1.3770001,2.40105,13.71405
1679993518743,1173507095594694,1.33905,2.4100502,13.471951
1679993518745,1173507098485223,1.3270501,2.41995,13.1959505
1679993518747,1173507100598992,1.21905,2.5780501,12.825001
1679993518749,1173507103100915,1.0680001,2.6790001,12.745951
1679993518751,1173507105602992,0.90795004,2.877,12.538051
1679993518753,1173507108105146,0.86100006,2.868,12.384001
1679993518755,1173507110607353,0.588,2.9299502,12.435
1679993518757,1173507113109430,0.39405003,2.94,12.49905
1679993518760,1173507115611584,0.22905001,3.11205,12.4800005
1679993518763,1173507118113507,0.11595,3.2080503,12.778951
1679993518767,1173507120615680,0.11100001,3.31605,12.66705
1679993518768,1173507123117757,0.135,3.186,12.736051
1679993518770,1173507125619987,0.28905,3.2050502,12.47805
1679993518773,1173507128122141,0.61905,3.3439503,12.423
1679993518775,1173507130624218,0.813,3.2680502,12.372001
1679993518778,1173507133126155,1.1230501,3.31095,12.35595
1679993518780,1173507135628309,1.4080501,3.2629502,12.340951
1679993518784,1173507138130463,1.55505,3.153,12.384001
1679993518785,1173507140632617,1.7340001,3.1579502,12.576
1679993518787,1173507143134771,1.8229501,3.10995,12.703051
1679993518790,1173507145636881,1.9039501,3.0280502,12.94995
1679993518793,1173507148139035,1.88505,2.98305,13.191001
1679993518795,1173507150640958,1.8870001,3.0280502,13.203001
1679993518797,1173507153143112,1.6980001,3.0349503,13.516951
1679993518800,1173507155645280,1.5949501,3.0690002,13.5720005
1679993518806,1173507158147434,1.44,3.01605,13.687051
1679993518807,1173507160649511,1.36995,3.14595,13.72605
1679993518808,1173507163151665,1.2019501,3.1189501,13.65795
1679993518810,1173507165653838,1.03995,3.0880501,13.761001
1679993518813,1173507168155761,1.0830001,3.14295,13.64595
1679993518815,1173507170657915,0.82305,3.0949502,13.672951
1679993518818,1173507173160068,0.813,3.0690002,13.407001
1679993518821,1173507175662222,0.62100005,2.9989502,13.2630005
1679993518823,1173507178164376,0.57405,3.0259502,13.251
1679993518825,1173507180666453,0.46605003,2.9850001,13.1959505
1679993518828,1173507183168607,0.49695003,3.0670502,13.210951
1679993518830,1173507185670530,0.61005,2.9560502,13.267951
1679993518833,1173507188172665,0.82305,2.8650002,13.302001
1679993518835,1173507190674819,1.0879501,2.7960002,13.10805
1679993518837,1173507193176973,1.23105,2.6209502,12.649951
1679993518841,1173507195679126,1.4110501,2.6260502,12.19005
1679993518844,1173507198181203,1.4440501,2.5870502,11.548051
1679993518846,1173507200683126,1.4130001,2.5759501,10.927951
1679993518848,1173507203185280,1.3630501,2.5440001,10.35795
1679993518850,1173507205687665,1.3099501,2.559,9.915001
1679993518854,1173507208189579,1.3270501,2.4850502,9.472051
1679993518862,1173507210691733,1.2600001,2.4799502,9.06705
1679993518862,1173507213193810,1.3630501,2.496,8.809051
1679993518862,1173507215695964,1.2240001,2.3410501,8.62395
1679993518862,1173507218197887,1.24995,2.4490502,8.51595
1679993518864,1173507220700056,1.2580501,2.42505,8.33205
1679993518867,1173507223202440,1.18305,2.4409502,8.37495
1679993518870,1173507225704363,1.33905,2.259,8.370001
1679993518872,1173507228206440,1.38705,2.26395,8.34195
1679993518875,1173507230708579,1.5790501,2.154,8.31
1679993518879,1173507233210733,1.69605,2.25,8.227051
1679993518882,1173507235712656,1.8319501,2.013,8.167951
1679993518884,1173507238215061,2.0400002,1.9909501,8.016001
1679993518885,1173507240716984,2.2729502,1.8739501,7.9420505
1679993518887,1173507243219137,2.39295,1.8790501,7.8409505
1679993518890,1173507245721291,2.529,1.8589501,7.90605
1679993518893,1173507248223368,2.59605,1.9120501,7.6729503
1679993518895,1173507250725541,2.7829502,1.9579501,7.5919504
1679993518898,1173507253227695,2.8170002,1.8400501,7.491
1679993518900,1173507255729618,2.9290502,1.8430501,7.3690505
1679993518904,1173507258231772,2.84295,1.8430501,7.4719505
1679993518905,1173507260733936,2.97,1.713,7.4890504
1679993518907,1173507263236013,2.90295,1.5769501,7.6540504
1679993518910,1173507265738167,2.7499502,1.4790001,8.154
1679993518913,1173507268240320,2.6920502,1.4140501,8.466001
1679993518917,1173507270742488,2.4169502,1.31295,8.81295
1679993518919,1173507273244411,2.4499502,1.2409501,9.1369505
1679993518922,1173507275746488,2.3760002,1.31595,9.534
1679993518924,1173507278248642,2.32095,1.27005,9.786
1679993518926,1173507280750873,2.196,1.31805,10.159051
1679993518928,1173507283252987,2.1010501,1.2390001,10.332001
1679993518930,1173507285755141,1.9189501,1.16205,10.521001
1679993518933,1173507288257064,1.8250501,1.182,10.6050005
1679993518935,1173507290759218,1.7050501,1.2079501,10.614
1679993518938,1173507293261348,1.6339501,1.1700001,10.576051
1679993518940,1173507295763502,1.5139501,1.0639501,10.543051
1679993518943,1173507298265656,1.5979501,1.074,10.36995
1679993518945,1173507300767733,1.6840501,1.0669501,10.20495
1679993518947,1173507303269887,1.65495,1.0030501,9.89295
1679993518950,1173507305771810,1.6890001,0.95400006,9.795
1679993518955,1173507308273964,1.7869501,1.04505,9.637051
1679993518956,1173507310776118,1.7700001,0.99495006,9.453
1679993518958,1173507313278272,1.7370001,1.08105,9.30405
1679993518960,1173507315780349,1.64295,1.07895,9.333
1679993518963,1173507318282488,1.7820001,1.059,9.249001
1679993518965,1173507320784642,1.8540001,1.095,9.10305
1679993518967,1173507323286565,1.9860001,1.05495,9.1390505
1679993518970,1173507325788719,2.079,1.1530501,9.237
1679993518973,1173507328290849,2.1460502,1.14795,9.156
1679993518975,1173507330793003,2.0380502,1.131,9.141001
1679993518978,1173507333295080,1.9590001,1.1839501,9.27795
1679993518980,1173507335797234,1.7989501,1.2610501,9.316051
1679993518983,1173507338299382,1.71,1.43505,9.405001
1679993518985,1173507340801306,1.5520501,1.5270001,9.405001
1679993518987,1173507343303382,1.353,1.6650001,9.346951
1679993518992,1173507345805618,1.1689501,1.6339501,9.60105
1679993518994,1173507348307772,1.212,1.6819501,9.60105
1679993518996,1173507350809849,1.2379501,1.8349501,9.496051
1679993518998,1173507353312003,1.2600001,1.6819501,9.738001
1679993519001,1173507355813926,1.24605,1.8520501,9.823951
1679993519004,1173507358316055,1.212,1.7560501,9.699
1679993519005,1173507360818209,1.26195,1.7320501,9.958051
1679993519008,1173507363320363,1.248,1.8000001,10.03005
1679993519010,1173507365822516,1.38495,1.8190501,10.200001
1679993519014,1173507368324617,1.5330001,1.8430501,10.284
1679993519022,1173507370826540,1.7080501,1.9380001,10.47795
1679993519023,1173507373328694,1.6789501,1.78005,10.59
1679993519024,1173507375831089,1.6860001,1.8330001,10.51095
1679993519024,1173507378333012,1.6480501,1.6060501,10.416
1679993519025,1173507380835166,1.5829501,1.8400501,10.377001
1679993519029,1173507383337243,1.6840501,1.7950501,10.293
1679993519032,1173507385839397,1.6480501,1.84695,10.111051
1679993519034,1173507388341560,1.57605,1.8859501,9.903001
1679993519036,1173507390843484,1.6099501,1.8349501,9.846001
1679993519039,1173507393345868,1.58595,1.8550501,9.81
1679993519040,1173507395847791,1.5880501,1.917,9.835951
1679993519043,1173507398349945,1.6380001,2.02005,9.690001
1679993519045,1173507400852051,1.66005,2.0329502,9.89295
1679993519048,1173507403354205,1.7050501,2.082,9.70905
1679993519050,1173507405856128,1.57095,2.1400502,9.61305
1679993519053,1173507408358513,1.4779501,2.17995,9.622951
1679993519055,1173507410860421,1.45905,2.2110002,9.462001
1679993519058,1173507413362575,1.4419501,2.23305,9.276
1679993519060,1173507415864728,1.3440001,2.22795,9.144
1679993519063,1173507418366805,1.3410001,2.2690501,9.02595
1679993519067,1173507420868945,1.4760001,2.25705,8.91405
1679993519068,1173507423370868,1.58595,2.3100002,8.78205
1679993519070,1173507425873253,1.6840501,2.3500502,8.821051
1679993519073,1173507428375176,1.761,2.358,8.8279505
1679993519075,1173507430877330,1.7820001,2.36205,8.81805
1679993519077,1173507433379469,1.8180001,2.214,8.859
1679993519080,1173507435881546,1.8750001,2.3119502,9.040951
1679993519083,1173507438383469,1.9350001,2.3790002,9.25395
1679993519085,1173507440885853,2.0770502,2.43405,9.129001
1679993519087,1173507443388002,2.043,2.367,9.276
1679993519090,1173507445889925,1.9780501,2.427,9.35505
1679993519093,1173507448392079,2.022,2.4169502,9.472051
1679993519095,1173507450894156,1.9450501,2.32905,9.69705
1679993519098,1173507453396277,1.9399501,2.35305,9.691951
1679993519100,1173507455898508,1.87995,2.22105,9.771001
1679993519104,1173507458400585,1.7680501,2.3380501,9.798
1679993519106,1173507460902738,1.8420001,2.3119502,9.958051
1679993519108,1173507463404661,1.8730501,2.43705,9.988951
1679993519110,1173507465906824,1.79595,2.43705,9.92205
1679993519113,1173507468408901,1.8919501,2.50395,9.975
1679993519116,1173507470911055,1.7680501,2.4820502,9.87405
1679993519118,1173507473413209,1.7010001,2.523,9.949051
1679993519121,1173507475915354,1.626,2.45295,9.858001
1679993519123,1173507478417277,1.45395,2.5780501,9.931951
1679993519125,1173507480919431,1.3369501,2.595,10.102051
1679993519128,1173507483421585,1.0879501,2.5399501,10.156951
1679993519130,1173507485923623,0.93900007,2.6809502,10.33695
1679993519133,1173507488425776,0.76995003,2.76195,10.19295
1679993519135,1173507490927930,0.648,2.8530002,10.212001
1679993519140,1173507493430084,0.52995,2.8960502,9.955951
1679993519142,1173507495932017,0.49905002,3.0259502,9.786
1679993519146,1173507498434171,0.40605003,3.00195,9.55605
1679993519147,1173507501038094,0.279,3.01095,9.26805
1679993519149,1173507503438479,0.40395,2.9520001,9.10095
1679993519152,1173507505940556,0.36795002,3.0979502,9.024
1679993519154,1173507508442694,0.44400004,3.078,8.95005
1679993519155,1173507510944618,0.52095,3.186,8.718
1679993519157,1173507513446771,0.54495,3.2220001,8.81295
1679993519160,1173507515949156,0.58095,3.2220001,8.575951
1679993519163,1173507518451065,0.62895006,3.246,8.512051
1679993519165,1173507520953142,0.68595004,3.2389503,8.538
1679993519168,1173507523455296,0.72900003,3.246,8.434951
1679993519170,1173507525957450,0.86595005,3.2410502,8.3560505
1679993519173,1173507528459382,0.82500005,3.3010502,8.47995
1679993519176,1173507530961766,1.02495,3.37995,8.545051
1679993519180,1173507533463690,0.95295006,3.4020002,8.47605
1679993519184,1173507535964762,0.94095004,3.41895,8.571
1679993519184,1173507538465839,0.89205,3.35595,8.62695
1679993519186,1173507540970070,0.84405005,3.3970501,8.734051
1679993519188,1173507543472224,0.86295,3.387,8.9740505
1679993519190,1173507545974147,0.90405005,3.2650502,9.0379505
1679993519193,1173507548476301,1.0680001,3.28005,9.12195
1679993519195,1173507550978455,1.14705,3.14805,9.307051
1679993519197,1173507553480609,1.3369501,3.32505,9.232051
1679993519200,1173507555982686,1.5330001,3.3400502,9.30195
1679993519203,1173507558484839,1.4760001,3.2080503,9.469951
1679993519205,1173507560986758,1.4440501,3.22005,9.51
1679993519208,1173507563489142,1.3939501,3.2340002,9.307051
1679993519210,1173507565991296,1.3369501,3.318,9.24705
1679993519213,1173507568493219,1.404,3.1579502,9.156
1679993519217,1173507570995281,1.3939501,3.0619502,9.189
1679993519219,1173507573497435,1.26195,2.94705,9.32295
1679993519223,1173507575999589,1.18095,2.8609502,9.417001
1679993519225,1173507578501743,1.131,3.0690002,9.582001
1679993519226,1173507581003896,0.99705005,3.0259502,9.87405
1679993519228,1173507583505806,0.99405,3.117,9.819
1679993519230,1173507586007959,0.906,3.1240501,9.89805
1679993519233,1173507588510036,0.70995003,3.2719502,9.879001
1679993519235,1173507591012190,0.65505004,3.2080503,9.903001
1679993519238,1173507593514344,0.60195005,3.28695,9.783
1679993519240,1173507596016498,0.49005002,3.4090502,9.594001
1679993519243,1173507598518421,0.588,3.52395,9.232051
1679993519245,1173507601020575,0.43500003,3.4660501,9.073951
1679993519248,1173507603522729,0.135,3.45705,9.181951
1679993519250,1173507606024811,-0.29295,3.282,9.1390505
1679993519255,1173507608526964,-0.36495003,3.2700002,9.0070505
1679993519256,1173507611029118,-0.44205,3.21495,9.12195
1679993519259,1173507613531267,-0.384,3.2770503,9.345
1679993519262,1173507616033190,-0.15405001,3.3990002,9.55605
1679993519264,1173507618535344,0.0010500001,3.426,9.77595
1679993519267,1173507621037498,0.27405003,3.486,9.9529505
1679993519268,1173507623539575,0.58095,3.49305,10.152
1679993519270,1173507626041753,0.74595004,3.49305,10.132951
1679993519273,1173507628543907,1.1590501,3.4780502,10.1310005
1679993519275,1173507631046060,1.50195,3.37995,10.13805
1679993519278,1173507633547983,1.8180001,3.28395,9.92205
1679993519280,1173507636050122,1.9090501,3.11205,9.7570505
1679993519283,1173507638552199,2.1079502,3.0930002,9.522
1679993519285,1173507641054353,2.19195,2.9920502,9.12495
1679993519288,1173507643556507,2.39505,2.9899502,8.77995
1679993519293,1173507646058642,2.4859502,2.868,8.62695
1679993519296,1173507648560796,2.4409502,2.832,8.161051
1679993519299,1173507653562719,2.4550502,2.7460501,7.8960004
1679993519300,1173507653665488,2.45295,2.76705,7.7209506
1679993519305,1173507656289811,2.2729502,2.7460501,7.3950005
1679993519307,1173507658737195,2.0650501,2.76195,7.2109504
1679993519307,1173507661071349,1.8730501,2.87295,7.2040505
1679993519309,1173507663573426,1.58595,2.97795,7.2040505
1679993519312,1173507666075349,1.27005,3.1050003,7.2900004
1679993519313,1173507668577503,0.73395,3.1189501,7.5730505
1679993519316,1173507671079637,0.43695003,3.21495,7.563
1679993519318,1173507673581714,0.010950001,3.3709502,7.7790003
1679993519321,1173507676083945,-0.411,3.4759502,7.8619504
1679993519323,1173507678586022,-0.55395,3.5790002,7.9009504
1679993519325,1173507681088175,-0.98295003,3.59295,7.8820505
1679993519329,1173507683590127,-1.455,3.6679502,7.8700504
1679993519333,1173507686092281,-1.8910501,3.9930003,7.839
1679993519335,1173507688594435,-2.2480502,4.05795,7.7400002
1679993519337,1173507691096599,-2.40105,4.2190504,7.8460503
1679993519340,1173507693598676,-2.6170502,4.44105,7.99695
1679993519342,1173507696100830,-2.7240002,4.4770503,7.8910503
1679993519344,1173507698602984,-3.0640502,4.5469503,7.8240004
1679993519346,1173507701104907,-3.21105,4.57305,8.2890005
1679993519348,1173507703607080,-3.35205,4.6260004,8.368051
1679993519351,1173507706109157,-3.4840503,4.49595,8.607
1679993519353,1173507708611387,-3.4789503,4.51095,8.80605
1679993519355,1173507711113464,-3.34695,4.563,8.739
1679993519358,1173507713615618,-3.3640501,4.4170504,8.722051
1679993519361,1173507716117743,-3.3660002,4.6399503,9.0720005
1679993519363,1173507718619666,-3.2269502,4.55595,9.5130005
1679993519367,1173507721121820,-3.072,4.635,9.60105
1679993519369,1173507723623959,-2.9970002,4.61805,10.144951
1679993519371,1173507726126113,-2.904,4.566,10.0990505
1679993519373,1173507728628189,-2.7270002,4.5750003,10.320001
1679993519375,1173507731130113,-2.6119502,4.4869504,10.449
1679993519379,1173507733632497,-2.4130502,4.434,10.806001
1679993519381,1173507736134642,-2.043,4.37895,10.549951
1679993519383,1173507738636565,-1.8330001,4.22805,10.465951
1679993519385,1173507741138642,-1.5649501,4.09305,10.573951
1679993519387,1173507743640796,-1.3470001,4.15905,10.428
1679993519391,1173507746142935,-1.182,3.9720001,10.246051
1679993519393,1173507748644858,-1.1359501,3.7750502,10.01595
1679993519395,1173507751147242,-1.08405,3.6820502,9.766951
1679993519398,1173507753649166,-1.0380001,3.6529503,9.642
1679993519401,1173507756151319,-1.09605,3.5140502,9.4789505
1679993519404,1173507758653416,-1.08105,3.4950001,9.237
1679993519406,1173507761155570,-1.04295,3.41595,9.213
1679993519408,1173507763657724,-1.113,3.4660501,9.0379505
1679993519411,1173507766159878,-1.09095,3.3990002,8.80605
1679993519413,1173507768661810,-1.2589501,3.52605,8.868
1679993519415,1173507771163964,-1.2750001,3.5670002,8.646001
1679993519418,1173507773666118,-1.4290501,3.5410502,8.52105
1679993519421,1173507776168195,-1.5270001,3.6010501,8.575951
1679993519423,1173507778670358,-1.5510001,3.52395,8.30595
1679993519425,1173507781172512,-1.86195,3.2220001,8.607
1679993519427,1173507783674666,-1.9030501,3.17895,8.533051
1679993519431,1173507786176820,-1.8000001,3.1600502,8.404051
1679993519433,1173507788678738,-1.4959501,3.4350002,8.61705
1679993519435,1173507791180892,-1.2900001,3.4759502,8.710051
1679993519438,1173507793682969,-1.00695,3.68895,8.839951
1679993519443,1173507796185123,-0.69600004,3.6169503,8.6959505
1679993519445,1173507798687277,-0.492,3.627,8.78895
1679993519447,1173507801189430,-0.41595003,3.68895,8.7289505
1679993519449,1173507803691354,-0.32700002,3.5340002,8.63805
1679993519451,1173507806193507,-0.27705002,3.5479503,8.67
1679993519453,1173507808695584,-0.13095,3.5500503,8.610001
1679993519455,1173507811197738,-0.16605,3.2700002,8.455951
1679993519459,1173507813699969,0.018000001,3.3040502,8.34195
1679993519461,1173507816202046,0.08505,3.3730502,8.313001
1679993519463,1173507818704229,0.26895002,3.4810503,8.418
1679993519465,1173507821206152,0.411,3.5809503,8.3220005
1679993519468,1173507823708306,0.44205,3.52905,8.233951
1679993519471,1173507826210383,0.60195005,3.6460502,8.191051
1679993519473,1173507828712536,0.78900003,3.6169503,8.215051
1679993519475,1173507831214791,0.89505005,3.55995,8.277
1679993519480,1173507833716868,0.9889501,3.5740502,8.368051
1679993519492,1173507836218791,1.0129501,3.5380502,8.63595
1679993519492,1173507838720954,1.092,3.5860503,8.943001
1679993519492,1173507841223108,1.0350001,3.5809503,8.691
1679993519492,1173507843725185,0.80595005,3.6100502,8.607
1679993519492,1173507846227416,0.79200006,3.5650501,8.68605
1679993519493,1173507848729493,0.777,3.49005,8.866051
1679993519495,1173507851231617,0.87495005,3.14595,9.22305
1679993519498,1173507853733771,1.1329501,2.9850001,9.346951
1679993519501,1173507856235694,1.092,2.8840501,9.36705
1679993519503,1173507858737848,1.14495,2.868,9.514951
1679993519505,1173507861239925,0.96795005,3.08295,9.691951
1679993519508,1173507863742094,0.906,3.2290502,9.726001
1679993519511,1173507866244248,0.82995003,3.3349502,9.831
1679993519513,1173507868746402,0.588,3.4279501,9.89295
1679993519517,1173507871248310,0.42705002,3.3349502,9.970051
1679993519519,1173507873750464,0.31695002,3.3990002,9.939
1679993519522,1173507876252541,0.25005,3.3709502,9.88395
1679993519524,1173507878754771,0.07305,3.3229501,9.927
1679993519525,1173507881256925,0.00405,3.25305,9.903001
1679993519528,1173507883759022,-0.08505,3.25605,9.91695
1679993519532,1173507886261176,-0.18105,3.2700002,9.937051
1679993519534,1173507888763099,-0.32895002,3.2440503,9.835951
1679993519537,1173507891265253,-0.26700002,3.31605,9.702001
1679993519539,1173507893767402,-0.30495003,3.2080503,9.72795
1679993519542,1173507896269556,-0.28395,3.3630002,9.60105
1679993519544,1173507898771633,-0.25695002,3.486,9.474
1679993519546,1173507901273786,-0.13800001,3.459,9.24405
1679993519548,1173507903775709,-0.079950005,3.5790002,9.333
1679993519551,1173507906277877,0.01995,3.486,9.30195
1679993519555,1173507908780031,0.09,3.6370502,9.333
1679993519557,1173507911282185,0.12795001,3.5689502,9.15795
1679993519558,1173507913784339,0.034950003,3.62505,9.297001
1679993519561,1173507916286440,0.0010500001,3.7110002,9.24195
1679993519563,1173507918788594,0.087000005,3.6220503,9.168
1679993519565,1173507921290517,0.022950001,3.5479503,9.252001
1679993519568,1173507923792671,0.010950001,3.7200003,9.141001
1679993519572,1173507926294819,-0.030000001,3.5790002,9.177
1679993519573,1173507928796973,0.028050002,3.7039502,9.201
1679993519576,1173507931299050,-0.034950003,3.66,8.940001
1679993519579,1173507933801204,-0.030000001,3.7420502,8.892
1679993519582,1173507936303334,-0.030000001,3.76095,8.88
1679993519584,1173507938805257,-0.07095,3.7159503,8.884951
1679993519585,1173507941307411,-0.06105,3.831,8.86095
1679993519588,1173507943809565,-0.078,3.8400002,9.0379505
1679993519593,1173507946311714,-0.23400001,3.7680001,9.13395
1679993519595,1173507948813867,-0.31305,3.732,9.249001
1679993519597,1173507951315944,-0.54,3.7180502,9.477
1679993519599,1173507953817867,-0.53295004,3.7420502,9.549001
1679993519602,1173507956320021,-0.58305,3.936,9.75
1679993519603,1173507958822171,-0.753,3.8419502,9.77595
1679993519605,1173507961324325,-0.78000003,3.8539503,9.799951
1679993519608,1173507963826479,-0.813,3.8590503,9.702001
1679993519612,1173507966328556,-0.83505005,3.8520002,9.880951
1679993519614,1173507968830787,-0.89895004,3.9120002,9.867001
1679993519616,1173507971332867,-0.87495005,3.8740501,9.616051
1679993519618,1173507973834791,-0.87495005,3.80205,9.58005
1679993519621,1173507976336944,-0.82695,3.86595,9.56295
1679993519623,1173507978839098,-0.76305,3.8590503,9.40995
1679993519625,1173507981341175,-0.77205,3.831,9.22305
1679993519629,1173507983843329,-0.69600004,3.8449502,9.012
1679993519632,1173507986345483,-0.69105005,3.8620503,8.883
1679993519634,1173507988847637,-0.648,3.7800002,8.713051
1679993519636,1173507991349791,-0.58095,3.8230503,8.611951
1679993519638,1173507993851714,-0.59805006,3.8400002,8.610001
1679993519641,1173507996353868,-0.564,3.8380501,8.694
1679993519643,1173507998855944,-0.56205004,3.9430501,8.63595
1679993519645,1173508001358142,-0.55005,3.9529502,8.434951
1679993519648,1173508003860219,-0.56895,3.8500502,8.29395
1679993519652,1173508006362373,-0.49005002,3.8110502,8.52795
1679993519653,1173508008864527,-0.37695003,3.8160002,8.187
1679993519655,1173508011366450,-0.42795002,3.9049501,8.061001
1679993519659,1173508013868551,-0.57105005,4.08405,7.99695
1679993519661,1173508016370782,-0.61695004,4.065,7.8859506
1679993519663,1173508018872935,-0.72705,4.00995,7.7760005
1679993519667,1173508021375021,-0.95400006,3.7560003,7.24695
1679993519669,1173508023877175,-0.64995,3.3370502,7.5270004
1679993519672,1173508026379098,0.042000003,3.0949502,7.90605
1679993519674,1173508028881252,0.9289501,3.04695,7.68795
1679993519675,1173508031383329,1.4280001,3.1020002,8.175
1679993519678,1173508033885565,1.8319501,3.486,7.767
1679993519682,1173508036387642,1.50405,3.8070002,7.3720503
1679993519683,1173508038889796,0.74595004,3.8260503,7.14405
1679993519685,1173508041391719,-0.16905001,3.7750502,7.1779504
1679993519688,1173508043893873,-0.67200005,3.8070002,7.6729503
1679993519692,1173508046396026,-0.95895004,3.56205,7.7640004
1679993519693,1173508048898180,-0.9979501,3.56205,7.8100505
1679993519696,1173508051400334,-1.0159501,3.62895,7.8150005
1679993519699,1173508053902406,-1.065,3.696,7.7550006
1679993519701,1173508056404560,-0.91905004,3.7540503,7.5199504
1679993519705,1173508058906714,-0.68595004,3.8520002,7.5850506
1679993519707,1173508061408637,-0.52605003,3.8230503,7.6660504
1679993519709,1173508063910714,-0.43500003,3.7420502,7.695
1679993519712,1173508066412950,-0.50100005,3.8400002,7.6180506
1679993519713,1173508068915027,-0.62895006,3.7159503,7.5700502
1679993519716,1173508071417180,-0.59505004,3.7230003,7.6060505
1679993519718,1173508073919334,-0.58305,3.6480002,7.5730505
1679993519721,1173508076421262,-0.61395,3.6010501,7.7089505
1679993519723,1173508078923416,-0.75600004,3.4980001,7.6369505
1679993519726,1173508081425570,-0.76305,3.5359502,7.8859506
1679993519728,1173508083927724,-0.81105006,3.5670002,7.9540505
1679993519732,1173508086429854,-0.92595005,3.522,7.8360004
1679993519734,1173508088931931,-1.0020001,3.6510003,7.9219503
1679993519737,1173508091433854,-0.99300003,3.6799502,8.128051
1679993519739,1173508093936008,-1.1200501,3.7710001,8.31495
1679993519743,1173508096438382,-0.97395,3.9310503,8.418
1679993519746,1173508101440305,-1.1010001,3.9859502,8.142
1679993519747,1173508101555921,-1.31805,4.044,8.397
1679993519749,1173508103944613,-1.491,3.96495,8.20995
1679993519752,1173508106446704,-1.59405,3.8470502,8.236051
1679993519754,1173508108948627,-1.79295,3.66,8.257951
1679993519756,1173508111450781,-2.0059502,3.7110002,8.557051
1679993519758,1173508113953165,-2.05905,3.7039502,9.015
1679993519761,1173508116455089,-2.1060002,3.759,8.94495
1679993519763,1173508118957180,-2.1760502,3.92895,8.94705
1679993519766,1173508121459334,-1.9579501,3.9409502,9.12705
1679993519768,1173508123961488,-1.9789501,4.0129504,9.496051
1679993519772,1173508126463411,-1.9270501,4.12995,9.85995
1679993519773,1173508128965801,-1.8910501,4.0140004,10.17405
1679993519776,1173508131467724,-1.8790501,4.1470504,10.293
1679993519781,1173508133969878,-1.8840001,4.06005,10.39395
1679993519783,1173508136471955,-1.89795,4.1130004,10.428
1679993519785,1173508139098416,-1.83105,3.9070501,10.83495
1679993519787,1173508141476262,-1.9099501,3.8929503,10.80405
1679993519789,1173508143978186,-1.8529501,3.9810002,10.774951
1679993519792,1173508146480570,-1.7809501,3.8929503,10.720051
1679993519793,1173508148982493,-1.67805,3.7200003,10.689
1679993519796,1173508151484642,-1.39995,3.663,10.708051
1679993519798,1173508153986796,-1.2250501,3.627,10.456051
1679993519801,1173508156488873,-1.2040501,3.8500502,10.119
1679993519803,1173508158990796,-1.2250501,3.8569503,9.94095
1679993519806,1173508161493190,-1.1050501,3.9430501,9.691951
1679993519808,1173508163995343,-1.0159501,3.8880002,9.661051
1679993519812,1173508166497267,-0.98805004,3.86595,9.592051
1679993519813,1173508168999420,-0.88995004,3.9019501,9.71895
1679993519817,1173508171501531,-0.88005006,3.8140502,9.43605
1679993519820,1173508174003685,-0.89505005,3.8500502,9.39105
1679993519822,1173508176505608,-0.91095006,3.96495,9.670951
1679993519824,1173508179007993,-0.76005006,3.92895,9.691951
1679993519826,1173508181510147,-0.73905003,3.9139502,9.405001
1679993519828,1173508184012070,-0.60195005,4.005,9.508051
1679993519832,1173508186514147,-0.44205,4.1059504,9.493951
1679993519834,1173508189016378,-0.51405,4.1470504,9.450001
1679993519836,1173508191518459,-0.624,4.197,9.54405
1679993519838,1173508194020383,-0.52095,4.2829504,9.618
1679993519841,1173508196522536,-0.60495,4.302,9.958051
1679993519843,1173508199024690,-0.72900003,4.28595,10.068001
1679993519846,1173508201526839,-0.75600004,4.362,10.273951
1679993519848,1173508204028993,-0.72495,4.3980002,10.285951
1679993519852,1173508206531070,-0.64995,4.3450503,10.677
1679993519855,1173508209033224,-0.62895006,4.27605,10.75605
1679993519857,1173508211535397,-0.37005,4.17495,10.870951
1679993519860,1173508214037320,-0.29595003,4.1200504,10.993051
1679993519862,1173508216539473,-0.006,4.1059504,11.34
1679993519864,1173508219041627,0.29805002,4.08705,11.28495
1679993519865,1173508221543781,0.60705,3.9720001,11.11005
1679993519868,1173508224045863,0.73605,3.9190502,10.939951
1679993519872,1173508226548017,1.011,3.9,10.806001
1679993519873,1173508229050171,1.1190001,3.83295,10.64295
1679993519876,1173508231552094,1.22895,3.76095,10.684051
1679993519878,1173508234054171,1.42005,3.6100502,10.588051
1679993519881,1173508236556431,1.725,3.5340002,10.14
1679993519883,1173508239058584,1.725,3.5530503,9.72795
1679993519886,1173508241560661,1.86405,3.6649501,9.55305
1679993519888,1173508244062815,1.78005,3.7870502,9.1390505
1679993519893,1173508246564728,1.6810501,3.7900503,9.049951
1679993519895,1173508249066882,1.7080501,3.6529503,8.82495
1679993519897,1173508251569036,1.4970001,3.6049502,8.611951
1679993519899,1173508254071205,1.31295,3.5500503,8.404051
1679993519902,1173508256573359,1.09905,3.6439502,8.302951
1679993519904,1173508259075436,0.97695005,3.6820502,8.31
1679993519906,1173508261577359,0.79395,3.7920003,8.170051
1679993519908,1173508264079513,0.504,3.8689501,8.257951
1679993519912,1173508266581670,0.37005,3.96705,8.254951
1679993519913,1173508269083824,0.075,3.9810002,8.125951
1679993519915,1173508271585978,-0.27705002,3.9450002,8.18595
1679993519919,1173508274088055,-0.41805002,4.0279503,8.397
1679993519922,1173508276590209,-0.768,4.0129504,8.373
1679993519923,1173508279092363,-0.97395,3.9960003,8.3869505
1679993519925,1173508281594286,-1.04295,4.11795,8.334001
1679993519930,1173508284096671,-1.074,4.077,8.215051
1679993519933,1173508286598599,-1.146,4.1779504,8.34195
1679993519935,1173508289100676,-1.1149501,4.2520504,8.44695
1679993519937,1173508291602829,-1.1149501,4.2400503,8.361
1679993519940,1173508294104983,-0.94500005,4.1269503,8.42805
1679993519943,1173508296606916,-0.91095006,4.11105,8.455951
1679993519945,1173508299109301,-0.88305,4.06995,8.530951
1679993519947,1173508301611224,-0.75105006,4.0080004,8.62905
1679993519949,1173508304113378,-0.75600004,3.99795,8.60505
1679993519952,1173508306615532,-0.753,3.969,8.682
1679993519953,1173508309117594,-0.67395,4.0020003,8.559
1679993519955,1173508311619747,-0.55695003,3.96495,8.67405
1679993519958,1173508314121671,-0.41595003,3.9259503,8.47305
1679993519961,1173508316624055,-0.186,3.9499502,8.67
1679993519964,1173508319125978,-0.03705,3.7729502,8.50695
1679993519967,1173508321628166,0.23805001,3.8760002,8.559
1679993519969,1173508324130320,0.44205,3.72495,8.36295
1679993519972,1173508326632397,0.61005,3.5479503,8.32005
1679993519974,1173508329134325,0.91995007,3.38505,8.52105
1679993519976,1173508331636710,1.1520001,3.34695,8.47605
1679993519979,1173508334138863,1.401,3.1380002,8.2890005
1679993519981,1173508336640787,1.50405,3.1290002,8.233951
1679993519983,1173508339142940,1.4440501,3.07095,8.47305
1679993519986,1173508341645017,1.7050501,2.98005,8.088
1679993519988,1173508344147171,1.8520501,2.9920502,7.4749503
1679993519992,1173508346649325,2.151,3.2220001,6.8569503
1679993519993,1173508349151479,2.046,3.4450502,6.0540004
1679993519998,1173508351653628,1.59,3.732,5.49405
1679993519999,1173508354155551,1.0350001,3.8620503,5.3910003
1679993520002,1173508356657628,0.64095,3.79905,5.87505
1679993520005,1173508359159777,0.30105,3.61995,6.339
1679993520007,1173508361661930,0.11100001,3.35595,7.08405
1679993520009,1173508364164084,0.025050001,3.2220001,7.8289504
1679993520012,1173508366666238,0.01995,3.1669502,8.51895
1679993520014,1173508369168161,0.126,3.01095,9.172951
1679993520016,1173508371670334,0.20205002,3.1740003,9.73095
1679993520019,1173508374172488,0.26700002,3.15,10.068001
1679993520021,1173508376674565,0.31305,3.2340002,10.432051
1679993520023,1173508379176719,0.24795002,3.2269502,10.722
1679993520026,1173508381678873,0.351,3.2080503,10.777051
1679993520028,1173508384181021,0.31005,3.3439503,10.618951
1679993520032,1173508386682945,0.32895002,3.282,10.13805
1679993520034,1173508389185098,0.23805001,3.4429502,9.738001
1679993520037,1173508391687161,0.162,3.52905,9.328051
1679993520038,1173508394189315,0.022950001,3.6409502,8.896951
1679993520043,1173508396691469,0.04695,3.7009501,8.47305
1679993520045,1173508399193623,0.034950003,3.7800002,8.349
1679993520047,1173508401695743,0.12795001,3.7780502,7.9540505
1679993520048,1173508404197666,0.043950003,3.9,8.029051
1679993520052,1173508406699820,0.45105,3.8070002,7.3069506
1679993520054,1173508409201897,0.74805003,3.7849503,7.28805
1679993520056,1173508411704127,0.91005003,3.8089502,7.24695
1679993520059,1173508414206204,0.96300006,3.69195,7.6969504
1679993520062,1173508416708358,1.2,3.7489502,7.8510003
1679993520064,1173508419210281,1.3099501,3.7780502,8.005051
1679993520066,1173508421712666,1.3249501,3.663,7.9990506
1679993520069,1173508424214556,1.1380501,3.72495,8.133
1679993520072,1173508426716710,1.15005,3.8070002,7.8700504
1679993520073,1173508429218787,1.0180501,3.9790502,7.977
1679993520076,1173508431720941,0.98505,4.06995,8.137051
1679993520080,1173508434223098,0.975,4.065,8.215051
1679993520083,1173508436725021,1.1040001,3.9550502,8.4210005
1679993520084,1173508439227175,1.2360001,3.9790502,8.62695
1679993520086,1173508441729329,1.18605,3.8110502,8.93805
1679993520089,1173508444231483,1.31505,3.8110502,9.06495
1679993520092,1173508446733560,1.27695,3.79905,8.99295
1679993520094,1173508449235714,1.26195,3.7369502,9.08895
1679993520096,1173508451737637,1.1380501,3.58905,9.345
1679993520100,1173508454240022,1.14705,3.55695,9.594001
1679993520103,1173508456741912,1.0320001,3.4999502,9.891001
1679993520104,1173508459244065,0.9889501,3.5530503,10.03995
1679993520108,1173508461746219,0.93705004,3.5740502,10.2960005
1679993520108,1173508464248296,0.95295006,3.555,10.399051
1679993520112,1173508466750209,0.85905004,3.627,10.581
1679993520113,1173508469252363,0.717,3.7710001,10.939951
1679993520117,1173508471754748,0.67905,3.7350001,11.059951
1679993520120,1173508474256671,0.56595004,3.8140502,11.27805
1679993520122,1173508476758820,0.48705003,3.7489502,11.491051
1679993520124,1173508479260897,0.45600003,3.9049501,11.557951
1679993520126,1173508481763051,0.50100005,3.9190502,11.788051
1679993520128,1173508484265204,0.34605002,3.7110002,11.865001
1679993520132,1173508486767358,0.33405003,3.6390002,11.809051
1679993520134,1173508489269262,0.492,3.4330502,11.75205
1679993520136,1173508491771416,0.43005002,3.5689502,11.41005
1679993520140,1173508494273570,0.59505004,3.4620001,11.160001
1679993520142,1173508496775647,0.64305,3.4429502,10.96605
1679993520144,1173508499277772,0.71295005,3.4450502,10.582951
1679993520146,1173508501779926,0.95295006,3.4950001,10.35795
1679993520149,1173508504282079,0.9889501,3.5170503,10.108951
1679993520152,1173508506784003,1.0009501,3.5460002,9.823951
1679993520155,1173508509286151,1.2049501,3.5100002,9.529051
1679993520157,1173508511788305,1.1209501,3.6169503,9.438001
1679993520160,1173508514290382,0.94905007,3.7110002,9.549001
1679993520162,1173508516792536,1.0849501,3.7440002,9.24195
1679993520164,1173508519294690,1.047,3.7159503,8.77305
1679993520166,1173508521796815,0.82305,3.8500502,8.691
1679993520168,1173508524298738,0.73605,3.8880002,8.55195
1679993520172,1173508526800892,0.804,3.8419502,8.752951
1679993520174,1173508529303046,0.61200005,3.8929503,8.931001
1679993520176,1173508531805142,0.44700003,3.79695,9.084001
1679993520180,1173508534307296,0.29295,3.8089502,9.055051
1679993520182,1173508536809450,0.48705003,3.8689501,9.12195
1679993520184,1173508539311604,0.43500003,3.83295,9.168
1679993520186,1173508541813527,0.52605003,3.9790502,9.27795
1679993520190,1173508544315680,0.55200005,3.9259503,9.838051
1679993520193,1173508546817757,0.46605003,3.8880002,9.955951
1679993520195,1173508549319911,0.26505002,3.9499502,10.188001
1679993520197,1173508551822142,0.24300002,3.7560003,10.222051
1679993520199,1173508554324218,0.34095,3.72495,10.267051
1679993520202,1173508556826142,0.29595003,3.7540503,10.16895
1679993520205,1173508559328295,0.22395001,3.7510502,10.111051
1679993520206,1173508561830372,0.26895002,3.732,9.949051
1679993520208,1173508564332541,0.37695003,3.8929503,9.964951
1679993520212,1173508566834772,0.37500003,3.7159503,9.702001
1679993520214,1173508569336849,0.423,3.8860502,9.75195
1679993520216,1173508571838772,0.65505004,3.9310503,9.637051
1679993520220,1173508574340926,0.744,3.9220502,9.40695
1679993520222,1173508576843080,0.81495005,3.8569503,9.276
1679993520224,1173508579345234,0.84405005,3.9409502,9.004951
1679993520226,1173508581847310,0.85905004,3.9049501,8.98095
1679993520231,1173508584349506,0.93195003,3.9240003,8.866051
1679993520233,1173508586851583,0.90795004,3.8880002,8.740951
1679993520236,1173508589367968,1.0200001,3.9430501,8.66205
1679993520237,1173508591855660,1.059,3.9049501,8.66205
1679993520239,1173508594357814,1.2,3.9100502,8.406
1679993520243,1173508596859939,1.3939501,3.8830502,8.215051
1679993520244,1173508599362170,1.2379501,3.8860502,7.965
1679993520246,1173508601864247,1.107,4.0080004,7.9750504
1679993520249,1173508604366400,0.84195006,4.0810504,7.9200006
1679993520252,1173508606868554,0.777,4.17495,8.23095
1679993520254,1173508609370477,0.57600003,4.0960503,8.337001
1679993520256,1173508611872631,0.363,3.9430501,8.422951
1679993520260,1173508614374785,0.23595001,3.96495,8.65995
1679993520262,1173508616876958,0.05595,3.8260503,8.839951
1679993520264,1173508619379035,-0.20205002,3.9720001,8.79405
1679993520268,1173508621881189,-0.38205,3.9720001,8.8279505
1679993520269,1173508624383112,-0.61200005,4.07205,8.89995
1679993520272,1173508626885266,-0.72,3.9910502,9.073951
1679993520274,1173508629387367,-0.85395,4.1779504,9.213
1679993520276,1173508631889597,-0.91395,3.9840002,9.276
1679993520279,1173508634391751,-0.86595005,3.936,9.501
1679993520282,1173508636893828,-0.78195006,3.8899503,9.661051
1679993520284,1173508639395747,-0.71505004,3.828,9.738001
1679993520288,1173508641897901,-0.63105005,3.7870502,9.7879505
1679993520289,1173508644400055,-0.53295004,3.7540503,9.85995
1679993520292,1173508646902440,-0.34395,3.7870502,9.89295
1679993520294,1173508649404305,-0.27405003,3.7800002,9.786
1679993520297,1173508651906459,-0.36495003,3.83295,9.703951
1679993520301,1173508654408612,-0.26205,3.7540503,9.462001
1679993520303,1173508656910766,-0.17805001,3.8520002,9.417001
1679993520306,1173508659412694,-0.09900001,3.7849503,9.40695
1679993520308,1173508661914848,-0.094950005,3.7489502,9.40695
1679993520309,1173508664417002,0.00795,3.8380501,9.35505
1679993520312,1173508666919079,0.034950003,3.8590503,9.1699505
1679993520314,1173508669421233,0.058950003,3.831,9.08895
1679993520317,1173508671923155,0.06105,3.8689501,9.177
1679993520319,1173508674425540,0.08295,3.92895,9.003
1679993520322,1173508676927463,0.006,3.96495,9.163051
1679993520324,1173508679429616,-0.016050002,3.8779502,9.12195
1679993520326,1173508681931770,0.066,3.8070002,9.1060505
1679993520329,1173508684433847,0.17595,3.8539503,9.04605
1679993520332,1173508686935770,0.16395001,3.8539503,9.18
1679993520335,1173508689438155,0.16605,3.8740501,9.325951
1679993520337,1173508691940333,0.094950005,3.7750502,9.394951
1679993520340,1173508694442487,0.06795,3.8539503,9.4789505
1679993520345,1173508696944410,-0.123,3.7350001,9.54405
1679993520347,1173508699445449,-0.22605,3.8880002,9.622951
1679993520348,1173508701946488,-0.28395,3.936,9.88395
1679993520349,1173508704450761,-0.351,3.8400002,9.937051
1679993520352,1173508706952915,-0.41595003,3.9720001,9.843
1679993520354,1173508709455069,-0.51900005,4.077,10.047001
1679993520357,1173508711956992,-0.53295004,4.05105,10.120951
1679993520359,1173508714459112,-0.69600004,4.2109504,10.19505
1679993520361,1173508716961189,-0.82695,4.22805,9.999001
1679993520364,1173508719463343,-0.89205,4.14195,10.05405
1679993520366,1173508721965497,-1.09305,4.2660003,10.008
1679993520369,1173508724467640,-1.16295,4.1989503,9.91695
1679993520372,1173508726969564,-1.3110001,4.2259502,9.85305
1679993520374,1173508729471717,-1.4430001,4.1610003,9.661051
1679993520376,1173508731973871,-1.3930501,4.24695,9.481951
1679993520381,1173508734475929,-1.48395,4.293,9.285001
1679993520384,1173508736978160,-1.6060501,4.42005,9.175051
1679993520385,1173508739681775,-1.5600001,4.3450503,9.1060505
1679993520387,1173508741982391,-1.70595,4.49205,9.096001
1679993520389,1173508744484314,-1.8790501,4.5420003,8.883
1679993520392,1173508746986478,-2.07495,4.64505,8.82495
1679993520394,1173508749488555,-2.229,4.5799503,8.96895
1679993520396,1173508751990708,-2.391,4.6519504,8.832001
1679993520399,1173508754492862,-2.60505,4.78905,8.856
1679993520402,1173508756995016,-2.65995,4.7569504,8.928
1679993520404,1173508759497179,-2.799,4.73595,8.859
1679993520406,1173508761999102,-2.9520001,4.78905,8.76795
1679993520408,1173508764501256,-2.9350502,4.7410502,8.563951
1679993520412,1173508767003333,-2.94,4.8169503,8.443951
1679993520414,1173508769505545,-2.87805,4.6540504,8.409
1679993520418,1173508772007699,-2.77005,4.638,8.557051
1679993520421,1173508774509775,-2.6479502,4.6980004,8.61705
1679993520423,1173508777011699,-2.43,4.61805,8.80395
1679993520425,1173508779513852,-2.391,4.602,8.78505
1679993520427,1173508782015929,-2.12295,4.4479504,8.622001
1679993520429,1173508784518083,-1.9789501,4.61595,8.6650505
1679993520432,1173508787020314,-1.9200001,4.5799503,8.809051
1679993520435,1173508789522367,-1.6900501,4.53195,8.90205
1679993520437,1173508792024521,-1.5679501,4.6420503,9.205951
1679993520439,1173508794526444,-1.3110001,4.5870004,9.25905
1679993520443,1173508797028598,-1.09305,4.4100003,9.297001
1679993520444,1173508799530751,-0.684,4.2709503,8.76105
1679993520447,1173508802032881,-0.15,3.9379501,8.31
1679993520449,1173508804534958,0.058950003,3.7080002,8.217
1679993520452,1173508807037112,0.46305,3.5500503,8.104051
1679993520456,1173508809539266,0.80100006,3.35595,8.101951
1679993520457,1173508812041223,1.23105,3.35205,7.9939504
1679993520460,1173508814543377,1.4800501,3.1960502,8.17905
1679993520463,1173508817045454,1.5880501,3.1189501,8.217
1679993520465,1173508819547685,1.78005,3.2320502,8.397
1679993520466,1173508822049762,1.81305,3.28005,8.62905
1679993520470,1173508824551915,1.8970501,3.3300002,8.80395
1679993520472,1173508827054069,1.8919501,3.49305,8.896951
1679993520474,1173508829555992,1.93305,3.5650501,9.12195
1679993520476,1173508832058069,1.7010001,3.7489502,9.12495
1679993520479,1173508834560285,1.2100501,3.8230503,9.25905
1679993520482,1173508837062439,0.84705,3.7080002,9.11505
1679993520485,1173508839564516,0.42495003,3.6439502,9.120001
1679993520488,1173508842066670,0.10395,3.6030002,8.93295
1679993520489,1173508844568608,-0.19500001,3.387,8.799001
1679993520494,1173508847070762,-0.44400004,3.14805,8.28405
1679993520496,1173508849572915,-0.753,2.5830002,7.39095
1679993520497,1173508852075069,-0.78405005,2.7769501,7.419
1679993520500,1173508854577227,-1.23705,2.88,7.8700504
1679993520503,1173508857079304,-1.8880501,3.2050502,8.109
1679993520505,1173508859581227,-2.23305,3.45,7.8790503
1679993520507,1173508862083381,-2.53305,3.66,7.491
1679993520509,1173508864585535,-2.76495,3.9259503,7.668
1679993520512,1173508867087685,-2.73195,4.14195,8.03295
1679993520514,1173508869589839,-2.4799502,4.5420003,8.409
1679993520517,1173508872091916,-2.0370002,4.8960004,8.710051
1679993520520,1173508874594069,-1.40505,5.43795,8.821051
1679993520522,1173508877096232,-0.73200005,5.82105,8.9740505
1679993520525,1173508879598386,-0.21705002,6.2689505,8.878051
1679993520527,1173508882100540,0.147,6.6060004,8.49195
1679993520531,1173508884602463,0.24495001,6.7500005,8.017051
1679993520534,1173508887104526,0.126,6.69495,7.5820503
1679993520535,1173508889606680,0.054,6.6570005,7.5730505
1679993520552,1173508892108834,0.028050002,6.4120502,7.80495
1679993520555,1173508894610987,-0.31305,6.19395,8.02095
1679993520558,1173508897113150,-0.42000002,5.95305,8.113951
1679993520559,1173508899628535,-0.51405,5.98395,7.76205
1679993520560,1173508902117150,-0.61695004,6.0990005,7.5660005
1679993520561,1173508904619304,-0.72495,6.2760005,7.6129503
1679993520562,1173508907249535,-0.59805006,6.57,7.7640004
1679993520563,1173508909623670,-0.94995004,6.3310504,8.55195
1679993520565,1173508912125747,-1.026,6.5659504,8.734051
1679993520566,1173508914627670,-1.4239501,6.6139503,9.117001
1679993520567,1173508917129824,-1.86195,6.4890003,9.208051
1679993520568,1173508919631978,-2.5540502,6.2970004,9.55305
1679993520570,1173508922134078,-3.1339502,6.07905,9.405001
1679993520572,1173508924636309,-3.5719502,5.8999505,9.92895
1679993520574,1173508927138386,-4.1520004,5.802,10.18095
1679993520575,1173508929640540,-4.73595,5.70795,11.022
1679993520577,1173508932142463,-5.0400004,5.6239505,11.080951
1679993520579,1173508934644652,-5.4640503,5.505,11.44095
1679993520582,1173508937146729,-5.7559505,5.3110504,11.90295
1679993520584,1173508939648883,-5.95305,5.1139503,12.196951
1679993520587,1173508942151037,-5.81895,4.9939504,12.375001
1679993520589,1173508944653190,-5.7640505,4.9939504,12.80595
1679993520592,1173508947155344,-5.7060003,4.9030504,12.684001
1679993520594,1173508949657267,-5.4910502,4.88205,12.516001
1679993520596,1173508952159421,-5.1460505,4.83195,12.247951
1679993520599,1173508954661498,-4.87305,4.65,11.998951
1679993520602,1173508957163743,-4.51095,4.566,11.69505
1679993520606,1173508959665820,-4.14195,4.539,11.27505
1679993520607,1173508962167974,-3.4789503,4.4770503,10.732051
1679993520609,1173508964669897,-2.8900502,4.4820004,10.16895
1679993520612,1173508967172061,-1.7500501,4.209,9.369
1679993520615,1173508969674138,-0.61395,4.1389503,8.854051
1679993520617,1173508972176368,0.35805002,4.3500004,8.811001
1679993520620,1173508974678522,1.4440501,4.6519504,8.53995
1679993520622,1173508977180618,2.42595,4.67805,8.061001
1679993520624,1173508979682772,3.4660501,4.6660504,7.3450503
1679993520626,1173508982184695,4.0140004,4.7239504,6.84
1679993520629,1173508984686849,4.42605,4.57095,7.0669503
1679993520632,1173508987188988,4.335,4.329,7.77405
1679993520636,1173508989691142,4.1080503,4.1659503,8.839951
1679993520638,1173508992193219,3.55695,3.65805,9.87405
1679993520639,1173508994695372,3.3049502,3.3010502,10.411051
1679993520643,1173508997197311,3.14505,3.07395,10.585951
1679993520645,1173508999699464,2.8890002,3.009,10.600051
1679993520646,1173509002201618,2.8189502,2.80095,10.774951
1679993520649,1173509004703772,2.6950502,2.7139502,10.939951
1679993520652,1173509007205849,2.8260002,2.6550002,10.995001
1679993520654,1173509009708012,3.051,2.4820502,11.17695
1679993520657,1173509012210166,4.362,1.6890001,11.047951
1679993520659,1173509014712089,5.6620502,0.70995003,11.17695
1679993520662,1173509017214243,5.1139503,0.78405005,11.60595
1679993520664,1173509019716320,4.9510503,0.78405005,12.0730505
1679993520666,1173509022218550,4.79505,0.71505004,12.52095
1679993520669,1173509024720704,4.47195,0.76500005,13.111951
1679993520672,1173509027222781,4.00005,1.04805,13.675051
1679993520674,1173509029724935,3.351,1.2100501,14.128051
1679993520676,1173509032226868,2.83095,1.4239501,14.379001
1679993520680,1173509034729022,2.283,1.59405,14.655001
1679993520683,1173509037231176,1.8870001,1.6819501,14.845951
1679993520684,1173509039733325,1.557,1.8040501,15.0720005
1679993520686,1173509042235402,1.296,2.0629501,15.340051
1679993520688,1173509044737555,1.1380501,2.1709502,15.354001
1679993520692,1173509047239478,1.1230501,2.22105,15.177001
1679993520694,1173509049741632,1.095,2.11995,15.30405
1679993520697,1173509052244027,1.0200001,2.0629501,15.249001
1679993520699,1173509054745950,1.27695,1.9770001,15.036
1679993520702,1173509057248027,1.4440501,1.95,14.86095
1679993520704,1173509059750181,1.452,1.8000001,14.563951
1679993520706,1173509062252335,1.34895,1.5480001,14.3869505
1679993520709,1173509064754286,1.27005,1.58595,14.205001
1679993520712,1173509067256440,1.1209501,1.2610501,14.122951
1679993520714,1173509069758593,0.906,1.0879501,13.75695
1679993520718,1173509072260747,0.669,0.94905007,13.45995
1679993520720,1173509074762839,0.30105,0.813,13.045051
1679993520723,1173509077264993,-0.28395,0.96405005,9.349951
1679993520724,1173509079767147,-0.61395,1.00695,9.073951
1679993520726,1173509082269070,-1.2540001,1.1530501,8.875951
1679993520729,1173509084771455,-1.6900501,1.3300501,7.8889503
1679993520735,1173509087273416,-1.67505,1.52205,6.40395
1679993520735,1173509089775570,-1.32105,1.7659501,4.7130003
1679993520737,1173509092277647,-0.61200005,1.96695,3.1369503
1679993520739,1173509094779800,0.075,1.8930001,2.2009501
1679993520742,1173509097281719,0.36,1.8280501,1.3770001
1679993520744,1173509099783873,0.37005,1.6009501,0.915
1679993520746,1173509102286027,0.00795,1.4980501,0.88305
1679993520749,1173509104788181,-0.35595003,1.3759501,1.0030501
1679993520752,1173509107290242,-0.87795,1.2390001,1.4629501
1679993520755,1173509109792396,-1.4650501,1.03995,1.9159501
1679993520757,1173509112294550,-2.1019502,0.72195005,2.5500002
1679993520759,1173509114796703,-2.5470002,0.51000005,3.3120003
1679993520762,1173509117298627,-2.42505,0.58305,3.9490502
1679993520764,1173509119800785,-1.8930001,0.624,4.5529504
1679993520766,1173509122302862,-1.314,0.80295,5.06295
1679993520769,1173509124805016,-0.61905,0.92805004,5.649
1679993520772,1173509127307233,0.17400001,1.04805,5.8699503
1679993520774,1173509129809310,0.98505,1.074,6.1480503
1679993520777,1173509132311233,1.6290001,1.23705,6.1980004
1679993520779,1173509134813387,2.29005,1.368,6.49305
1679993520782,1173509137315541,2.8290002,1.5000001,6.6390004
1679993520784,1173509139817618,3.0870001,1.4790001,6.8970003
1679993520786,1173509142319771,3.2599502,1.5649501,7.1779504
1679993520789,1173509144821925,3.078,1.6290001,7.3830004
1679993520794,1173509147324059,2.7210002,1.5960001,7.458
1679993520795,1173509149826213,2.2780502,1.5769501,7.24695
1679993520797,1173509152328136,1.7080501,1.62195,6.68205
1679993520799,1173509154830213,1.26705,1.8210001,6.4489503
1679993520802,1173509157332367,0.71295005,1.8709501,5.8099504
1679993520804,1173509159834594,0.15900001,2.1370502,5.5680003
1679993520806,1173509162336671,-0.45405003,2.2740002,5.22795
1679993520809,1173509164838824,-0.92100006,2.1709502,4.677
1679993520812,1173509167340748,-1.302,2.2690501,4.26795
1679993520814,1173509169842824,-1.7230501,2.223,3.9130502
1679993520817,1173509172344954,-2.11395,2.3740501,3.7170002
1679993520819,1173509174847185,-2.559,2.3359501,3.6019502
1679993520821,1173509177349339,-2.9260502,2.607,3.7069502
1679993520824,1173509179851435,-3.282,2.8200002,3.9109502
1679993520826,1173509182353358,-3.45495,2.9520001,4.0999503
1679993520831,1173509184855512,-3.072,3.0949502,4.01805
1679993520833,1173509187357666,-2.9880002,3.078,4.52895
1679993520835,1173509189859729,-3.03795,2.8459501,5.2500005
1679993520837,1173509192361959,-3.2080503,2.4510002,5.925
1679993520839,1173509194864036,-3.417,2.16405,6.71295
1679993520842,1173509197366190,-3.321,1.6990501,6.8950505
1679993520844,1173509199868113,-3.4810503,1.40205,7.2400503
1679993520846,1173509202370258,-3.24195,1.14795,7.26105
1679993520849,1173509204872335,-3.1290002,0.89205,7.49595
1679993520852,1173509207374566,-2.76705,0.906,7.89795
1679993520854,1173509209876643,-2.2069502,0.79395,7.8240004
1679993520857,1173509212378806,-1.47195,0.66195005,8.02095
1679993520859,1173509214880959,-0.804,0.40995002,7.6330504
1679993520862,1173509217382882,-0.33705002,0.44595003,7.872
1679993520864,1173509219884959,0.36,0.21705002,8.002951
1679993520868,1173509222387113,0.87495005,0.294,8.023951
1679993520870,1173509224889344,1.3410001,-0.112950005,7.6090503
1679993520872,1173509227391421,1.866,-0.18705001,7.2450004
1679993520874,1173509229893580,2.29005,-0.41505003,7.7140503
1679993520876,1173509232395503,2.42595,-0.64500004,8.049001
1679993520879,1173509234897657,2.5480502,-0.87195003,7.8510003
1679993520882,1173509237399734,2.469,-1.059,8.1
1679993520884,1173509239901964,2.5459502,-1.4640001,7.7070003
1679993520887,1173509242404103,2.0299501,-1.605,8.99295
1679993520889,1173509244906180,1.5330001,-1.3920001,9.759001
1679993520892,1173509247408103,0.98205006,-1.3060501,10.2289505
1679993520894,1173509249910257,0.80805004,-1.0210501,9.40995
1679993520897,1173509252412416,0.81105006,-0.76005006,9.582001
1679993520899,1173509254914570,0.507,-0.16095,12.556951
1679993520902,1173509257416724,0.372,0.20295002,13.354051
1679993520905,1173509259918801,-0.40095,0.89895004,14.892001
1679993520907,1173509262420955,-1.09605,1.90005,17.083052
1679993520909,1173509264923108,-1.1029501,2.80305,18.50595
1679993520913,1173509267425031,-0.37005,3.3439503,19.327051
1679993520914,1173509269927108,1.09695,4.20405,21.070951
1679993520916,1173509272429339,2.9340003,4.8630004,18.87
1679993520919,1173509274931410,3.5040002,5.29605,15.94095
1679993520921,1173509277433564,3.2070003,5.394,14.593051
1679993520924,1173509279935718,2.6509502,5.4139504,13.60095
1679993520926,1173509282437641,1.84695,5.3419504,12.631051
1679993520929,1173509284939795,1.365,5.06895,11.068951
1679993520933,1173509287441945,1.0030501,4.5610504,9.09405
1679993520934,1173509289944098,0.41805002,3.8620503,8.064
1679993520937,1173509292446175,-0.34605002,3.6750002,7.9009504
1679993520939,1173509294948329,-0.94500005,3.0670502,7.5660005
1679993520944,1173509297450247,-1.9390501,3.1000502,7.7040005
1679993520945,1173509299952401,-2.7480001,3.4309502,8.239051
1679993520947,1173509302454555,-3.45705,3.9529502,9.049951
1679993520949,1173509304956709,-3.8400002,4.51095,10.16895
1679993520952,1173509307458877,-3.282,5.0230503,10.38
1679993520954,1173509309960954,-2.32695,5.1049504,9.640051
1679993520956,1173509312463107,-1.02405,5.1649504,8.404051
1679993520959,1173509314965031,0.13800001,5.0620503,6.8539505
1679993520962,1173509317467184,1.03995,4.77405,5.68095
1679993520964,1173509319969338,1.9470001,4.3549504,4.74195
1679993520967,1173509322471492,2.6250002,4.02705,4.59105
1679993520969,1173509324973569,3.2650502,3.52395,5.0560503
1679993520972,1173509327475723,3.6670501,2.913,5.8510504
1679993520974,1173509329977877,4.09305,2.298,6.94005
1679993520977,1173509332479800,4.2180004,1.86705,7.8030005
1679993520981,1173509334981954,4.623,1.419,8.856
1679993520983,1173509337484103,5.10195,1.146,9.622951
1679993520985,1173509339986179,5.808,0.91095006,10.114051
1679993520987,1173509342488333,6.4399505,0.92295,10.258051
1679993520989,1173509344990487,7.05105,0.85395,9.996
1679993520992,1173509347492641,7.49205,0.84900004,9.58905
1679993520994,1173509349994564,7.7359505,0.873,9.193951
1679993520996,1173509352496718,7.8490505,0.86295,8.91195
1679993520999,1173509354998872,7.69995,0.87705004,8.530951
1679993521003,1173509357500949,7.31895,0.90105003,8.227051
1679993521004,1173509360003118,6.90705,0.70005006,8.023951
1679993521006,1173509362505271,6.2920504,0.62595004,7.8220506
1679993521009,1173509365007425,5.8390503,0.62805,7.5319505
1679993521012,1173509367509348,5.63595,0.42495003,7.3330503
1679993521014,1173509370011502,5.3509502,0.42000002,7.29195
1679993521019,1173509372513559,5.0680504,0.28905,7.32105
1679993521021,1173509375015713,4.8840003,0.18405001,7.4389505
1679993521023,1173509377517867,4.66095,0.19095,7.7380505
1679993521025,1173509380020031,4.38105,0.31800002,8.20695
1679993521027,1173509382522185,4.0609503,0.42000002,8.67195
1679993521029,1173509385024108,4.077,0.43005002,9.40995
1679993521032,1173509387526262,4.18905,0.492,10.62195
1679993521034,1173509390028338,4.2109504,0.648,12.1039505
1679993521037,1173509392530492,4.407,0.669,13.299001
1679993521039,1173509395032646,4.6420503,0.573,14.442
1679993521042,1173509397534800,4.635,0.47295,15.12705
1679993521044,1173509400036723,4.54395,0.28005,15.94305
1679993521047,1173509402538877,4.3759503,0.07095,16.626001
1679993521049,1173509405040935,4.0069504,-0.18705001,17.325
1679993521052,1173509407543089,3.7819502,-0.324,17.787
1679993521056,1173509410045319,3.5059502,-0.48405004,18.36
1679993521058,1173509412547391,3.1279502,-0.55395,18.71895
1679993521060,1173509415049315,2.7829502,-0.67395,18.997051
1679993521062,1173509417551468,2.6179502,-0.58305,18.92505
1679993521064,1173509420053622,2.232,-0.61095005,18.820051
1679993521066,1173509422555699,2.21805,-0.56595004,18.580051
1679993521069,1173509425057848,1.8780001,-0.52500004,18.216002
1679993521072,1173509427560002,1.6480501,-0.44400004,17.79495
1679993521074,1173509430062156,1.332,-0.609,17.328001
1679993521077,1173509432564310,1.1740501,-0.61395,16.779001
1679993521079,1173509435066233,0.95295006,-0.61395,15.972001
1679993521082,1173509437568376,0.99405,-0.50505,15.244051
1679993521084,1173509440070453,0.95595,-0.39795002,14.25195
1679993521087,1173509442572607,1.1380501,-0.30900002,13.323001
1679993521089,1173509445074761,1.33395,-0.35505003,12.34395
1679993521093,1173509447576921,1.5499501,-0.36705002,11.116951
1679993521095,1173509450078844,2.08395,-0.68100005,9.29205
1679993521098,1173509452580998,3.0900002,-1.1380501,6.16695
1679993521100,1173509455083075,4.07205,-1.46595,3.6979501
1679993521102,1173509457585219,3.3409503,-1.335,4.0410004
1679993521104,1173509460087449,2.55795,-1.2199501,4.87395
1679993521106,1173509462589526,2.83095,-0.79305005,3.9079502
1679993521109,1173509465091449,3.6090002,-0.33105,2.364
1679993521112,1173509467593618,3.8539503,-0.16095,2.22495
1679993521114,1173509470095772,3.8850002,-0.14400001,3.3289502
1679993521117,1173509472597849,3.588,-0.36195,4.083
1679993521119,1173509475100080,3.1980002,-0.63000005,4.84005
1679993521122,1173509477602142,2.9250002,-0.54195005,5.6779504
1679993521124,1173509480104296,2.7949502,-0.59895,6.4350004
1679993521127,1173509482606219,2.802,-0.20895001,7.0189505
1679993521131,1173509485108373,3.15405,0.16695,7.5100503
1679993521133,1173509487610541,3.3919501,0.58005005,7.9150505
1679993521136,1173509490112695,3.7360501,1.1190001,8.586
1679993521138,1173509492614772,4.06005,1.5600001,8.940001
1679993521141,1173509495116930,3.9469502,1.797,9.27105
1679993521143,1173509497619084,3.8869503,2.0029502,9.517051
1679993521145,1173509500121007,3.7200003,2.19705,9.86205
1679993521147,1173509502623161,3.5419502,2.2020001,9.915001
1679993521149,1173509505125238,3.3360002,2.2759502,10.20705
1679993521152,1173509507627484,3.0589502,2.35995,10.52295
1679993521154,1173509510129561,2.802,2.42505,10.61205
1679993521156,1173509512631714,2.57205,2.5759501,10.873051
1679993521159,1173509515133637,2.496,2.47305,10.875001
1679993521162,1173509517635791,2.22795,2.6209502,10.842001
1679993521164,1173509520137868,2.1340501,2.736,10.82505
1679993521168,1173509522640099,1.9930501,2.9280002,10.995001
1679993521170,1173509525142253,2.12505,3.1240501,11.200951
1679993521172,1173509527644334,2.2060502,3.2010002,11.503051
1679993521174,1173509530146257,2.16,3.2680502,11.613001
1679993521177,1173509532648411,2.02305,3.426,11.673
1679993521179,1173509535150565,1.7890501,3.55695,11.701951
1679993521182,1173509537652641,1.7680501,3.7159503,11.922001
1679993521184,1173509540154900,1.725,4.0800004,12.1060505
1679993521187,1173509542656977,1.6099501,4.67805,12.19995
1679993521189,1173509545159131,2.0329502,5.04495,12.351001
1679993521192,1173509547661054,2.66805,5.0620503,12.672001
1679993521194,1173509550163199,2.742,4.54395,12.93
1679993521197,1173509552665353,2.4430501,3.7800002,12.95205
1679993521199,1173509555167507,2.091,2.9970002,12.93
1679993521202,1173509557669584,1.9429501,2.4820502,12.573001
1679993521206,1173509560171751,1.9110001,2.058,12.16905
1679993521207,1173509562673675,1.9900501,2.14905,11.215951
1679993521209,1173509565176059,2.12205,2.25195,10.47795
1679993521212,1173509567677982,2.52705,2.2399502,9.988951
1679993521214,1173509570180136,2.56995,2.2759502,9.096001
1679993521218,1173509572682218,2.66805,2.21595,8.569051
1679993521220,1173509575184372,2.6490002,2.20005,7.623
1679993521222,1173509577686295,2.42595,2.08005,6.1210504
1679993521224,1173509580188449,2.364,2.0389502,5.427
1679993521227,1173509582690833,2.39805,2.16405,4.668
1679993521229,1173509585192771,2.457,2.118,3.82905
1679993521232,1173509587694847,2.7949502,2.427,3.1609502
1679993521234,1173509590197001,3.0270002,2.5849502,2.2099502
1679993521237,1173509592699155,3.0919502,2.7550502,1.3069501
1679993521239,1173509595201059,3.15405,2.8510501,1.50405
1679993521243,1173509597703444,2.8930502,2.94705,1.5370501
1679993521245,1173509600205367,2.26605,3.0880501,0.924
1679993521247,1173509602707521,2.5800002,4.5079503,-1.3879501
1679993521249,1173509605209598,1.9380001,3.5790002,2.1670501
1679993521252,1173509607711752,1.4110501,3.5670002,2.43105
1679993521254,1173509610213905,2.15295,3.9,3.11295
1679993521258,1173509612716059,1.74405,3.05205,5.247
1679993521259,1173509615217982,1.6170001,2.76705,5.97795
1679993521263,1173509617720136,1.33395,2.5759501,6.6510005
1679993521264,1173509620222290,1.5790501,2.5900502,6.5190005
1679993521267,1173509622724367,1.59,2.4100502,7.08405
1679993521270,1173509625226521,2.01705,2.6790001,7.7359505
1679993521272,1173509627728458,2.436,3.07395,8.092051
1679993521274,1173509630230843,3.0559502,3.83505,9.204
1679993521277,1173509632732996,3.4710002,4.5750003,12.801001
1679993521281,1173509635234905,2.9890501,4.1080503,14.298
1679993521283,1173509637736982,2.05305,3.6130502,14.566051
1679993521285,1173509640239136,0.99705005,3.00195,14.367001
1679993521287,1173509642741290,0.40605003,2.7529502,13.693951
1679993521289,1173509645243444,0.744,2.7529502,13.512001
1679993521292,1173509647745612,1.7320501,2.9280002,12.9210005
1679993521294,1173509650247535,2.6539502,3.1720502,12.20505
1679993521297,1173509652749689,3.35805,3.1909502,11.877001
1679993521299,1173509655251766,3.6169503,2.9989502,11.800051
1679993521302,1173509657753940,3.6070502,2.8510501,11.565001
1679993521304,1173509660255863,3.3769503,2.6430001,11.27505
1679993521307,1173509662758247,3.04395,2.47305,11.050051
1679993521309,1173509665260170,2.7930002,2.3700001,10.758
1679993521312,1173509667762324,2.6590502,2.3359501,10.52595
1679993521314,1173509670264473,2.50095,2.35995,10.435051
1679993521319,1173509672766550,2.532,2.4799502,10.569
1679993521321,1173509675268473,2.328,2.3119502,10.915951
1679993521323,1173509677770872,2.2350001,2.154,11.536051
1679993521325,1173509680273026,2.1700501,1.8229501,12.043951
1679993521327,1173509682774949,2.019,1.4620501,12.312
1679993521329,1173509685277102,2.2080002,1.299,12.40095
1679993521332,1173509687779179,2.6440501,1.23,12.328951
1679993521334,1173509690281305,3.1980002,1.21305,11.886001
1679993521337,1173509692783459,3.624,1.182,11.493001
1679993521339,1173509695285613,4.17495,1.3369501,11.194051
1679993521342,1173509697787536,4.53195,1.33305,10.765051
1679993521344,1173509700289690,4.761,1.2870001,10.456051
1679993521347,1173509702791762,4.9410005,1.1700001,10.102051
1679993521349,1173509705293916,5.0389504,1.0570501,9.71595
1679993521352,1173509707796070,5.2720504,0.97605,9.319051
1679993521356,1173509710298199,5.379,0.86505,9.010051
1679993521360,1173509712800122,5.57595,0.74595004,8.50905
1679993521360,1173509715302276,5.87505,0.64305,8.158951
1679993521362,1173509717804430,6.1480503,0.597,7.79505
1679993521364,1173509720306507,6.5119505,0.624,7.3039503
1679993521367,1173509722808642,6.68205,0.66705,7.05495
1679993521369,1173509725310796,6.7920003,0.94905007,7.4269505
1679993521372,1173509727812950,6.6270003,1.24395,8.32005
1679993521374,1173509730314873,6.282,1.3230001,9.979951
1679993521377,1173509732817008,5.97795,1.6099501,11.356951
1679993521379,1173509735319084,5.466,1.7850001,11.61795
1679993521382,1173509737821238,4.4209504,1.89495,11.845051
1679993521384,1173509740323161,3.3100502,2.29095,11.304001
1679993521387,1173509742825546,2.38995,2.736,10.927951
1679993521389,1173509745327714,1.6380001,3.213,10.81995
1679993521393,1173509747829637,1.29795,3.732,10.19505
1679993521395,1173509750331714,0.708,3.8500502,10.104
1679993521397,1173509752833868,0.25695002,4.0669503,9.99195
1679993521399,1173509755336022,0.26205,4.22295,10.107
1679993521402,1173509757838166,0.0010500001,4.02495,10.317
1679993521404,1173509760340320,-0.0010500001,4.2109504,10.291051
1679993521407,1173509762842243,0.13095,4.18695,10.272
1679993521409,1173509765344397,0.55005,4.1610003,10.449
1679993521412,1173509767846493,1.167,4.00995,10.63605
1679993521414,1173509770348647,1.38495,3.5170503,10.97595
1679993521417,1173509772850801,2.022,3.04005,11.200951
1679993521419,1173509775352955,2.8170002,2.9560502,11.958
1679993521422,1173509777854891,3.7120502,2.559,11.40705
1679993521424,1173509780357045,4.4359503,2.3430002,11.09805
1679993521427,1173509782859122,4.7850003,2.214,10.926001
1679993521431,1173509785361271,5.1210003,2.14695,10.18305
1679993521434,1173509787863195,5.202,1.81605,9.493951
1679993521436,1173509790365579,5.2380004,1.812,8.854051
1679993521438,1173509792867502,4.893,1.4239501,8.434951
1679993521439,1173509795369656,4.6420503,1.1719501,7.8820505
1679993521442,1173509797871747,4.191,1.2870001,7.5750003
1679993521444,1173509800373978,3.7099502,1.4310001,7.419
1679993521447,1173509802876055,3.3700502,1.55505,7.49805
1679993521449,1173509805378209,3.1900501,1.6459501,7.6110005
1679993521452,1173509807880367,2.8860002,1.69395,8.00895
1679993521454,1173509810382291,2.8840501,1.8570001,8.116051
1679993521457,1173509812884367,2.5870502,1.9429501,8.049001
1679993521459,1173509815386598,2.496,2.19495,7.6090503
1679993521462,1173509817888752,2.26605,2.36505,6.83505
1679993521464,1173509820390829,2.184,2.3170502,6.5860505
1679993521468,1173509822892983,2.1340501,2.5470002,6.56895
1679993521471,1173509825394906,2.01,3.07095,6.6460505
1679993521473,1173509827897045,1.023,3.114,6.0589504
1679993521475,1173509830399122,1.30095,3.2940001,6.3559504
1679993521477,1173509832901353,1.4760001,2.6590502,6.2509503
1679993521479,1173509835403429,2.11995,3.1669502,5.8240504
1679993521482,1173509837905583,1.5499501,2.7259502,6.5329504
1679993521484,1173509840407497,1.60695,2.9200501,6.1380005
1679993521487,1173509842909651,2.2440002,3.3300002,5.781
1679993521489,1173509845411728,2.1700501,3.28005,5.55105
1679993521492,1173509847913959,2.2350001,3.9310503,5.20905
1679993521494,1173509850416007,0.64500004,4.28805,5.4199505
1679993521498,1173509852918161,-3.9100502,7.3729506,4.47795
1679993521500,1173509855420315,-12.385951,13.19295,4.0939503
1679993521502,1173509857922238,-9.739051,9.94995,3.6540003
1679993521506,1173509860424324,-4.69995,9.721951,7.077
1679993521508,1173509862926477,-1.011,9.495001,6.9979506
1679993521509,1173509865428708,-0.37005,9.246,6.306
1679993521512,1173509867930785,-1.3450501,7.9909506,6.7510505
1679993521514,1173509870432939,-0.92595005,6.6139503,7.0150504
1679993521517,1173509872934857,0.043950003,6.012,7.4430003
1679993521519,1173509875437011,1.47105,5.3590503,7.80705
1679993521522,1173509877939088,2.913,5.2909503,7.77405
1679993521524,1173509880441319,3.6210003,5.3590503,7.3020005
1679993521527,1173509882943396,2.93895,5.28,6.603
1679993521530,1173509885445549,3.2670002,5.814,5.1990004
1679993521533,1173509887947472,3.6070502,5.9880004,4.4620504
1679993521535,1173509890449626,3.4969501,5.99595,4.04505
1679993521538,1173509892951795,3.32205,5.77995,3.55095
1679993521540,1173509895453949,2.39295,5.35395,3.4080002
1679993521545,1173509897956103,1.9159501,4.9680004,3.111
1679993521546,1173509900458180,1.6860001,5.0500503,3.2640002
1679993521548,1173509902960339,2.319,5.3179502,3.453
1679993521550,1173509905462493,1.401,4.5490503,4.31505
1679993521552,1173509907964416,1.69305,4.6810503,3.726
1679993521554,1173509910466493,1.8829501,4.74795,3.8479502
1679993521557,1173509912968723,1.64295,4.302,4.24095
1679993521559,1173509915470800,2.8570502,4.5079503,4.36305
1679993521562,1173509917972954,2.7810001,4.02105,5.0869503
1679993521564,1173509920474877,2.9580002,3.7440002,5.3380504
1679993521567,1173509922977031,3.147,3.4780502,5.97795
1679993521569,1173509925479093,3.732,3.4140003,6.1519504
1679993521572,1173509927981324,4.275,3.8160002,7.39305
1679993521574,1173509930483478,5.49405,4.2900004,8.193001
1679993521578,1173509932985555,6.67995,4.19205,8.434951
1679993521581,1173509935487464,6.0259504,3.17895,8.94495
1679993521583,1173509937989617,3.9970503,1.9219501,9.52005
1679993521585,1173509940491771,2.4840002,1.6530001,11.0140505
1679993521587,1173509942993925,2.70405,2.2110002,11.524051
1679993521589,1173509945496079,3.2329502,2.7580502,12.34395
1679993521592,1173509947998141,3.82695,3.31995,12.255
1679993521595,1173509950500295,3.8730001,3.4950001,12.24495
1679993521597,1173509953002218,3.5160003,3.1960502,12.70005
1679993521600,1173509955504372,3.0040503,2.77395,12.739051
1679993521602,1173509958006449,2.6800501,2.59695,12.471001
1679993521604,1173509960508679,2.9509501,2.6209502,12.550051
1679993521607,1173509963010833,3.79395,2.8129501,12.753
1679993521609,1173509965512910,3.6049502,2.841,12.40305
1679993521612,1173509968015045,2.778,2.3119502,12.304951
1679993521615,1173509970516968,3.0949502,2.67405,12.127951
1679993521620,1173509973019122,2.604,2.41995,11.517
1679993521622,1173509975521199,1.6380001,2.295,11.17695
1679993521623,1173509978058828,1.8559501,2.6209502,11.23005
1679993521625,1173509980525521,1.212,2.8920002,10.83705
1679993521627,1173509983027444,0.93900007,3.0949502,9.867001
1679993521630,1173509985529598,0.76005006,3.21,9.814051
1679993521633,1173509988031751,0.07305,3.14595,9.70695
1679993521635,1173509990533814,-0.079950005,3.4639502,9.217951
1679993521637,1173509993036045,-0.35805002,3.66,9.606001
1679993521639,1173509995538122,-0.86595005,3.933,10.15005
1679993521642,1173509998040276,-0.87495005,4.0960503,10.36305
1679993521645,1173510000542430,-0.48000002,3.9550502,10.887
1679993521648,1173510003044363,-0.26895002,4.0800004,11.038051
1679993521650,1173510005546440,-0.18300001,4.1779504,11.59395
1679993521652,1173510008048671,0.61695004,4.0410004,11.61795
1679993521656,1173510010550833,0.31305,3.73005,12.051001
1679993521659,1173510013052910,0.171,3.663,12.40305
1679993521661,1173510015555064,0.50100005,3.696,12.49905
1679993521663,1173510018056987,0.47100002,3.8929503,12.777
1679993521665,1173510020559141,0.82500005,3.8209503,12.20505
1679993521667,1173510023061199,1.1910001,3.7399502,11.89305
1679993521669,1173510025563353,1.2019501,3.5020502,11.94795
1679993521672,1173510028065507,1.3920001,3.1309502,12.1039505
1679993521674,1173510030567430,1.86405,2.7889502,11.853001
1679993521677,1173510033069589,2.424,2.3860502,11.580001
1679993521680,1173510035571743,2.9839501,2.13,11.445001
1679993521682,1173510038073896,3.2959502,1.8709501,11.541
1679993521684,1173510040575973,3.657,1.8790501,11.524051
1679993521687,1173510043078132,3.9540002,1.761,11.58405
1679993521689,1173510045580055,3.55695,1.536,11.653951
1679993521694,1173510048082209,3.3360002,1.3920001,11.500951
1679993521696,1173510050584363,3.6019502,1.74705,11.206051
1679993521698,1173510053086531,3.2359502,2.013,11.365951
1679993521700,1173510055588685,2.84505,2.2020001,11.200951
1679993521702,1173510058090762,3.08505,2.4870002,10.68105
1679993521704,1173510060592685,2.77605,2.7,10.677
1679993521707,1173510063094839,2.0380502,2.72895,10.34895
1679993521709,1173510065596992,1.6140001,2.8270502,10.159051
1679993521712,1173510068099146,1.44,3.0190501,9.931951
1679993521714,1173510070601300,0.564,3.0690002,10.974001
1679993521717,1173510073103377,1.6669501,2.8870502,9.9529505
1679993521720,1173510075605545,2.3760002,3.4140003,9.64395
1679993521722,1173510078107699,1.6500001,3.4380002,10.047001
1679993521724,1173510080609622,1.6140001,3.1579502,9.72105
1679993521727,1173510083111776,1.899,3.1720502,9.57705
1679993521731,1173510085613929,2.05305,3.2269502,9.666
1679993521734,1173510088116083,2.1079502,3.2959502,9.703951
1679993521736,1173510090618160,2.223,3.186,9.604051
1679993521739,1173510093120314,2.19195,2.9539502,9.484051
1679993521742,1173510095622247,2.364,2.8200002,9.573001
1679993521744,1173510098124324,2.48895,2.9590502,9.537001
1679993521746,1173510100626555,2.5510502,2.98005,9.321
1679993521748,1173510103128709,2.3040001,2.7859502,9.193951
1679993521750,1173510105630786,2.223,2.6809502,9.201
1679993521752,1173510108132949,2.14905,2.7190502,9.12495
1679993521754,1173510110634872,2.328,2.71005,9.012
1679993521757,1173510113137025,2.08395,2.6470501,8.896951
1679993521760,1173510115639179,2.05005,2.7840002,8.95695
1679993521762,1173510118141333,2.11995,2.77395,8.764951
1679993521765,1173510120643396,2.1409502,2.877,8.863951
1679993521769,1173510123145550,2.187,2.76195,8.931001
1679993521771,1173510125647704,2.019,2.9490001,8.821051
1679993521773,1173510128149642,1.93095,2.98005,8.81295
1679993521775,1173510130652027,1.69305,2.9899502,8.734051
1679993521778,1173510133153950,1.4989501,3.1240501,8.7630005
1679993521780,1173510135656103,1.521,2.98305,8.866051
1679993521782,1173510138158180,1.33395,3.0670502,8.715
1679993521785,1173510140660344,1.3560001,3.2220001,8.33895
1679993521787,1173510143162267,1.47105,3.1980002,8.370001
1679993521790,1173510145664421,1.27005,3.21495,8.302951
1679993521792,1173510148166575,0.94095004,3.10995,8.28405
1679993521795,1173510150668710,0.96300006,3.3280501,7.8600006
1679993521797,1173510153170864,1.10895,3.423,7.7880006
1679993521800,1173510155672941,0.95295006,3.3630002,7.49805
1679993521802,1173510158174864,0.59505004,3.0259502,7.2850504
1679993521806,1173510160676998,0.40800002,3.0640502,7.3069506
1679993521808,1173510163179382,0.69105005,3.04695,7.0030503
1679993521810,1173510165681305,0.58605003,3.1240501,6.8250003
1679993521812,1173510168183459,0.52305,3.186,7.3999505
1679993521815,1173510170685536,0.56895,3.03795,6.8230505
1679993521818,1173510173187666,0.64095,2.94705,6.40605
1679993521820,1173510175689589,1.6500001,3.3919501,5.82
1679993521822,1173510178191743,2.6560502,3.4950001,5.99205
1679993521824,1173510180693897,1.9900501,2.9970002,6.15705
1679993521827,1173510183196051,0.88305,2.3790002,6.36105
1679993521830,1173510185698118,0.81495005,1.9650002,7.7500505
1679993521833,1173510188200272,0.56205004,1.99995,8.871
1679993521835,1173510190702426,0.9889501,2.214,9.534
1679993521837,1173510193204349,1.746,2.3740501,9.616051
1679993521840,1173510195706522,3.2209501,2.535,9.1369505
1679993521844,1173510198208676,3.4420502,2.0400002,9.541051
1679993521846,1173510200710830,2.163,1.335,9.003
1679993521848,1173510203212907,1.1400001,0.70695,8.44695
1679993521850,1173510205715061,0.92505,1.0330501,8.50695
1679993521852,1173510208216979,1.2,1.194,9.84105
1679993521855,1173510210719363,1.5259501,1.6969501,9.469951
1679993521858,1173510213221286,1.1230501,1.7040001,9.937051
1679993521860,1173510215723440,0.43500003,1.9410001,9.781051
1679993521863,1173510218225531,0.025050001,2.2110002,9.144
1679993521865,1173510220727685,-0.49695003,2.4169502,8.455951
1679993521867,1173510223229608,-0.84900004,2.77905,7.7520003
1679993521870,1173510225731762,-1.16295,3.0259502,6.5209503
1679993521872,1173510228233931,-2.23095,2.9299502,4.38495
1679993521875,1173510230736085,-1.6489501,3.4740002,7.6249504
1679993521877,1173510233238162,-3.2440503,4.1269503,8.0779505
1679993521881,1173510235740300,-3.6510003,3.5740502,6.7440004
1679993521884,1173510238242454,-3.25095,3.2290502,7.635
1679993521885,1173510240744377,-1.6060501,3.663,7.2060003
1679993521887,1173510243246531,-1.0000501,3.732,6.7320004
1679993521890,1173510245748685,0.16905001,3.2920501,6.7200003
1679993521892,1173510248250762,0.351,2.71005,7.3570504
1679993521895,1173510250752916,0.75795,2.3430002,8.187
1679993521898,1173510253255147,1.2550501,2.0370002,9.0379505
1679993521900,1173510255757224,1.3080001,1.9290001,9.5460005
1679993521903,1173510258259147,1.401,1.9579501,9.87405
1679993521905,1173510260761316,1.29795,2.0389502,10.16205
1679993521907,1173510263263469,1.6860001,2.1730502,10.5070505
1679993521910,1173510265765546,1.6720501,2.2690501,10.828051
1679993521913,1173510268267700,1.57605,2.15205,11.158051
1679993521915,1173510270769858,1.5139501,2.08005,11.464951
1679993521920,1173510273272012,1.38705,1.9240501,11.383051
1679993521921,1173510275773935,1.50195,1.917,11.481001
1679993521923,1173510278276094,1.6339501,1.8760501,11.577001
1679993521925,1173510280778171,1.76505,2.0070002,11.653951
1679993521927,1173510283280325,1.9090501,1.95,11.72595
1679993521930,1173510285782478,2.01705,1.9290001,11.464951
1679993521933,1173510288284632,1.9380001,1.8859501,11.55105
1679993521935,1173510290786584,2.01,1.90005,11.27295
1679993521938,1173510293288738,2.0670002,1.9789501,11.0449505
1679993521940,1173510295790815,2.0329502,1.914,10.879951
1679993521943,1173510298292969,2.022,1.8090001,10.64805
1679993521945,1173510300795123,2.0380502,1.9480501,10.842001
1679993521947,1173510303297282,1.8730501,1.7179501,10.911
1679993521950,1173510305799205,1.8610501,1.7539501,11.103001
1679993521953,1173510308301359,1.8610501,1.8739501,10.9470005
1679993521956,1173510310803517,1.7320501,1.7950501,11.14395
1679993521958,1173510313305594,1.674,1.7760001,11.13195
1679993521960,1173510315807748,1.50405,1.692,11.074051
1679993521962,1173510318309902,1.7700001,1.6990501,10.863001
1679993521965,1173510320812056,1.81095,1.5670501,10.753051
1679993521967,1173510323313983,1.7029501,1.58595,10.50405
1679993521970,1173510325816137,1.761,1.5289501,10.273951
1679993521972,1173510328318214,1.8589501,1.4470501,10.20195
1679993521975,1173510330820368,1.9069501,1.33305,10.22595
1679993521978,1173510333322532,1.9860001,1.36395,9.903001
1679993521980,1173510335824685,1.9740001,1.4140501,9.646951
1679993521985,1173510338326608,1.9020001,1.3609501,9.39795
1679993521985,1173510340828762,1.9090501,1.299,9.1699505
1679993521987,1173510343330839,1.8709501,1.0710001,9.02595
1679993521990,1173510345833012,1.9159501,1.1410501,8.740951
1679993521994,1173510348334935,1.9620001,0.96105003,8.545051
1679993521996,1173510350837320,2.22,0.98805004,8.50395
1679993521997,1173510353339243,2.4790502,0.98805004,8.62395
1679993522000,1173510355841416,2.21805,0.669,8.37495
1679993522002,1173510358343570,1.8610501,0.55200005,8.33895
1679993522005,1173510360845647,1.89495,0.48495004,8.48505
1679993522007,1173510363347800,1.9159501,0.564,8.823
1679993522010,1173510365849954,1.5450001,0.64500004,8.839951
1679993522012,1173510368352108,1.50195,0.77205,8.98095
1679993522015,1173510370854031,1.6890001,1.0690501,9.328051
1679993522018,1173510373356185,1.57095,1.1580001,9.799951
1679993522020,1173510375858262,1.5640501,1.3060501,9.903001
1679993522022,1173510378360416,1.44,1.6200001,10.243051
1679993522025,1173510380862339,1.21695,1.845,10.51095
1679993522027,1173510383364724,0.86805004,2.1079502,10.92105
1679993522031,1173510385866647,0.68895006,2.36205,11.184001
1679993522034,1173510388368800,0.47295,2.523,11.433001
1679993522037,1173510390870877,0.29295,2.841,11.656051
1679993522039,1173510393373031,0.24795002,3.2719502,11.788051
1679993522041,1173510395875185,-0.049050003,3.6439502,11.922001
1679993522043,1173510398377330,-0.079950005,4.0810504,12.0390005
1679993522045,1173510400879253,0.04695,3.9220502,12.729001
1679993522047,1173510403381407,-0.36,4.15605,12.660001
1679993522050,1173510405883561,-0.26505002,4.2259502,13.000051
1679993522052,1173510408385638,-0.052050002,4.18995,13.2630005
1679993522055,1173510410887791,-0.07095,4.0740004,13.002001
1679993522058,1173510413389715,0.49500003,4.2499504,13.314001
1679993522060,1173510415892099,0.657,4.02495,13.467001
1679993522062,1173510418394002,0.71295005,3.7849503,13.548
1679993522065,1173510420896156,1.2379501,3.5050502,13.660951
1679993522069,1173510423398233,1.23405,3.3780003,13.387951
1679993522071,1173510425900387,2.4720001,3.5140502,14.379001
1679993522073,1173510428402306,1.8540001,3.1240501,13.588951
1679993522075,1173510430904691,2.2080002,3.07395,13.222951
1679993522077,1173510433406844,2.4049501,2.79795,12.898951
1679993522080,1173510435908768,2.7139502,2.841,12.528001
1679993522082,1173510438410844,2.97,2.63805,12.267
1679993522085,1173510440912998,3.2070003,2.49405,11.235001
1679993522087,1173510443415152,2.90505,2.21895,10.84395
1679993522090,1173510445917306,2.5459502,2.1420002,10.686001
1679993522092,1173510448419229,2.02305,2.0629501,10.816051
1679993522095,1173510450921383,1.8060001,2.23305,10.897051
1679993522098,1173510453423541,2.26605,2.9179502,10.273951
1679993522100,1173510455925618,2.4810002,3.2920501,10.114051
1679993522102,1173510458427772,2.4769502,3.4759502,9.61305
1679993522106,1173510460929695,1.9350001,3.4140003,9.441
1679993522108,1173510463432079,1.9279501,3.03795,10.16205
1679993522110,1173510465934002,1.4440501,3.10995,10.16205
1679993522113,1173510468436156,1.1689501,2.94195,10.1310005
1679993522115,1173510470938233,1.4760001,3.5050502,10.344001
1679993522118,1173510473440449,1.42005,3.79905,10.48995
1679993522120,1173510475942526,1.3560001,3.9769502,10.717051
1679993522122,1173510478444449,0.975,4.09905,10.662001
1679993522125,1173510480946603,1.06095,4.104,10.737
1679993522127,1173510483448757,1.18305,3.9720001,10.399051
1679993522130,1173510485950824,1.2019501,3.89805,10.2310505
1679993522133,1173510488453054,0.89505005,3.76605,10.606951
1679993522136,1173510490955131,0.804,3.4090502,11.0140505
1679993522138,1173510493457272,1.6480501,3.42105,11.328
1679993522140,1173510495959195,1.88505,3.5380502,11.2900505
1679993522145,1173510498461349,1.9230001,3.25605,11.188951
1679993522146,1173510500963426,1.74405,3.3630002,10.64805
1679993522148,1173510503465580,1.2360001,3.4140003,10.653001
1679993522150,1173510505967747,1.1020501,3.2940001,10.713
1679993522152,1173510508469901,1.19805,3.55695,11.005051
1679993522155,1173510510971824,1.21905,3.6100502,10.993051
1679993522157,1173510513473978,1.416,3.7039502,10.993051
1679993522160,1173510515976049,0.906,3.4780502,11.104951
1679993522163,1173510518478203,0.90405005,3.5050502,10.923
1679993522165,1173510520980434,0.89205,3.2920501,11.232
1679993522167,1173510523482511,0.85395,2.9850001,11.167951
1679993522170,1173510525984431,0.90195006,2.7810001,11.338051
1679993522173,1173510528486585,0.93405,2.63805,10.983001
1679993522175,1173510530988739,1.08,2.5540502,10.66695
1679993522178,1173510533490816,1.3579501,2.3719501,10.441951
1679993522181,1173510535993041,1.5790501,2.259,10.248
1679993522184,1173510538495118,1.8040501,2.08905,10.056001
1679993522185,1173510540997272,2.1079502,2.22105,10.305
1679993522187,1173510543499195,2.1769502,1.9459502,10.33395
1679993522190,1173510546001349,2.02305,1.7850001,10.462951
1679993522193,1173510548503431,1.9980001,1.5120001,10.279051
1679993522195,1173510551005585,1.42005,1.5190501,9.999001
1679993522197,1173510553507739,1.3729501,1.6510501,9.012
1679993522200,1173510556009893,1.8780001,1.728,8.77005
1679993522202,1173510558511816,2.3110502,1.53795,8.775001
1679993522205,1173510561013941,2.769,1.536,8.581051
1679993522208,1173510563516018,1.77495,1.53795,7.8310504
1679993522210,1173510566018171,1.81305,1.43505,7.5919504
1679993522213,1173510568520402,2.2369502,1.146,8.17395
1679993522215,1173510571022488,1.128,1.3660501,7.6330504
1679993522220,1173510573524411,1.0320001,1.6819501,7.4119506
1679993522222,1173510576026565,0.507,2.0989501,6.97905
1679993522224,1173510578531180,-0.59505004,2.56095,6.71505
1679993522226,1173510581030796,-0.22605,2.7529502,6.91905
1679993522228,1173510583532719,0.42000002,2.676,7.2900004
1679993522230,1173510586035104,-1.9789501,3.35205,6.39405
1679993522233,1173510588537257,-1.5319501,3.3040502,6.7560005
1679993522235,1173510591039175,-0.49005002,3.1339502,7.4460006
1679993522237,1173510593541329,-1.0860001,2.8249502,7.1340003
1679993522240,1173510596043406,-1.40505,2.97495,6.6120005
1679993522242,1173510598545560,-1.419,2.94195,6.9859505
1679993522245,1173510601047714,-1.35195,2.8510501,7.48395
1679993522248,1173510603549873,-1.39005,2.8290002,7.6090503
1679993522251,1173510606052027,-0.693,2.559,8.016001
1679993522253,1173510608553950,-0.33705002,2.26395,7.8910503
1679993522257,1173510611056027,0.12105001,1.84695,8.017051
1679993522259,1173510613558181,0.66705,0.96105003,8.706
1679993522262,1173510616060334,-0.483,0.813,7.96995
1679993522264,1173510618562488,0.34800002,1.059,7.86495
1679993522265,1173510621064411,2.196,1.0690501,8.02095
1679993522267,1173510623566565,3.52095,0.87705004,8.397
1679993522271,1173510626068719,4.0279503,0.07095,7.58895
1679993522273,1173510628570796,4.5940504,-1.50195,7.79505
1679993522275,1173510631072950,3.35595,-1.74195,6.32205
1679993522278,1173510633575080,3.4950001,-2.5099502,7.326
1679993522281,1173510636077233,3.9469502,-3.009,7.9990506
1679993522283,1173510638579157,1.21695,-1.9429501,6.7200003
1679993522285,1173510641081310,-1.7880001,0.39405003,7.314
1679993522288,1173510643583387,-0.83895004,3.2580001,6.2389503
1679993522291,1173510646085541,0.33195,4.137,5.8429503
1679993522295,1173510648587695,-1.86195,4.18305,6.9330006
1679993522296,1173510651089849,-1.7860501,3.6100502,5.4079504
1679993522299,1173510653591777,-2.1019502,2.3380501,4.9290004
1679993522301,1173510656093931,-3.1960502,1.4929501,5.31405
1679993522304,1173510658596008,-1.848,0.72195005,5.736
1679993522305,1173510661098162,-2.02305,0.96795005,6.3700504
1679993522307,1173510663600315,-1.5870001,1.2100501,8.170051
1679993522311,1173510666102483,-1.31595,2.295,8.863951
1679993522313,1173510668604406,-0.97800004,2.3460002,8.68605
1679993522315,1173510671106560,-0.43005002,2.8510501,9.43605
1679993522318,1173510673608714,-0.0010500001,1.9939501,9.346951
1679993522321,1173510676110786,-0.55695003,1.6030501,9.58905
1679993522323,1173510678612940,-0.47805002,1.0570501,9.75195
1679993522325,1173510681115094,-0.21195,0.44400004,10.602
1679993522327,1173510683617248,-0.126,0.67905,10.6050005
1679993522332,1173510686119181,0.39195,0.753,11.328
1679993522335,1173510688621335,0.32895002,1.182,10.629001
1679993522337,1173510691123411,0.09,1.04295,10.614
1679993522340,1173510693625565,-0.21900001,1.491,9.99195
1679993522342,1173510696127488,-0.28905,1.74705,9.53205
1679993522344,1173510698705873,-0.59295005,1.84695,9.27795
1679993522346,1173510701131796,-1.09605,1.7160001,8.832001
1679993522348,1173510703633950,-1.4119501,1.7659501,8.710051
1679993522351,1173510706136027,-1.2229501,1.83105,9.228001
1679993522354,1173510708638277,-0.933,1.7299501,8.908951
1679993522355,1173510711140354,-0.76305,1.7299501,9.309
1679993522358,1173510713642507,-0.15195,1.4950501,9.955951
1679993522361,1173510716144431,0.57105005,1.28205,10.05405
1679993522363,1173510718646584,0.72,0.97305006,10.44705
1679993522365,1173510721148661,0.94095004,0.588,10.135051
1679993522369,1173510723650892,1.32,-0.028950002,10.329
1679993522372,1173510726152969,1.2930001,-0.027,10.224001
1679993522373,1173510728655151,1.3729501,-0.22305001,9.913051
1679993522375,1173510731157074,1.59,-0.112950005,10.01805
1679993522378,1173510733659228,1.605,-0.3,9.496051
1679993522381,1173510736161382,1.6309501,-0.41505003,9.27795
1679993522383,1173510738663459,1.19505,-0.49605003,8.46105
1679993522385,1173510741165612,0.81495005,-0.453,7.80705
1679993522388,1173510743667766,-0.06795,0.32805002,7.2229505
1679993522391,1173510746169920,-0.087000005,0.261,6.1740003
1679993522393,1173510748671843,0.058950003,0.79800004,8.51895
1679993522395,1173510751173930,-0.26895002,1.96695,6.6150002
1679993522398,1173510753676084,-1.0720501,2.8249502,6.366
1679993522401,1173510756178315,-1.9630501,3.6150002,6.3460503
1679993522403,1173510758680392,-2.5849502,4.1059504,6.71295
1679993522407,1173510761182570,-3.1990502,4.3500004,6.3700504
1679993522408,1173510763684493,-4.06605,4.89195,6.9259505
1679993522411,1173510766186646,-4.20405,5.10195,7.5750003
1679993522413,1173510768688723,-3.2370002,5.4690003,7.8820505
1679993522415,1173510771190954,-3.11205,5.3200502,8.19495
1679993522418,1173510773693002,-2.83905,5.076,8.851951
1679993522421,1173510776195156,-1.9650002,4.0800004,9.634951
1679993522423,1173510778697079,-0.96405005,3.4980001,9.55605
1679993522425,1173510781199233,-0.109050006,2.7840002,10.729051
1679993522427,1173510783701310,0.55395,2.4799502,9.91005
1679993522431,1173510786203459,1.22895,2.5519502,10.20705
1679993522433,1173510788705613,1.8870001,2.877,10.114051
1679993522435,1173510791207766,1.65495,2.8579502,10.468051
1679993522438,1173510793709920,2.60805,2.67105,10.974001
1679993522441,1173510796211843,2.5150502,1.9770001,12.436951
1679993522444,1173510798713915,2.55795,1.4470501,12.661951
1679993522446,1173510801216069,2.50095,1.8760501,11.476951
1679993522448,1173510803718300,2.0380502,2.559,10.15005
1679993522451,1173510806220377,1.9380001,2.676,10.114051
1679993522453,1173510808722310,1.4440501,2.6260502,10.51395
1679993522455,1173510811224464,1.353,2.9200501,10.89
1679993522458,1173510813726618,1.4280001,2.8249502,11.74005
1679993522461,1173510816228695,1.3800001,2.7889502,12.21405
1679993522463,1173510818730843,1.3369501,2.4100502,12.957001
1679993522465,1173510821232997,1.5829501,2.0629501,12.633
1679993522468,1173510823735151,1.452,1.6030501,13.91205
1679993522471,1173510826237074,1.69305,1.3470001,13.275001
1679993522473,1173510828739237,2.9680502,1.93095,13.687051
1679993522475,1173510831241314,4.01895,2.5780501,13.407001
1679993522477,1173510833743468,2.50095,-0.17505,12.360001
1679993522483,1173510836245622,2.67105,-0.33600003,14.214001
1679993522484,1173510838747776,3.6430502,-0.38595003,13.323001
1679993522486,1173510841249699,3.6720002,-0.80295,13.797001
1679993522488,1173510843751852,3.5659502,-2.0050502,12.559051
1679993522491,1173510846253929,4.2709503,-0.94200003,12.19305
1679993522493,1173510848756088,4.7730002,-0.98205006,11.781
1679993522495,1173510851258242,4.60305,-1.014,11.091001
1679993522499,1173510853760396,3.7909503,-1.0849501,10.887
1679993522501,1173510856262319,3.6739502,-1.3249501,10.5070505
1679993522503,1173510858764473,3.1930501,-0.77400005,10.305
1679993522505,1173510861266622,2.6590502,-0.93000007,9.582001
1679993522508,1173510863768699,2.5800002,-1.1550001,9.75
1679993522511,1173510866270622,2.5099502,-1.0500001,9.618
1679993522513,1173510868773006,2.5080001,-1.0020001,9.55605
1679993522515,1173510871275160,2.604,-0.85995007,9.96105
1679993522520,1173510873777083,2.3860502,-0.78105,9.970051
1679993522522,1173510876279237,2.295,-0.513,9.807
1679993522524,1173510878781314,1.8900001,-0.13905,9.99405
1679993522525,1173510881283468,1.3369501,0.25800002,9.307051
1679993522528,1173510883785622,0.31995,0.35895002,9.208051
1679993522531,1173510886287776,0.39600003,0.58005005,9.1390505
1679993522533,1173510888789699,0.24795002,1.335,9.010051
1679993522535,1173510891291858,-0.53805,1.7160001,9.08895
1679993522539,1173510893793934,-0.51000005,1.8019501,9.616051
1679993522541,1173510896296088,-0.81795,2.427,8.125951
1679993522543,1173510898798011,-1.51005,2.568,7.9939504
1679993522545,1173510901300391,-1.8570001,2.319,8.91195
1679993522548,1173510903802314,-1.7809501,2.05305,8.823
1679993522551,1173510906304468,-1.24395,2.21595,8.47605
1679993522553,1173510908806622,-0.91095006,1.881,8.524051
1679993522557,1173510911308685,-1.065,1.812,8.455951
1679993522559,1173510913810608,-1.215,1.53795,8.20695
1679993522561,1173510916312992,-0.32895002,1.2610501,8.731951
1679993522563,1173510918815146,0.59505004,0.88500005,9.714001
1679993522565,1173510921317069,1.3729501,0.39105,9.783
1679993522568,1173510923819146,1.7029501,0.016050002,10.32495
1679993522571,1173510926321300,1.88505,-0.22995001,10.50195
1679993522573,1173510928823454,1.96395,-0.108,10.717051
1679993522575,1173510931325377,1.9660501,-0.25695002,10.879951
1679993522579,1173510933827497,2.2110002,-0.19500001,10.94505
1679993522581,1173510936329651,2.35395,-0.372,10.995001
1679993522583,1173510938831728,2.59605,-0.36195,11.136001
1679993522585,1173510941333882,2.802,-0.63000005,10.858951
1679993522588,1173510943836035,2.4810002,-0.81000006,10.593
1679993522591,1173510946338208,3.0349503,-0.73800004,10.714951
1679993522594,1173510948840131,3.5299501,-0.74505,11.37405
1679993522596,1173510951342285,4.026,-0.83895004,11.87205
1679993522598,1173510953844362,4.2439504,-0.79305005,12.3820505
1679993522602,1173510956346526,4.263,-0.85605,12.351001
1679993522604,1173510958848757,4.512,-0.66405004,12.394051
1679993522605,1173510961350834,4.191,-0.74505,12.38895
1679993522610,1173510963852757,4.0609503,-0.78105,12.649951
1679993522611,1173510966354911,4.053,-0.48195,12.717001
1679993522613,1173510968856988,4.47195,-0.47700003,13.207951
1679993522615,1173510971359141,5.6280003,-0.17505,13.222951
1679993522619,1173510973861295,5.83395,-0.46305,12.837001
1679993522621,1173510976363449,5.5950003,-0.846,12.978001
1679993522623,1173510978865372,5.1930003,-1.23195,13.210951
1679993522625,1173510981367526,4.848,-1.5640501,13.540951
1679993522628,1173510983869680,5.1280503,-1.3939501,13.503
1679993522633,1173510986371757,5.1330004,-1.368,13.57005
1679993522635,1173510988873685,4.5750003,-1.5000001,13.91205
1679993522637,1173510991376070,4.26795,-1.5450001,14.26395
1679993522638,1173510993878223,4.14795,-1.35405,14.272051
1679993522641,1173510996380147,4.0080004,-1.3800001,14.181001
1679993522643,1173510998882223,3.7459502,-1.248,13.644001
1679993522645,1173511001384357,3.5470502,-1.1410501,12.961051
1679993522648,1173511003886511,3.4510503,-0.98700005,12.288
1679993522651,1173511006388665,3.5449502,-1.12905,11.457001
1679993522654,1173511008890588,3.4110003,-1.1410501,10.911
1679993522655,1173511011392738,3.3289502,-1.2409501,10.120951
1679993522658,1173511013894892,3.3390002,-1.26495,9.45495
1679993522661,1173511016396969,3.2020502,-1.2559501,8.77305
1679993522663,1173511018899123,2.8600502,-1.251,8.035951
1679993522665,1173511021401046,2.5819502,-1.284,7.209
1679993522669,1173511023903430,2.331,-1.4140501,6.59805
1679993522672,1173511026405353,1.9260001,-1.42095,6.3559504
1679993522673,1173511028907507,1.6189501,-1.3800001,6.1260004
1679993522675,1173511031409588,1.18305,-1.38495,6.0589504
1679993522678,1173511033911742,1.18605,-1.12395,6.1000504
1679993522681,1173511036413665,1.116,-0.9799501,5.9680505
1679993522683,1173511038916050,1.2600001,-0.93000007,5.793
1679993522685,1173511041418219,1.3080001,-0.83895004,5.8290005
1679993522688,1173511043920142,1.32,-0.82695,5.9350505
1679993522691,1173511046422219,0.94605005,-0.56295,6.36105
1679993522693,1173511048924372,0.83505005,-0.67095006,6.6790504
1679993522695,1173511051426516,1.1230501,-0.61395,7.15605
1679993522699,1173511053928439,1.3770001,-0.58500004,7.6180506
1679993522701,1173511056430824,1.4440501,-0.78795004,7.77405
1679993522703,1173511058932747,1.416,-0.91800004,8.073
1679993522707,1173511061434901,1.7989501,-1.0159501,8.346001
1679993522708,1173511063936978,1.96395,-1.0180501,8.361
1679993522711,1173511066439132,2.0959501,-1.07595,8.574
1679993522713,1173511068941055,2.0770502,-1.263,8.61705
1679993522716,1173511071443439,2.01705,-1.2600001,8.718
1679993522718,1173511073945353,2.0400002,-1.2529501,9.06705
1679993522721,1173511076447507,1.99995,-1.2030001,9.27795
1679993522723,1173511078949661,1.7820001,-1.12905,9.199051
1679993522725,1173511081451738,1.4610001,-1.28205,9.357
1679993522729,1173511083953661,1.09695,-1.2030001,9.010051
1679993522731,1173511086456060,1.4299501,-1.04205,9.1369505
1679993522734,1173511088958214,1.4080501,-1.0030501,9.12495
1679993522736,1173511091460137,2.21595,-0.75705004,9.04605
1679993522739,1173511093962291,2.42595,-0.77400005,8.715
1679993522741,1173511096464368,2.52495,-0.32595003,8.301001
1679993522745,1173511098966521,2.3110502,-0.04605,6.603
1679993522747,1173511101468675,2.2440002,0.30600002,3.3360002
1679993522749,1173511103970829,1.19505,0.354,4.21995
1679993522752,1173511106473002,0.042000003,0.44205,5.1540003
1679993522753,1173511108974925,-1.2540001,-0.028950002,7.1460004
1679993522755,1173511111477079,-1.7740501,0.045,9.132
1679993522758,1173511113979156,-1.098,0.30600002,10.2619505
1679993522761,1173511116481300,-1.1080501,0.20505,10.99995
1679993522763,1173511118983453,-0.693,0.74595004,11.61795
1679993522765,1173511121485607,-1.011,0.597,11.845051
1679993522768,1173511123987530,-0.70305,0.85395,12.18795
1679993522771,1173511126489694,-0.71505004,0.82695,12.019951
1679993522773,1173511128991848,-0.32700002,0.98505,12.23595
1679993522775,1173511131493925,-0.010950001,0.99000007,12.21195
1679993522779,1173511133995848,0.09195001,1.2970501,12.207001
1679993522783,1173511136498247,0.09705,1.1389501,12.50895
1679993522784,1173511139000170,0.17400001,1.18605,12.295951
1679993522786,1173511141502324,-0.279,1.32105,12.174001
1679993522788,1173511144004401,-0.54495,1.26495,11.874001
1679993522791,1173511146506554,-0.85905004,1.3060501,11.503051
1679993522793,1173511149008708,-0.76005006,1.24905,11.086051
1679993522795,1173511151510862,-0.59805006,1.32105,10.573951
1679993522798,1173511154013016,-0.42495003,1.3279501,10.50195
1679993522801,1173511156514939,-0.33900002,1.074,10.456051
1679993522803,1173511159017031,-0.504,0.91095006,10.665001
1679993522805,1173511161519262,-0.60705,0.67605,10.686001
1679993522808,1173511164021416,-0.31305,0.342,10.897051
1679993522811,1173511166523484,-0.372,0.21000001,11.3880005
1679993522813,1173511169025407,-0.15900001,0.08805001,11.689951
1679993522816,1173511171527561,0.483,0.33,11.88405
1679993522821,1173511174029714,1.2070501,0.16995001,12.163951
1679993522823,1173511176531771,1.21695,0.15300001,12.796051
1679993522825,1173511179225002,1.212,0.117000006,12.645
1679993522827,1173511181536079,1.45605,0.14595,12.504001
1679993522828,1173511184038002,1.7839501,-0.00795,12.23295
1679993522832,1173511186540156,1.50195,-0.20400001,12.451051
1679993522834,1173511189042320,1.7200501,-0.28095,12.517951
1679993522836,1173511191544397,1.62195,-0.68100005,12.37005
1679993522838,1173511194046628,1.9350001,-0.36495003,11.91495
1679993522841,1173511196548704,2.2369502,-0.27405003,12.010951
1679993522843,1173511199050848,1.8730501,-0.49095002,11.464951
1679993522846,1173511201552771,1.65495,-0.62595004,11.560051
1679993522848,1173511204054925,1.107,-0.597,11.26095
1679993522852,1173511206557002,0.897,-0.61395,11.376
1679993522854,1173511209059185,0.231,-0.76905006,10.993051
1679993522857,1173511211561339,-0.363,-0.91305006,11.488951
1679993522860,1173511214063416,0.96300006,-0.32895002,11.491051
1679993522863,1173511216565339,0.25995,-0.26895002,9.474
1679993522864,1173511219067493,0.82995003,-0.07005,9.201
1679993522866,1173511221569647,0.82305,-0.35505003,9.37905
1679993522868,1173511224071723,0.59505004,-0.81495005,8.538
1679993522872,1173511226573877,0.88005006,-1.2030001,8.455951
1679993522873,1173511229076031,0.915,-1.5120001,8.59095
1679993522876,1173511231577930,1.48695,-1.5880501,8.50395
1679993522880,1173511234080084,1.30095,-2.1730502,8.48505
1679993522882,1173511236582238,1.116,-2.2710001,8.467951
1679993522884,1173511239084315,0.96495,-2.52705,8.6310005
1679993522886,1173511241586469,1.0639501,-2.46495,8.823
1679993522888,1173511244088623,1.473,-2.32095,9.052951
1679993522892,1173511246590776,1.8370501,-2.2060502,9.049951
1679993522896,1173511249092699,2.7900002,-2.4790502,8.868
1679993522897,1173511251594834,3.624,-2.7640502,8.904
1679993522900,1173511254096911,3.7909503,-3.04005,9.774
1679993522902,1173511256599065,3.111,-3.5040002,10.597951
1679993522904,1173511259101296,2.874,-3.48795,11.239051
1679993522906,1173511261603373,2.9629502,-3.1330502,11.673
1679993522909,1173511264105315,3.2620502,-3.0880501,11.74995
1679993522912,1173511266607469,3.3940501,-2.90595,11.433001
1679993522914,1173511269109623,3.6190503,-3.1519501,11.047951
1679993522916,1173511271611700,3.6070502,-3.14505,10.585951
1679993522919,1173511274113858,3.5400002,-3.15,10.20705
1679993522922,1173511276616012,3.42,-3.4969501,10.08495
1679993522924,1173511279118166,3.3600001,-3.4999502,9.943951
1679993522926,1173511281620089,3.2329502,-3.41805,9.901051
1679993522928,1173511284122243,3.2070003,-3.3060002,9.670951
1679993522934,1173511286624320,3.1879501,-3.52395,9.288
1679993522936,1173511289126474,2.9509501,-3.24795,9.307051
1679993522938,1173511291628628,3.0559502,-2.946,9.08205
1679993522940,1173511294130763,2.97705,-2.8890002,8.890051
1679993522944,1173511296632686,3.11595,-2.736,8.586
1679993522946,1173511299134763,2.97495,-2.63295,8.55195
1679993522947,1173511301636916,2.6440501,-2.70405,8.434951
1679993522949,1173511304139070,2.62995,-2.77605,8.418
1679993522952,1173511306641190,2.7930002,-2.67105,8.334001
1679993522953,1173511309143344,2.8890002,-2.59695,8.191051
1679993522956,1173511311645267,2.94105,-2.7210002,8.257951
1679993522958,1173511314147421,2.88105,-2.6209502,8.370001
1679993522962,1173511316649570,3.1279502,-2.4840002,8.622001
1679993522964,1173511319151647,3.2650502,-2.391,8.595
1679993522966,1173511321653801,3.15,-2.3070002,8.587951
1679993522971,1173511324155954,3.1930501,-2.39595,8.97105
1679993522972,1173511326658099,3.4609501,-2.3860502,9.13395
1679993522974,1173511329160022,3.21705,-3.2770503,8.871
1679993522977,1173511331662176,3.456,-3.279,7.86495
1679993522979,1173511334164253,3.3940501,-3.25095,7.7310004
1679993522982,1173511336666176,3.6739502,-3.2070003,7.9560003
1679993522984,1173511339168561,3.5710502,-3.555,7.77405
1679993522986,1173511341670715,3.6769502,-3.5329502,7.491
1679993522988,1173511344172638,3.7480502,-3.72495,7.2640505
1679993522992,1173511346674792,3.765,-3.8209503,7.1730003
1679993522993,1173511349176869,3.7480502,-3.8419502,7.3429503
1679993522996,1173511351679060,3.7840502,-3.732,7.8910503
1679993522998,1173511354181291,3.6649501,-3.7369502,8.175
1679993523001,1173511356683368,3.3120003,-3.3420002,8.51595
1679993523003,1173511359185291,3.1950002,-3.0660002,8.904
1679993523007,1173511361687421,3.1620002,-2.7550502,9.5460005
1679993523009,1173511364189575,3.11595,-2.4820502,10.189951
1679993523012,1173511366691652,3.2209501,-2.32395,10.629001
1679993523014,1173511369193883,2.4720001,-2.6539502,11.056951
1679993523016,1173511371695959,2.7810001,-2.163,11.2560005
1679993523019,1173511374198108,2.86695,-1.7230501,11.61795
1679993523022,1173511376700031,3.04905,-1.3060501,11.7949505
1679993523024,1173511379202185,2.8650002,-0.90105003,11.922001
1679993523026,1173511381704339,2.67105,-1.12905,11.74695
1679993523028,1173511384206493,2.7859502,-1.179,12.130051
1679993523032,1173511386708599,2.6539502,-0.95895004,11.805
1679993523034,1173511389210522,2.15805,-1.4610001,11.635051
1679993523036,1173511391712676,2.4019501,-1.2720001,11.3209505
1679993523038,1173511394214830,1.84905,-1.0180501,10.774951
1679993523041,1173511396716994,2.25405,-0.94395006,10.629001
1679993523045,1173511399219147,2.15595,-0.966,9.982051
1679993523047,1173511401721224,1.87995,-0.57795,9.462001
1679993523049,1173511404223147,1.8229501,-0.21405001,9.163051
1679993523052,1173511406725320,2.0020502,-0.49395,8.931001
1679993523053,1173511409227474,1.8709501,-0.62295,8.890051
1679993523056,1173511411729628,1.5090001,-0.52995,8.6980505
1679993523060,1173511414231782,1.248,-0.63795,9.022051
1679993523062,1173511416733864,1.6459501,0.43905002,8.59305
1679993523064,1173511419236018,1.6099501,1.04805,8.598001
1679993523066,1173511421738171,1.248,1.5600001,8.707951
1679993523068,1173511424240095,1.4059501,2.02905,9.12495
1679993523072,1173511426742171,0.86100006,1.09095,9.43395
1679993523073,1173511429244402,0.67395,1.0000501,9.534
1679993523076,1173511431746556,0.50100005,0.85800004,9.462001
1679993523078,1173511434248633,0.82005006,0.597,9.346951
1679993523083,1173511436750767,0.74100006,0.45405003,9.09795
1679993523085,1173511439252690,1.5109501,1.0159501,9.205951
1679993523087,1173511441754844,1.0680001,0.40995002,9.3
1679993523088,1173511444256998,0.52995,-0.324,9.450001
1679993523092,1173511446759152,0.91005003,-0.087000005,9.345
1679993523093,1173511449261219,1.3560001,-0.12495001,9.469951
1679993523096,1173511451763373,1.6789501,-0.08895,9.493951
1679993523100,1173511454265296,1.4610001,-0.30195,9.71895
1679993523102,1173511456767450,1.6650001,-0.30900002,9.807
1679993523104,1173511459269599,1.4989501,-0.597,9.967951
1679993523106,1173511461771753,1.72905,-0.32895002,10.143001
1679993523108,1173511464273830,1.9350001,-0.096,10.35795
1679993523112,1173511466775984,2.29695,0.31605002,10.32705
1679993523113,1173511469278138,2.058,0.40305,10.497001
1679993523116,1173511471780061,1.8610501,0.56805,10.641001
1679993523122,1173511474282214,1.69305,0.354,10.61205
1679993523124,1173511476784368,1.7080501,0.252,10.6380005
1679993523126,1173511479590772,1.7220001,0.0139500005,10.738951
1679993523127,1173511481788618,1.8319501,-0.26595002,10.771951
1679993523129,1173511484290772,2.05305,-0.36705002,10.629001
1679993523132,1173511486792695,1.605,-0.32595003,10.011001
1679993523135,1173511489294849,0.56895,-0.609,9.108001
1679993523137,1173511491797003,1.7719501,-1.7299501,9.361951
1679993523140,1173511494299157,4.3039503,-8.541,8.50695
1679993523142,1173511496801310,4.1509504,-7.7749505,9.41205
1679993523144,1173511499303372,4.6870503,-7.48995,9.160951
1679993523147,1173511501805526,4.8190503,-6.366,9.33495
1679993523149,1173511504307449,5.75295,-5.3149505,9.240001
1679993523152,1173511506809603,5.88,-3.8590503,9.4480505
1679993523153,1173511509311757,5.9020505,-2.8600502,9.711
1679993523158,1173511511813911,4.80495,-2.14395,9.786
1679993523159,1173511514315988,4.6579504,-0.92505,10.38195
1679993523162,1173511516818142,3.9019501,-0.50505,10.5709505
1679993523164,1173511519320065,3.9810002,-0.02205,10.65495
1679993523166,1173511521822219,3.8800502,0.64500004,11.509951
1679993523168,1173511524324569,4.17,1.09095,11.6320505
1679993523172,1173511526826492,4.263,1.491,11.413951
1679993523174,1173511529328569,4.1389503,1.58895,11.148001
1679993523176,1173511531830723,3.6000001,1.55505,10.684051
1679993523179,1173511534332891,3.183,0.99495006,9.976951
1679993523182,1173511536834814,2.1750002,0.50100005,9.502951
1679993523183,1173511539336968,1.8559501,0.55905,9.24195
1679993523186,1173511541839122,1.58595,0.246,9.181951
1679993523188,1173511544341276,1.29795,-0.26205,9.1369505
1679993523191,1173511546843424,1.23405,-0.34800002,9.36705
1679993523195,1173511549345501,1.41795,-0.324,9.229951
1679993523197,1173511551847424,1.6500001,-0.60195005,9.205951
1679993523199,1173511554349578,1.9470001,-0.432,8.988001
1679993523202,1173511556851973,2.1990001,-0.64005005,8.866051
1679993523204,1173511559353896,2.3140502,-0.40995002,8.65305
1679993523207,1173511561856050,2.2470002,-0.52305,8.694
1679993523209,1173511564358127,2.4169502,-0.56805,8.713051
1679993523212,1173511566860281,2.4139502,-0.26205,8.746051
1679993523214,1173511569362190,2.2039502,-0.55395,8.63805
1679993523216,1173511571864344,2.1769502,-0.66405004,8.52105
1679993523220,1173511574366728,1.9740001,-0.67395,8.44905
1679993523223,1173511576868651,1.6000501,-0.64500004,8.334001
1679993523224,1173511579370727,1.3990501,-0.81495005,8.158951
1679993523226,1173511581872881,1.2739501,-0.80295,8.217
1679993523229,1173511584375035,1.0849501,-0.76695,8.215051
1679993523234,1173511586876944,0.86805004,-0.975,8.2890005
1679993523244,1173511589379329,0.915,-1.0030501,8.36295
1679993523244,1173511591881252,0.90405005,-0.94395006,8.59095
1679993523245,1173511594383406,0.59805006,-0.87000006,8.811001
1679993523245,1173511596885482,0.87495005,-0.70905006,9.031051
1679993523245,1173511599387622,1.404,-0.28305,9.07695
1679993523246,1173511601889545,1.4950501,-0.23505001,9.40695
1679993523248,1173511604391930,1.485,-0.015000001,9.517051
1679993523252,1173511606893853,1.8709501,-0.29295,9.58695
1679993523253,1173511609395930,2.019,-0.072000004,9.474
1679993523256,1173511611898103,1.9519501,-0.432,9.220051
1679993523259,1173511614400334,1.725,-0.91800004,9.402
1679993523262,1173511616902411,1.626,-1.2270001,9.496051
1679993523264,1173511619404564,1.69095,-1.332,9.592051
1679993523266,1173511621906502,2.295,-1.7230501,9.915001
1679993523270,1173511624408655,2.628,-2.39295,9.946051
1679993523273,1173511626910732,3.9520502,-4.05795,8.73705
1679993523275,1173511629412891,4.84095,-5.45895,6.9040504
1679993523276,1173511631915045,3.9780002,-5.9280005,8.03505
1679993523279,1173511634417199,1.7509501,-6.5170503,9.12705
1679993523282,1173511636919353,0.53505003,-6.69495,9.831
1679993523284,1173511639421276,0.23295002,-6.675,10.063951
1679993523286,1173511641923415,0.16605,-6.201,10.035001
1679993523288,1173511644425492,0.39195,-5.99805,10.288951
1679993523292,1173511646927722,0.85605,-5.67,10.047001
1679993523293,1173511649429799,1.2889501,-4.00995,10.38405
1679993523297,1173511651931934,2.5770001,-4.3450503,10.65705
1679993523300,1173511654433857,2.802,-2.77605,10.416
1679993523302,1173511656936011,3.0949502,-1.69095,10.720051
1679993523305,1173511659438088,3.1930501,-1.11705,10.561951
1679993523308,1173511661940228,2.63205,-0.92295,10.897051
1679993523309,1173511664442459,3.4249501,-0.906,10.714951
1679993523313,1173511666944536,2.5890002,-0.18300001,10.582951
1679993523314,1173511669446459,2.39295,-0.20205002,11.00205
1679993523316,1173511671948613,2.055,0.03795,11.017051
1679993523319,1173511674450761,1.5640501,-0.17505,11.06505
1679993523322,1173511676952838,1.7700001,0.246,11.206051
1679993523324,1173511679455069,1.53795,-0.15405001,11.251051
1679993523326,1173511681957146,1.42005,-0.20205002,11.950951
1679993523329,1173511684459300,1.3050001,-0.27105,12.127951
1679993523332,1173511686961223,1.5259501,0.09,12.229051
1679993523334,1173511689463377,1.3800001,-0.44400004,11.677951
1679993523336,1173511691965454,1.725,-0.36,10.911
1679993523340,1173511694467627,1.761,-0.37905002,9.87405
1679993523342,1173511696969780,1.7869501,-0.95400006,9.541051
1679993523346,1173511699471934,1.48695,-0.70500004,8.872951
1679993523347,1173511701974088,1.8199501,-0.62595004,8.62395
1679993523349,1173511704476011,1.7170501,-0.70905006,7.9609504
1679993523352,1173511706978074,1.8829501,-0.28995,7.5870004
1679993523354,1173511709480228,1.6309501,-0.52005005,7.5010505
1679993523356,1173511711982459,1.332,-1.4280001,8.17395
1679993523359,1173511714484536,1.21395,-1.3440001,8.545051
1679993523362,1173511716986694,1.09905,-1.38495,8.646001
1679993523364,1173511719488617,1.44,-0.93705004,9.08895
1679993523366,1173511721990770,1.09905,-1.19295,9.786
1679993523369,1173511724492847,1.176,-1.21695,9.658951
1679993523372,1173511726995054,0.66495,-1.1719501,10.132951
1679993523374,1173511729497131,0.89505005,-0.76695,10.392
1679993523376,1173511731999285,0.78000003,-0.59895,10.60995
